time,seconds_elapsed,z,y,x
1789741084141995500,0.06399560546875,-0.12538812864422796,0.12172200735211372,-0.4463918779669329
1789741084152073700,0.07407373046875,-0.2765682856708765,0.0429039067029953,-0.3561439632216468
1789741084162150700,0.084150634765625,-0.4130383648216724,0.03560848899781704,-0.2845848024585284
1789741084172228600,0.094228515625,-0.439721789085865,0.06864215907156467,-0.26855788809675724
1789741084182305500,0.104305419921875,-0.43015082766413687,0.062218848025798794,-0.26314377235984426
1789741084192383500,0.114383544921875,-0.2989841156184673,0.05894494092166423,-0.25307797662587833
1789741084202460400,0.12446044921875,-0.1839326720714569,0.06587094079256058,-0.29620190102141347
1789741084212538400,0.134538330078125,-0.1785299362450838,0.0980722516953945,-0.37256906485445795
1789741084222616300,0.1446162109375,-0.10458382554650306,-0.0007838438540697097,-0.5174461762141436
1789741084232693500,0.154693603515625,-0.13975801478028296,-0.10454992327690124,-0.658314051932469
1789741084242771700,0.164771728515625,-0.23703064053058623,-0.06292962664365769,-0.6441485292620956
1789741084252848600,0.1748486328125,-0.3002297317653894,0.03321136472821235,-0.49586602990571405
1789741084262926600,0.184926513671875,-0.30497721855342386,0.1086298860669136,-0.36345607633329924
1789741084273003500,0.19500341796875,-0.3349608534067869,0.12503273933529854,-0.3013500044995919
1789741084283081500,0.20508154296875,-0.28299276576042176,0.026345570611953733,-0.31480631945468485
1789741084293158700,0.21515869140625,-0.20166297455132007,-0.1625526149123907,-0.3865132363917306
1789741084303236600,0.225236572265625,-0.28677929856181145,-0.3175011845618486,-0.4231092020569369
1789741084313313500,0.2353134765625,-0.45673371416330333,-0.2813561044692993,-0.28249183050096033
1789741084323391500,0.2453916015625,-0.3676736209630966,-0.22373276754021643,-0.0986861275437288
1789741084333468400,0.255468505859375,0.05218260717988014,-0.10648761334121226,0.003835322112869471
1789741084343546600,0.265546630859375,0.3741933781206608,-0.21490999413728712,0.035078364176489414
1789741084353623600,0.27562353515625,0.35164603074789047,-0.6340192033052444,0.022079159038863143
1789741084363701500,0.285701416015625,0.1911129389643669,-0.711572398585081,0.02739751821714453
1789741084373778700,0.29577880859375,-0.062468438872694966,-0.537468462088704,0.12111747472085989
1789741084383856600,0.305856689453125,-0.028113164806365967,-0.2806973482996225,-0.04780463412425015
1789741084393933600,0.31593359375,-0.022231705552339553,0.09483867660164833,-0.11677303404207341
1789741084404011500,0.326011474609375,-0.2190682828605175,0.05764671780467033,0.18645861035250128
1789741084414088400,0.33608837890625,-0.6779039377391338,0.024229016849398613,0.3338995808508247
1789741084424166400,0.34616650390625,-0.904289265614748,0.03625613925158977,0.35924667847733943
1789741084434243300,0.356243408203125,-0.8569546829879283,0.03823942202329635,0.5397000935982913
1789741084444321500,0.366321533203125,-0.5081774856746196,0.0007499415844678879,0.6124298873096704
1789741084454399500,0.3763994140625,-0.1847387277573347,-0.07711363481879234,0.56210689998921
1789741084464476700,0.3864765625,0.10019406615495681,-0.11753332349061965,0.6572228226296604
1789741084474554600,0.3965546875,0.35724925758242604,-0.11185177072286605,0.6507128562137484
1789741084484631600,0.406631591796875,0.5440589463949204,0.03663490943610668,0.19748561580143867
1789741084494709500,0.41670947265625,0.5468471158087254,0.27977263467013835,-0.27049740479197354
1789741084504786400,0.426786376953125,0.5666998172700405,0.41557343625724313,-0.4487057443998754
1789741084514864400,0.436864501953125,0.4192454027682543,0.5113946941554546,-0.37362493058294055
1789741084524941600,0.446941650390625,0.2309317391335964,0.5451759677261114,-0.061973860288783905
1789741084535019500,0.45701953125,0.12934066566228866,0.5138011707752943,0.2331190931100398
1789741084545096700,0.4670966796875,0.3216232329279184,0.5521849697053433,0.18371172279715536
1789741084555174700,0.477174560546875,2.135491687259078,0.7321954998970032,-0.6287940890680999
1789741084565251800,0.487251953125,1.983456374707818,0.6951508406162261,0.059350452982634305
1789741084575329800,0.497329833984375,0.26797289128303525,0.35644612450599666,0.988573011258617
1789741084585406700,0.50740673828125,-0.6200742645829915,-0.14749357746839523,1.286967855747044
1789741084595484700,0.517484619140625,-0.021564181554317472,-0.4633031556814909,1.0362461781900376
1789741084605561900,0.527561767578125,1.4459879126191137,-0.5268272410869598,0.2965606878638267
1789741084615639800,0.537639892578125,3.4113089111775157,-0.28631285009384155,-0.5761126655206084
1789741084625716700,0.547716796875,1.3089502627134322,0.2151250981926918,1.5691810154370962
1789741084635795000,0.557794921875,0.2636065127670765,-0.37817280314564705,1.6226633070386944
1789741084645873000,0.567872802734375,0.32810499616265293,-0.8658622120648622,0.8471730014249682
1789741084655949800,0.57794970703125,0.45762569456696506,-0.7486041983842849,0.48775341406613587
1789741084666027800,0.58802783203125,0.4137666790962219,-0.5004530289024114,0.15474603281468152
1789741084676104700,0.598104736328125,0.20281915884912013,-0.47912967036664483,0.05767609002962708
1789741084686182700,0.6081826171875,-0.1646703377187252,-0.5997387480407953,0.13035524953231215
1789741084696259800,0.618259765625,-0.6088286479473114,-0.5788572880536318,-0.02150704453960061
1789741084706337800,0.628337890625,-0.9308291897550225,-0.4574596903502941,0.0152637662358582
1789741084716414700,0.638414794921875,-1.1008882347747684,-0.32310207330882545,0.03286649681329727
1789741084726493000,0.648492919921875,-1.1625856892749666,-0.12574468699693678,-0.18427111024558543
1789741084736569900,0.65856982421875,-1.0004065838500857,0.06446750373542308,-0.6304661869987845
1789741084746647800,0.668647705078125,-0.7591700160622596,0.326032866063714,-0.9583642624124884
1789741084756724700,0.678724853515625,-0.510263644298911,0.4277659783542156,-1.2517451511964202
1789741084766802700,0.688802734375,-0.3901560864061117,0.5343441925883293,-1.440392869091034
1789741084776879900,0.6988798828125,-0.2470744801610708,0.8562620245486497,-1.4840382418110967
1789741084786957800,0.708957763671875,-0.12926876946985721,1.0379612384796142,-1.6340484782755373
1789741084797034800,0.71903466796875,-0.08250234211981296,1.033748589220643,-1.9576617159768939
1789741084807112700,0.72911279296875,-0.14230974508970975,1.0924117905914783,-2.2717206511303782
1789741084817189600,0.739189697265625,-1.534062501913309,0.3789765207439661,-2.2542820250734685
1789741084827267800,0.749267822265625,-0.7418085468947887,1.0717840131044387,-1.8759902717232704
1789741084837344800,0.7593447265625,-0.041326282122731206,0.8377934709221124,-1.4923875524833798
1789741084847422700,0.769422607421875,-0.2604652921319008,-0.06127250708639621,-0.5799462523341179
1789741084857500000,0.7795,-0.011993804654479027,-0.16129706189334392,-0.5699816154196858
1789741084867577900,0.789577880859375,0.021756196995079517,-0.05823240873813629,-0.5401441110387444
1789741084877655800,0.79965576171875,-0.07486790171861649,-0.024876667103171348,-0.442838167540729
1789741084887732700,0.809732666015625,-0.03342354617416859,-0.05824409917593002,-0.2437427053898573
1789741084897810700,0.819810791015625,0.2662584885805845,-0.22125205664038658,0.443815488140285
1789741084907887600,0.8298876953125,0.6112748720556497,-0.17637714212536812,1.1164379783451557
1789741084917965800,0.8399658203125,0.6114543202757835,-0.19664368508458135,1.5007912236914038
1789741084928043000,0.85004296875,-0.0032850130200386047,-0.23409283351302146,0.34455081178992986
1789741084938121000,0.860120849609375,-0.5886544594466686,0.37788404933214187,-0.6941133142620325
1789741084948198000,0.870197998046875,-0.6832815391242504,0.28412849179208277,0.17578589823395013
1789741084958275800,0.88027587890625,-0.4702493215575814,-0.5232955598294735,0.6204582954645157
1789741084968352800,0.890352783203125,-0.2396983984351158,-0.8100415406435728,0.7966489751070738
1789741084978430700,0.9004306640625,-0.5108487507104873,-0.5733621977686881,0.7329068630367517
1789741084988507600,0.910507568359375,-0.6828343798786402,-0.23301380610466002,0.4644076097920537
1789741084998585600,0.920585693359375,-0.47887598786652086,0.038521746096014976,0.22259119628965854
1789741085008662800,0.930662841796875,0.08622925368845462,-0.12878712343275547,0.580787087072432
1789741085018741000,0.940740966796875,0.7631655154392123,-0.560346648851037,1.1009680220127105
1789741085028818000,0.95081787109375,0.8208049267202615,-0.5458510905086994,1.4344117488548158
1789741085038895900,0.960895751953125,0.4373576903030276,0.21652561264038084,0.8502709674403071
1789741085048972800,0.970972900390625,-0.4003641766875982,1.225911329498887,-0.7218886254161596
1789741085059050800,0.98105078125,-0.6939888110995293,2.1050497872442007,-0.9004466187119483
1789741085069127700,0.991127685546875,-0.8259761918783187,2.1681372347980736,-0.265338158865273
1789741085079205600,1.00120556640625,-0.7512386385411024,2.7276076853364706,0.8968003711640834
1789741085089283600,1.01128369140625,-0.6728358406946062,2.1455612458527087,0.2218456386193633
1789741085099360800,1.02136083984375,-1.6152584376096724,2.499846392932534,1.8644079704791305
1789741085109438700,1.031438720703125,-3.2534950152248143,2.6948838118642566,2.3487205964416265
1789741085119515600,1.041515625,-2.7993063093692063,2.4500351910591123,0.8306000522866844
1789741085129593900,1.05159375,-2.8589097141996023,2.931955368927121,1.7693009983301162
1789741085139670800,1.0616708984375,-2.6509876792535185,2.3771768755972382,1.4042775996148587
1789741085149748700,1.071748779296875,-2.594620187604427,2.2552689902842045,1.480752936530113
1789741085159826000,1.081825927734375,-2.5958558668792246,2.002750273242593,1.418446994742751
1789741085169903900,1.09190380859375,-2.622623462295532,1.2983861986011267,1.0284151192381978
1789741085179980800,1.101980712890625,-2.367928862519562,0.6699170306384563,0.7774976999133825
1789741085190058800,1.112058837890625,-2.3676786871507765,-0.048719314983487125,0.822152541936934
1789741085200135700,1.1221357421875,-2.0178253850385546,-0.6400742655605077,0.5850561426937579
1789741085210213600,1.132213623046875,-1.4462173374608158,-1.2191986801177264,0.407087931984663
1789741085220290600,1.14229052734375,-1.10697456895113,-1.9947715494483709,0.8685442907556891
1789741085230368800,1.15236865234375,-0.4093813036188483,-2.884207529324293,0.6845645646721125
1789741085240446000,1.162446044921875,0.14008403186425566,-3.4806022276341912,-0.20934213087707756
1789741085250524000,1.17252392578125,-1.3009607252642512,-3.803168878892064,0.1613558063432574
1789741085260600800,1.182600830078125,-1.153952008703351,-4.366037155175209,0.21627251466214656
1789741085270678800,1.1926787109375,-0.7590189171537757,-4.352677322864532,-0.3272165228903293
1789741085280755700,1.202755615234375,-0.2869201683372259,-4.43401412833631,-0.18769640851914882
1789741085290833700,1.212833740234375,0.3953806891866028,-4.374544871279597,0.12183160520642995
1789741085300911600,1.22291162109375,0.762364135928452,-3.839163152337074,0.47772827913612126
1789741085310988500,1.232988525390625,0.9833721546798944,-3.190378341576457,0.5371762011438608
1789741085321066800,1.243066650390625,0.8951122719466685,-2.4407921464174986,0.4427238935112953
1789741085331144000,1.25314404296875,0.7539285352122038,-1.9872838240414856,0.24993308446258305
1789741085341222000,1.263221923828125,0.12229359669499099,-1.803192162016034,-0.02918576247394085
1789741085351298800,1.273298828125,-0.3340501683026552,-1.2248130128681658,-0.36967195517346263
1789741085361376800,1.283376708984375,0.00790211489405483,-1.1713456265747546,-0.7297741179689765
1789741085371453700,1.29345361328125,0.971328665664792,-1.240665246516466,-1.2910371510125696
1789741085381531600,1.30353173828125,1.3936661892294884,-1.06818218922019,-1.5692011814422904
1789741085391608800,1.31360888671875,1.2201292389661074,-0.950296983551979,-1.738527820534259
1789741085401686800,1.323686767578125,1.1751245605915783,-0.9731640643984079,-1.8323396383062005
1789741085411763700,1.333763671875,1.205791501533985,-1.1272177310347555,-1.9291350019335745
1789741085421842000,1.343842041015625,1.3425053263127804,-1.147429913458228,-1.850247197049111
1789741085431918800,1.3539189453125,1.310817225629091,-0.7830535804748535,-1.5926551222659646
1789741085441996800,1.363996826171875,1.5384791493117809,-0.45849780122637745,-1.1978976795442402
1789741085452073700,1.37407373046875,1.9564625693202018,-0.059466334447264665,-0.9486515544325113
1789741085462151700,1.384151611328125,1.95678288731575,0.20626433086693285,-0.62997321585007
1789741085472228900,1.394228759765625,1.9407073663055896,0.26899755815565585,-0.48349692566543817
1789741085482306800,1.404306884765625,1.9894775346934794,0.6336334188580512,-0.45884997566491365
1789741085492383700,1.4143837890625,1.828324849706888,0.7172317395210266,-0.5234892557706684
1789741085502461700,1.424461669921875,1.984269444656372,0.8172060254454612,-0.672354340787977
1789741085512540000,1.434539794921875,1.6939561267495153,1.1911650102883578,-0.7860085578229278
1789741085522616800,1.444616943359375,1.0508592984974383,1.168121988353133,-0.8074518164113164
1789741085532694800,1.45469482421875,1.2855237944185733,1.0769430033028125,-0.7635902436573058
1789741085542771700,1.464771728515625,1.7070833193480968,1.0544605378597973,-0.8299537902723997
1789741085552849700,1.474849609375,1.8857658158063888,0.9840338334590196,-0.8557799401201307
1789741085562926300,1.48492626953125,1.9922586898446082,1.1490759270995854,-1.1294526504799722
1789741085573004300,1.49500439453125,1.215362389890477,1.3038771972328425,-1.1460127401366829
1789741085583081200,1.505081298828125,0.5584603967130184,1.1453186203926802,-0.9865971811410039
1789741085593159200,1.5151591796875,0.6056464377146213,0.8879980560272932,-0.7578815106216817
1789741085603236000,1.525236083984375,0.6445137093126774,0.5977887830168008,-0.47998051504231987
1789741085613314000,1.53531396484375,0.475989107318595,0.3354360697031021,-0.12393902581445872
1789741085623391200,1.54539111328125,0.7180116378523409,0.22810557579696178,0.07130487547479569
1789741085633469200,1.55546923828125,0.7607002943694591,0.520084781089425,-0.05148578402213752
1789741085643546000,1.565546142578125,0.2837725910264999,0.8696756328731775,0.011051190042123198
1789741085653624300,1.575624267578125,-0.17721063380744306,0.9512316340535879,0.041665231753513214
1789741085663701200,1.585701171875,-0.25586506832744926,1.0373410607546567,-0.13243680504672228
1789741085673779200,1.595779296875,-0.5294926243713125,1.012416462856531,-0.17904723811745643
1789741085683856100,1.605856201171875,-0.5679156228005886,0.6977157226681708,-0.12596607466265558
1789741085693934000,1.61593408203125,-0.5994727905809879,0.5313426726847886,-0.13958426564857362
1789741085704011300,1.62601123046875,-0.22938746883366257,0.43721477470099923,-0.09597922493889928
1789741085714089200,1.636089111328125,0.15978369818832724,0.533621139010787,-0.23036511822678146
1789741085724166100,1.646166259765625,0.026465945588611064,0.834474555632472,-0.3393494437545538
1789741085734244000,1.656244140625,-0.8078910846114158,2.260616781052947,-0.21123247466832398
1789741085744322300,1.666322265625,-2.2601146767497062,0.7632277670204639,-1.2485527848958968
1789741085754399200,1.676399169921875,-1.1059808817386627,1.4093074104756116,-0.00032565175779163835
1789741085764477200,1.686477294921875,0.2364964240560308,0.8141063058644533,0.043369770649075504
1789741085774554400,1.696554443359375,1.0146329698622225,0.2832996397525072,0.29608006474003196
1789741085784632300,1.70663232421875,0.7343033588964492,0.4404670544952154,0.1045003850467503
1789741085794709200,1.716709228515625,0.6077192254006862,0.2144236719250679,0.15611381403654812
1789741085804787200,1.726787109375,0.9137713797092437,0.12497779427766799,0.20150917222909628
1789741085814864100,1.736864013671875,0.8641407950997352,0.16963877378106115,-0.028254984429851172
1789741085824942000,1.746942138671875,0.6267150177717209,0.21672610364854333,-0.2261365042136982
1789741085835019000,1.75701904296875,0.5186288831926882,0.22854630530178546,-0.4432843038730323
1789741085845097200,1.76709716796875,0.8626724761128425,0.13736264407634735,-0.40996440073642876
1789741085855174400,1.77717431640625,1.0402525642871856,0.00265256033539772,-0.3292470788698643
1789741085865252400,1.78725244140625,0.9274830211322754,-0.08559563196003436,-0.08455938424747436
1789741085875329300,1.797329345703125,0.949326604149863,0.042055180919170376,-0.051423422843031585
1789741085885407200,1.8074072265625,0.7425275088191032,0.2517103232681751,-0.08547273623272776
1789741085895484200,1.817484130859375,0.16192893005609513,0.33332419211566444,-0.01848097471669316
1789741085905562000,1.82756201171875,0.23513094438910484,0.30083880357444287,-0.029441235072351992
1789741085915639000,1.83763916015625,0.07875599519833922,0.8500485568612813,0.1190100449796766
1789741085925717000,1.847717041015625,-1.2192974643170833,0.2579027481675148,-0.31367347949985414
1789741085935794200,1.857794189453125,0.07272036829590797,0.606281886073947,-0.258499618082121
1789741085945872400,1.867872314453125,0.5248036263048649,0.44922260788083074,-0.1781079479733482
1789741085955949300,1.87794921875,0.05581135560367256,0.2680968099236488,-0.21685827866084872
1789741085966027300,1.88802734375,-0.14784195251464843,0.6184978090465069,-0.07168580108378082
1789741085976104200,1.898104248046875,-0.35049101549386974,0.48705870980024335,-0.028081381428614258
1789741085986182100,1.90818212890625,-0.40904140413999557,0.3897901757031679,0.12064045919310301
1789741085996260000,1.918260009765625,-0.159503237279132,0.2537199095249176,0.22301665516011415
1789741086006337300,1.928337158203125,-0.006634323447942733,0.010296353086829186,0.16034279337581245
1789741086016415200,1.938415283203125,-0.10377134011983871,-0.1686795733600855,0.24877211439181118
1789741086026492200,1.9484921875,0.3585165375718847,-0.5068617269009351,0.06848327871542424
1789741086036570400,1.9585703125,0.5323743538200855,-0.48774552302062507,0.12434424561448394
1789741086046647300,1.968647216796875,0.42848260219097134,-0.5537269384503364,0.20726959891933947
1789741086056725200,1.978725341796875,0.30962705365326254,-0.3667506608992815,0.0580745147626847
1789741086066802200,1.98880224609375,-0.12810151578877121,-0.05286182161569595,-0.0370536097722128
1789741086076880100,1.998880126953125,-0.2412532266616821,-0.05845101992487907,-0.1557712111439556
1789741086086957300,2.008957275390625,-0.004015610583219677,0.022122399958968163,-0.1374062274897471
1789741086097035300,2.01903515625,0.13307112089488654,0.19776772067844867,0.009434292897395788
1789741086107112200,2.0291123046875,0.0481552604930941,0.9253846606135367,0.1652908077046275
1789741086117190100,2.039190185546875,-0.09416998355984688,0.7841822922438383,0.26631270298585297
1789741086127267000,2.04926708984375,-0.17749591702222822,0.9574702361822127,0.002877783926017582
1789741086137345000,2.059344970703125,-0.6016682547986507,0.9665905312269926,-0.21942780035529286
1789741086147422000,2.069421875,-0.26185062727676706,0.8772674031764268,-0.3345739364484325
1789741086157500200,2.079500244140625,-0.10834405486285686,0.9011398616731167,-0.3375811189077794
1789741086167577300,2.089577392578125,-0.2774433149397373,0.75795713314116,-0.2011698572721332
1789741086177655300,2.0996552734375,-0.03017126637995243,0.4892611882805824,-0.24383447532653807
1789741086187732200,2.109732177734375,-0.13640757184121757,0.3263204508334398,-0.21434655156824736
1789741086197810200,2.11981005859375,-0.19907061997056005,-0.1070703816652298,-0.1134014113176614
1789741086207887000,2.12988720703125,0.3634685339560732,-0.2509165425419807,-0.11597506119795142
1789741086217965000,2.139965087890625,0.6137929923564195,-0.3159253135472536,0.1809035335086286
1789741086228043000,2.15004296875,0.9620557373415678,-0.5108931743741035,0.3367633362514898
1789741086238120200,2.1601201171875,0.8046136703759431,-0.44383273153603076,-0.09048793404623866
1789741086248198100,2.1701982421875,0.08481171504072844,-0.13848492610454557,-0.4321633365303278
1789741086258275300,2.180275390625,-0.032793431577086446,0.032794016098976135,-0.8478732586488127
1789741086268353300,2.190353271484375,0.24363975647203623,0.14876549710035322,-0.7307382137607783
1789741086278430200,2.20043017578125,0.29469072927348317,0.11788345210254192,-0.5502537824470549
1789741086288508200,2.210508056640625,-0.13275135088860987,0.14585925426483154,-0.5542897599648684
1789741086298585000,2.220585205078125,-0.5367810643464327,0.1481611014664173,-0.2800687680725008
1789741086308663000,2.2306630859375,-0.4634464366097003,-0.1023778399348259,0.11278894197512418
1789741086318740200,2.240740234375,-0.18521927781589329,-0.38661154566705225,0.17150792865380643
1789741086328818200,2.250818115234375,0.10078092613220214,0.39433541791737076,0.5846505575675517
1789741086338895000,2.26089501953125,-0.24859431013949215,3.973521938422322,0.25353472568374125
1789741086348973300,2.270973388671875,-1.3848428313046692,0.5368658200204373,-1.5144855486534534
1789741086359050200,2.28105029296875,-1.1645410611264406,1.280388185095787,-0.07288772421944886
1789741086369128200,2.291128173828125,-0.7200484043769538,0.8258627946317195,0.29380791855696586
1789741086379205000,2.301205078125,-0.3815332194894552,0.23211013526320456,0.18471070723924785
1789741086389283000,2.311282958984375,1.2720055566757917,0.0838642781227827,0.3096658878263086
1789741086399360300,2.3213603515625,1.489167713654041,-0.476934206148982,-0.28511454368736594
1789741086409438200,2.331438232421875,0.8405851474672555,-0.6135989310890436,-0.10390128664243965
1789741086419515100,2.34151513671875,0.5941472116440534,-0.6230179168194532,0.09504377071969211
1789741086429593000,2.351593017578125,1.108595886542648,-0.6120253981620073,0.2112832550074905
1789741086439671300,2.36167138671875,-0.1459171219319105,-0.6775730983495711,0.07141567890550941
1789741086449748200,2.371748291015625,0.0675210460871458,-0.3093400899380445,0.31240780694559217
1789741086459826200,2.381826171875,0.27152210819721223,-0.5555488931804895,0.17137213691230863
1789741086469903000,2.391903076171875,0.02393675590455532,-0.5968015255451202,-0.2254012487417087
1789741086479981300,2.401981201171875,-0.15087854373157022,-0.8139356254726647,-0.29258564675301313
1789741086490058200,2.412058349609375,-0.03726619307696819,-0.8182692707628011,0.08298285564575344
1789741086500136200,2.42213623046875,-0.06114493518397212,-0.8876970272541046,0.10981350636091082
1789741086510213000,2.432213134765625,-0.20954525223374365,-0.5455377867758274,0.4283983945062384
1789741086520291000,2.442291015625,-0.1874531012825668,-0.47304538201689716,0.15107019384615122
1789741086530368000,2.452367919921875,-0.22850991881415247,0.7133616200894117,-0.21945596700385211
1789741086540446200,2.4624462890625,0.05086217223107815,1.265656479910016,-0.7920669080138206
1789741086550523400,2.4725234375,0.04371098530218005,1.6243091745495795,-0.8786877913683653
1789741086560601300,2.482601318359375,0.2916033577173948,1.3515478799462317,-0.7570572616919875
1789741086570678300,2.49267822265625,0.6029132864236831,1.4242337614506482,-0.8476575700715183
1789741086580756200,2.502756103515625,-0.06429331621229648,1.368897658675909,-0.5807677978500724
1789741086590833200,2.512833251953125,-0.7540181862570345,0.9163450295895338,-0.3513399604734033
1789741086600911400,2.522911376953125,-0.4486090060271323,0.42336277495920654,0.16448990311790257
1789741086610988300,2.53298828125,-0.26964301645234223,-0.3143032653033733,-0.09918298941627145
1789741086621066200,2.543066162109375,0.02256006072387099,-1.4632400761932134,-0.1909481768567115
1789741086631143400,2.553143310546875,0.7108281560890376,-1.3266858258903025,0.18251805603317917
1789741086641221400,2.563221435546875,-0.05194646033644676,-1.6717676758170128,-0.23713695044927297
1789741086651299300,2.57329931640625,0.6386281584054231,-1.248183367061615,0.5796805871352553
1789741086661376300,2.583376220703125,1.283558631825447,-2.390107668840885,0.2719123496238142
1789741086671454200,2.5934541015625,1.5839910465560854,-2.865785152927041,-1.0259607118234038
1789741086681531100,2.60353125,1.2475205192387104,-3.2826948062241077,-0.6453701800115406
1789741086691609300,2.613609375,0.44146307979524135,-4.120306490838527,0.08872724451664835
1789741086701686300,2.623686279296875,-0.04610109530910849,-2.668019770336151,0.34217115011177957
1789741086711764200,2.63376416015625,-1.512697788453847,-0.14396715690791606,-0.3611935016961768
1789741086721841400,2.64384130859375,-3.036259208488464,1.7228952209860084,-0.8231120346188545
1789741086731919400,2.65391943359375,-2.867836240237951,2.7548013972103593,-0.16677202270571143
1789741086741996300,2.663996337890625,-2.574705526822805,2.1481261279046535,-0.34135749564133583
1789741086752074200,2.67407421875,-1.3426124399490653,0.8366331949710846,-0.1411373403094709
1789741086762151200,2.684151123046875,-0.6380589802153408,0.27993162462413307,0.05194978480469435
1789741086772229000,2.69422900390625,-0.39894203492999075,0.03802314892411232,-0.16309421097580343
1789741086782306300,2.704306396484375,0.23456512719988823,0.1339841075539589,-0.2678613389336504
1789741086792384500,2.714384521484375,0.7837158437758683,-0.23815935229957103,-0.11842228995328768
1789741086802461400,2.72446142578125,2.8777643445342775,-0.19009002565741537,-0.2865396993859671
1789741086812539400,2.734539306640625,3.2964737407296894,1.5534890869170426,-2.076635301403701
1789741086822616300,2.7446162109375,-0.5131431452579795,2.7797195653676985,-0.2554180734786205
1789741086832694300,2.7546943359375,-0.5898030449599028,2.989633066391945,-0.010306326491571963
1789741086842771200,2.764771240234375,0.8455575290523469,4.006308940258622,-0.2784106986671686
1789741086852849200,2.77484912109375,-1.230824966634065,2.193269922488928,-0.5795408864036202
1789741086862927000,2.784927001953125,-0.09217164934948086,1.3537988737434148,0.9202679021216928
1789741086873004300,2.79500439453125,-0.26644378201961516,0.3825789291501045,0.21724304019473492
1789741086883082500,2.80508251953125,-0.30994580074623224,-0.25130291151106354,-0.1383886900553014
1789741086893159400,2.815159423828125,-0.44272988486066456,-0.3771200792223215,-0.1048957867056597
1789741086903237400,2.8252373046875,-0.31044600535333156,-0.29325404753386974,0.09956084628533571
1789741086913314300,2.835314208984375,-0.2142968306750059,-0.15334405706226825,0.1480229899036698
1789741086923392300,2.845392333984375,0.10370397397205233,0.008925064733624458,0.18730563736958428
1789741086933469200,2.85546923828125,0.03709317459762096,0.13605039243400097,0.23545151811297982
1789741086943547100,2.865547119140625,0.019826251845806837,0.14967559768259525,0.16325586781091986
1789741086953624300,2.875624267578125,0.023740794941037893,0.12622516399025915,0.30019082452710716
1789741086963702300,2.885702392578125,-0.03140811469852924,0.03475567156076431,0.1368036767530255
1789741086973779200,2.895779296875,-0.14889306900277732,-0.01447802268564701,0.036134385168598966
1789741086983857400,2.905857421875,-0.15083002841472626,-0.05964636718928813,-0.010481281199678777
1789741086993934300,2.915934326171875,-0.12147767720222473,-0.055202831783890724,0.0188320988424588
1789741087004012300,2.92601220703125,-0.06747720694541931,-0.02231587670445442,-0.006947490183496848
1789741087014089500,2.93608935546875,0.030297961499541996,0.022864158236980438,0.014559399092476813
1789741087024167400,2.94616748046875,0.19239070381522178,0.05548749394416809,0.043153086557937786
1789741087034244400,2.956244384765625,0.15961013171970842,0.061167877668142315,0.1309592067748308
1789741087044322300,2.966322265625,0.05035334592610597,0.09805705412626266,0.2632909074792638
1789741087054399200,2.976399169921875,0.05875540969893336,0.050072483158111566,0.24062632693499325
1789741087064477200,2.986477294921875,-0.0073953709483146664,0.05864975736737251,-0.0008810297513846307
1789741087074554000,2.99655419921875,-0.08545607735887169,0.01813186901807785,0.06169779242691584
1789741087084632000,3.006632080078125,-0.22607743097022173,0.04236848465204238,0.02959208738566376
1789741087094710300,3.016710205078125,-0.6190852535456418,0.7505430574923754,0.5394312500616535
1789741087104787500,3.026787353515625,-0.7813849166102707,1.6611603570848703,0.7215658232025802
1789741087114865400,3.036865478515625,0.5439424804084003,-0.46174598936736583,-0.8235042488068341
1789741087124942300,3.0469423828125,0.16734788636490702,-0.7152022795200348,-0.18302781391991302
1789741087135020300,3.057020263671875,-0.24277020709589123,0.9293582404196262,-0.2611428991325199
1789741087145097200,3.06709716796875,-0.039904286495596165,0.8519950147539377,-0.8619820096306502
1789741087155175200,3.077175048828125,1.5112665866069495,0.8819926781326531,-0.008459045523917302
1789741087165252000,3.087252197265625,0.11256006512269377,2.41792448104918,-0.020403695540735498
1789741087175330000,3.097330078125,-0.3298293357372284,0.4156844954162836,-0.7890905225515366
1789741087185407200,3.1074072265625,-0.043312925895303486,0.5214964014530181,-0.007798983313143253
1789741087195485400,3.1174853515625,0.08740078168585896,1.1841963403195142,-0.33884573201611634
1789741087205562400,3.127562255859375,0.02888765631020069,1.0489812296658754,-0.4936478058669716
1789741087215640300,3.137640380859375,0.1181311432532966,0.7980489050328731,-0.0017239536987966857
1789741087225717200,3.14771728515625,0.008494418231397866,1.0212187779933213,0.0375081097907736
1789741087235795200,3.157795166015625,0.021836130363494157,1.3170406301885842,0.08981715864520519
1789741087245872400,3.167872314453125,0.0713454266808927,1.0141244358181953,-0.09437398169934749
1789741087255950300,3.177950439453125,0.03406827381849289,0.7006979533493518,-0.213376026035659
1789741087266027300,3.18802734375,0.07917042121812701,0.03057809361517429,-0.1813673150954768
1789741087276105200,3.198105224609375,0.3184855194240808,-0.7012912430673838,-0.06890776033834554
1789741087286182100,3.20818212890625,0.047143297838419675,-0.9704933838844298,-0.012915878802305087
1789741087296260400,3.21826025390625,-0.03199745889380574,-1.053084573331475,0.01642261741477996
1789741087306337300,3.228337158203125,0.017476619979739188,-1.4075976839482784,-0.1313934882725589
1789741087316415200,3.238415283203125,-0.03772854989171028,-1.5561270342051983,-0.20606298134224488
1789741087326493200,3.2484931640625,-0.07581248909235,-1.5323726491302252,-0.3226082984425127
1789741087336570400,3.2585703125,0.0026741876453161236,-1.5621727441102264,-0.49745658703278745
1789741087346648300,3.2686484375,-0.0050884091801941395,-1.9166034371405838,-0.6118927847582847
1789741087356725200,3.278725341796875,-0.10159925677776337,-2.0105168155908584,-0.6091187900003046
1789741087366803200,3.28880322265625,-0.06349208283200859,-1.946183751890063,-0.9636842153262346
1789741087376880000,3.298880126953125,-0.14120660615339875,-0.0865174229800701,-0.4218742534345016
1789741087386958300,3.308958251953125,-0.11263546844646334,-0.019179916766285894,-0.1536316600983031
1789741087397035300,3.31903515625,-0.10866554190218448,-0.05959492926299571,-0.26760904467301444
1789741087407113200,3.32911328125,0.0492173276335001,0.08139759574830531,-0.25924265500176696
1789741087417190400,3.3391904296875,0.07000935577154159,0.10307225193977355,-0.19223238971466197
1789741087427268400,3.349268310546875,0.02771671283468604,0.13985855254530905,-0.1546652409297414
1789741087437345300,3.35934521484375,0.0029604572407901284,0.11125029769837856,-0.17703167877765372
1789741087447423200,3.36942333984375,-0.04244038084447384,0.01743862605690956,-0.24673748502535744
1789741087457500200,3.379500244140625,-0.060493923929333684,-0.08447802610695361,-0.3975301223054528
1789741087467578000,3.389578125,-0.02332593052983284,-0.04145253885090351,-0.16696875085420906
1789741087477655300,3.3996552734375,0.10628010807037352,-0.04713759874999523,-0.16172588176466524
1789741087487733200,3.409733154296875,-0.0902431655049324,0.05520633891522884,-0.16087037918018177
1789741087497810400,3.419810546875,-0.0596839227207005,0.08047112855315208,-0.11976225158646701
1789741087507888400,3.429888427734375,0.012253186243027448,0.05931961945295334,-0.14419804305434225
1789741087517965300,3.43996533203125,0.0023022855930030345,0.013199088791012763,-0.08140804407708346
1789741087528043300,3.450043212890625,-0.02561374920606613,-0.03866729204654693,0.02310680788643658
1789741087538120200,3.4601201171875,-0.09026435442343354,-0.11158873587250709,0.2810219771441072
1789741087548198100,3.4701982421875,-0.06338964537084102,-0.13759177665710448,0.24577253071703015
1789741087558276000,3.480276123046875,-0.035746874555200335,-0.07181962006390094,-0.12285915815588086
1789741087568353000,3.49035302734375,-0.0525799359343946,0.04768529576063156,-0.39368316455371677
1789741087578431000,3.500430908203125,-0.032900399082899094,0.21261808380782604,-0.4593512762505561
1789741087588508000,3.5105078125,-0.03358195160627365,0.13333236564695836,-0.3551701132208109
1789741087598585900,3.5205859375,-0.011189648664742707,0.05732172363400459,-0.16704174302518368
1789741087608662800,3.530662841796875,-0.04817644027844071,0.045617257314920424,-0.18341969931432978
1789741087618740700,3.54074072265625,-0.06019713293984532,0.012931962287425994,-0.1560804597562179
1789741087628818000,3.55081787109375,-0.07877031598463655,-0.0067132339030504225,-0.1428492405275814
1789741087638895900,3.560895751953125,-0.07956000505760312,-0.020053776991367338,-0.14800892484569922
1789741087648973000,3.57097314453125,-0.08021043179035187,-0.003452186280488968,-0.16736107464004307
1789741087659051000,3.581051025390625,-0.07399564892873167,0.043669630378484724,-0.20155421694722025
1789741087669128000,3.5911279296875,-0.05141586059108376,0.05187105701267719,-0.24298494582511485
1789741087679206000,3.601205810546875,-0.07998670603707432,0.05634674112200737,-0.2139501909281127
1789741087689282800,3.61128271484375,-0.09904738033786416,0.042405309531092644,-0.21165404281495137
1789741087699360800,3.62136083984375,-0.0951490577250719,0.02024550017118454,-0.19026704445844514
1789741087709438000,3.63143798828125,-0.1342858669795096,-0.034676176583766934,-0.12929173022033646
1789741087719516000,3.641515869140625,-0.23806714397147297,-0.052960021293163295,-0.025130824527330696
1789741087729592800,3.6515927734375,-0.162920425311476,0.014305588728189468,-0.12084604650149121
1789741087739671000,3.661671142578125,-0.08996157208457589,0.034275779089331625,-0.12383182084662839
1789741087749748000,3.671748046875,-0.0431138961918652,0.0812765997171402,-0.12338919164566323
1789741087759826000,3.681825927734375,-0.04211670184805989,0.05045417595207691,-0.05102892536642029
1789741087769902800,3.69190283203125,-0.04565189023688435,0.05178396325111389,-0.03492995041543618
1789741087779980800,3.701980712890625,-0.10940437757074832,0.02407353402674198,-0.01706314380802214
1789741087790058000,3.71205810546875,-0.1706144869454205,-0.003782441148161888,0.0033449813126586376
1789741087800136000,3.722135986328125,-0.1773012712329626,-0.007263269001245499,-0.07904345210390165
1789741087810214000,3.7322138671875,-0.1807084493279457,-0.0036357261538505553,-0.10874094522595405
1789741087820290800,3.742290771484375,-0.14803703669533133,0.005541267514228821,-0.11450191990546882
1789741087830369000,3.752369140625,-0.0899785232193768,0.03643091129660606,-0.05682296206532046
1789741087840446000,3.762446044921875,-0.08135916343405843,0.03842939163744449,0.010675561662763356
1789741087850524000,3.77252392578125,-0.0802491563655436,0.029496143597364424,0.052515930787473915
1789741087860600800,3.782600830078125,-0.0845629279114306,0.021471242573857307,0.052181383337173606
1789741087870678800,3.7926787109375,-0.12461363714039325,-0.009276946911215781,0.028152199908811598
1789741087880756000,3.802755859375,-0.10012231609299778,-0.017114800930023193,0.01755825211489573
1789741087890834000,3.812833984375,-0.0697042353451252,-0.00835807850062847,0.037607864387799055
1789741087900910800,3.822910888671875,-0.04036035970002413,-0.0022813889354467392,0.05155051982142031
1789741087910988800,3.83298876953125,-0.028914690447598694,0.0031657705545425413,0.0658137307126075
1789741087921065700,3.843065673828125,0.01179798982143402,0.016381225958466528,0.08696575126945973
1789741087931144000,3.85314404296875,-0.013793547552824019,0.009103343909978866,0.06996599155385047
1789741087941221000,3.86322119140625,-0.0099089612044394,-0.0035579847425222396,0.06251582167837769
1789741087951299000,3.873299072265625,-0.009720160634070635,0.0011555997759103774,0.059694498913642015
1789741087961376000,3.8833759765625,0.026658728214353323,0.009168810361623763,0.004775890898611396
1789741087971454000,3.893453857421875,0.05483969755992293,0.0059784898877143855,-0.03575763341123238
1789741087981531000,3.90353076171875,0.10558379636928439,-0.004255903878808021,-0.07292025651587172
1789741087991608800,3.91360888671875,0.10078910943865775,-0.049178164666891094,-0.004114102521631867
1789741088001685800,3.923685791015625,-0.023332944792509077,-0.10505085853636265,0.15930647259801625
1789741088011763700,3.933763671875,-0.08694763109087944,-0.14060323343276976,0.28127786986762654
1789741088021841000,3.9438408203125,-0.002013093388080597,-0.07883446726202964,0.32733061425667254
1789741088031919000,3.953919189453125,0.09182254365086555,-0.01764262419641018,0.33827929377239196
1789741088041997000,3.9639970703125,0.20690029068291185,0.05311024341881275,0.3421710405139252
1789741088052074000,3.974073974609375,0.31354338684678074,0.061491118273138995,0.3642245399551466
1789741088062152000,3.98415185546875,0.29515535111054775,0.029693711996078488,0.38391324649378655
1789741088072228900,3.994228759765625,0.23928338789343834,0.009668576577305793,0.3227067903809249
1789741088082306800,4.004306884765625,0.16992811211645603,-0.010814239481091498,0.2245406133243814
1789741088092383700,4.0143837890625,0.07472659355178475,-0.0279547593742609,0.14809640219975262
1789741088102461700,4.024461669921875,0.1077495961010456,-0.024198621711134908,0.05563380707968026
1789741088112539000,4.034538818359375,0.11999006899297236,-0.008104396000504494,-0.0009711100544780492
1789741088122617000,4.0446171875,0.17074761180579662,0.0038444004684686658,-0.04086724977623671
1789741088132694000,4.054694091796875,0.24740882668197153,-0.024155951613187787,-0.07918824913576245
1789741088142772000,4.06477197265625,0.25327143510505556,-0.05397299772799015,-0.10790661329366266
1789741088152849000,4.074848876953125,0.26433409638926386,-0.08132686859965324,-0.10079539304897188
1789741088162926800,4.0849267578125,0.2610520059786737,-0.05454056848287582,-0.11746734558232128
1789741088173004000,4.095004150390625,0.28120982786640525,-0.032867081335186954,-0.17397632806133478
1789741088183082000,4.10508203125,0.271770530000329,-0.0032516952723264693,-0.28313549869935956
1789741088193159000,4.115158935546875,0.25111104220077396,0.013640402817726134,-0.389009729382582
1789741088203236900,4.12523681640625,0.2390355506122112,-0.0017804536759853363,-0.41160080629922446
1789741088213313800,4.135313720703125,0.2205792719453573,-0.03203063051104545,-0.42556697047259656
1789741088223392000,4.14539208984375,0.21444646827876568,-0.05356617049276829,-0.4543992433337494
1789741088233469000,4.155468994140625,0.33913127095922824,-0.09819792390167713,-0.6858337078250945
1789741088243547000,4.165546875,0.03216550893709064,-0.07506079394221306,-0.7095080134011804
1789741088253624000,4.1756240234375,0.3330120574265718,-0.05572130270004272,-0.6671151980254799
1789741088263702000,4.185701904296875,0.3664356036007404,0.023497195443511008,-0.6918515068098903
1789741088273779000,4.195779052734375,0.1643180171497166,0.03714987322092056,-0.6841141905561089
1789741088283857000,4.20585693359375,-0.22514511855617164,0.024414310288429258,-0.6252545898303389
1789741088293934800,4.215934814453125,-0.3564379411995411,-0.1927911013096571,-0.8901537727564572
1789741088304011800,4.22601171875,0.6004099253006279,-0.3628483927637338,-1.141540636223927
1789741088314090000,4.236090087890625,-0.07387611420229077,-2.5514912399739025,-2.3405720690384504
1789741088324167000,4.2461669921875,-0.04749459549412131,-3.134873311975598,-3.0044232237666844
1789741088334244900,4.256244873046875,0.6391698640666902,-2.934711974158883,-1.9207216861143708
1789741088344322000,4.266322021484375,0.7978928376883268,0.9859732770889997,1.0514554377596825
1789741088354400000,4.27639990234375,0.3398825277179479,1.8629706311523913,1.1722010012950748
1789741088364477000,4.286476806640625,0.8429436932921409,0.17928221591711044,0.9715497610695659
1789741088374555000,4.296554931640625,0.38339097618535156,-0.3754524382710457,2.349362109215557
1789741088384631800,4.3066318359375,-0.08757306951284408,-1.2426707411199807,3.4829093355327845
1789741088394709800,4.316709716796875,0.8818003704309463,-2.44009890345633,2.8316858994483947
1789741088404787000,4.326786865234375,0.44389629829153415,-2.658580326339602,2.10307410325706
1789741088414865000,4.336864990234375,-1.1870154893934726,-2.7699165487557647,1.1554368404336273
1789741088424942000,4.346942138671875,-1.0305343033492564,-2.0719202555805443,1.543055371186137
1789741088435020000,4.35702001953125,-0.01630874524414539,-1.949858056488633,1.8074813836425543
1789741088445097000,4.367096923828125,0.043887364782392975,-1.604677422362566,1.2434725590221583
1789741088455175000,4.3771748046875,-0.13149462882578372,-0.8987772241950035,0.5882080308534204
1789741088465251800,4.387251953125,2.7904285909086464,2.4591940645486114,-2.408053806028515
1789741088475329800,4.397329833984375,1.6601454809539018,5.574367819797993,-5.84017330391407
1789741088485407000,4.407406982421875,-2.4383359854370354,4.553147872760892,-4.2781537045389415
1789741088495485000,4.41748486328125,0.11938625788092612,4.4484921510219575,-3.070414868329465
1789741088505561900,4.427561767578125,-0.13157251636758446,1.8258254341065883,-3.015298838046193
1789741088515639800,4.437639892578125,-0.20636910641565917,0.7845283292025327,-2.2735867372632024
1789741088525718000,4.447718017578125,-0.17544599875509737,0.14261691134274004,-0.7237421443283557
1789741088535795000,4.457794921875,-0.048808746832609176,-0.09938158072829247,-0.011450491558015346
1789741088545873000,4.467872802734375,-0.24542393647506833,-0.15221651433706282,-0.5139071153678
1789741088555949800,4.47794970703125,-0.2134833223350346,-0.13502280295193195,-0.6422913570880889
1789741088566028500,4.488028564453125,-0.19379121826291082,-0.0744791946619749,-0.505542607126385
1789741088576105500,4.49810546875,-0.10483823869898914,-0.14347089782357214,-0.3163093444287777
1789741088586183700,4.50818359375,0.07603621484562754,-0.09810615396499633,-0.7680468577399849
1789741088596260900,4.5182607421875,-0.09569090951681136,-0.04503273542523384,-0.6603486995652318
1789741088606338800,4.5283388671875,-0.0773212862201035,-0.2090852335065603,-0.7874782650493085
1789741088616415700,4.538415771484375,0.05667626533731818,-0.3636450960993767,-1.0686939381346106
1789741088626493700,4.54849365234375,-0.2243583520926535,0.015146715727448462,-0.5164094535775482
1789741088636570600,4.558570556640625,-0.2542576696634292,-0.12495675148963928,-0.7357464703768491
1789741088646648600,4.568648681640625,-0.11572189015448092,-0.16299802059233187,-0.9211717190936207
1789741088656725800,4.578725830078125,-0.23444646925628185,-0.21191198136508463,-0.7783920184046029
1789741088666803700,4.5888037109375,-0.22082944731414317,-0.46356969766318795,-0.6512922635369003
1789741088676880600,4.598880615234375,-0.036548400196433066,-0.6754764183312654,-0.584799683714658
1789741088686958800,4.608958740234375,-0.06902662834450603,-0.5591267516672611,-0.5727678851373493
1789741088697035800,4.619035888671875,-0.16758549451306462,-0.6346136620670557,-0.36380934675037857
1789741088707113700,4.62911376953125,0.01363908764347434,-0.6244938345909118,-0.10694719367697834
1789741088717190700,4.639190673828125,-0.06219298293218016,-0.9211346019536256,-0.602188917671889
1789741088727268600,4.6492685546875,0.16225670070573686,0.01007131215929985,-0.13684146974645553
1789741088737345800,4.659345703125,-0.1038354913972318,-0.03580722644031047,-0.27525749533325433
1789741088747423700,4.669423828125,-0.3738596161216497,-0.44516661048829553,-0.06377163042575121
1789741088757501700,4.679501708984375,-0.3337023777782917,-0.5366489623993634,0.6695423521071672
1789741088767578600,4.68957861328125,0.1604693788975477,-1.1704530616492033,0.0969306073796004
1789741088777656800,4.69965673828125,-0.33996099978163835,-0.9797282452195882,0.8911839195217937
1789741088787733800,4.709733642578125,-0.2448001054883003,-0.6058844111889601,0.4598831911701709
1789741088797811700,4.719811767578125,-0.2646921160466969,0.21875088747441768,0.8027768834028393
1789741088807888600,4.729888671875,0.06638225131556391,1.509955650138855,0.397427611779049
1789741088817966600,4.739966552734375,-0.017701807037740946,1.0250526570677756,0.13755502484329044
1789741088828043800,4.750043701171875,-0.014563362881541251,0.5221849682390689,0.3222249251481145
1789741088838121700,4.760121826171875,0.21960604299902914,-0.16427520092129708,-0.1776050399525091
1789741088848198700,4.77019873046875,-0.010416033943742513,-0.29830314761698246,0.20370631694719193
1789741088858276600,4.780276611328125,-0.07577274160385132,0.08058218771219253,0.4351759623497724
1789741088868353500,4.790353515625,-0.05562675628438592,0.20139234091639518,0.28849766505332664
1789741088878431700,4.800431640625,-0.07415887666642665,1.0044611199378968,0.2605718577789143
1789741088888508700,4.8105087890625,-0.044357758773118254,1.2158452780365943,0.1009511133336462
1789741088898586600,4.820586669921875,0.027591040628403424,1.4194266534298658,-0.19623028197810052
1789741088908663800,4.830663818359375,0.10662439146339893,1.0415981336772442,-0.38601127821896225
1789741088918741800,4.84074169921875,0.1521007790029049,0.735243197029829,-0.43596605328153815
1789741088928818700,4.850818603515625,0.12101868138834833,0.1703513059645891,-0.2251408442398533
1789741088938896600,4.860896728515625,0.08784560284391045,0.06464695195555686,-0.1415421034517698
1789741088948973600,4.8709736328125,0.08045534646213054,-0.005502104547619819,-0.123997176609328
1789741088959051500,4.881051513671875,0.03823416132628917,-0.07508183673024177,-0.10887715709256007
1789741088969128700,4.891128662109375,0.0037181437402963634,-0.03580722644031047,-0.02069692003338132
1789741088979207000,4.90120703125,0.03846665490791201,0.01906125882267952,-0.00018404904672643168
1789741088989283800,4.911283935546875,0.05344502833113074,0.06395429351627827,-0.0027655214738682844
1789741088999361800,4.92136181640625,0.07168620294257998,0.01684475181698799,0.00519292671730509
1789741089009439700,4.931439697265625,0.05193082437589764,-0.05762041431963443,-0.046815170995751394
1789741089019516700,4.9415166015625,-0.02049041484296322,-0.1187163957953453,-0.07210017230464145
1789741089029594600,4.9515947265625,-0.05424845366850495,-0.14006021259725093,-0.08986320801032707
1789741089039671600,4.961671630859375,-0.042121378023177385,-0.11605331406593322,-0.03924261228304822
1789741089049749500,4.97174951171875,0.0015935528017580508,-0.04054594539999962,-0.04634467654032633
1789741089059826700,4.98182666015625,0.057016603207588196,0.04842237786352634,-0.053579536864417604
1789741089069905000,4.99190478515625,0.08582257258370518,0.10015431866645813,-0.07914430039618164
1789741089079981800,5.00198193359375,0.08355331247746944,0.1118973634302616,-0.09167171873701736
1789741089090059800,5.012059814453125,0.033653263276815414,0.03680968148112297,-0.08661328456997872
1789741089100136700,5.02213671875,-0.04663140279352665,-0.038973581516742704,-0.08245499584674834
1789741089110214700,5.032214599609375,-0.08224383731409907,-0.09079963034391403,-0.08548873751945793
1789741089120291600,5.04229150390625,-0.0828185684621334,-0.0719745183646679,-0.06033561439535114
1789741089130369500,5.05236962890625,-0.062345543145388364,-0.032789924445748325,-0.02199093733271584
1789741089140446700,5.06244677734375,-0.03546747309193015,0.021212883898615836,-0.014473629638319834
1789741089150524700,5.072524658203125,-0.018724574214220045,0.08256430144011974,0.018234662672271952
1789741089160601600,5.0826015625,-0.017220014870166778,0.08687690394222736,0.0354495721090585
1789741089170679800,5.0926796875,-0.011816694521903991,0.0761959354519844,0.040943685146467755
1789741089180756700,5.1027568359375,-0.04844108256399631,0.04049626103937626,0.03437836268097162
1789741089190834700,5.112834716796875,-0.09425999993085861,0.0033136545926332472,-0.004762090702122077
1789741089200912000,5.122911865234375,-0.09228592337891459,-0.015471709898114203,-0.035586213233927265
1789741089210989800,5.13298974609375,-0.04396232971474528,-0.012727964147925376,-0.08947189800464547
1789741089221067800,5.14306787109375,-0.012988076388835906,0.03984568817615509,-0.14157533900109118
1789741089231144700,5.153144775390625,-0.0025607903987169265,0.07549217109680176,-0.18610992477899416
1789741089241222700,5.16322265625,-0.0024000468790531158,0.07366670923531055,-0.2157182965791784
1789741089251299600,5.173299560546875,-0.042635465025156735,0.07785247048735618,-0.25728520079106093
1789741089261377500,5.18337744140625,-0.025583354067802426,0.05019932440817356,-0.3031697307400405
1789741089271454500,5.193454345703125,0.03520399985015392,0.07097264784574508,-0.3655012453600764
1789741089281532700,5.20353271484375,-0.07582841731384396,-0.12258008548617362,-0.24757625567074865
1789741089291609900,5.21360986328125,-0.5803456269152462,-0.26723405561447144,0.14547452926356344
1789741089301687800,5.223687744140625,-0.2606492703966796,-0.08965689004957675,-0.003033842137409374
1789741089311764700,5.2337646484375,-0.11814312595203519,0.02104921776950359,-0.0627236648759339
1789741089321842700,5.2438427734375,0.007755582562834024,0.1832832682520151,-0.09765272024222649
1789741089331919600,5.253919677734375,0.03065758859217167,0.2060965730845928,-0.29178532668817786
1789741089341997600,5.26399755859375,0.004341828596591949,0.19017945750653742,-0.23347985271383076
1789741089352074500,5.274074462890625,-0.13851371380761265,0.04180032937526702,-0.1556235097689554
1789741089362152700,5.284152587890625,-0.3339392552740872,-0.07824117754399776,-0.18672056749062613
1789741089372229600,5.294229736328125,-0.4902627665385604,-0.12759119164645671,-0.22674676333284005
1789741089382307800,5.304307861328125,-0.5225637384235858,-0.13546353245675563,-0.23252204053234307
1789741089392384800,5.314384765625,-0.4386423232860863,-0.016580547922849655,-0.21073758555715902
1789741089402462700,5.324462646484375,-0.32329379648864265,0.0749146634697914,-0.034726536797825246
1789741089412539600,5.33453955078125,-0.2997936784356832,0.21091244893372058,0.26499104419434444
1789741089422617600,5.34461767578125,-0.4044996690571308,0.12269874342978,0.6075998368047177
1789741089432694800,5.35469482421875,-0.3420892439819872,0.2064186446458101,0.7953158998724073
1789741089442772700,5.364772705078125,-0.47359059480950233,0.02162614087462425,0.6912256299965083
1789741089452850700,5.3748505859375,-0.45477395839765666,0.08671908303201198,0.44500802239309994
1789741089462927600,5.384927734375,-0.646730946970731,-0.035172435668110846,0.34239571611527353
1789741089473005800,5.395005859375,-0.535753620994836,0.007899228817224503,0.440900477476418
1789741089483082800,5.405082763671875,-0.6860720466256142,-0.051857028487324715,0.8409444822989404
1789741089493160700,5.41516064453125,-0.5238748210221529,0.015955694022774695,0.7392999250747263
1789741089503237600,5.425237548828125,-0.2873030301749706,0.12671908498704432,0.5962135695893317
1789741089513315600,5.435315673828125,-0.34615094046294687,0.15475509290397166,0.5772253029376267
1789741089523392800,5.445392822265625,-0.2828577412039041,0.09786708451211452,0.5665147430267184
1789741089533470700,5.455470703125,-0.28582886596918106,0.05593523771166801,0.7533774772007018
1789741089543547600,5.465547607421875,-0.31149113049209115,-0.016561843222379684,0.8222064640812575
1789741089553625600,5.47562548828125,-0.3085878102660179,-0.039678514915704725,0.6104082452889531
1789741089563702500,5.48570263671875,-0.30160525790229437,-0.08077741802334786,0.4471765620712191
1789741089573780000,5.495780029296875,-0.29107860319092865,-0.09296469942331313,0.5682830678734928
1789741089583857200,5.505857177734375,-0.1323505150027573,-0.033632220488786696,0.6237503958124667
1789741089593935000,5.51593505859375,-0.10003040002584457,-0.003276245191693306,0.6317988969072699
1789741089604012000,5.526011962890625,-0.056581718921661375,0.061891515767574304,0.5376762596204877
1789741089614090000,5.536090087890625,0.00006532032117247581,0.05798574050068855,0.33732126239519566
1789741089624167000,5.5461669921875,-0.018521891248971224,0.006102993050217628,0.3355141764406115
1789741089634244900,5.556244873046875,-0.02954129791334271,-0.08797989674806594,0.5037377861941233
1789741089644321800,5.56632177734375,-0.002722264570742845,-0.12682722153663634,0.561810218597576
1789741089654400000,5.57639990234375,-0.01476736102104187,-0.12161854697763919,0.49998274450954044
1789741089664477200,5.586477294921875,0.3501249586604535,-0.3137631670773029,0.11849160146298818
1789741089674555100,5.59655517578125,0.22834449911937116,0.24411095418035983,-0.7595913102142512
1789741089684633000,5.606633056640625,-0.0482641185618937,-0.13634966764152048,-1.2489970215320587
1789741089694710000,5.6167099609375,0.15731807525977493,0.18165712835490702,-0.07267741507017053
1789741089704788000,5.6267880859375,0.32594606456309555,-0.20809972960054873,-0.24961254727132617
1789741089714865000,5.636864990234375,0.2827155562542379,0.03925882819890976,0.013608354578493163
1789741089724942800,5.64694287109375,-0.009860445887595415,-0.3328594972133636,-0.2725557986265048
1789741089735020000,5.65702001953125,0.3272580239444971,-0.14682137729525566,-0.11102312874584458
1789741089745098200,5.66709814453125,0.11147767671346664,-0.22028584195673465,0.6298934286121278
1789741089755175200,5.677175048828125,0.3872000130794942,-0.08507365391254425,0.691256025134772
1789741089765253000,5.687253173828125,0.40785234048590063,-0.09560030862390995,-0.03397781905606389
1789741089775330000,5.697330078125,0.0842578074850142,-0.12125263627469539,-1.1019218156062065
1789741089785408000,5.707407958984375,-0.07253332129120826,0.233580792337656,-1.7703959539599716
1789741089795485000,5.71748486328125,-0.14188392089307308,0.2813666258633137,-0.568804023007676
1789741089805563000,5.72756298828125,0.14530790399238466,0.07547989613711834,0.5485351054282859
1789741089815640000,5.73764013671875,0.1645353131622076,0.21228432180881499,1.3042477841109037
1789741089825718000,5.747718017578125,0.3692927465975284,0.17929507539868353,0.6359864117249846
1789741089835795000,5.757794921875,0.34243396576642987,-0.09259761967658996,-0.41203539832420644
1789741089845873200,5.767873046875,0.42422275278940796,-0.08544014913737773,-1.2759312056869268
1789741089855950000,5.7779501953125,0.5480203973717988,-0.02474924133121967,-1.3286594640508294
1789741089866028000,5.788028076171875,0.16883666361793875,-0.17258008792996404,-1.051623341672495
1789741089876105000,5.79810498046875,0.3323455563418567,-0.08616670984625815,-0.7391894504375756
1789741089886183000,5.808182861328125,0.3088362320691347,-0.005060205999016762,-0.690080478549376
1789741089896260000,5.818260009765625,0.08369462064430117,-0.04277005119025707,-1.0408891086250542
1789741089906338000,5.828338134765625,0.2215437330633402,0.08198328668177127,-1.2744818836614489
1789741089916416000,5.838416015625,0.48634398565962905,0.23468203157782552,-1.2120524616248904
1789741089926493000,5.848492919921875,0.5471142423123121,0.19617489852905273,-1.017982718681544
1789741089936571100,5.858571044921875,0.6571557487428188,0.12730886757373808,-1.0968516727350652
1789741089946648000,5.86864794921875,0.5474797146238386,0.04477905292510986,-1.4437646836116909
1789741089956726000,5.87872607421875,0.27583003452420235,-0.04031213664412498,-1.9017270627871155
1789741089966803200,5.88880322265625,0.18650456838607787,0.0855897867411375,-2.2848241705924273
1789741089976881200,5.898881103515625,0.17245310054942964,0.16332009215354917,-2.1249026348359883
1789741089986958000,5.9089580078125,0.10055106289908289,0.1142506485581398,-1.8876913770414887
1789741089997036000,5.9190361328125,0.08052432004511356,0.0962602338373661,-1.812791180488467
1789741090007113000,5.929113037109375,0.08411722997054458,0.12509645222127436,-1.8515720159120856
1789741090017191000,5.93919091796875,0.17651172829046843,0.13554010482430456,-1.906017453457415
1789741090027267800,5.949267822265625,0.25273966631591316,0.18382921169698238,-1.9050443706415592
1789741090037346000,5.959345947265625,0.25630919536575675,0.2070768162935972,-1.86017062517032
1789741090047423200,5.96942333984375,0.0804779966853559,0.11122925491034984,-1.8531787204563617
1789741090057501200,5.979501220703125,0.032239158695191145,0.027311785295605656,-2.025291337005049
1789741090067578000,5.989578125,-0.04160334549844265,0.025686814442276953,-2.28929400948286
1789741090077656000,5.999656005859375,-0.10530278747081756,0.047075054907798765,-2.4369505224280057
1789741090087733000,6.00973291015625,-0.078169865873456,0.09373393023014068,-2.258607779318094
1789741090097811000,6.01981103515625,-0.026817279776930807,0.11913549799025058,-2.0952453093275425
1789741090107887900,6.029887939453125,-0.03587137771770358,0.06604512831568718,-2.02584356406033
1789741090117965800,6.0399658203125,-0.09828852479457854,-0.09425999993085861,-2.10443063243255
1789741090128043000,6.05004296875,-0.05969897415935993,-0.10762275485098362,-2.07047356390357
1789741090138121200,6.060121337890625,-0.0852421423472464,-0.1628752709954977,-2.055164058829844
1789741090148199200,6.07019921875,-0.3328594972133636,-0.016800912675261497,-1.9128242108628153
1789741090158276000,6.080276123046875,-0.3201433696337044,0.18998539623916147,-1.9069773845307527
1789741090168354000,6.09035400390625,-0.5152731430239975,0.22677871110737322,-2.0286077680766583
1789741090178431000,6.100430908203125,-0.6127702251799404,0.2436374914497137,-2.0701196358993648
1789741090188509000,6.110509033203125,-0.6065608491457999,0.10785247195363044,-1.8144645205281673
1789741090198586000,6.120586181640625,-0.6012769173935055,-0.1035667574584484,-1.3741411122873424
1789741090208664000,6.1306640625,-0.5181792397290468,-0.2290361346453428,-0.9042715838275849
1789741090218741000,6.140740966796875,-0.4563473451942205,-0.32303660685718055,-0.5722430210130289
1789741090228819200,6.150819091796875,-0.4447708891689777,-0.2800117041230202,-0.468028357572481
1789741090238896000,6.160896240234375,-0.47713776589706536,-0.1905547205597162,-0.4490317980164662
1789741090248974000,6.17097412109375,-0.47407077954187987,-0.032008418679237365,-0.44453602096717804
1789741090259051000,6.181051025390625,-0.482095680565387,0.04033844012916088,-0.2594486989678815
1789741090269129000,6.19112890625,-0.5023740600928663,0.05685293707847595,0.0011008739139884709
1789741090279206100,6.2012060546875,-0.514231525016576,-0.07782382891476154,0.28014059119969603
1789741090289284000,6.2112841796875,-0.5585365306891501,-0.21171207487881183,0.4747832751927897
1789741090299361000,6.221361083984375,-0.5875761626906693,-0.3438800729215145,0.6311609643299132
1789741090309439000,6.23143896484375,-0.5344290943928063,-0.32810207355320453,0.7209474721085279
1789741090319516000,6.241515869140625,-0.4499427388489246,-0.2353489710539579,0.8473165746141225
1789741090329594000,6.251593994140625,-0.3653028001785278,-0.08929682456552981,1.0261370913036167
1789741090339671000,6.261671142578125,-0.3814731598652899,0.0295364756077528,1.1467791944645345
1789741090349749000,6.2717490234375,-0.41410584792271254,-0.004333645290136337,1.0703747308284044
1789741090359826200,6.281826171875,-0.49388724064603445,-0.14663023863732813,0.959392071090266
1789741090369904000,6.291904052734375,-0.6192753692902624,-0.293320683029294,0.7481124693445861
1789741090379981000,6.30198095703125,-0.6852414410203694,-0.33784663797616954,0.7609807187460362
1789741090390059000,6.31205908203125,-0.5650951585523784,-0.24889234323799608,0.8700578371237963
1789741090400137000,6.322136962890625,-0.4743874442756176,-0.23875088845193385,0.979250910031423
1789741090410214000,6.3322138671875,-0.5403666677482426,-0.20158932479321956,0.9618835956450551
1789741090420292000,6.3422919921875,-0.37958690772727127,-0.1203764379620552,0.807292607261613
1789741090430369000,6.352369140625,-0.28212957305982705,0.0185784437417984,0.7492350436337292
1789741090440447000,6.362447021484375,-0.2531367028094828,0.11603811649680137,0.8272856670416892
1789741090450524200,6.372524169921875,-0.20215631102621553,0.3892793035715818,0.8461877167146652
1789741090460602000,6.38260205078125,-0.2724807240962982,0.4218091157764196,0.7218130028966814
1789741090470679000,6.392678955078125,-0.418346992623806,0.3005062106192112,0.5668298733904957
1789741090480757000,6.402757080078125,-0.5284972201257944,0.1647439874768257,0.3947553968951106
1789741090490834000,6.412833984375,-0.6092804833680391,-0.15377484969496727,0.2897954315125942
1789741090500911900,6.422911865234375,-0.6187164202332496,-0.20099311246573923,0.407335038613528
1789741090510989000,6.432989013671875,-0.3446485730759799,-0.12029752750694751,0.4408045428212732
1789741090521067300,6.4430673828125,-0.34714462767541404,-0.04538461760282516,0.3402862131480127
1789741090531144200,6.453144287109375,-0.5534937142163515,-0.04972995333075523,0.19838117640167474
1789741090541222100,6.46322216796875,-0.40648704348206516,0.06903028160631657,0.05703180077672004
1789741090551299000,6.473299072265625,-0.47973348147869105,0.19130641570985316,0.023565292243659493
1789741090561377000,6.483376953125,-0.45023675335943697,0.3143050188690424,0.03420527113638818
1789741090571454200,6.4934541015625,-0.38782676667571064,0.28861703538298605,-0.00972154887355864
1789741090581532200,6.5035322265625,-0.5393744418404997,0.0351350262671709,-0.17169022641815243
1789741090591609300,6.513609375,-0.621773323585838,-0.12877601751685142,-0.3340343131463975
1789741090601687600,6.5236875,-0.5078226808875799,-0.04498305106461048,-0.4787704086001962
1789741090611764500,6.533764404296875,-0.42119551392272114,0.09760463418364525,-0.5234140716426074
1789741090621842400,6.543842529296875,-0.31260245273485776,0.2979045036882162,-0.38991672469228505
1789741090631919400,6.55391943359375,-0.28212124362289903,0.3654951078802347,-0.2796333723299205
1789741090641997300,6.563997314453125,-0.3699433194607496,0.31168343819379807,-0.28954905553609134
1789741090652075300,6.5740751953125,-0.43011414891555905,0.2769996628254652,-0.35570465848892924
1789741090662152200,6.584152099609375,-0.5768501860149204,0.2630225753992796,-0.5012994165986776
1789741090672230100,6.594230224609375,-0.7374860075205564,0.12498656210601329,-0.4958741766795516
1789741090682307300,6.604307373046875,-0.8757108213841914,-0.21191198136508463,-0.3578923777915537
1789741090692385500,6.614385498046875,-0.8863697241730988,-0.44957916623353955,-0.2897721967674792
1789741090702462500,6.62446240234375,-0.8495067050695418,-0.4354869279950857,-0.27146511731296774
1789741090712540400,6.63454052734375,-0.6788828657738865,-0.19194588265717027,-0.3416010220736265
1789741090722617300,6.644617431640625,-0.6524858572356402,0.024969021561741828,-0.4561858710221946
1789741090732695300,6.6546953125,-0.2592394035987556,-0.368868383705616,-0.5657901550792157
1789741090742772200,6.664772216796875,-0.6553688653260469,0.5315893409222364,-0.31910408971384163
1789741090752850200,6.67485009765625,-0.7307130062542855,0.9965630601644515,-0.13215718438774346
1789741090762927400,6.68492724609375,-0.2628548176169395,0.6426765570133924,-0.08656374633982777
1789741090773005300,6.69500537109375,-0.6645785922199487,0.055097617843747136,-0.4651179500184953
1789741090783082200,6.705082275390625,-0.41341187430918214,-0.2014437788426876,-0.4168650835029781
1789741090793160200,6.71516015625,-0.7858511022388934,-0.48797757821083065,-0.1291802144035697
1789741090803237000,6.725237060546875,-0.704367143381387,-0.35253099688887596,-0.15338278163746
1789741090813315300,6.7353154296875,-0.9959012352548539,-0.010697335103154182,0.2772187124036252
1789741090823392500,6.745392578125,-0.6440449227571488,0.17515198424458503,0.31151553428098555
1789741090833470500,6.755470458984375,-0.7149671555899083,0.736067372894287,0.014913783754408359
1789741090843547400,6.76554736328125,-0.8959219808943569,0.21849194427728652,-0.404171898407489
1789741090853625300,6.775625244140625,0.33976679238379,1.292680680435896,-0.16764336218014358
1789741090863702300,6.785702392578125,-0.1495255216874182,0.8885849160045385,0.43243879247084255
1789741090873780200,6.7957802734375,-0.535977492878586,-0.2596229960888624,0.12138722243979573
1789741090883857200,6.805857177734375,-0.5746751800633967,-0.029263503885269163,0.15695289520919323
1789741090893935000,6.81593505859375,-1.4034668677538633,-0.394381595146656,0.28468539502248164
1789741090904013300,6.826013427734375,-1.2333360726721585,-0.6882827084124088,0.06160816878154873
1789741090914090500,6.836090576171875,-0.7927187960512936,-0.3822615337640047,0.13504516091421245
1789741090924168400,6.84616845703125,-0.46628962414637204,-0.08181786698698996,0.3762710611775517
1789741090934245400,6.856245361328125,0.5433059360705316,0.22601474099755287,0.01918678489848971
1789741090944323300,6.8663232421875,0.3144495419062674,0.5695470233947039,-0.06827814806476235
1789741090954400300,6.876400146484375,-0.701456662762165,2.2471347836673257,0.6944736720070243
1789741090964478200,6.886478271484375,-1.7425075378201902,1.2176496971100568,0.6607729163266718
1789741090974555100,6.89655517578125,-2.0458418114721773,-0.7405284439563751,-0.10893486036285757
1789741090984633000,6.906633056640625,-1.4379041210152208,-0.9541823005527257,-0.45684974175840615
1789741090994710300,6.916710205078125,-0.9356156933791935,-0.26400106504261495,-0.11650295752957462
1789741091004788500,6.92678857421875,-0.6191070269860327,-0.13385960439145564,0.08626300982758402
1789741091014865400,6.936865478515625,-0.9235558377511799,0.009734627550840378,0.49580564148798584
1789741091024943400,6.946943359375,-1.000728363150358,-0.2148030266314745,0.8647124575078486
1789741091035020300,6.957020263671875,-0.9542968668431043,0.0016658873856067657,0.5768580770604312
1789741091045098200,6.96709814453125,-0.6343028425522148,0.8303186049968003,0.006962824749946594
1789741091055175400,6.977175537109375,-0.5962082358270884,1.1662374897807837,-0.4200660715013742
1789741091065253400,6.98725341796875,-1.3431465468257664,0.48634442405104633,-0.42380072798505425
1789741091075330300,6.997330322265625,-1.854308016747236,-0.0009925181686878204,-0.2751359147801995
1789741091085408300,7.007408203125,-2.2088275571048257,-0.2568389183282852,-0.10984992938116192
1789741091095485200,7.017485107421875,-2.493290979939699,-0.44693946537971496,-0.0732018682025373
1789741091105563400,7.0275634765625,-2.2698574876070023,-0.3707154728770256,-0.2150314285598695
1789741091115640300,7.037640380859375,-1.3201457565970718,0.21474340539872644,-0.5547020670928061
1789741091125718300,7.04771826171875,-0.8242454225629567,0.8688643164902925,-0.673492843298614
1789741091135795500,7.05779541015625,-1.3179565759897232,0.6644663640171289,-0.7305399877749383
1789741091145873400,7.067873291015625,-1.2442587409637869,0.5597101045131683,-1.0105633823357523
1789741091155950300,7.077950439453125,-0.9442956973105668,-0.15346914474666118,-0.8505151514597237
1789741091166028300,7.0880283203125,-1.2949252444922923,-0.4603285237848758,-0.8404838790498673
1789741091176106200,7.098106201171875,-1.0129577301263808,-0.2787678415417671,-0.6337181745320558
1789741091186183200,7.10818310546875,-0.7733283052742481,0.6790846719563007,-0.20943872311934827
1789741091196261400,7.118261474609375,-1.109210365179181,1.159291616165638,0.4590243093185126
1789741091206338300,7.12833837890625,-1.7000306243576109,0.7072820079147816,0.7265348437868058
1789741091216416300,7.138416259765625,-1.820035160267353,-0.0942991628974676,0.3663127078734338
1789741091226493400,7.148493408203125,-0.7306377490609883,0.23201135106384752,-0.2542128076083958
1789741091236571400,7.1585712890625,0.6644236939191818,1.6750135258704424,-0.8164055227175354
1789741091246648300,7.1686484375,1.0582084922164678,1.3595014692991971,-1.387043848480284
1789741091256726300,7.178726318359375,0.3263981922447681,1.0273422293096781,-1.379499278319627
1789741091266803200,7.18880322265625,-0.4783522562533617,0.1891740798562765,-0.5652228765852749
1789741091276881200,7.198881103515625,-1.8602683864563703,-1.9090245263189076,-0.27222850290089845
1789741091286958300,7.208958251953125,-1.935558459109813,-2.488060093548894,-0.4909529407598078
1789741091297036300,7.219036376953125,-0.41741190373077985,-0.05207622419595718,-0.614470014835149
1789741091307113500,7.229113525390625,1.127471851926297,1.9321365218371152,-1.2044788115002214
1789741091317191400,7.23919140625,1.4277799096249044,1.8459177895426748,-2.006273186671734
1789741091327268400,7.249268310546875,0.4163781767688691,1.3553157080471514,-1.6583603511027991
1789741091337346300,7.25934619140625,-0.9111059598922729,0.36139819395542144,-1.3697753182932733
1789741091347423200,7.26942333984375,-1.4587800280444323,-0.91478552518785,-1.4853133763134478
1789741091357501200,7.279501220703125,-1.3522592430859803,-1.2591712095439433,-1.3320185652203858
1789741091367578400,7.289578369140625,-0.24406769956052302,-0.5729542014896869,-1.5853813318707048
1789741091377656300,7.29965625,0.8246591179303825,-0.2778361136496067,-2.1235735781893132
1789741091387733200,7.309733154296875,0.8520673493377864,1.4546213009297846,-2.194770390179753
1789741091397811500,7.3198115234375,0.6760562640458345,1.8805372675031422,-2.268182540132105
1789741091407889400,7.329889404296875,1.2961721758134663,1.4580460146814584,-3.055808543089032
1789741091417966300,7.33996630859375,-0.23696108242571354,-0.12025368836522102,-4.366001207078993
1789741091428044300,7.350044189453125,-1.151905159176141,-1.2499328410774468,-5.472497344863415
1789741091438121200,7.360121337890625,-1.4248967554040253,-1.0098451510637998,-5.594453160971403
1789741091448199200,7.37019921875,-0.9165696321256458,-1.1732190192312002,-5.0346039402484895
1789741091458276400,7.3802763671875,0.5973574058622122,-0.9446861579328775,-4.785517535743117
1789741091468354300,7.390354248046875,2.287644488710165,0.416010074108839,-4.530735549944639
1789741091478431200,7.40043115234375,2.7318746951311823,2.604104055264592,-4.143036501301824
1789741091488509400,7.410509521484375,1.752932339592278,3.2187177163541314,-3.119705553460121
1789741091498586400,7.42058642578125,2.025908884381503,1.2267501184105873,-1.2628072279587388
1789741091508664300,7.430664306640625,1.151469836498797,-1.4385381811350584,0.12110913615077733
1789741091518741200,7.4407412109375,1.7150310634821653,-2.2780139060556888,0.41479397631734605
1789741091528819200,7.450819091796875,1.2004822892099618,-2.0916963846743104,-0.8364321194410324
1789741091538896400,7.460896484375,1.4321417580962181,-1.5778338391005993,-1.3357880007565022
1789741091548974300,7.470974365234375,3.3048516929745673,1.2635334964066742,0.02935308186486363
1789741091559051300,7.48105126953125,4.14766942179948,2.2474211993932722,2.104979936878383
1789741091569129000,7.49112890625,3.899676950010657,1.1828659684985876,3.038130847579241
1789741091579206000,7.501205810546875,3.0849896293878554,0.8637216929048299,5.2351282661587
1789741091589283800,7.511283935546875,0.6963228070050478,-0.423923331451416,5.1125528568476435
1789741091599361000,7.521361083984375,-0.17949162088409065,-1.3691653697013855,4.469764656153321
1789741091609439000,7.53143896484375,-2.282659101513028,-3.3257471814870834,4.17943117224127
1789741091619516000,7.541515869140625,-2.104275295740366,-3.666512337258458,4.6139878336489195
1789741091629593900,7.55159375,-0.8933366405762732,-1.3798521834105253,4.765874677640199
1789741091639670800,7.5616708984375,0.5009105634115636,0.755629566976428,4.3225332367524505
1789741091649748700,7.571748779296875,1.563346756325662,3.351289034500718,3.58502589418292
1789741091659826000,7.581825927734375,0.6450847871989012,1.7599205910444258,2.679400411528349
1789741091669904000,7.59190380859375,0.27989699170216914,-0.6916735198944807,0.7946975487783551
1789741091679981800,7.60198193359375,-0.7761901244461535,-1.4883131426513194,0.015044570527225732
1789741091690059000,7.61205908203125,-1.520299495629221,-1.3491525092422962,-0.11969941548332572
1789741091700137000,7.622136962890625,-0.5496366003967821,-0.6557166558504104,0.06323562385290861
1789741091710214000,7.6322138671875,0.282608150357008,0.571154458591342,0.7154784661129117
1789741091720291800,7.642291748046875,1.1211444024704396,1.2902426396340132,0.6861069718085229
1789741091730368800,7.65236865234375,2.98740369990468,1.5977444082289933,0.42137934605702754
1789741091740446700,7.66244677734375,2.052108324521035,0.789565154325962,0.1966791947893798
1789741091750524000,7.67252392578125,0.7633522701829671,0.07333002462685108,0.5383991670675575
1789741091760602000,7.68260205078125,0.17667510215863585,-0.2521908002614975,1.1957653436906635
1789741091770679000,7.692678955078125,-0.8638502877205609,-1.3834458239883183,2.03660037426576
1789741091780757000,7.702757080078125,-1.4148732279092073,-1.2447644985288382,2.008088565530628
1789741091790834000,7.712833984375,0.12915931774601339,0.1378483817666769,1.8363208168968557
1789741091800912000,7.722911865234375,0.9735790749400853,0.9291700243711472,1.8504542639285324
1789741091810988800,7.73298876953125,0.6711069710753857,1.0978858380883931,1.7621097716517746
1789741091821066800,7.743066650390625,0.18701602503955364,-0.053473231512308116,1.8343712902642786
1789741091831144000,7.75314404296875,-0.2316363802716136,-1.1354799479454756,1.9727439881660043
1789741091841222000,7.763221923828125,-0.7235843234181404,-1.6632096908301115,2.4868627004578707
1789741091851298800,7.773298828125,-0.6638350803762674,-1.962549195757508,2.354098197826743
1789741091861377000,7.783376953125,-0.7327841134399176,-1.521294790276885,1.7244876047439872
1789741091871454000,7.793453857421875,-0.45961496868804097,-0.787207777544856,0.9736213066466152
1789741091881532000,7.803531982421875,0.6497900422804057,0.38334815995693206,0.050721010194718835
1789741091891608800,7.81360888671875,1.1960444528929888,1.4479080670267344,-0.4217037557058036
1789741091901686800,7.823686767578125,1.2966373091071843,1.7800953640669583,-0.11585896053761244
1789741091911764000,7.833763916015625,0.9583433657549321,0.3647831602185964,0.27898952146843076
1789741091921842000,7.843842041015625,-0.265442496022582,-0.950073111668229,0.39674540166854855
1789741091931920000,7.853919921875,-0.6989686453387141,-2.2465701355218886,0.32721228510662914
1789741091941996800,7.863996826171875,-0.4641498356387019,-2.4069769705772397,0.15974369497150182
1789741091952075000,7.874074951171875,-0.20850772587954997,-1.2172118902146816,0.0946380394630134
1789741091962152000,7.88415185546875,0.586700987291336,0.04365267924368381,0.17944573591575025
1789741091972230000,7.89422998046875,1.2255424961864947,1.6521680723339318,0.20871625406369565
1789741091982307000,7.90430712890625,1.1094488501101731,3.208759216919541,0.38914325610175726
1789741091992385000,7.914385009765625,0.33918592375591394,2.018008632650971,0.42043636611849067
1789741092002462000,7.9244619140625,-0.6377139661699534,-0.46867198923826214,0.26113544647842646
1789741092012540000,7.934539794921875,-1.9142158113516865,-2.18587981223762,0.6421745988406241
1789741092022616800,7.944616943359375,-2.1044313630849123,-2.6132886477172375,1.2501437073491513
1789741092032694800,7.95469482421875,-1.3736797783859074,-1.0179635755896568,1.570540905613452
1789741092042771700,7.964771728515625,-0.7698447009421885,0.0013549217402935027,1.6355851863235233
1789741092052850000,7.974849853515625,-0.04109831858575344,1.1359387976288795,1.3737054973490535
1789741092062927000,7.984927001953125,0.13155673427656292,2.7625872287809847,1.1464815266922115
1789741092073005000,7.995005126953125,-0.38212022559717296,1.456808581840992,0.9694071960829198
1789741092083082000,8.00508203125,-1.9042574580475686,-1.0287772305488585,0.9235456086181104
1789741092093160000,8.015159912109375,-2.941962968200445,-2.9198434908509254,1.120537376488
1789741092103236900,8.02523681640625,-2.459994859537482,-3.1238340315669775,1.1940453880302608
1789741092113314800,8.035314697265624,-1.5690940678060055,-1.1507055741280316,1.7614079069927333
1789741092123391700,8.045391845703126,-0.5318704959511756,0.8236135544002056,2.246153955936432
1789741092133469700,8.0554697265625,0.30310075715705753,1.7625690597265957,2.3857091416209935
1789741092143547000,8.065546875,-0.503539450610429,2.108861454486847,2.219557187042385
1789741092153625000,8.075625,-0.8996658435977994,1.7602683815687894,1.3739113951846957
1789741092163702000,8.085701904296876,-1.5516444819636641,-0.49258068809211253,0.3939928880900144
1789741092173780000,8.095780029296876,-2.409173603838682,-2.991075666415691,-0.7208002456575632
1789741092183857000,8.10585693359375,-1.4357295534551142,-2.482776015666127,-0.7315932962201536
1789741092193934800,8.115934814453125,-0.3840858265817165,-0.709828769788146,0.09591375848725438
1789741092204012800,8.1260126953125,0.18679273767769336,1.514769187900424,0.3062617054060101
1789741092214090000,8.136090087890626,1.041644164776057,3.2670401409745216,-0.11937222935557365
1789741092224168000,8.14616796875,0.0015403613097965717,2.071568373402953,-1.251236324891448
1789741092234244900,8.156244873046875,-1.0388520498394966,-0.26927228344380855,-2.099727715438604
1789741092244323000,8.166322998046875,-1.6850475747592746,-0.9430652787327766,-1.9993676450669764
1789741092254400000,8.17639990234375,-2.128629984796047,-2.0715560984432697,-1.6250145463399588
1789741092264478000,8.18647802734375,-2.5350007084220647,-2.973131428924203,-1.7882073588520286
1789741092274555000,8.196554931640625,-1.8080740888386964,-0.6373439638137817,-1.1755495080053806
1789741092284632800,8.2066328125,-0.4564398457832634,2.2345932820022103,-0.19756423399560152
1789741092294710000,8.2167099609375,0.749887223932147,3.134920658248663,0.40648353635072704
1789741092304788000,8.2267880859375,0.07104819729998707,1.9628104770421981,1.2635139149233698
1789741092314865000,8.236864990234375,-0.9616152270324527,-0.24186580560207366,1.2941915233902632
1789741092324942800,8.24694287109375,-1.3777398674316703,-2.5152912148237228,1.2087285778991876
1789741092335019800,8.257019775390624,-2.0750049237228927,-3.785409350317716,1.332824767036736
1789741092345098000,8.267097900390626,-0.8163948551930487,-2.9864596970528363,1.2014574909176676
1789741092355175000,8.2771748046875,1.3649538894861937,0.8305208495706319,1.2541462209887801
1789741092365252900,8.2872529296875,2.4407446540139612,3.2042268341869113,1.0689904368631542
1789741092375330000,8.297330078125,2.286258587309718,2.8862095167964696,0.7081713579699397
1789741092385408000,8.307407958984374,0.6853963393211364,0.7801333091139793,0.7951521606780588
1789741092395485000,8.31748486328125,-1.0627338606864214,-0.4106289655923843,1.1443526249047369
1789741092405563000,8.32756298828125,-1.8171476221323013,-1.634623647814989,1.4817637210078536
1789741092415639800,8.337639892578125,-1.1401846185050903,-1.3396277250498532,1.6656071073606609
1789741092425717800,8.3477177734375,-0.5220809233427047,-0.6040016661822796,1.1798287196945398
1789741092435795000,8.357794921875,-0.015815408769249917,-0.21100129626095293,0.6316326734948903
1789741092445873000,8.367872802734375,0.7488910525016487,0.20371932255923747,1.0797253274977205
1789741092455949800,8.37794970703125,1.5320743968360124,0.10923077456951141,1.3716409660346804
1789741092466028000,8.388028076171874,1.5511790564090013,-1.5656383743941782,1.633850033093989
1789741092476106000,8.39810595703125,3.0104566587120294,-0.4568547101944685,1.4108734907485543
1789741092486183000,8.408182861328125,3.8546845465958115,0.31568332148492334,0.7198623072203248
1789741092496260900,8.4182607421875,2.413033348006755,-1.1881927164793014,0.5023937146414071
1789741092506337800,8.428337890625,3.4520822355926035,-0.19657471150159836,0.07845237260926514
1789741092516415700,8.438415771484374,4.046450396510958,-0.4401642721563577,-0.13784575141817332
1789741092526493000,8.448492919921875,2.8309938255310056,-0.5991594868481159,-0.7448110897116362
1789741092536571000,8.45857080078125,2.5906471923202274,-0.41460429896414275,-1.6597567738972603
1789741092546647800,8.468647705078125,1.773049391078204,-0.11070493877530098,-2.050609464265406
1789741092556726000,8.47872607421875,1.1203371777407825,0.5911059442520141,-2.1563260932341217
1789741092566803000,8.488802978515626,0.9971393987476825,0.990266005846858,-1.854653176923096
1789741092576880600,8.498880615234375,0.10074527029693126,0.9274071063518524,-1.877000033287704
1789741092586957600,8.50895751953125,-1.1903677224308251,-0.07693594016432762,-1.344325819738209
1789741092597035800,8.519035888671874,-0.8769332027859985,-0.7623772876709699,-0.7702862341646105
1789741092607113000,8.529113037109376,-0.9904824250765144,-1.0781909575372934,-0.24978742891419678
1789741092617191000,8.53919091796875,-1.4206899513639508,-1.670618505781889,-0.1327481360182166
1789741092627267800,8.549267822265625,-0.9086943687058985,-0.14356792845726013,-0.4934345284424722
1789741092637345800,8.559345703125,-0.10881181850507855,1.5087100339919328,-0.4786265431500971
1789741092647422700,8.569422607421876,-0.13206585284247993,1.8281898251503705,-0.48440238660518076
1789741092657500700,8.579500732421875,-0.16243161888122556,1.186037584272027,-0.046031299742218104
1789741092667577900,8.589577880859375,-0.49084480421021576,0.1709790824741125,0.34305151314288373
1789741092677655800,8.59965576171875,-1.6142193038202821,-1.500705006712675,0.8325486290711909
1789741092687732700,8.609732666015624,-1.0529882733501494,-2.241744322800636,1.5990891008362174
1789741092697811000,8.61981103515625,0.4501771321266889,-1.156661852183938,2.2517735493838784
1789741092707887900,8.629887939453125,2.0680986514657733,-0.6286836874961853,2.2519696564778684
1789741092717965800,8.6399658203125,2.374535859569162,0.7171054827928542,1.2239465322319418
1789741092728043800,8.650043701171874,2.793682039746642,2.3991905544847247,0.7272029523067176
1789741092738120700,8.66012060546875,1.8823223973542451,0.47098961853086946,1.256139294502139
1789741092748198700,8.67019873046875,0.025800650080293416,-0.4551981751590967,1.497981280837208
1789741092758275800,8.68027587890625,0.5191156437963247,-1.1929396187454462,1.1998751170970499
1789741092768353800,8.690353759765625,-0.6859991275198757,-2.2036580455124377,0.939630920369923
1789741092778430700,8.7004306640625,-0.7104092000246047,-1.2098697107583283,1.1565823572069407
1789741092788509000,8.710509033203126,1.0811176586389541,1.1562708070397376,1.4708768546819686
1789741092798585900,8.7205859375,1.8027280516356228,1.9870196201473473,1.2021764528419823
1789741092808663800,8.730663818359375,1.3347206637859343,1.1911369532376528,0.9937607160948216
1789741092818740700,8.74074072265625,0.050339609661698335,0.09367840065062046,0.7851995795276016
1789741092828818700,8.750818603515626,-0.5691172536753117,-1.9421137259721755,0.6217842833712697
1789741092838895900,8.760895751953125,-1.275069035899639,-2.6338983050256966,0.9585190145827829
1789741092848973800,8.770973876953125,-0.9552755026169121,-2.470135145279765,0.20923863396998493
1789741092859050800,8.78105078125,-1.034729416951537,-0.9142997874975204,-0.8261093167386948
1789741092869128700,8.791128662109376,-0.48710313346385953,1.7732804233551025,-2.1755128781326114
1789741092879205600,8.80120556640625,0.3969353712826967,3.5603888810545206,0.0772359277579002
1789741092889283600,8.81128369140625,3.516286704477668,4.719688680526614,0.32706746980845924
1789741092899360800,8.82136083984375,2.7203637055575847,1.903650432065129,-1.5537427694171666
1789741092909439000,8.83143896484375,-1.8427486579872667,-4.09586996871829,-2.212985115175694
1789741092919516000,8.841515869140625,-5.027449976840615,-5.31164861125946,-0.3661261723253876
1789741092929593900,8.85159375,-2.410311814088374,-1.2640566434979439,1.4087240576297044
1789741092939670800,8.8616708984375,0.9120879566669463,1.232905133908987,-0.184087972231023
1789741092949748700,8.871748779296874,2.3630000278152523,2.733388606825471,-3.0405694729030133
1789741092959825700,8.88182568359375,0.7760166675753891,2.7005425682783124,-4.092273990052938
1789741092969903600,8.891903564453125,-0.30636209704056383,1.7805781791478394,-2.4035110480323434
1789741092979980800,8.901980712890625,-0.8416326106935739,-1.115215743073821,-1.330514152006805
1789741092990058800,8.912058837890624,-0.5944815581649542,-1.5731991650372743,-1.2993956679046152
1789741093000135700,8.9221357421875,-1.0390887812048195,-1.2682342214435338,-2.263976174483448
1789741093010214000,8.9322138671875,-0.642901013419032,-0.2031213566660881,-2.9689784008979796
1789741093020291800,8.942291748046875,-0.16063830572366714,1.0047563034921885,-3.2754528722718357
1789741093030368800,8.95236865234375,-0.5189671752363443,1.55170337254405,-3.050337125940621
1789741093040446700,8.96244677734375,-0.8375171381987631,1.6725906826376915,-3.311047040483355
1789741093050523600,8.972523681640626,-1.6272722621388733,0.4325450293242931,-3.5683337025791406
1789741093060601600,8.9826015625,-1.615432625132799,-0.22947452606260776,-3.65672656404227
1789741093070678800,8.9926787109375,-1.2034728493280709,-0.14395020577311515,-2.981720978093147
1789741093080756700,9.0027568359375,-1.2238631647974252,-0.02581424021422863,-2.9412729401096698
1789741093090833700,9.012833740234376,-0.09718319390118121,0.8119511736571788,-2.9628818375885486
1789741093100911900,9.022911865234375,0.3416910384446382,1.4538988318741322,-3.3235233679577707
1789741093110988800,9.03298876953125,0.16961071673035621,1.2346353187024592,-3.459580190132558
1789741093121066800,9.043066650390625,-1.317315355476737,-0.6938041021823883,-3.0369243943989277
1789741093131144000,9.05314404296875,-1.6104162582755088,-1.7015695243626832,-2.373412262366712
1789741093141222000,9.063221923828126,-1.4052877995707094,-0.6299520999968051,-2.2209642773613334
1789741093151298800,9.073298828125,-1.6732793955542147,-0.457193148368597,-2.3548520849339662
1789741093161376800,9.083376708984375,-1.3695983542911707,-0.6396651002377272,-2.7078724727749823
1789741093171453700,9.09345361328125,-0.49379064840376374,-0.026440263158082962,-2.323707735738158
1789741093181531600,9.10353173828125,0.17893442539274693,0.5828659391731024,-1.9091756252273917
1789741093191608600,9.113608642578125,1.0036316833764314,1.2244541164278984,-1.7750836733847855
1789741093201686800,9.123686767578125,1.808534545957297,2.5894816556721922,-1.0849247227717191
1789741093211764000,9.133763916015624,0.4724743041306734,1.8394208287388085,-0.5720677740439772
1789741093221842000,9.143842041015626,-2.254357720658183,-1.3865344376534223,-0.78283613833189
1789741093231918800,9.1539189453125,-3.9226328781843183,-3.473859183114767,-0.6037813744951039
1789741093241996800,9.163996826171875,-3.8701469041436907,-2.8224913701236245,-0.4068957704134285
1789741093252073700,9.17407373046875,-2.1390712993115186,-2.314860996937752,0.021701379801612346
1789741093262151700,9.184151611328126,-0.2446447687961161,0.5543903707951306,-0.3147682159340009
1789741093272228600,9.194228515625,-0.01919189946502447,1.4595178407996892,-0.26851158300330863
1789741093282306600,9.204306640625,-0.4433335498422384,1.2635568772822618,-0.5685192147169262
1789741093292384800,9.214384765625,-0.4307904407419264,1.6662661557912826,-0.06784099875651299
1789741093302462000,9.2244619140625,-0.615979688745737,0.787972332176566,0.734165046404302
1789741093312540000,9.234539794921876,-0.6390285558998584,0.152191964417696,0.7139267066262662
1789741093322616800,9.244616943359375,-0.5803760220535099,-0.2501245153814554,0.47798561489805574
1789741093332694800,9.25469482421875,-0.6636188072770833,1.361931911316514,0.48839646121002733
1789741093342771700,9.264771728515624,-1.7667070363141595,0.7981295690536498,0.8308565112657844
1789741093352849700,9.274849609375,-2.5992133606135845,-0.9172177207708359,1.0194952421363443
1789741093362926800,9.2849267578125,-2.255391301489621,-1.3739607872843742,1.1241237105421722
1789741093373004800,9.2950048828125,-2.6692992887526747,-1.42969494946599,0.14352675619665534
1789741093383081700,9.305081787109375,-1.6961511525757609,-0.4206599457412958,-0.8131680021010339
1789741093393160000,9.315159912109374,-1.1290503532893954,1.772367400163412,-0.44236360883153975
1789741093403236900,9.32523681640625,-0.7878150957882404,0.3362503086954355,-0.22755455431807786
1789741093413314800,9.335314697265625,-0.15008023296073078,-0.8007827139109372,-0.13640424737296997
1789741093423391700,9.345391845703125,-0.8715558936618268,-0.5453051470637321,0.18318178063891827
1789741093433469700,9.3554697265625,-0.46333340468928214,0.7881044341236353,0.03802245480436831
1789741093443547000,9.365546875,0.16959829564020037,1.064357077974081,0.1470599718241021
1789741093453624800,9.375624755859375,-0.44498599322438237,0.8191746951699257,-0.6332561099782585
1789741093463701800,9.38570166015625,-0.8053753023982048,1.305921854802966,-1.0984112502019852
1789741093473779700,9.39577978515625,-1.2373808180183172,1.0033628033071755,-1.4496340140365063
1789741093483856600,9.405856689453126,-1.5120774645984172,-0.8516589146673679,-1.773546088553965
1789741093493934800,9.415934814453125,-2.883362310671806,-1.2832798148840665,-2.058345611475408
1789741093504011800,9.42601171875,-2.8194313980311154,-0.33338673595786095,-1.9445545432530342
1789741093514089700,9.43608984375,-2.71403099540472,-0.8404185587286949,-1.3492558234862981
1789741093524167000,9.4461669921875,-2.1365192767411467,-2.0853221734672784,-1.1296630052950232
1789741093534244900,9.456244873046876,-0.05024491711556911,0.41700259227752684,-0.746442636436224
1789741093544321800,9.46632177734375,1.160419743412733,3.613649931120872,-0.570517475862056
1789741093554399700,9.476399658203125,1.095015835610032,3.7321208277225493,-0.8812934438221156
1789741093564476700,9.4864765625,-0.8132546574711799,1.962877697059512,-0.8779063586670904
1789741093574558000,9.496557861328125,-2.644766905042529,-2.0195897643625735,-0.9252164644397795
1789741093584636000,9.506635986328124,-2.616871182379126,-3.1286814715981484,-0.6323273046955465
1789741093594713000,9.516713134765626,-2.60981483412683,-1.596206531137228,-0.29734533543549474
1789741093604791000,9.526791015625,-0.7535662047058344,0.9662404026150703,0.35011626389734446
1789741093614868000,9.536867919921875,-1.1285217993706465,1.5803730021893978,0.9112260791406035
1789741093624946200,9.5469462890625,-2.73629952583611,-1.0349877756267785,0.7514576881192624
1789741093635023000,9.557023193359376,-0.36460561169460415,-1.5332026702135801,1.127275087245181
1789741093645101000,9.56710107421875,0.3414699430398643,1.5552034896194933,1.0271150694902986
1789741093655178000,9.577177978515625,-0.19833266108483075,2.1516624853372575,0.7184904343452304
1789741093665256000,9.587255859375,-0.3454623736768961,1.3813900605022906,0.938274756520614
1789741093675333000,9.5973330078125,-0.9764660285532474,0.4904448451071977,1.2887722748205066
1789741093685411000,9.6074111328125,-1.1250094073355197,-0.8864262766659259,1.6035156851068137
1789741093695488000,9.617488037109375,-1.1196738915264606,-0.6532791995704174,1.7005667770609258
1789741093705566000,9.62756591796875,-1.125138440542668,-0.10805647009313106,2.0418205931320785
1789741093715643000,9.637642822265626,-1.0926097973816096,1.1649977188527583,2.592017311629653
1789741093725721000,9.64772119140625,-2.7522575579464434,-1.6544196506530044,2.420179566499591
1789741093735798000,9.657798095703125,-2.2737487959571183,-2.0462205816566943,2.6296540915846824
1789741093745876000,9.6678759765625,-0.5360936666041612,1.6501900502592324,3.121227063938975
1789741093755953200,9.677953125,-0.908257146332413,1.48635382527709,2.832134519998729
1789741093766031000,9.688031005859376,-0.20494228848293422,1.8806693694502115,2.7469667580619452
1789741093776108000,9.69810791015625,0.4970836985997855,3.3451837033629417,3.5028719271093607
1789741093786186000,9.70818603515625,0.45841465298756956,1.7662381036281585,3.245621505370736
1789741093796263000,9.718262939453124,-1.1661768456347286,-0.8229454458802938,2.8268773301228878
1789741093806340900,9.7283408203125,-1.7123108447380362,-1.4780278954803943,2.8817408469498154
1789741093816418000,9.73841796875,-1.2642444211550057,0.7555389660835266,2.6258085220724343
1789741093826496000,9.74849609375,-3.0831670901358126,-3.1566666261106726,2.165095529014617
1789741093836573200,9.7585732421875,-2.024766290217638,-3.2190275129556656,1.747497455061972
1789741093846651100,9.768651123046874,-0.012516513354331254,1.5266145239949225,1.8260772169105708
1789741093856729000,9.77872900390625,0.18594620385095476,1.7510265059709549,1.4392650341048836
1789741093866806000,9.788805908203125,0.0814461110651493,1.375233291438222,1.206687719721347
1789741093876884000,9.798884033203125,-0.11173252825736998,0.8587608556270598,1.268013564430177
1789741093886961000,9.8089609375,-0.6089474520213901,0.1689537141263485,1.3683444087073207
1789741093897038800,9.819038818359376,-0.8542530228137969,0.5736112040936947,1.0595819725267588
1789741093907116000,9.829115966796875,-1.3093559209048746,-0.882283770033717,0.1603465562354773
1789741093917194200,9.8391943359375,-1.710129409045726,-2.4842262144744396,-0.6944744026593863
1789741093927271200,9.849271240234375,-1.7053982888706027,-1.7580372615158557,-0.5914589954733849
1789741093937349000,9.85934912109375,-0.5277940402925014,0.09855097512304782,-0.2280382461817935
1789741093947426000,9.869426025390625,1.6968388425789773,2.0207944639772175,-0.234647544786334
1789741093957504000,9.87950390625,0.9395347665190696,1.7320809824824333,-0.7347111359797418
1789741093967581000,9.889580810546875,0.19934812173768876,0.2417033085167408,-1.0759647328551858
1789741093977659000,9.899658935546874,-0.49099093468263744,0.5829892732918263,-0.7122423337358981
1789741093987736000,9.909736083984376,-0.10944091018885374,-0.25330431446135043,-0.220024999063462
1789741093997814000,9.91981396484375,-0.2563346220679581,-1.7304425676256416,-0.6416494059227407
1789741094007891000,9.929890869140625,0.4349642192952335,0.24728958421647548,-0.8943252132222056
1789741094017969200,9.93996923828125,0.1921701929323375,0.48336394693553447,-1.0486838541544974
1789741094028046000,9.950046142578126,-1.1416006227828561,-1.9488339741379022,-1.135653039490059
1789741094038124000,9.9601240234375,-0.4643834982641041,-2.0992484074890614,-0.9212086901031434
1789741094048201000,9.970200927734375,1.1189128440260887,-0.01628361080288887,-0.29677144453767684
1789741094058279000,9.98027880859375,0.47241278320178387,0.7760954319000244,-0.25707269055154175
1789741094068356000,9.990356201171876,1.9306886611163616,2.7260756534636017,-0.35385618107803163
1789741094078434000,10.00043408203125,2.8212761491149663,2.7843168300300833,-0.6259827579744159
1789741094088511000,10.010510986328125,0.10872852413579821,-0.695520258450508,-1.0629350092817098
1789741094098589000,10.0205888671875,-0.626347353503108,-1.6693226207524536,-1.3204141982749105
1789741094108665900,10.030665771484376,0.06391688411533832,-0.05726502501070499,-0.9584034253790974
1789741094118744000,10.040744140625,-0.7495290581442415,-0.9606208091676235,-1.2338000369220972
1789741094128821200,10.0508212890625,-0.630320787178725,-1.201748363623023,-1.7752698436066507
1789741094138899200,10.060899169921875,-0.16621522907316683,-1.101140455970168,-1.427423205141723
1789741094148977200,10.07097705078125,0.3455757709234953,0.9391133262366056,-1.0333402276154606
1789741094159054000,10.08105419921875,0.12775368873178958,0.6899895123302936,-0.4146076964976266
1789741094169132000,10.091132080078125,0.8156067735552788,0.26350246787071224,-0.6569303424891084
1789741094179209000,10.101208984375,0.5999504910953343,0.6910486659944057,-0.48720451147910204
1789741094189287000,10.111286865234375,0.3538334577895701,0.5945394258320331,-0.5554244996158406
1789741094199363800,10.12136376953125,1.3781459640145302,2.09729259724617,-0.12808335907757282
1789741094209442000,10.131442138671876,0.5183275621585548,0.9701187053531408,0.05850556312371045
1789741094219519200,10.141519287109375,-0.9771997496552765,-1.7145009021282196,-0.057190662866551424
1789741094229597200,10.15159716796875,-1.1599049257583915,-0.9132920717597007,0.26777187055191026
1789741094239674000,10.161674072265624,-1.6117076132602988,-0.8062766351521015,0.5465840078931301
1789741094249752000,10.171751953125,-2.1011153704047203,-2.473742229861021,0.10748274359209463
1789741094259829000,10.1818291015625,-0.7731221151776612,-0.5901175177365541,-0.005636398451775312
1789741094269907000,10.191906982421875,-0.4041898724555969,1.1929530627489089,0.30835129809640344
1789741094279983900,10.20198388671875,-0.4942576813936233,-0.22707798631489276,0.06027704804195091
1789741094290061800,10.212061767578126,1.5651548286609351,1.3583102136880159,0.26238979392107575
1789741094300139000,10.222138916015625,1.1452321111530064,2.835661232820153,0.8666330503068864
1789741094310217200,10.23221728515625,0.30624957657679913,1.6100415797442196,0.5000924884943291
1789741094320294100,10.242294189453125,0.2268020919829607,0.3894938231050968,0.25871870419289916
1789741094330372000,10.2523720703125,-2.6855583496361968,-2.168302069970965,0.08612257844358683
1789741094340449000,10.262448974609375,-5.729045755812526,-5.492347123715281,-0.6564164746828377
1789741094350527000,10.27252685546875,-0.020427432609349486,-5.175817999055981,-0.6442220328897238
1789741094360604200,10.282604248046875,1.5003332507908342,0.9447370113372802,0.14973251550160346
1789741094370682000,10.29268212890625,-0.8066990983478725,3.8548973125636574,-0.7583819344244896
1789741094380759000,10.302759033203126,3.6708237707167863,3.8207694175124165,-0.7638278518054634
1789741094390837000,10.3128369140625,2.9717250692576167,5.2103609046488994,-0.45859563557766375
1789741094400914000,10.322913818359375,-0.4597860874712467,2.968347701779008,0.09832524007577448
1789741094410991900,10.332991943359374,-1.6217261723190546,-2.8445827904224394,-0.06332923868680372
1789741094421068800,10.34306884765625,-1.6659101819604634,-2.279919447416067,0.19736655599903313
1789741094431147000,10.35314697265625,-2.156009136239439,-1.483194484463334,0.29949233913524076
1789741094441225000,10.363224853515625,-1.769657556682825,-2.8220909726291894,-0.27324527872800825
1789741094451302100,10.37330224609375,0.09361775650456547,-0.09152911366224288,-0.7214316023636609
1789741094461380000,10.383380126953124,0.8354840249359607,3.213022719582915,-0.18735075515294447
1789741094471457000,10.39345703125,-0.14616510534361005,1.1531056210070847,-0.19261309612793848
1789741094481535000,10.403534912109375,-0.9049614657878875,0.4783867430448532,-0.3202546479884535
1789741094491612000,10.41361181640625,-0.4950958857834339,-0.19445698869526384,0.18679410765087232
1789741094501689900,10.42368994140625,-0.8235622626043856,-0.3650263213247061,0.2831856579840183
1789741094511766800,10.433766845703126,-0.6369556951485574,1.1699117943793536,0.2298168549605645
1789741094521845000,10.443844970703125,-0.06243643629923463,0.6335603536218405,0.4664028021972626
1789741094531922200,10.453922119140625,-0.020148469537496567,0.07202654081285,-0.05878076333589852
1789741094542000000,10.464000244140625,-1.2881040201701224,-0.4469067321538925,0.01775421307841316
1789741094552077000,10.4740771484375,-2.5277456227272745,-3.777082835999131,-0.3166199447479099
1789741094562155000,10.484155029296875,-2.2472477425225077,-2.49728034183681,-0.5909469542980194
1789741094572229400,10.4942294921875,-0.5660838773287833,0.9311065453916788,-0.016074498096853494
1789741094582307300,10.504307373046874,-0.09659458035826682,1.5846002644956112,-0.24222846490200609
1789741094592384300,10.51438427734375,1.7641548676133154,3.49914209293127,-0.5675190977636725
1789741094602462500,10.52446240234375,2.0873736991696057,4.563756360536813,-0.2974276799567044
1789741094612539600,10.53453955078125,-0.7722977931827306,0.5029723182469606,-0.11776019104905426
1789741094622617600,10.54461767578125,-2.767448697337508,-3.693637075549364,-0.14076971257347612
1789741094632694500,10.554694580078126,-2.8929888016730545,-2.5683950285017487,0.127220458637923
1789741094642772500,10.5647724609375,-2.8519787458926436,-3.8748143114328384,0.042352885224111375
1789741094652849400,10.574849365234375,0.3261098768226802,1.7773890277177093,-0.5259106742313131
1789741094662927400,10.58492724609375,2.162299614685774,4.790969955930113,-0.1475595919093117
1789741094673004300,10.59500439453125,0.49152284960225223,2.2775720075070858,-0.45370749820992345
1789741094683082200,10.605082275390625,1.1401795039385556,1.2622668374717234,-0.5715807211793958
1789741094693159400,10.615159423828125,-0.9031332274474203,0.33844343482553957,0.056966480455547565
1789741094703237600,10.625237548828125,-2.5596523345977067,-3.2667268372416496,-0.36682390879858284
1789741094713315600,10.635315673828124,-1.089978425964713,-2.6368098085582257,-0.5010061327405274
1789741094723392500,10.645392578125,-1.2291197701513767,-0.9302285935133695,-0.049148865507170555
1789741094733470500,10.655470458984375,-0.9861274447374045,-1.6493214507311582,-0.17795312273781747
1789741094743547400,10.66554736328125,0.4049098572932184,-0.12828560365140437,-0.2430907808197662
1789741094753625300,10.675625244140624,1.1517863551020622,1.970557730168104,0.29475623225774616
1789741094763702300,10.685702392578126,0.9341777695305645,1.6868015788197517,0.24411106377821415
1789741094773780200,10.6957802734375,0.49026656593084333,1.5835340965688227,0.10929364720527082
1789741094783857400,10.705857421875,0.2650327461779117,2.0249621050506827,0.25404899534881115
1789741094793935600,10.715935546875,-0.7649585363358259,-0.11238719277381896,0.24404614531584082
1789741094804012500,10.726012451171876,-3.033054274967313,-1.6419459535270928,0.15636859251521526
1789741094814090500,10.736090576171875,-2.5225258422523735,-3.4068104307144877,0.09717943104151636
1789741094824167400,10.74616748046875,-1.0780180851884185,-3.838663386121392,-0.19985417156368493
1789741094834245400,10.756245361328125,-0.8812117568880319,-0.7058586971133947,-0.12629059390928596
1789741094844322600,10.766322509765626,0.17235402408912776,0.9414239412665366,0.04984254685975611
1789741094854400500,10.776400390625,2.0969243484556674,3.200258515077829,-0.15132427820507435
1789741094864477400,10.7864775390625,0.572066312739253,2.0660691914647815,-0.002646167127229273
1789741094874555400,10.796555419921875,-0.7173737783402204,-0.2690197699874639,-0.08621588275022804
1789741094884632300,10.80663232421875,-1.8871460181184112,-1.7518986126303673,-0.015515110648423432
1789741094894710500,10.81671044921875,-2.0098067676253617,-3.7715912528455253,0.2675330750936642
1789741094904787500,10.826787353515625,-1.6733436929620802,-3.1610482021957633,-0.23456899965740738
1789741094914865400,10.836865478515625,0.5860637123011052,-1.4443682024627924,-0.16223098174259065
1789741094924942600,10.846942626953124,1.0134434678167104,-0.15066986941695212,-0.04648614910393953
1789741094935020500,10.8570205078125,0.39540640814974903,2.243482690900564,-0.053740759874694045
1789741094945097500,10.867097412109375,2.2873421447627247,2.7916706999242304,0.540877978271246
1789741094955175400,10.877175537109375,2.140415699657798,2.505502811259031,0.9670914664864539
1789741094965252400,10.88725244140625,1.6823703183740377,4.367161190769076,1.0945612237103284
1789741094975330300,10.897330322265624,0.8566495625615119,2.313797751620412,1.388838038420677
1789741094985407200,10.9074072265625,0.9242891204617917,2.4924913539946076,1.4837728688731788
1789741094995485400,10.9174853515625,2.7031033586770294,5.175356811285019,1.9125318037874997
1789741095005562600,10.927562744140625,1.6711417990036308,1.4594365922570227,1.6325257987529038
1789741095015640600,10.937640625,2.438299745079875,1.7408073097735641,0.49544827941767866
1789741095025718500,10.947718505859376,0.3820269943557679,0.33367665881514547,0.5006333539053798
1789741095035795500,10.95779541015625,-2.87673441696465,-3.3882629666328428,-0.01105363772753626
1789741095045873400,10.967873291015625,-3.421270917743444,-3.8527170459151265,0.1946146634750068
1789741095055950300,10.977950439453124,-3.8061838427990673,-3.560143381860852,0.493916211012192
1789741095066028300,10.9880283203125,-2.532135674379766,-2.8050363774538036,0.553437746245414
1789741095076105500,10.99810546875,-0.886937148797512,0.8071434811145066,0.2536634300973266
1789741095086183400,11.008183349609375,0.06131926883757114,2.0317226852267978,0.04307181061580777
1789741095096260600,11.018260498046875,1.2943104735948145,2.178763258230686,0.032443668291345235
1789741095106338600,11.028338623046874,1.6346714324794709,3.2368905019044876,0.010997523626126349
1789741095116415500,11.03841552734375,-1.0977796012349426,-1.6918875037819145,-0.3282997515497729
1789741095126493400,11.048493408203125,-1.829136458350718,-3.8615959334194656,-0.57699076352939
1789741095136570400,11.0585703125,-2.9560686504423614,-3.761814539718628,0.06250570214316249
1789741095146648300,11.0686484375,-1.6015141360260545,-2.952237693977356,-0.050107225677929815
1789741095156725500,11.0787255859375,1.3503560398131609,-0.2290934177905321,-0.0206216217408888
1789741095166803500,11.088803466796875,1.6711540739633142,2.268324871212244,-0.2978577784696594
1789741095176880400,11.09888037109375,1.5882437355645,1.3531073843479156,-0.6391295320563017
1789741095186958600,11.10895849609375,1.92301228126958,0.9725240129292011,-0.1420659811954014
1789741095197035500,11.119035400390626,1.1770938148379326,2.628541746428609,0.5209906438879668
1789741095207113500,11.129113525390625,0.7854751085333526,0.8025199129670858,0.40434893547482786
1789741095217190400,11.1391904296875,0.6741938311748206,-0.32681378730833527,-0.32684250194616615
1789741095227268400,11.149268310546875,-0.6684482732601463,-0.7868564798891544,-0.5063252454040572
1789741095237345500,11.159345458984374,-1.153854978069663,-3.2607319807410238,-0.3136129449516535
1789741095247423500,11.169423583984376,-1.157628797519952,-1.9014678273290395,0.22732832608046008
1789741095257500400,11.17950048828125,-1.0982488261818886,-2.088552825951576,0.5780056761929765
1789741095267578400,11.189578369140625,-0.3812256148450076,-1.5110095431059598,-0.240342395427078
1789741095277655300,11.1996552734375,1.00898225062415,2.1258020678937433,-0.33505086977779863
1789741095287733500,11.2097333984375,1.1177063908457756,1.9836860918104648,-0.19358279967661945
1789741095297810400,11.219810546875,1.908317985484749,3.7256267895281314,-0.02094524593837559
1789741095307888400,11.229888427734375,0.959906377287954,2.1302140391170976,0.3058576546497643
1789741095317966300,11.23996630859375,-2.2131761077031493,-3.0027912386506794,-0.38757286497987803
1789741095328043500,11.25004345703125,-2.6782892354160546,-2.670458980181813,-0.5405095102850347
1789741095338121500,11.26012158203125,-2.2225924630850553,-0.9199071059852838,0.09899937647767365
1789741095348198400,11.270198486328125,-1.5803924375422298,-0.5827782608896493,0.13717948779547587
1789741095358276400,11.2802763671875,0.6156752989716827,1.857325903263688,0.019013492424506694
1789741095368353300,11.290353271484374,1.5233353561937808,2.4560604426980017,0.3589763736359775
1789741095378431500,11.300431396484376,0.6801929254591464,3.3908646735638377,0.23756134987380353
1789741095388508700,11.3105087890625,-0.6588192980408668,0.5020078571289778,0.2773829447883181
1789741095398586600,11.320586669921875,-1.8319110376305876,-2.2132541413754225,-0.010521046954486519
1789741095408663600,11.33066357421875,-2.941063973534107,-1.9186872576773166,0.011621774738002568
1789741095418741500,11.340741455078126,-2.3468144705593583,-2.041657803785801,0.014651022898685187
1789741095428818400,11.350818359375,-1.4273334810316562,1.038534069931507,-0.011723298883717507
1789741095438896400,11.360896484375,-0.166006993149966,1.5767565652579068,0.16536595530007034
1789741095448973300,11.370973388671874,0.5060024797230959,0.6066068802446126,-0.14065227847257628
1789741095459051300,11.38105126953125,0.6272497091703116,-0.30036008014678955,-0.13586005749367178
1789741095469128400,11.39112841796875,0.5920170677475631,-1.060164302459359,-0.3126120973460376
1789741095479206400,11.401206298828125,-0.19813494655564426,-2.316332238534093,-0.10745565465576946
1789741095489283300,11.411283447265625,0.36346667079254985,-0.9939297890514135,-0.27498125394145023
1789741095499361500,11.421361572265624,1.954769647797197,0.38038638754189014,0.22807631316985932
1789741095509438500,11.4314384765625,0.6663203213207424,1.3017764255613087,0.039093426770437506
1789741095519516400,11.441516357421875,1.9240822485886513,4.292244189211726,-0.050168198617547746
1789741095529593300,11.45159326171875,0.2801993356496095,1.5428472813934087,0.18756666292594745
1789741095539671300,11.46167138671875,-2.685675838536024,-1.3918348821491002,-0.1912409309918992
1789741095549748500,11.47174853515625,-2.4236120251663027,-1.6051532231807708,0.14895563111128285
1789741095559826400,11.481826416015625,-2.399569178538769,-1.9155822773993014,-0.06343750310055911
1789741095569903400,11.4919033203125,-2.136183176654577,-1.2161217568904161,-1.060201346534118
1789741095579981600,11.501981689453125,0.7243769351005553,1.3864993663400411,-0.7032501951154321
1789741095590059800,11.512059814453124,1.480757758835703,4.052024397251009,0.03188051798325032
1789741095600136700,11.52213671875,0.9978950394205749,2.3490952749729157,0.45154754369705913
1789741095610214700,11.532214599609375,-0.44417365392819047,-0.033784196180105204,0.28836896063974127
1789741095620291600,11.54229150390625,-3.355895651513338,-4.292570352426171,0.27761549316886813
1789741095630369500,11.55236962890625,-4.234012949517369,-4.799956395462155,-0.3476200631674379
1789741095640446700,11.56244677734375,-2.2081886746793984,-3.385392379632592,-0.1539655134288594
1789741095650524700,11.572524658203125,0.6850134774833917,2.773796605059504,-0.004605338370986283
1789741095660601600,11.5826015625,3.35139717105031,3.9846827993839975,-0.008075078574474901
1789741095670679600,11.592679443359375,1.6245764471836388,2.3688129518777132,0.09436048289695755
1789741095680756500,11.602756591796876,2.1271277635395527,3.2639941974073645,0.36485005144234745
1789741095690834700,11.612834716796876,1.7351722264960407,2.6652619960606097,0.9879797946058213
1789741095700911900,11.622911865234375,-1.3327766901113092,-1.3142799333035946,0.40385735256560146
1789741095710989800,11.63298974609375,-2.2597072649925947,-4.832227848991751,0.06576258504725992
1789741095721066800,11.643066650390624,-3.108980161306262,-4.2747091170430185,0.33206907748803494
1789741095731144700,11.653144775390626,-2.964707883971929,-3.223908855256438,0.2715136874287389
1789741095741221600,11.6632216796875,0.2610467452816665,0.3761971191585064,0.5823628119565546
1789741095751299600,11.673299560546875,2.2687287758380172,5.279200047597289,0.4506900500848889
1789741095761376500,11.68337646484375,2.3731791842631993,3.3605209732264276,0.14758098175721243
1789741095771454500,11.693454345703126,2.260870901944488,4.391409496840835,0.0454473258418031
1789741095781531600,11.70353173828125,0.17790742043256758,1.2568272767663,0.6536866113275289
1789741095791609900,11.71360986328125,-2.033305132112652,-3.1116438275575637,0.3052237406603992
1789741095801686800,11.723686767578124,-2.928056023401022,-3.1969325855255124,0.061971284739207474
1789741095811764700,11.7337646484375,-3.0895401322990654,-4.859520345064998,-0.1470899468372576
1789741095821841700,11.743841552734375,-1.9651346822060642,-4.065791641318798,-0.7781039952434599
1789741095831919600,11.753919677734375,0.14241919681355356,1.4223942710638044,-0.10567383100660517
1789741095841996500,11.76399658203125,2.28055263075307,4.490846022626758,0.25536895537357773
1789741095852074500,11.774074462890624,3.6591982148528097,5.584025290459394,0.09149016989134251
1789741095862151700,11.784151611328125,2.2815718907982108,4.7892263271331785,-0.19444787380704656
1789741095872229600,11.794229736328125,-1.16311570449844,0.12398235349953174,-0.44297867198996244
1789741095882306600,11.804306640625,-2.7066823862075804,-4.008919999539852,-0.663125836128369
1789741095892384800,11.814384765625,-2.6632483181506394,-3.2939462680786846,-0.3771831345211714
1789741095902462700,11.824462646484376,-1.3549470208652317,-2.058502555602789,-0.3546985136536881
1789741095912539600,11.83453955078125,-0.12647782357707618,-1.4381260932028292,-0.5588290108297019
1789741095922617600,11.84461767578125,1.541828459739685,1.622365054744482,-0.8393873159848153
1789741095932694800,11.85469482421875,-0.0669634122043848,2.054104612904787,-0.6440548596292733
1789741095942772700,11.864772705078124,1.6826742697566746,2.1250749226629733,-0.9149038908705115
1789741095952849700,11.874849609375,1.5988365873798727,1.8500474366933106,-0.6301522256787866
1789741095962927600,11.884927734375,-2.7056267396748064,-2.46686182269752,-1.1056317760400474
1789741095973004500,11.895004638671875,-1.3662620494753122,-3.947945014095306,-1.418381820552051
1789741095983082500,11.90508251953125,-0.23940379940271375,-0.22877660692632196,-0.9274321677278726
1789741095993159400,11.915159423828126,-1.5603380760289727,-3.1807389910936354,-0.7690399604305624
1789741096003237600,11.925237548828125,0.9895258550040423,-0.16326573161780833,-1.2974572471879422
1789741096013314800,11.935314697265625,2.308095594456047,3.225941822388768,-0.3972923680268228
1789741096023392800,11.945392822265624,-0.002887538135051727,0.2758709510564804,-0.9082508627220988
1789741096033469700,11.9554697265625,1.7321381194971501,2.6635733123213052,-0.9803656663402914
1789741096043547600,11.965547607421875,1.8033632807992397,2.2612387123435735,-0.03543987269895151
1789741096053624600,11.97562451171875,-0.3892489084333181,-0.8361983106851577,-0.8045191239602864
1789741096063702500,11.98570263671875,-1.3169817396081984,-3.895390650993585,-0.7189218845650553
1789741096073779500,11.995779541015626,-2.277185054016113,-2.3298539834082126,-0.3561316151967272
1789741096083857700,12.005857666015626,-1.056008205693215,-1.9764239918529987,-0.29175420089755205
1789741096093934600,12.0159345703125,0.727123018938303,0.19409224703609942,-0.3397844011057168
1789741096104012800,12.0260126953125,2.0530467744149266,3.935159182280302,-0.17279212324544788
1789741096114089700,12.03608984375,1.2826320184998214,0.9240151258260011,-0.36337245317045597
1789741096124167700,12.046167724609376,0.3959872767776251,0.3599912497669458,-0.15513357082754373
1789741096134244600,12.05624462890625,0.531077299746871,2.744548883265257,0.6000383155092597
1789741096144322600,12.066322509765625,0.5384463672101497,1.0218751960754393,0.7431183143191039
1789741096154400500,12.076400390625,0.5504049544207752,0.15260405234992502,0.2891914377374574
1789741096164477700,12.086477783203126,-0.5935246958315372,0.22382395295500754,0.2761481240300461
1789741096174555600,12.0965556640625,-1.5056607294239104,-1.1465823567181825,-0.02821454282160848
1789741096184632600,12.106632568359375,-2.008607913229614,-2.638808288899064,-0.1535630701078102
1789741096194710800,12.116710693359375,-0.9693817693807184,-1.3566922570973634,-0.3144100136134773
1789741096204787700,12.12678759765625,-0.36590544224679467,0.38155601584315296,-0.29033589506484564
1789741096214865700,12.13686572265625,0.4997574478536844,1.4608675018429755,-0.3698926852520555
1789741096224942600,12.146942626953125,1.6722275484137237,0.964422539538145,-0.25110508738402276
1789741096235020500,12.1570205078125,1.5729774851106106,3.116132371148467,0.02443491468504071
1789741096245097700,12.16709765625,0.6501080221883953,0.9778881703108548,0.40187516577243804
1789741096255175700,12.17717578125,-2.349343258384615,-3.2520600139856337,-0.10437606454733758
1789741096265252600,12.187252685546875,-2.7399574638217685,-3.8424464117914434,-0.1027350558746606
1789741096275330600,12.19733056640625,-4.681410680058598,-5.019516845753789,0.06009378216322511
1789741096285407500,12.207407470703124,-0.26522505387961864,-1.7863275364547966,-0.24685919344257562
1789741096295485700,12.217485595703126,3.3419279164373874,3.613279344242811,0.2679076805597171
1789741096305562600,12.227562744140625,2.8529414534449575,6.324032925412059,-0.1474928833486512
1789741096315640600,12.237640625,4.136642124089598,6.420844363391399,0.20571360164899377
1789741096325717800,12.2477177734375,0.8843646679610013,3.198231393164396,1.026561746456474
1789741096335795700,12.257795654296874,-1.8437439526349304,-2.2109359275609255,0.8416071839913726
1789741096345872600,12.26787255859375,-4.84683329744935,-3.4960178234308956,0.3285772898495197
1789741096355950600,12.27795068359375,-2.350039862346649,-6.3871928536802525,-0.04132124062143266
1789741096366027500,12.288027587890625,-3.5921436172336336,-5.237372830215096,-0.6848124019533396
1789741096376105500,12.29810546875,-1.3199378129348158,-1.7805723339289425,-0.6867181625094264
1789741096386182700,12.3081826171875,1.882232234852761,2.7867747445762157,-0.09037424453869461
1789741096396260900,12.3182607421875,2.6480130473569035,5.074446705815196,0.28764957859031853
1789741096406337800,12.328337890625,2.2603286117613313,7.026714161533117,0.5418571255017072
1789741096416415700,12.338415771484375,1.4309535712249577,3.865733763876557,1.0611278137292712
1789741096426493700,12.34849365234375,-1.9660458057016132,-0.06625847880542278,0.7961227592758834
1789741096436570600,12.358570556640625,-5.390422288244962,-2.90241538618803,0.5118025808366016
1789741096446648600,12.368648681640625,-3.737824007800221,-6.490316543546319,0.2199284068211913
1789741096456725500,12.3787255859375,-2.2385545868486165,-8.358777004286646,0.49397696475610137
1789741096466803500,12.388803466796874,0.28815672439485784,-3.7702152883172033,0.20709716496188194
1789741096476880600,12.398880615234376,5.656242385408282,2.623923438978195,0.26832718461342153
1789741096486958800,12.408958740234375,0.7943072342865168,9.665373397350312,-0.43473519631233065
1789741096497035800,12.419035888671875,4.192472147861123,6.715666098633408,-0.10349475166816263
1789741096507113700,12.42911376953125,1.4568448221981525,2.4229876096576453,0.9233810657061636
1789741096517190700,12.439190673828126,-2.171950655606389,-2.4615052641004325,1.0248314155325293
1789741096527268600,12.4492685546875,-3.2415064712673423,-3.049879737561941,0.18626071316022424
1789741096537345500,12.459345458984375,-2.1343245431758464,-4.691222464498877,0.2223687491780147
1789741096547423500,12.469423583984375,-1.8635938776172696,-3.10383636867702,-0.4351926942888647
1789741096557500700,12.479500732421876,0.0750415047198534,0.8128858241587876,-0.45785716523528097
1789741096567578600,12.48957861328125,0.6905809023521841,1.0037520948857068,-0.48957273844778537
1789741096577654800,12.49965478515625,1.1068551803551614,0.18385025448501108,-0.7029467551894486
1789741096587733000,12.50973291015625,1.3113257596731185,2.9044939460277557,-0.11559442784991114
1789741096597810000,12.519809814453126,1.2710416800796984,2.3129870197594165,0.42288401499893513
1789741096607888000,12.529887939453126,0.8323620935231447,0.8302636599391698,0.12591989743337034
1789741096617965000,12.539965087890625,-1.806634995946288,0.0006488192975521087,0.0650535965276882
1789741096628043000,12.55004296875,-1.3742267447441816,-2.637643921294808,-0.2184924192013219
1789741096638120000,12.560119873046874,0.058390814170241355,-0.3356915057688951,-0.25773714580964296
