time,seconds_elapsed,z,y,x
1789741084141995500,0.06399560546875,6.680262776818871,7.179395370772481,0.027406534923950673
1789741084152073700,0.07407373046875,6.67836366519928,7.18115010548532,0.03038294778569834
1789741084162150700,0.084150634765625,6.677915921431779,7.181562777939439,0.0313980499622412
1789741084172228600,0.094228515625,6.679011315453052,7.180551555070281,0.029586712524225
1789741084182305500,0.104305419921875,6.680812811917066,7.178894435513019,0.024471785229863596
1789741084192383500,0.114383544921875,6.681177553576231,7.178577040126919,0.016949881275452206
1789741084202460400,0.12446044921875,6.678504534974694,7.181078209292888,0.00919705464199651
1789741084212538400,0.134538330078125,6.67354954291582,7.185687164393067,0.003562654924007074
1789741084222616300,0.1446162109375,6.668287676864862,7.190571429303288,0.0028425011230268863
1789741084232693500,0.154693603515625,6.665304277139902,7.193332126188277,0.009036526893108384
1789741084242771700,0.164771728515625,6.665462682572007,7.193161445796489,0.020758418129384518
1789741084252848600,0.1748486328125,6.667908322158455,7.190843231981992,0.034084348170459265
1789741084262926600,0.184926513671875,6.670261022764444,7.188596914359927,0.04547608614540659
1789741084273003500,0.19500341796875,6.670616996595263,7.188205869215726,0.05429825676013715
1789741084283081500,0.20508154296875,6.667729458460212,7.190825111803412,0.061619457360543306
1789741084293158700,0.21515869140625,6.660171005904674,7.197763971155881,0.06853322793752886
1789741084303236600,0.225236572265625,6.648023471993207,7.208911388114094,0.07594999330032151
1789741084313313500,0.2353134765625,6.63257689653635,7.223044542884827,0.08332412509778514
1789741084323391500,0.2453916015625,6.613097704562544,7.240838558250665,0.08701438531731255
1789741084333468400,0.255468505859375,6.585890548685192,7.265599490019679,0.08654580882433802
1789741084343546600,0.265546630859375,6.552680937522649,7.295611766445636,0.08253681977814994
1789741084353623600,0.27562353515625,6.519862371504306,7.325064655423164,0.07219260896160266
1789741084363701500,0.285701416015625,6.490954841449857,7.3508432398021215,0.05475346688146237
1789741084373778700,0.29577880859375,6.468752946513891,7.370519415652751,0.03241065878759836
1789741084383856600,0.305856689453125,6.453102957439422,7.3842936739832155,0.008001074335814337
1789741084393933600,0.31593359375,6.442732370072603,7.393326290744542,-0.017751170596311566
1789741084404011500,0.326011474609375,6.438904920738935,7.396550513488054,-0.043854028768371786
1789741084414088400,0.33608837890625,6.443739501288533,7.392109316170215,-0.07293160446037072
1789741084424166400,0.34616650390625,6.4570414659321305,7.380082778289914,-0.1066584489966277
1789741084434243300,0.356243408203125,6.475097931626439,7.36358464795351,-0.14525546141909434
1789741084444321500,0.366321533203125,6.494130548876524,7.3458578526049845,-0.18715978089179844
1789741084454399500,0.3763994140625,6.510967701908946,7.3295987917214624,-0.23380207040552048
1789741084464476700,0.3864765625,6.522616638648509,7.317346628391742,-0.2868696802590042
1789741084474554600,0.3965546875,6.52757689140439,7.310318337190151,-0.3469484109835699
1789741084484631600,0.406631591796875,6.526916381669044,7.30772832069695,-0.4084746736353263
1789741084494709500,0.41670947265625,6.5206871318906545,7.3098466280251735,-0.46601880784835664
1789741084504786400,0.426786376953125,6.507866228762269,7.317697926047444,-0.5190006391145289
1789741084514864400,0.436864501953125,6.488774574801325,7.330961896768212,-0.5684934226885437
1789741084524941600,0.446941650390625,6.4653504445940255,7.347609080186486,-0.6182786864031106
1789741084535019500,0.45701953125,6.4397495548695325,7.365516492798924,-0.6702105336923152
1789741084545096700,0.4670966796875,6.407429586023092,7.390279178133606,-0.7063957996647805
1789741084555174700,0.477174560546875,6.358686305642127,7.43128338869512,-0.7165975332707166
1789741084565251800,0.487251953125,6.305119550627469,7.475061740145087,-0.734365683542937
1789741084575329800,0.497329833984375,6.260116625818609,7.507458281359076,-0.7870110859289765
1789741084585406700,0.50740673828125,6.220411222895979,7.529864758956432,-0.8820485730383545
1789741084595484700,0.517484619140625,6.168676944005489,7.55657448670566,-1.0079646710794419
1789741084605561900,0.527561767578125,6.081980657327175,7.609773577451706,-1.1274981554113328
1789741084615639800,0.537639892578125,5.9591474738627666,7.689034745693206,-1.2400389313116669
1789741084625716700,0.547716796875,5.823076623162627,7.768938888013363,-1.3804879970960318
1789741084635795000,0.557794921875,5.683440188935399,7.842096478682756,-1.5396144369520246
1789741084645873000,0.567872802734375,5.543226247081161,7.910052409055829,-1.6953189395353196
1789741084655949800,0.57794970703125,5.404577070325613,7.974304808735847,-1.8361378615453838
1789741084666027800,0.58802783203125,5.271714075756073,8.033658914980291,-1.959525317891687
1789741084676104700,0.598104736328125,5.1485208268076175,8.08640617030561,-2.0671594709195196
1789741084686182700,0.6081826171875,5.035523977702856,8.1309993452698,-2.1681201375328003
1789741084696259800,0.618259765625,4.93245698646009,8.166530677378177,-2.269145247684419
1789741084706337800,0.628337890625,4.839064124752581,8.19207720656693,-2.3756471818119285
1789741084716414700,0.638414794921875,4.755786414346098,8.207806106096506,-2.4869229062125084
1789741084726493000,0.648492919921875,4.684456039103865,8.215003324124217,-2.5961449129536747
1789741084736569900,0.65856982421875,4.626424998156726,8.216027990996837,-2.695079626697302
1789741084746647800,0.668647705078125,4.581363328897953,8.213935402631758,-2.7771888778463003
1789741084756724700,0.678724853515625,4.546588952636719,8.21216079417467,-2.8388983150452374
1789741084766802700,0.688802734375,4.518059315983951,8.21272193518877,-2.882487865924835
1789741084776879900,0.6988798828125,4.487504603244364,8.217462992236017,-2.916504117295146
1789741084786957800,0.708957763671875,4.455291894164681,8.224606434249877,-2.9456100925311444
1789741084797034800,0.71903466796875,4.423488934929669,8.23405639964044,-2.9670614613607524
1789741084807112700,0.72911279296875,4.399200004586577,8.244674824288486,-2.9736759110644457
1789741084817189600,0.739189697265625,4.388549138973653,8.253766477760673,-2.9641797684445974
1789741084827267800,0.749267822265625,4.38009724470973,8.265901736712456,-2.942789482152462
1789741084837344800,0.7593447265625,4.374981216870248,8.280224276575446,-2.9099507501289246
1789741084847422700,0.769422607421875,4.374601569902897,8.293286002722382,-2.8730910920262334
1789741084857500000,0.7795,4.377820531949401,8.304426405417919,-2.8357699538916346
1789741084867577900,0.789577880859375,4.384173115846514,8.313738423642516,-2.7984201741844412
1789741084877655800,0.79965576171875,4.392212337656319,8.322581070789694,-2.7592569153144955
1789741084887732700,0.809732666015625,4.399848823884129,8.33215612386465,-2.717884748223424
1789741084897810700,0.819810791015625,4.398843738494813,8.344179739135503,-2.6823940403863786
1789741084907887600,0.8298876953125,4.381832690200209,8.357962765294314,-2.6672818114504215
1789741084917965800,0.8399658203125,4.351875066570938,8.372094166499377,-2.672004748319089
1789741084928043000,0.85004296875,4.317935387568175,8.38754658717513,-2.678598155234754
1789741084938121000,0.860120849609375,4.285451460331678,8.403149814498423,-2.6818603719010947
1789741084948198000,0.870197998046875,4.255879328888654,8.41595142840445,-2.688799815775454
1789741084958275800,0.88027587890625,4.227799189569056,8.425656829860806,-2.7026652595207095
1789741084968352800,0.890352783203125,4.200755407559871,8.431832888147234,-2.7254776875704527
1789741084978430700,0.9004306640625,4.178765694069862,8.433226972854136,-2.754810165038705
1789741084988507600,0.910507568359375,4.164602144160867,8.4313588408947,-2.7818451792195438
1789741084998585600,0.920585693359375,4.154873361828923,8.42932061306536,-2.8024931227117773
1789741085008662800,0.930662841796875,4.141481965336204,8.429783554401993,-2.8208620153561235
1789741085018741000,0.940740966796875,4.11636681330204,8.434276774168014,-2.8440964682102203
1789741085028818000,0.95081787109375,4.080874351899325,8.439982876855135,-2.8781153499290344
1789741085038895900,0.960895751953125,4.0454856431320305,8.445246496471762,-2.9124264925926924
1789741085048972800,0.970972900390625,4.020247449240088,8.44845902877748,-2.937947887340188
1789741085059050800,0.98105078125,4.000082320828736,8.448740768328308,-2.9645430487990376
1789741085069127700,0.991127685546875,3.978540935628116,8.44685510071218,-2.9987068919464943
1789741085079205600,1.00120556640625,3.939118149039149,8.45017167791426,-3.0411072330415245
1789741085089283600,1.01128369140625,3.8830107696309684,8.461200436928868,-3.082317779830098
1789741085099360800,1.02136083984375,3.845606921648979,8.471283439525962,-3.101462040761113
1789741085109438700,1.031438720703125,3.826906605093181,8.481848088160156,-3.095711514410376
1789741085119515600,1.041515625,3.7996333982422947,8.4976015376091,-3.0860876537576316
1789741085129593900,1.05159375,3.7503006275355815,8.525047178417443,-3.070698945967853
1789741085139670800,1.0616708984375,3.671066639561951,8.566119193518162,-3.0520865999564526
1789741085149748700,1.071748779296875,3.563972292499244,8.618147486919165,-3.032494595257938
1789741085159826000,1.081825927734375,3.43517318636775,8.678232245525717,-3.0096932731240984
1789741085169903900,1.09190380859375,3.286565510177612,8.744242302528024,-2.984477875585854
1789741085179980800,1.101980712890625,3.1200077512770887,8.81321763907671,-2.960261718218028
1789741085190058800,1.112058837890625,2.9446815795093775,8.879583669909834,-2.9414702162474393
1789741085200135700,1.1221357421875,2.7859149128764864,8.933887507027388,-2.9316727525934576
1789741085210213600,1.132213623046875,2.6552888835787773,8.978955313766003,-2.9151635163411496
1789741085220290600,1.14229052734375,2.534367378954589,9.021454146799444,-2.8914950559839605
1789741085230368800,1.15236865234375,2.4124301214165986,9.060800068759917,-2.8727155367121098
1789741085240446000,1.162446044921875,2.302151006837934,9.097997288253902,-2.8455092576175924
1789741085250524000,1.17252392578125,2.189958167592436,9.135655695518851,-2.8132337124347684
1789741085260600800,1.182600830078125,2.0589603823728857,9.174791189599036,-2.7846520533338186
1789741085270678800,1.1926787109375,1.907637309744209,9.217693927258253,-2.750529418979585
1789741085280755700,1.202755615234375,1.7357117402002213,9.265213803324103,-2.7043492670848965
1789741085290833700,1.212833740234375,1.546017435862124,9.316477542093395,-2.6426269704043865
1789741085300911600,1.22291162109375,1.3457299874477087,9.369467958524822,-2.5636761832863093
1789741085310988500,1.232988525390625,1.1426785542126745,9.422185987755656,-2.467202014437318
1789741085321066800,1.243066650390625,0.9449814876176417,9.473310610315202,-2.352398992693424
1789741085331144000,1.25314404296875,0.7616010426014661,9.520489125597477,-2.224999670357257
1789741085341222000,1.263221923828125,0.6047957026368007,9.562050385519862,-2.0908795153334734
1789741085351298800,1.273298828125,0.47949784609191115,9.597785131245852,-1.9552474944420157
1789741085361376800,1.283376708984375,0.3756187347486615,9.628412909221648,-1.8228936184383928
1789741085371453700,1.29345361328125,0.2782949998656288,9.654339962160586,-1.6990215934455393
1789741085381531600,1.30353173828125,0.18351402653427792,9.675187519878149,-1.5897981253996492
1789741085391608800,1.31360888671875,0.09458703992813824,9.690779056763649,-1.5000788376383483
1789741085401686800,1.323686767578125,0.012399192276218673,9.701526660749316,-1.4320046877130865
1789741085411763700,1.333763671875,-0.06330794017044827,9.708335171720385,-1.383691761573404
1789741085421842000,1.343842041015625,-0.13238585117761975,9.712685768145322,-1.3478075243741272
1789741085431918800,1.3539189453125,-0.19347338448539375,9.715818805474042,-1.3174968495234847
1789741085441996800,1.363996826171875,-0.2506980774857104,9.718522803735732,-1.2875830650359392
1789741085452073700,1.37407373046875,-0.3076057769587263,9.720967858800291,-1.2564080284409225
1789741085462151700,1.384151611328125,-0.3620944691238925,9.723087335172295,-1.2250840118292718
1789741085472228900,1.394228759765625,-0.4127579769777134,9.7249969681859,-1.1934914804745465
1789741085482306800,1.404306884765625,-0.4565902505720034,9.72697440573871,-1.160977085034549
1789741085492383700,1.4143837890625,-0.4925098513456061,9.72926865415573,-1.126564600888267
1789741085502461700,1.424461669921875,-0.5221603452544659,9.731945764410495,-1.0894788058795035
1789741085512540000,1.434539794921875,-0.5406986761815845,9.735074710085987,-1.051840637684986
1789741085522616800,1.444616943359375,-0.5471783935897052,9.738513452363014,-1.0160319499399513
1789741085532694800,1.45469482421875,-0.5512522188998759,9.741706110924481,-0.9826805922191589
1789741085542771700,1.464771728515625,-0.56011134225782,9.744136552941798,-0.9531278961289673
1789741085552849700,1.474849609375,-0.5773345719983801,9.745580906531215,-0.9277506590925156
1789741085562926300,1.48492626953125,-0.5983837532352656,9.746337277856469,-0.9062173110678792
1789741085573004300,1.49500439453125,-0.6099282797522843,9.746861009469628,-0.8927996110901236
1789741085583081200,1.505081298828125,-0.607990151296556,9.747401107695698,-0.8882122832998632
1789741085593159200,1.5151591796875,-0.5971172404307872,9.747944713053107,-0.8896284337081014
1789741085603236000,1.525236083984375,-0.5809176181169227,9.748453831619024,-0.8947401506986469
1789741085613314000,1.53531396484375,-0.5621802940189838,9.748940153831242,-0.9013777620822191
1789741085623391200,1.54539111328125,-0.5459285396590828,9.749728089338541,-0.9028408934373408
1789741085633469200,1.55546923828125,-0.531155625680089,9.751339616188407,-0.894223798674345
1789741085643546000,1.565546142578125,-0.5104739991139621,9.753844877007603,-0.8787996542450041
1789741085653624300,1.575624267578125,-0.4816434798184782,9.75698434407711,-0.8600332136504352
1789741085663701200,1.585701171875,-0.4448876839490607,9.760507257506251,-0.8396090689767152
1789741085673779200,1.595779296875,-0.40155291154813016,9.76418390019238,-0.8184369554799049
1789741085683856100,1.605856201171875,-0.35460089849811044,9.767788646686077,-0.7968489546585827
1789741085693934000,1.61593408203125,-0.309425503199175,9.771056708571313,-0.7753001168038696
1789741085704011300,1.62601123046875,-0.27459254688480866,9.773906837305425,-0.752166640106216
1789741085714089200,1.636089111328125,-0.25315758120073006,9.776410929080843,-0.7267169954206794
1789741085724166100,1.646166259765625,-0.25541147934105246,9.777825472053886,-0.706617479591444
1789741085734244000,1.656244140625,-0.3184307570295408,9.776382872030139,-0.7009584309164434
1789741085744322300,1.666322265625,-0.37964240077417344,9.77425228974223,-0.7001775827370583
1789741085754399200,1.676399169921875,-0.4171805791929364,9.772810858762263,-0.6989308706115931
1789741085764477200,1.686477294921875,-0.4501787030292675,9.772005387598275,-0.689654508222267
1789741085774554400,1.696554443359375,-0.48611298991534857,9.771299869677424,-0.6751121150635182
1789741085784632300,1.70663232421875,-0.5192733185760676,9.77110113223493,-0.6529222028262913
1789741085794709200,1.716709228515625,-0.5495101975381375,9.771192902171611,-0.6262751650497317
1789741085804787200,1.726787109375,-0.5778352880621329,9.771454767978192,-0.5959538957398385
1789741085814864100,1.736864013671875,-0.6007786490151659,9.771983760288357,-0.5637114125763997
1789741085824942000,1.746942138671875,-0.6147430596228689,9.77293068574965,-0.5313290460182354
1789741085835019000,1.75701904296875,-0.6229260738175362,9.773977564454079,-0.5016771273372694
1789741085845097200,1.76709716796875,-0.6340265098288654,9.774482591366768,-0.47738658955898133
1789741085855174400,1.77717431640625,-0.6496984184741974,9.774219556516409,-0.4614380559293553
1789741085865252400,1.78725244140625,-0.6654650927308946,9.77358242765665,-0.45234019191209224
1789741085875329300,1.797329345703125,-0.6750401458058506,9.773274969142674,-0.44477479815911497
1789741085885407200,1.8074072265625,-0.6677082685478031,9.77415876623988,-0.4363136246101931
1789741085895484200,1.817484130859375,-0.6374770156089216,9.77664123070538,-0.42579307084605095
1789741085905562000,1.82756201171875,-0.600695208515413,9.779498373702168,-0.41348599899131805
1789741085915639000,1.83763916015625,-0.6045834481256083,9.779610601904988,-0.4051171068357303
1789741085925717000,1.847717041015625,-0.5998462270032614,9.780385677930711,-0.39321452412866054
1789741085935794200,1.857794189453125,-0.5986976049574092,9.781111654117703,-0.37656237227432426
1789741085945872400,1.867872314453125,-0.6075528558578341,9.781201085966824,-0.3596896730044856
1789741085955949300,1.87794921875,-0.6091712143072858,9.78156407406032,-0.34682650163695217
1789741085966027300,1.88802734375,-0.6046849722713231,9.782063840276003,-0.3405657242091372
1789741085976104200,1.898104248046875,-0.5904296524256467,9.78286931143999,-0.3424213254805654
1789741085986182100,1.90818212890625,-0.5659970758281648,9.784070503923296,-0.34928660814017054
1789741085996260000,1.918260009765625,-0.536312606584467,9.785468095761537,-0.35694220092725004
1789741086006337300,1.928337158203125,-0.5016853837089613,9.787076115480065,-0.36310178300291296
1789741086016415200,1.938415283203125,-0.46919060628488657,9.788581843867897,-0.36593832160308953
1789741086026492200,1.9484921875,-0.4391716809224337,9.790078804427385,-0.36311972051840274
1789741086036570400,1.9585703125,-0.4134128241572529,9.791463536784052,-0.3559831831693649
1789741086046647300,1.968647216796875,-0.38912809506524354,9.792801507389544,-0.3464325704159215
1789741086056725200,1.978725341796875,-0.36125257493965324,9.794220142015813,-0.33640042122323066
1789741086066802200,1.98880224609375,-0.3293408215679228,9.795617733854055,-0.3283613820765167
1789741086076880100,1.998880126953125,-0.2935513499800116,9.796866272610425,-0.32501444626878945
1789741086086957300,2.008957275390625,-0.25620348823526873,9.797843593209981,-0.3270688580479473
1789741086097035300,2.01903515625,-0.2004077685921453,9.798920282530784,-0.33369901677742597
1789741086107112200,2.0291123046875,-0.1294082966715563,9.799740366742014,-0.3445565839435905
1789741086117190100,2.039190185546875,-0.05427044630460441,9.799835059288144,-0.3614822920423001
1789741086127267000,2.04926708984375,0.02097528945019003,9.799228910088539,-0.38086244408842174
1789741086137345000,2.059344970703125,0.0948457730627153,9.798038823521138,-0.3997725309373811
1789741086147422000,2.069421875,0.1653343363191001,9.796382288485765,-0.4170557837694883
1789741086157500200,2.079500244140625,0.23433902682643382,9.79420786705613,-0.4346985540963709
1789741086167577300,2.089577392578125,0.30362984079876915,9.791493931922316,-0.45259679702166467
1789741086177655300,2.0996552734375,0.37119543841369446,9.788298350751399,-0.4709842847686261
1789741086187732200,2.109732177734375,0.43882549783326685,9.784542213088274,-0.49044663520548487
1789741086197810200,2.11981005859375,0.5038825649596751,9.780393276715278,-0.5102880480878055
1789741086207887000,2.12988720703125,0.5630873989265411,9.77609762534797,-0.5303097129078581
1789741086217965000,2.139965087890625,0.6172757199056447,9.771675132730604,-0.551107038275525
1789741086228043000,2.15004296875,0.6631583501584828,9.767623811513184,-0.5693002090267837
1789741086238120200,2.1601201171875,0.7017882328040898,9.764160519316793,-0.5822826959250494
1789741086248198100,2.1701982421875,0.7374469906844199,9.761229142040014,-0.5873176213523372
1789741086258275300,2.180275390625,0.770057686105743,9.758892223525047,-0.5843082834685221
1789741086268353300,2.190353271484375,0.798436369980499,9.75709364967048,-0.5761965444117784
1789741086278430200,2.20043017578125,0.8241499993644654,9.755653387734293,-0.5642470903556793
1789741086288508200,2.210508056640625,0.8505626438632607,9.754164610481261,-0.5506342331320047
1789741086298585000,2.220585205078125,0.8807980615206062,9.752162038487196,-0.5384488514281809
1789741086308663000,2.2306630859375,0.9149030140876769,9.749663207408785,-0.526686590507254
1789741086318740200,2.240740234375,0.9498674330282956,9.74689198912978,-0.5159736194435507
1789741086328818200,2.250818115234375,0.979901775155589,9.744061149618028,-0.5132733840415253
1789741086338895000,2.26089501953125,1.0068076099988073,9.741512049657105,-0.5095646657167002
1789741086348973300,2.270973388671875,1.0421728648252784,9.738299517351388,-0.49978616249151525
1789741086359050200,2.28105029296875,1.0856820439450443,9.73398808389306,-0.49109647741634394
1789741086369128200,2.291128173828125,1.1320010928537696,9.728976393210887,-0.4857930007133633
1789741086379205000,2.301205078125,1.1753607074350119,9.72387819328904,-0.4848837403813377
1789741086389283000,2.311282958984375,1.1998579467665402,9.72069079542458,-0.4887820629941299
1789741086399360300,2.3213603515625,1.2119405987482517,9.719001527163385,-0.492552083052136
1789741086409438200,2.331438232421875,1.2202235661860554,9.717850019040704,-0.4947988025330007
1789741086419515100,2.34151513671875,1.227690321870148,9.716944010111689,-0.49412725994698703
1789741086429593000,2.351593017578125,1.2320355114676058,9.716424954673647,-0.4934996661005541
1789741086439671300,2.36167138671875,1.2370746746785939,9.715684365439415,-0.49548861142806705
1789741086449748200,2.371748291015625,1.241658495337516,9.714811674258112,-0.5011008252866566
1789741086459826200,2.381826171875,1.244007542681694,9.714118431296944,-0.5086552227215841
1789741086469903000,2.391903076171875,1.2461872248083352,9.71347253460884,-0.5156042381418868
1789741086479981300,2.401981201171875,1.2477220331601797,9.712883921065925,-0.5229392572050914
1789741086490058200,2.412058349609375,1.250378246757388,9.71212988782823,-0.5305489650238305
1789741086500136200,2.42213623046875,1.2552531593173741,9.710929864388703,-0.5409194793254136
1789741086510213000,2.432213134765625,1.2626942691035568,9.709195003420113,-0.5545428579431027
1789741086520291000,2.442291015625,1.2721762370675802,9.707033441472053,-0.5705043606521562
1789741086530368000,2.452367919921875,1.2818090116791427,9.704859020042418,-0.5857440153600648
1789741086540446200,2.4624462890625,1.2900401027992368,9.703079150888323,-0.5970188946228474
1789741086550523400,2.4725234375,1.29539578461349,9.70191010710895,-0.6043704629620537
1789741086560601300,2.482601318359375,1.296949443796277,9.701583359372615,-0.6062908730980009
1789741086570678300,2.49267822265625,1.2928459540002046,9.702219903710484,-0.6048746861571446
1789741086580756200,2.502756103515625,1.2925184756115078,9.70263900590539,-0.5988253229903057
1789741086590833200,2.512833251953125,1.2972023956440388,9.702387661492825,-0.592723681646958
1789741086600911400,2.522911376953125,1.3052844336822629,9.701565823715924,-0.5884132711019366
1789741086610988300,2.53298828125,1.3159088496796787,9.700320792090892,-0.5852593736482784
1789741086621066200,2.543066162109375,1.3223827218689024,9.699442840212583,-0.5852220373125746
1789741086631143400,2.553143310546875,1.3278344114035368,9.69860989651978,-0.586689187255688
1789741086641221400,2.563221435546875,1.332695149307698,9.6977301910758,-0.5902093607384711
1789741086651299300,2.57329931640625,1.3298542267933486,9.69747066335678,-0.6007794527327641
1789741086661376300,2.583376220703125,1.3231285718001424,9.698108961260319,-0.605304930800572
1789741086671454200,2.5934541015625,1.3111971648573875,9.700482120132445,-0.5931181608572602
1789741086681531100,2.60353125,1.2880888226009906,9.704841484385728,-0.5720812911126762
1789741086691609300,2.613609375,1.2618616176716984,9.709719904077053,-0.5472168624365702
1789741086701686300,2.623686279296875,1.2406583783842622,9.714006787616015,-0.5188931966846808
1789741086711764200,2.63376416015625,1.2322772112689913,9.716732413187623,-0.48680279881041494
1789741086721841400,2.64384130859375,1.243750060789287,9.716899586448072,-0.45314705131556837
1789741086731919400,2.65391943359375,1.2780857533723116,9.713901573675871,-0.42070517312251027
1789741086741996300,2.663996337890625,1.329720225150138,9.708259183874725,-0.38977187286149706
1789741086752074200,2.67407421875,1.3903465432874857,9.70084627726972,-0.36179468245971946
1789741086762151200,2.684151123046875,1.4549308052703738,9.692216396090387,-0.33835608533564954
1789741086772229000,2.69422900390625,1.519278482018411,9.683034141725301,-0.31784101097546513
1789741086782306300,2.704306396484375,1.579342051706463,9.67401263087988,-0.29926512451693416
1789741086792384500,2.714384521484375,1.6137778436630963,9.668620416447519,-0.28963949203221123
1789741086802461400,2.72446142578125,1.625280065408349,9.667238022178411,-0.2708603563528508
1789741086812539400,2.734539306640625,1.6180739334218204,9.669182726505397,-0.2431964514176361
1789741086822616300,2.7446162109375,1.6122311987429856,9.67072644881606,-0.21938198845218865
1789741086832694300,2.7546943359375,1.600904333564639,9.673149876570701,-0.19409862197795882
1789741086842771200,2.764771240234375,1.592338165271282,9.67505658697486,-0.1676589981406927
1789741086852849200,2.77484912109375,1.5887582609578965,9.675984223213792,-0.1467999783142004
1789741086862927000,2.784927001953125,1.5867518895715473,9.676437227678298,-0.13841136767799034
1789741086873004300,2.79500439453125,1.5865464301273227,9.67650970839262,-0.13569050961304455
1789741086883082500,2.80508251953125,1.5874017317824065,9.67637585287988,-0.13514885875070468
1789741086893159400,2.815159423828125,1.5903000835724175,9.675899467539788,-0.13527260386138223
1789741086903237400,2.8252373046875,1.594336791742593,9.675232528063654,-0.13547393511976114
1789741086913314300,2.835314208984375,1.5988937243945895,9.674485509088635,-0.1351541011814028
1789741086923392300,2.845392333984375,1.602913043038547,9.6738244148314,-0.1347828567162156
1789741086933469200,2.85546923828125,1.6062268437616527,9.673293084433674,-0.1335483008194249
1789741086943547100,2.865547119140625,1.609128410422057,9.67283540379405,-0.13168228775183669
1789741086953624300,2.875624267578125,1.6113488629505037,9.672493458488583,-0.12960391970835625
1789741086963702300,2.885702392578125,1.6139755581922828,9.672086046731472,-0.1273765533819329
1789741086973779200,2.895779296875,1.6177360797695814,9.671489249882102,-0.12486956639653071
1789741086983857400,2.905857421875,1.6225160075224936,9.670720019075274,-0.12254653940959832
1789741086993934300,2.915934326171875,1.6277297966480253,9.669867786160111,-0.12058562373332679
1789741087004012300,2.92601220703125,1.63298537908867,9.669003278285265,-0.1188976523800753
1789741087014089500,2.93608935546875,1.6365151606500148,9.66841466474235,-0.11810863002738915
1789741087024167400,2.94616748046875,1.6373777688287197,9.66826327357292,-0.11857051191809587
1789741087034244400,2.956244384765625,1.637238214227557,9.668269118791818,-0.12003573476560413
1789741087044322300,2.966322265625,1.6366608527310191,9.66833867689669,-0.1221826288674958
1789741087054399200,2.976399169921875,1.6358903067499397,9.668439799183606,-0.12450755555056967
1789741087064477200,2.986477294921875,1.6351535169079898,9.668542675036191,-0.12631092431126162
1789741087074554000,2.99655419921875,1.6361502728603778,9.66835855064094,-0.12738871874376198
1789741087084632000,3.006632080078125,1.6404520617075264,9.667615038797258,-0.12850263480241408
1789741087094710300,3.016710205078125,1.6512851520195602,9.66573054022491,-0.13151911481306888
1789741087104787500,3.026787353515625,1.6627505488857626,9.66371277066171,-0.13528563687289133
1789741087114865400,3.036865478515625,1.666803185277432,9.662961075511575,-0.13896484597544184
1789741087124942300,3.0469423828125,1.6702020339354873,9.66233329900205,-0.14183546950831077
1789741087135020300,3.057020263671875,1.672258528073877,9.661990769174695,-0.1409333239036612
1789741087145097200,3.06709716796875,1.6723013443022965,9.662140991300344,-0.1296664270179346
1789741087155175200,3.077175048828125,1.66688633351624,9.663267949503659,-0.11454305563345551
1789741087165252000,3.087252197265625,1.660644954908639,9.664563250011206,-0.09406912613441236
1789741087175330000,3.097330078125,1.6550198085032402,9.665700145086646,-0.07446797458163928
1789741087185407200,3.1074072265625,1.648774484372884,9.666880294781922,-0.05804157604088541
1789741087195485400,3.1174853515625,1.6410634716041386,9.668272041401266,-0.042730143871554174
1789741087205562400,3.127562255859375,1.6328379334419965,9.669709965249895,-0.030831997594295533
1789741087215640300,3.137640380859375,1.6240991850607096,9.671195819893478,-0.025360475414607207
1789741087225717200,3.14771728515625,1.6155226415038109,9.672633743742107,-0.02553699645871529
1789741087235795200,3.157795166015625,1.6063706361465155,9.674141810217499,-0.03100944337029941
1789741087245872400,3.167872314453125,1.5959163160189986,9.67583575465381,-0.040449453622428695
1789741087255950300,3.177950439453125,1.585010891123116,9.677567693012952,-0.053128468628670086
1789741087266027300,3.18802734375,1.5731278533667326,9.679404845312238,-0.0689763685951475
1789741087276105200,3.198105224609375,1.560214449649304,9.681343119898438,-0.08791243013557977
1789741087286182100,3.20818212890625,1.548591816394776,9.682992056149244,-0.10903874999559483
1789741087296260400,3.21826025390625,1.5383992159433661,9.684330026754736,-0.132092558186315
1789741087306337300,3.228337158203125,1.52947707381919,9.685400286334753,-0.15531210573222487
1789741087316415200,3.238415283203125,1.5218340117201208,9.686237321680784,-0.1767099177436903
1789741087326493200,3.2484931640625,1.5154755826041102,9.686873866018653,-0.19543706750748677
1789741087336570400,3.2585703125,1.5104612615734339,9.68734499066174,-0.21032933354983105
1789741087346648300,3.2686484375,1.5073000210635363,9.687582891070843,-0.22173832405367866
1789741087356725200,3.278725341796875,1.5065465723477303,9.687524438881873,-0.22930061253411693
1789741087366803200,3.28880322265625,1.5071956839062273,9.687385322672128,-0.2308727206890471
1789741087376880000,3.298880126953125,1.507996478895098,9.687264911162853,-0.23069526349660008
1789741087386958300,3.308958251953125,1.509053586732596,9.687117027124762,-0.23003922900697216
1789741087397035300,3.31903515625,1.5100214088514445,9.686979079958796,-0.22948700195169075
1789741087407113200,3.32911328125,1.5103057787507772,9.686945177689195,-0.2290247912674211
1789741087417190400,3.3391904296875,1.5101638860620556,9.686967974042892,-0.22899750140169634
1789741087427268400,3.349268310546875,1.509959157270193,9.68699193944037,-0.22930490511674434
1789741087437345300,3.35934521484375,1.5097254946447909,9.687019411969183,-0.22968336477400733
1789741087447423200,3.36942333984375,1.5090383891634642,9.68715852817893,-0.2283619799771346
1789741087457500200,3.379500244140625,1.5082374480441212,9.687321609786153,-0.22675792404767126
1789741087467578000,3.389578125,1.5059351624511181,9.687691027620435,-0.22627885356014593
1789741087477655300,3.3996552734375,1.503072758757323,9.688138771387933,-0.22613469584910198
1789741087487733200,3.409733154296875,1.5010264937520026,9.68844622990191,-0.2265413038886152
1789741087497810400,3.419810546875,1.4997962213046847,9.688618663859367,-0.22724744286397472
1789741087507888400,3.429888427734375,1.4983384237118065,9.688820908433199,-0.2282500440352596
1789741087517965300,3.43996533203125,1.4969170126065612,9.689002694740891,-0.22983828134108333
1789741087528043300,3.450043212890625,1.4958032061457633,9.689095633721351,-0.23319804009776562
1789741087538120200,3.4601201171875,1.4953610153362153,9.688993342390656,-0.24017092958400024
1789741087548198100,3.4701982421875,1.4951222381442784,9.688810387039185,-0.24891492039598523
1789741087558276000,3.480276123046875,1.4953122077584267,9.688580669936536,-0.25662176844626666
1789741087568353000,3.49035302734375,1.4950865823090076,9.688486561912297,-0.26143020990760996
1789741087578431000,3.500430908203125,1.4950095715500413,9.688453244164586,-0.26309907470159233
1789741087588508000,3.5105078125,1.495092281397432,9.688431032332778,-0.26343179552098733
1789741087598585900,3.5205859375,1.4951457651503384,9.68842518711388,-0.2633160601868294
1789741087608662800,3.530662841796875,1.4950224310316145,9.688457335817814,-0.2627997264288366
1789741087618740700,3.54074072265625,1.4947725479237735,9.68852163322568,-0.2618573675448075
1789741087628818000,3.55081787109375,1.4946413227595388,9.688564303323625,-0.2610226885526441
1789741087638895900,3.560895751953125,1.4945330400794743,9.688587099677324,-0.2608009903596714
1789741087648973000,3.57097314453125,1.494435571054369,9.688596452027559,-0.261051421456784
1789741087659051000,3.581051025390625,1.4943563683383165,9.688611649596691,-0.2609755614752881
1789741087669128000,3.5911279296875,1.494221343781799,9.688638537603616,-0.2606952466965653
1789741087679206000,3.601205810546875,1.4942116991706191,9.688651981607078,-0.26025143018551167
1789741087689282800,3.61128271484375,1.494118760190159,9.688677116048336,-0.25985404663207007
1789741087699360800,3.62136083984375,1.494111161405593,9.688691144573689,-0.2593939731059596
1789741087709438000,3.63143798828125,1.4940426262140274,9.688695236226916,-0.2596163654186763
1789741087719516000,3.641515869140625,1.4947240326069295,9.688573071151971,-0.2602281041088514
1789741087729592800,3.6515927734375,1.4951440115846693,9.688495329740643,-0.26072982481960205
1789741087739671000,3.661671142578125,1.4955077303305266,9.68842694067955,-0.2611856605620123
1789741087749748000,3.671748046875,1.4954963321536778,9.688412327632307,-0.26177805523090064
1789741087759826000,3.681825927734375,1.4953968173019587,9.68840882050097,-0.2624619093092158
1789741087769902800,3.69190283203125,1.4951915039882062,9.68842635615766,-0.26299848213763904
1789741087779980800,3.701980712890625,1.4948990969128906,9.688454413208365,-0.2636569825789891
1789741087790058000,3.71205810546875,1.4946078588813543,9.688477209562063,-0.26446263640606776
1789741087800136000,3.722135986328125,1.4942613835312426,9.688516957050561,-0.26497345373872666
1789741087810214000,3.7322138671875,1.4943765343435107,9.6884807166934,-0.26565233938097954
1789741087820290800,3.742290771484375,1.4946258329294622,9.688432785898446,-0.2660264881893061
1789741087830369000,3.752369140625,1.4949258387893438,9.688366734924912,-0.266693610328529
1789741087840446000,3.762446044921875,1.495135243756324,9.688313543432951,-0.26745374451344833
1789741087850524000,3.77252392578125,1.4952217529959977,9.688268535247445,-0.26859263061657546
1789741087860600800,3.782600830078125,1.4953456716366111,9.688212421146035,-0.26990415160655973
1789741087870678800,3.7926787109375,1.4955935089178383,9.688136433300375,-0.2713131964205764
1789741087880756000,3.802755859375,1.4959421762250362,9.688042909798025,-0.2726903665252961
1789741087890834000,3.812833984375,1.4961995119869709,9.687965752908587,-0.2740352052629925
1789741087900910800,3.822910888671875,1.4964838818863033,9.687872813928127,-0.27570766851985823
1789741087910988800,3.83298876953125,1.4965598697319626,9.687813777217269,-0.2774012476299889
1789741087921065700,3.843065673828125,1.4965490560770034,9.687767015466093,-0.2791004892959259
1789741087931144000,3.85314404296875,1.496552709338814,9.687712654930353,-0.2809550859203562
1789741087941221000,3.86322119140625,1.4965581161662935,9.687654202741385,-0.2829319937502034
1789741087951299000,3.873299072265625,1.4966690291948617,9.687579383939504,-0.2848990925720893
1789741087961376000,3.8833759765625,1.4968020079247653,9.687496966353057,-0.2869923750569112
1789741087971454000,3.893453857421875,1.4970520371630787,9.687395259544253,-0.2891055860849097
1789741087981531000,3.90353076171875,1.497184577501565,9.687304074129461,-0.2914472721065394
1789741087991608800,3.91360888671875,1.4973406448461115,9.687186585229634,-0.29456260938178747
1789741088001685800,3.923685791015625,1.4981613135792313,9.686945177689195,-0.2983197882245295
1789741088011763700,3.933763671875,1.499676394317299,9.686585112205147,-0.3023766989325173
1789741088021841000,3.9438408203125,1.5015315206646918,9.68616717905402,-0.306530950801447
1789741088031919000,3.953919189453125,1.5034640961624681,9.685728787636757,-0.31089561228435486
1789741088041997000,3.9639970703125,1.5052528792753814,9.685305009266733,-0.3153859094409272
1789741088052074000,3.974073974609375,1.506199220214784,9.685004565015435,-0.3200813737807795
1789741088062152000,3.98415185546875,1.5066308896303175,9.684778939566016,-0.32480631994344294
1789741088072228900,3.994228759765625,1.5066881727755068,9.68460358299911,-0.32973968469239767
1789741088082306800,4.004306884765625,1.5066111620165408,9.684436409738659,-0.3349730918338522
1789741088092383700,4.0143837890625,1.5067930944547057,9.684220136639475,-0.34038068649843334
1789741088102461700,4.024461669921875,1.5075883364856242,9.683904494819044,-0.3457811207698658
1789741088112539000,4.034538818359375,1.508665464197844,9.683522217503189,-0.3517246489420533
1789741088122617000,4.0446171875,1.5099819536238908,9.683095516523718,-0.3577673997050151
1789741088132694000,4.054694091796875,1.5112820764370263,9.682664723891019,-0.3638886225316673
1789741088142772000,4.06477197265625,1.5124521431297062,9.68225438952446,-0.36988625551126897
1789741088152849000,4.074848876953125,1.5130607765473425,9.681925888222455,-0.3759499759970233
1789741088162926800,4.0849267578125,1.513499752486497,9.681624859449267,-0.3818733746966347
1789741088173004000,4.095004150390625,1.5138431590966879,9.681348965117335,-0.3874639612453058
1789741088183082000,4.10508203125,1.5143034700848161,9.681064302957058,-0.39277759401611984
1789741088193159000,4.115158935546875,1.514761881376803,9.68078080984056,-0.3979344287900254
1789741088203236900,4.12523681640625,1.515315715867281,9.680490302461385,-0.40287667096517976
1789741088213313800,4.135313720703125,1.5158157743439078,9.680214408129453,-0.4076152072617784
1789741088223392000,4.14539208984375,1.5156635063916444,9.68005249556601,-0.4120024459026754
1789741088233469000,4.155468994140625,1.5160758865848183,9.67979179880321,-0.4165466286709532
1789741088243547000,4.165546875,1.5164343446336686,9.67954980674088,-0.4208544088674709
1789741088253624000,4.1756240234375,1.515611045552045,9.679514150905609,-0.42464068594053384
1789741088263702000,4.185701904296875,1.514958134601265,9.679453945150971,-0.42833563146833326
1789741088273779000,4.195779052734375,1.5152145935803651,9.679269820755719,-0.43158374654408543
1789741088283857000,4.20585693359375,1.5308825567029416,9.676740010017156,-0.4329825074261054
1789741088293934800,4.215934814453125,1.5364796460576355,9.675774964377284,-0.4347375709325075
1789741088304011800,4.22601171875,1.5441963579148053,9.674648006173967,-0.43249735425766556
1789741088314090000,4.236090087890625,1.5531931727103887,9.673791097083686,-0.419194366700761
1789741088324167000,4.2461669921875,1.5661669283129274,9.672990302094817,-0.3883101662784815
1789741088334244900,4.256244873046875,1.572474065633118,9.673042324543,-0.3605035832032561
1789741088344322000,4.266322021484375,1.575658979279548,9.672862876322865,-0.35130101670250297
1789741088354400000,4.27639990234375,1.5745814131759106,9.6727418802917,-0.35936953767202795
1789741088364477000,4.286476806640625,1.5687657126344738,9.672558340418338,-0.3885616568215191
1789741088374555000,4.296554931640625,1.5629456281788647,9.670941552871465,-0.44776733103860167
1789741088384631800,4.3066318359375,1.5627007135070858,9.666519644775986,-0.5354974542766809
1789741088394709800,4.316709716796875,1.5650738723792135,9.659514734449981,-0.6439841324806213
1789741088404787000,4.326786865234375,1.5685795424126088,9.649648004952072,-0.7708505900491028
1789741088414865000,4.336864990234375,1.5777191266797481,9.635589084461332,-0.9146699359841645
1789741088424942000,4.346942138671875,1.5936206062972544,9.616199324336648,-1.0767845248054713
1789741088435020000,4.35702001953125,1.6120444439992307,9.591251930084823,-1.2568150018066166
1789741088445097000,4.367096923828125,1.6289114076480269,9.561505611118674,-1.4472786830820141
1789741088455175000,4.3771748046875,1.6444805865712462,9.528078557813167,-1.6376165460206566
1789741088465251800,4.387251953125,1.662637005508691,9.501637710133194,-1.7677330183610318
1789741088475329800,4.397329833984375,1.6709372163422405,9.481868010780214,-1.8634696667157113
1789741088485407000,4.407406982421875,1.676082324145734,9.466997773906588,-1.9331537360556423
1789741088495485000,4.41748486328125,1.6731225975573063,9.4579289167881,-1.9795549833551047
1789741088505561900,4.427561767578125,1.6708944001138208,9.454155827990174,-1.9993563930206
1789741088515639800,4.437639892578125,1.6710215336248277,9.45382498860061,-2.0008112680040298
1789741088525718000,4.447718017578125,1.6724204406373202,9.454390805789828,-1.9969687672317027
1789741088535795000,4.457794921875,1.6729751519106328,9.455173480600118,-1.9927955732002853
1789741088545873000,4.467872802734375,1.6737144259706138,9.456233218786119,-1.9871356477424502
1789741088555949800,4.47794970703125,1.6755920564107596,9.45759398574531,-1.9790598933145402
1789741088566028500,4.488028564453125,1.678046609956026,9.458851876851917,-1.970959735097736
1789741088576105500,4.49810546875,1.6784269875757396,9.46050607379973,-1.9626712147019802
1789741088586183700,4.50818359375,1.6771175124123692,9.463025363144277,-1.951616590593755
1789741088596260900,4.5182607421875,1.6761637188188732,9.466216268140077,-1.9369110427625476
1789741088606338800,4.5283388671875,1.6733559679217636,9.471203408902882,-1.9148270751178262
1789741088616415700,4.538415771484375,1.6684953761480747,9.47807095658481,-1.8848529387451707
1789741088626493700,4.54849365234375,1.6658176813714205,9.48579307526946,-1.8480143234305082
1789741088636570600,4.558570556640625,1.663544329611957,9.494964223718643,-1.8024065645962952
1789741088646648600,4.568648681640625,1.6602809439018367,9.505771448937057,-1.747614943961799
1789741088656725800,4.578725830078125,1.6577996484801172,9.517724921581149,-1.6837451138585804
1789741088666803700,4.5888037109375,1.6555546460323034,9.530710659882425,-1.610928883972764
1789741088676880600,4.598880615234375,1.6511382908947765,9.544796468380094,-1.5300285702221095
1789741088686958800,4.608958740234375,1.6462072642333805,9.559530511653422,-1.4407558571845291
1789741088697035800,4.619035888671875,1.6424137171693145,9.574262801361083,-1.344004478829354
1789741088707113700,4.62911376953125,1.6389587544098496,9.588982816109061,-1.2391925436154008
1789741088717190700,4.639190673828125,1.6315923172950744,9.603857729157804,-1.1288189556863157
1789741088727268600,4.6492685546875,1.6220220865257085,9.61821007963717,-1.014619891184941
1789741088737345800,4.659345703125,1.6163722440704702,9.630870823767781,-0.8967042903784662
1789741088747423700,4.669423828125,1.6155525982506573,9.641145549544692,-0.780184527844563
1789741088757501700,4.679501708984375,1.6137025864697991,9.64972866897285,-0.6701409755874425
1789741088767578600,4.68957861328125,1.6131849923364816,9.65655120846927,-0.5648474308690056
1789741088777656800,4.69965673828125,1.61726773160547,9.661102880424261,-0.4668116752590984
1789741088787733800,4.709733642578125,1.623262003584206,9.663897479578852,-0.3801263118335977
1789741088797811700,4.719811767578125,1.6304345255620776,9.665410222229362,-0.3031369609816
1789741088807888600,4.729888671875,1.6370920837551355,9.66617653042674,-0.23522044930346309
1789741088817966600,4.739966552734375,1.6430658974677324,9.666403324919939,-0.17705938876848668
1789741088828043800,4.750043701171875,1.6490546164885163,9.666190558952092,-0.12560112294093706
1789741088838121700,4.760121826171875,1.6522105963014064,9.666113402062654,-0.08276437232317402
1789741088848198700,4.77019873046875,1.6564298214316366,9.66561831202209,-0.04972911764711607
1789741088858276600,4.780276611328125,1.660435257680714,9.665015669953823,-0.028461028395965694
1789741088868353500,4.790353515625,1.664380634305626,9.664363343524933,-0.016905487294588236
1789741088878431700,4.800431640625,1.6685476908572017,9.663652564907073,-0.012472737003042128
1789741088888508700,4.8105087890625,1.672564233022183,9.662957568380236,-0.012365750089276116
1789741088898586600,4.820586669921875,1.6755843114957212,9.662434421288966,-0.012663766063115325
1789741088908663800,4.830663818359375,1.6773548282995818,9.66212930086255,-0.010977249164722161
1789741088918741800,4.84074169921875,1.6779669688485561,9.662026425009966,-0.0075597563133458605
1789741088928818700,4.850818603515625,1.677924591011554,9.6620357773602,-0.003655129255230713
1789741088938896600,4.860896728515625,1.6775789924442768,9.662097736680508,0.0007331870979003724
1789741088948973600,4.8709736328125,1.6768886720925569,9.662215225580335,0.005334495179040823
1789741088959051500,4.881051513671875,1.6760143734760582,9.662363109618425,0.010266073254641378
1789741088969128700,4.891128662109375,1.6755151917822657,9.662443189117312,0.01531002223860123
1789741088979207000,4.90120703125,1.6751834756098687,9.662490535390376,0.02008586632979568
1789741088989283800,4.911283935546875,1.674270744679123,9.662638419428466,0.024462850721448194
1789741088999361800,4.92136181640625,1.6726394902154802,9.66291197567284,0.02817622238850454
1789741089009439700,4.931439697265625,1.6711463290482758,9.663158643910288,0.03230046956152655
1789741089019516700,4.9415166015625,1.6699457210868596,9.663350951611996,0.03648640206021955
1789741089029594600,4.9515947265625,1.6692868187867105,9.663445644158124,0.040931693314574656
1789741089039671600,4.961671630859375,1.6686818386308848,9.663530399832128,0.04537777687008492
1789741089049749500,4.97174951171875,1.668212321422994,9.663591774630547,0.04963676775512285
1789741089059826700,4.98182666015625,1.6677059793360531,9.6636566565603,0.05372922926710452
1789741089069905000,4.99190478515625,1.6673315930657089,9.663700495702027,0.05744685698417015
1789741089079981800,5.00198193359375,1.666757446439564,9.663777652591467,0.060995982566801825
1789741089090059800,5.012059814453125,1.6659303479656575,9.663896895056963,0.06446699684534687
1789741089100136700,5.02213671875,1.6654112925276159,9.663963530552387,0.0677905380777549
1789741089110214700,5.032214599609375,1.6649604800201951,9.664016137522458,0.07142281189919449
1789741089120291600,5.04229150390625,1.6646376778066156,9.664044194573163,0.07500008586407639
1789741089130369500,5.05236962890625,1.6643658751279116,9.664065821883081,0.07825482247686014
1789741089140446700,5.06244677734375,1.6641228601522742,9.664082188495993,0.08136178464940749
1789741089150524700,5.072524658203125,1.6639895891614258,9.664081019452214,0.08411744003309868
1789741089160601600,5.0826015625,1.6636824229083955,9.664107907459139,0.08695403343220241
1789741089170679800,5.0926796875,1.663217581875622,9.664164606082439,0.08954029619889334
1789741089180756700,5.1027568359375,1.6625822065815328,9.664250530800222,0.09206542162918485
1789741089190834700,5.112834716796875,1.6620134667828679,9.664323011514544,0.09469434536066837
1789741089200912000,5.122911865234375,1.6613859825342892,9.6644048445791,0.09738659838563762
1789741089210989800,5.13298974609375,1.6606467084743082,9.664504213300347,0.10009629573575221
1789741089221067800,5.14306787109375,1.6598993972383438,9.664601828455924,0.10296892856261693
1789741089231144700,5.153144775390625,1.659049356280267,9.664718732833862,0.10560496702147647
1789741089241222700,5.16322265625,1.6578405650123953,9.664898181053996,0.10812886860906146
1789741089251299600,5.173299560546875,1.656776150651276,9.665053079354763,0.11064047697065398
1789741089261377500,5.18337744140625,1.655885485421866,9.665171737298369,0.11357891417588106
1789741089271454500,5.193454345703125,1.654653751669824,9.665347678387164,0.11650430923644453
1789741089281532700,5.20353271484375,1.6533074516274033,9.665568043139576,0.11724189366283826
1789741089291609900,5.21360986328125,1.6544443467028438,9.66537222830653,0.11728909380543046
1789741089301687800,5.223687744140625,1.6558702878527343,9.665117961284517,0.11825481529873795
1789741089311764700,5.2337646484375,1.6565674763366578,9.664992289078235,0.11868807388315908
1789741089321842700,5.2438427734375,1.6566637763179837,9.664967154636978,0.11949992912216112
1789741089331919600,5.253919677734375,1.6560576271183787,9.665047234135866,0.12134810513895936
1789741089341997600,5.26399755859375,1.654690138157457,9.665252401319146,0.12364584242100826
1789741089352074500,5.274074462890625,1.6531455390639602,9.66548971720636,0.12569594335122963
1789741089362152700,5.284152587890625,1.6519472691901027,9.665670918992161,0.1274640307359863
1789741089372229600,5.294229736328125,1.651151296506822,9.665789576935767,0.12873410547072997
1789741089382307800,5.304307861328125,1.6514296750567852,9.665732878312468,0.12957133261300624
1789741089392384800,5.314384765625,1.6526519103281199,9.665511344516277,0.1303821558055468
1789741089402462700,5.324462646484375,1.6538713691204785,9.665296240460872,0.13094358908059076
1789741089412539600,5.33453955078125,1.6546126890070736,9.66516939921081,0.13095014668554067
1789741089422617600,5.34461767578125,1.6550212698079645,9.66509691849649,0.13116099469093606
1789741089432694800,5.35469482421875,1.6545608126893638,9.665172906342148,0.13124002387705258
1789741089442772700,5.364772705078125,1.6537826679237186,9.665314945161342,0.13073373658903872
1789741089452850700,5.3748505859375,1.6530714509144424,9.665462244677544,0.12870251388922332
1789741089462927600,5.384927734375,1.6527445570476351,9.665548169395327,0.1264187685999088
1789741089473005800,5.395005859375,1.6527983330614864,9.665572719314694,0.1238318573792465
1789741089483082800,5.405082763671875,1.6536287925362585,9.665474519637227,0.12047719492278992
1789741089493160700,5.41516064453125,1.6548359763689338,9.665297994026542,0.11797386119919828
1789741089503237600,5.425237548828125,1.6552901498772203,9.665266429844499,0.11411616285773925
1789741089513315600,5.435315673828125,1.6559285939112305,9.665212653830647,0.10931205051164142
1789741089523392800,5.445392822265625,1.6560821770377456,9.665238372793793,0.10460988243636675
1789741089533470700,5.455470703125,1.656209456679225,9.665271690541505,0.09940719922673888
1789741089543547600,5.465547607421875,1.657032609630376,9.665194533652066,0.09297708398085087
1789741089553625600,5.47562548828125,1.6578721291944383,9.665115038675069,0.08585556153785437
1789741089563702500,5.48570263671875,1.6594164360269903,9.664915132188796,0.07820100079723634
1789741089573780000,5.495780029296875,1.661159918693453,9.6646824924767,0.06947239478405098
1789741089583857200,5.505857177734375,1.6628436339966952,9.664456867027281,0.05994372443435713
1789741089593935000,5.51593505859375,1.664790968672186,9.66417921912968,0.049950066921417596
1789741089604012000,5.526011962890625,1.6663832062996924,9.663954178202152,0.039476019180123695
1789741089614090000,5.536090087890625,1.668244177865982,9.663668931519984,0.028841974554548504
1789741089624167000,5.5461669921875,1.670371106892079,9.663328155258297,0.017780239143880317
1789741089634244900,5.556244873046875,1.6724119650699196,9.662990301606058,0.00562865467838128
1789741089644321800,5.56632177734375,1.6744732815138994,9.66263198968768,-0.006804369656313793
1789741089654400000,5.57639990234375,1.6767920798502862,9.662212887492775,-0.019945291098614686
1789741089664477200,5.586477294921875,1.678212614172697,9.661922380113602,-0.034993868797388854
1789741089674555100,5.59655517578125,1.6805825581744311,9.661448917382955,-0.049199988339631816
1789741089684633000,5.606633056640625,1.6830547935068607,9.660932200032471,-0.06392334582216572
1789741089694710000,5.6167099609375,1.6851694475732744,9.660456399214267,-0.07845655559403822
1789741089704788000,5.6267880859375,1.688325573516637,9.659807579916714,-0.08961594611783512
1789741089714865000,5.636864990234375,1.6919019706986844,9.65905296215713,-0.10264273794870823
1789741089724942800,5.64694287109375,1.6944801506236196,9.658423432081937,-0.11814804872232489
1789741089735020000,5.65702001953125,1.6979374514706431,9.657637834662198,-0.1319883488931693
1789741089745098200,5.66709814453125,1.7012321091018616,9.656882047858833,-0.14431934047960676
1789741089755175200,5.677175048828125,1.7023393396914004,9.656492756280302,-0.15675050450488925
1789741089765253000,5.687253173828125,1.7024867853380738,9.656245503520966,-0.16982856073211877
1789741089775330000,5.697330078125,1.7033128608986734,9.655862641683221,-0.18286655894359571
1789741089785408000,5.707407958984375,1.704780741494149,9.655369889730215,-0.19479462315179408
1789741089795485000,5.71748486328125,1.7069440570078789,9.654719901388884,-0.2076654298365116
1789741089805563000,5.72756298828125,1.7103477279715238,9.653806878197193,-0.22157692294688894
1789741089815640000,5.73764013671875,1.713566397757083,9.652873981261253,-0.23688275649249552
1789741089825718000,5.747718017578125,1.7162063908718526,9.652045129221678,-0.2511185131211765
1789741089835795000,5.757794921875,1.7194222841784357,9.651148472642898,-0.26327910744361577
1789741089845873200,5.767873046875,1.7209816424496471,9.650576225712895,-0.2738655295182019
1789741089855950000,5.7779501953125,1.7218324140600858,9.650189272221922,-0.2820397576182149
1789741089866028000,5.788028076171875,1.721685114543885,9.65002677513659,-0.288381345197279
1789741089876105000,5.79810498046875,1.7211311339229345,9.649953709900378,-0.2940581669909879
1789741089886183000,5.808182861328125,1.7209977168016135,9.64980231873095,-0.29977236165301874
1789741089896260000,5.818260009765625,1.721682776456326,9.64950362804532,-0.3054003576026298
1789741089906338000,5.828338134765625,1.7231467115290462,9.649099723419546,-0.30988110147956754
1789741089916416000,5.838416015625,1.7245519021518527,9.648733228194713,-0.31350283564068376
1789741089926493000,5.848492919921875,1.7245342203646896,9.648632690429688,-0.3166350327191874
1789741089936571100,5.858571044921875,1.7231297603942453,9.648815061259269,-0.3187199857670814
1789741089946648000,5.86864794921875,1.7208767207704483,9.649195000487566,-0.3194152014896273
1789741089956726000,5.87872607421875,1.7182403809174893,9.649739774888753,-0.3170993622953072
1789741089966803200,5.88880322265625,1.7155391591347753,9.650431264284252,-0.3106399935554713
1789741089976881200,5.898881103515625,1.7125319401428103,9.651260116323828,-0.3013215455900878
1789741089986958000,5.9089580078125,1.709465684439987,9.652145666986703,-0.29013425327921283
1789741089997036000,5.9190361328125,1.70629845258072,9.653078563922643,-0.277496579496935
1789741090007113000,5.929113037109375,1.7031541632056235,9.654019059643149,-0.26370522390119727
1789741090017191000,5.93919091796875,1.6991956348381936,9.65509984061718,-0.24936253629932179
1789741090027267800,5.949267822265625,1.694344541545212,9.656339611545205,-0.23387550096791238
1789741090037346000,5.959345947265625,1.6883809569656847,9.657781042525171,-0.2167993880804628
1789741090047423200,5.96942333984375,1.6816541329286991,9.659356913539767,-0.1980536980129778
1789741090057501200,5.979501220703125,1.6746769873924552,9.66097428560853,-0.17722455273494123
1789741090067578000,5.989578125,1.6684633735746144,9.662450203379988,-0.15383914710283278
1789741090077656000,5.999656005859375,1.6618332879103719,9.66395651628971,-0.12903517077653667
1789741090087733000,6.00973291015625,1.6547516590863465,9.665480949378013,-0.10327212189342826
1789741090097811000,6.01981103515625,1.6472428908914327,9.66701415029466,-0.07629561013390776
1789741090107887900,6.029887939453125,1.6396869225539266,9.668480715715885,-0.04813345508666243
1789741090117965800,6.0399658203125,1.6320739633321761,9.66986953972578,-0.018478150288655886
1789741090128043000,6.05004296875,1.62386084626019,9.671261286345123,0.012956475674174725
1789741090138121200,6.060121337890625,1.614986927191913,9.672643096092342,0.04642874266116414
1789741090148199200,6.07019921875,1.6056771009244024,9.673962946519255,0.0814094779823441
1789741090158276000,6.080276123046875,1.5961030707627535,9.675171737787126,0.11776060204100794
1789741090168354000,6.09035400390625,1.587276790228486,9.676087099066375,0.15574353768574073
1789741090178431000,6.100430908203125,1.579877912148833,9.676586865282058,0.19501075012050567
1789741090188509000,6.110509033203125,1.574117448925972,9.676650578168035,0.23444095283094793
1789741090198586000,6.120586181640625,1.5688333710432052,9.676481066820024,0.2735564453027211
1789741090208664000,6.1306640625,1.5638466686718164,9.676106972810626,0.31260442549623546
1789741090218741000,6.140740966796875,1.5582786592811344,9.67568611705005,0.35107867918871344
1789741090228819200,6.150819091796875,1.5525380698025226,9.675158293783664,0.389019775852561
1789741090238896000,6.160896240234375,1.5471961242526768,9.674435824728011,0.42643644678350534
1789741090248974000,6.17097412109375,1.5426329079903662,9.673457335084676,0.46353981398157773
1789741090259051000,6.181051025390625,1.5389856375291944,9.672188338062167,0.5006644431633874
1789741090269129000,6.19112890625,1.5362196799471974,9.67063701696694,0.5377440641596913
1789741090279206100,6.2012060546875,1.5341611399821937,9.668844872853159,0.5745892188129946
1789741090289284000,6.2112841796875,1.5328266765080392,9.666862759125232,0.6103885542077944
1789741090299361000,6.221361083984375,1.532088425361365,9.664805826595424,0.6439009111765772
1789741090309439000,6.23143896484375,1.53131451837942,9.662794486773013,0.6751712248396128
1789741090319516000,6.241515869140625,1.5310742798827588,9.660722356674075,0.7047245785169303
1789741090329594000,6.251593994140625,1.530979441206157,9.65862158500254,0.7331522160999476
1789741090339671000,6.261671142578125,1.5308391559526324,9.656505031239986,0.7608009051997214
1789741090349749000,6.2717490234375,1.5310007762551308,9.65431248963177,0.7878249595951289
1789741090359826200,6.281826171875,1.5317736603237688,9.65205857322514,0.8135141121249645
1789741090369904000,6.291904052734375,1.5332619991853833,9.64971054879427,0.838195695047453
1789741090379981000,6.30198095703125,1.5356315047957003,9.647250880682467,0.8618390940286219
1789741090390059000,6.31205908203125,1.538337841144949,9.644788289961218,0.8842936485514045
1789741090400137000,6.322136962890625,1.541602834290266,9.642277183923124,0.9057339845303446
1789741090410214000,6.3322138671875,1.5448840479180217,9.639830375292897,0.9259442672576754
1789741090420292000,6.3422919921875,1.5479573178835213,9.637476505643129,0.9451132242385297
1789741090430369000,6.352369140625,1.5510560145512222,9.63514075617194,0.963666314343363
1789741090440447000,6.362447021484375,1.5533382802695035,9.633000821533798,0.9812343389336019
1789741090450524200,6.372524169921875,1.5545806815460324,9.631053194597364,0.9982453872282058
1789741090460602000,6.38260205078125,1.5559223054133355,9.629050038081408,1.0153299391504376
1789741090470679000,6.392678955078125,1.5573882863126693,9.62705097321868,1.03189828517884
1789741090480757000,6.402757080078125,1.5595003100305795,9.62499696329832,1.0477511764142662
1789741090490834000,6.412833984375,1.562321943322569,9.622842415612935,1.0632277086179702
1789741090500911900,6.422911865234375,1.5650243341490626,9.620829906746744,1.0773693389561028
1789741090510989000,6.432989013671875,1.5667384445905685,9.61899450801313,1.0911853175364434
1789741090521067300,6.4430673828125,1.5681874743551014,9.617103579699993,1.1056618789173662
1789741090531144200,6.453144287109375,1.5695333360061048,9.615164136070012,1.1205247362021356
1789741090541222100,6.46322216796875,1.5711169519357382,9.613121232065557,1.1357295387923716
1789741090551299000,6.473299072265625,1.5734348734892905,9.611004093781114,1.1503417092517019
1789741090561377000,6.483376953125,1.5755118258938192,9.609062312063575,1.163643893091008
1789741090571454200,6.4934541015625,1.5771460029669104,9.607216976457833,1.176595582992211
1789741090581532200,6.5035322265625,1.5792060042366385,9.605268764999508,1.1896751370567828
1789741090591609300,6.513609375,1.5813991303667425,9.60323170621395,1.2031298811092972
1789741090601687600,6.5236875,1.583866543393582,9.600990064767002,1.2176808229006826
1789741090611764500,6.533764404296875,1.586423534400016,9.598611645197868,1.2329954425409435
1789741090621842400,6.543842529296875,1.588711937598139,9.596282325467467,1.248088089993596
1789741090631919400,6.55391943359375,1.5904031055554746,9.594084523162245,1.2627524290315806
1789741090641997300,6.563997314453125,1.5918839917629957,9.59193172904253,1.2771572403505445
1789741090652075300,6.5740751953125,1.5930971669450402,9.589804069364071,1.291538086272031
1789741090662152200,6.584152099609375,1.5945355291850865,9.587619711062311,1.3059005197539926
1789741090672230100,6.594230224609375,1.596704982178658,9.585296821072697,1.320227589661628
1789741090682307300,6.604307373046875,1.5996575483739375,9.582817279216647,1.334577017531544
1789741090692385500,6.614385498046875,1.6031332616604863,9.580165887925029,1.349355922859907
1789741090702462500,6.62446240234375,1.6063737048864364,9.577596329697966,1.363669987155497
1789741090712540400,6.63454052734375,1.6090300646141171,9.575122633060813,1.3778415742404757
1789741090722617300,6.644617431640625,1.612111810147017,9.572488777425885,1.3924686500079928
1789741090732695300,6.6546953125,1.6142083440348505,9.569936170333623,1.4075018223583697
1789741090742772200,6.664772216796875,1.617688148974627,9.567302899220586,1.4213346790082753
1789741090752850200,6.67485009765625,1.6209068187601863,9.564710544639825,1.435051946454495
1789741090762927400,6.68492724609375,1.6254543990619479,9.561560556176305,1.450809779817611
1789741090773005300,6.69500537109375,1.630339686885476,9.558220598098636,1.4672409823976456
1789741090783082200,6.705082275390625,1.6350531252734362,9.555140752261876,1.4819856931954623
1789741090793160200,6.71516015625,1.639084718877077,9.552574701166153,1.4940249444268643
1789741090803237000,6.725237060546875,1.641248326651752,9.55030441814661,1.5061065734952688
1789741090813315300,6.7353154296875,1.6451789440989493,9.547701542171835,1.5182830412402748
1789741090823392500,6.745392578125,1.6494595440275965,9.54500748078227,1.5305232218712568
1789741090833470500,6.755470458984375,1.656487104576826,9.541642972785233,1.5438612807415424
1789741090843547400,6.76554736328125,1.6640116548627615,9.538028873941302,1.5580273148685693
1789741090853625300,6.775625244140625,1.6688183244921266,9.534946690016984,1.5716929982580243
1789741090863702300,6.785702392578125,1.6716392271317542,9.53262555359304,1.5827305251009762
1789741090873780200,6.7957802734375,1.6721753798350691,9.530719427710771,1.5936090619899332
1789741090883857200,6.805857177734375,1.672865407925844,9.52870691884458,1.6048799591973424
1789741090893935000,6.81593505859375,1.6752086100511252,9.526465277397632,1.6157120265960692
1789741090904013300,6.826013427734375,1.6800038815036415,9.52348480028212,1.628249144347012
1789741090914090500,6.836090576171875,1.6857561614200471,9.520329551121591,1.6407039906419814
1789741090924168400,6.84616845703125,1.6883800801828504,9.51826385076344,1.6499715852029622
1789741090934245400,6.856245361328125,1.6861448684766887,9.517038692882657,1.6592979242138564
1789741090944323300,6.8663232421875,1.6785738487005233,9.516926464679837,1.6676052954405545
1789741090954400300,6.876400146484375,1.6703604393675922,9.517223986321687,1.6741398117758333
1789741090964478200,6.886478271484375,1.6676887359403072,9.51615606482923,1.6828513798892497
1789741090974555100,6.89655517578125,1.672795703690499,9.513032964372634,1.695392881554365
1789741090984633000,6.906633056640625,1.6828604399785398,9.509113160580396,1.7073709041178224
1789741090994710300,6.916710205078125,1.6917343590468168,9.506366492220758,1.7138840854041277
1789741091004788500,6.92678857421875,1.6970963244713841,9.504764317721127,1.7174685197621582
1789741091014865400,6.936865478515625,1.698678040704876,9.50377472216189,1.7213745872899888
1789741091024943400,6.946943359375,1.6968429342322051,9.503108367207647,1.7268613481380044
1789741091035020300,6.957020263671875,1.6935066294163466,9.502267240208386,1.7347437719509005
1789741091045098200,6.96709814453125,1.689546932005137,9.501259524470568,1.7440962683163583
1789741091055175400,6.977175537109375,1.6860190501399337,9.50037981902659,1.7522896577745675
1789741091065253400,6.98725341796875,1.6829732527032493,9.499870700460672,1.7579696031071244
1789741091075330300,6.997330322265625,1.6801295537099241,9.49938905442357,1.7632818841710685
1789741091085408300,7.007408203125,1.6786613808535038,9.498606964135169,1.7688820422656832
1789741091095485200,7.017485107421875,1.6797113282978533,9.497470069059728,1.7739827264055608
1789741091105563400,7.0275634765625,1.6828290219269693,9.495915825355052,1.7793427921339868
1789741091115640300,7.037640380859375,1.6852616559013722,9.494192654824257,1.7862193999052047
1789741091125718300,7.04771826171875,1.6846616441816091,9.493090831062197,1.7926324818179011
1789741091135795500,7.05779541015625,1.6827733462169765,9.492485266384481,1.797605740185827
1789741091145873400,7.067873291015625,1.681799240487814,9.491598546677828,1.8031939155817032
1789741091155950300,7.077950439453125,1.6829070555992423,9.490107431337236,1.8099916128978133
1789741091166028300,7.0880283203125,1.6836838851906357,9.488713346630334,1.8165699683748184
1789741091176106200,7.098106201171875,1.6818375266715884,9.487914889729023,1.8224394449301062
1789741091186183200,7.10818310546875,1.6781866029486059,9.487593402689695,1.8274699864432216
1789741091196261400,7.118261474609375,1.6755885492794216,9.487423891341686,1.8307301572829484
1789741091206338300,7.12833837890625,1.677584983793646,9.486629526093601,1.8330160762630403
1789741091216416300,7.138416259765625,1.6852112408883868,9.484806986841559,1.8354549938477576
1789741091226493400,7.148493408203125,1.6959500770457088,9.482461885020136,1.837678076724708
1789741091236571400,7.1585712890625,1.7047886325396597,9.480469834420084,1.8397770948305725
1789741091246648300,7.1686484375,1.7094884807936845,9.479348721435665,1.8411941220216452
1789741091256726300,7.178726318359375,1.7107677069492637,9.479013205870986,1.841729836333543
1789741091266803200,7.18880322265625,1.712263936856389,9.47876186145842,1.8416314905256033
1789741091276881200,7.198881103515625,1.7176637500733136,9.477844162091612,1.8413284159258008
1789741091286958300,7.208958251953125,1.7268141479954122,9.475985967004299,1.8423298480533061
1789741091297036300,7.219036376953125,1.736317743269354,9.473857722803949,1.8443413340061903
1789741091307113500,7.229113525390625,1.7422778207175433,9.471744676172733,1.8495663751780986
1789741091317191400,7.23919140625,1.7419933046877383,9.469826275330782,1.8596280427262186
1789741091327268400,7.249268310546875,1.7381040421642362,9.468420500186085,1.870396543369442
1789741091337346300,7.25934619140625,1.7360579232893882,9.466500345778465,1.881984835962951
1789741091347423200,7.26942333984375,1.7405477820545434,9.46253553380072,1.8977150506667793
1789741091357501200,7.279501220703125,1.7498462101452052,9.457516244333982,1.914108843845874
1789741091367578400,7.289578369140625,1.7594480050966144,9.452748883801698,1.9287996324993668
1789741091377656300,7.29965625,1.7655673647597432,9.448675935274363,1.9431104819245635
1789741091387733200,7.309733154296875,1.7688352805145084,9.444980587887763,1.9580434087708591
1789741091397811500,7.3198115234375,1.7693213104657828,9.441193470564484,1.9757908085159956
1789741091407889400,7.329889404296875,1.7682564577132462,9.436620171299577,1.998469819444418
1789741091417966300,7.33996630859375,1.7699986252054571,9.431004669505358,2.0232748826161027
1789741091428044300,7.350044189453125,1.7775398343652486,9.424335274744033,2.0475920161403716
1789741091438121200,7.360121337890625,1.7934543195948003,9.415886010828613,2.0724328812777997
1789741091448199200,7.37019921875,1.8166396726101637,9.405380983427166,2.099761179316789
1789741091458276400,7.3802763671875,1.8405387268528342,9.393374903813005,2.132442821082473
1789741091468354300,7.390354248046875,1.8591126405499874,9.381960944873095,2.1663117729365826
1789741091478431200,7.40043115234375,1.8760653827860951,9.370495548006891,2.201039679707587
1789741091488509400,7.410509521484375,1.8940349008493125,9.358321710610388,2.237142820354551
1789741091498586400,7.42058642578125,1.9140490764826534,9.345744553110002,2.2724121405258773
1789741091508664300,7.430664306640625,1.9354037069395182,9.33506300009787,2.2980817115724084
1789741091518741200,7.4407412109375,1.9572252242557704,9.326244318348168,2.3153441042795775
1789741091528819200,7.450819091796875,1.9818601915575562,9.318145183044672,2.3269722904920576
1789741091538896400,7.460896484375,2.007876822476089,9.309758462971448,2.338210308343172
1789741091548974300,7.470974365234375,2.0255390281558037,9.301779154655337,2.354673221235722
1789741091559051300,7.48105126953125,2.0390975979089734,9.29367885030806,2.374871082872897
1789741091569129000,7.49112890625,2.043928525196761,9.2884736828804,2.3910203997716306
1789741091579206000,7.501205810546875,2.042791483990848,9.28664529840946,2.39908285632655
1789741091589283800,7.511283935546875,2.0368081717975435,9.287257877349854,2.4017986911565066
1789741091599361000,7.521361083984375,2.0290119649633764,9.288435688957572,2.40383852642104
1789741091609439000,7.53143896484375,2.0270782204218207,9.288656053709984,2.404623539318889
1789741091619516000,7.541515869140625,2.0294566399909555,9.28914529853165,2.4007237554013727
1789741091629593900,7.55159375,2.0323779342651367,9.289396058422327,2.397277560470253
1789741091639670800,7.5616708984375,2.0311073298074303,9.28879400087595,2.4006841540433466
1789741091649748700,7.571748779296875,2.0257105853304265,9.288747823646665,2.405415712609887
1789741091659826000,7.581825927734375,2.017716079445183,9.290367533802986,2.4058837685130534
1789741091669904000,7.59190380859375,2.0091091407500206,9.29269276188016,2.40410521453321
1789741091679981800,7.60198193359375,2.001872175233811,9.295056568402051,2.4010043259084224
1789741091690059000,7.61205908203125,1.9992888807423412,9.296405644923448,2.3979320788562295
1789741091700137000,7.622136962890625,1.9999238176450131,9.295940950021148,2.3992004913568494
1789741091710214000,7.6322138671875,2.0037050897493955,9.294153482082486,2.402969342371076
1789741091720291800,7.642291748046875,2.008525641773641,9.291978476130963,2.4073510645866394
1789741091730368800,7.65236865234375,2.0089960357643664,9.290785466954112,2.4115596221923825
1789741091740446700,7.66244677734375,2.0057642142362893,9.291070713636278,2.413150252384692
1789741091750524000,7.67252392578125,1.9983593448072672,9.293235782715678,2.4109578569069505
1789741091760602000,7.68260205078125,1.9881318191729485,9.29748408780992,2.403018880601227
1789741091770679000,7.692678955078125,1.9802965955026446,9.303016002973914,2.3880339313067496
1789741091780757000,7.702757080078125,1.9763133710853755,9.308585327538847,2.3695593863308426
1789741091790834000,7.712833984375,1.9742960399135947,9.31281317436695,2.3545794054724274
1789741091800912000,7.722911865234375,1.9721872310660777,9.315768517041207,2.3446359574764966
1789741091810988800,7.73298876953125,1.9687997805848716,9.318387175107002,2.3370624534822997
1789741091821066800,7.743066650390625,1.9634262708529828,9.32217604599595,2.326451773749292
1789741091831144000,7.75314404296875,1.9560604182600974,9.328139922836423,2.308687276738882
1789741091841222000,7.763221923828125,1.947320793095976,9.336326736423374,2.282835773254186
1789741091851298800,7.773298828125,1.9365030464835464,9.345219652453064,2.255488185992837
1789741091861377000,7.783376953125,1.926143565032631,9.353476608666776,2.2299853498153386
1789741091871454000,7.793453857421875,1.917234574650973,9.360843338042496,2.206626539929211
1789741091881532000,7.803531982421875,1.908863490538299,9.366887878903746,2.188156817258894
1789741091891608800,7.81360888671875,1.8996582936890423,9.372236838716267,2.1732119077138603
1789741091901686800,7.823686767578125,1.8883986485280095,9.377931835487484,2.1584123979888856
1789741091911764000,7.833763916015625,1.8769896580241618,9.384255777812003,2.140800168930739
1789741091921842000,7.843842041015625,1.8674625357441603,9.391279977360368,2.118213804721832
1789741091931920000,7.853919921875,1.861204059871286,9.398201301056146,2.092876972761005
1789741091941996800,7.863996826171875,1.8571265812993047,9.404631041842698,2.067462545519322
1789741091952075000,7.874074951171875,1.85257578612715,9.410918159288167,2.0427854926414786
1789741091962152000,7.88415185546875,1.845508478089422,9.417334456071258,2.0194787052035332
1789741091972230000,7.89422998046875,1.8352951271109281,9.42400735796392,1.997540721900761
1789741091982307000,7.90430712890625,1.8234480374507605,9.43127881027162,1.9739339286029338
1789741091992385000,7.914385009765625,1.8126028183095155,9.438846030655503,1.9475790056407452
1789741092002462000,7.9244619140625,1.8042888712115586,9.4461800268054,1.919533353112638
1789741092012540000,7.934539794921875,1.7995932607412337,9.453178507390618,1.889244451702386
1789741092022616800,7.944616943359375,1.7957286942675708,9.460256482952833,1.8572307723261414
1789741092032694800,7.95469482421875,1.7893728955000638,9.467549562570452,1.8259332783952353
1789741092042771700,7.964771728515625,1.7807962058126925,9.474595389428734,1.7975502106063066
1789741092052850000,7.974849853515625,1.769113805194944,9.48204628995657,1.7695818610981107
1789741092062927000,7.984927001953125,1.7550743200570345,9.490040211319922,1.7404769087754188
1789741092073005000,7.995005126953125,1.741727054966986,9.49771030755639,1.7117990958236158
1789741092083082000,8.00508203125,1.730827036898583,9.504847904351353,1.6829913728818295
1789741092093160000,8.015159912109375,1.7231645394466817,9.51152898955047,1.6528459715954957
1789741092103236900,8.02523681640625,1.7165952440589665,9.517848255699873,1.6230317019596694
1789741092113314800,8.035314697265624,1.7076586350180207,9.524725155732035,1.5918210095293819
1789741092123391700,8.045391845703126,1.6939565651409327,9.532356089001894,1.5604770461082458
1789741092133469700,8.0554697265625,1.6761555355124174,9.54060603095293,1.5289600642077623
1789741092143547000,8.065546875,1.657394720941037,9.549253447788953,1.4950466886900364
1789741092153625000,8.075625,1.6414194454349575,9.557420972153544,1.4600751824215055
1789741092163702000,8.085701904296876,1.633196537621319,9.564210193902253,1.4244032727986573
1789741092173780000,8.095780029296876,1.6321055275142191,9.569743278110026,1.388034320822358
1789741092183857000,8.10585693359375,1.631904451984167,9.575000467985868,1.35154174246639
1789741092193934800,8.115934814453125,1.6299683693550526,9.580495558270812,1.314420803079009
1789741092204012800,8.1260126953125,1.6239720515497027,9.586545359829067,1.2772032714493573
1789741092214090000,8.136090087890626,1.6160691694706677,9.592664719492197,1.2407564319312572
1789741092224168000,8.14616796875,1.6108052575930951,9.598070962449908,1.205297945863381
1789741092234244900,8.156244873046875,1.6083726236186922,9.602768764877318,1.1706278336942195
1789741092244323000,8.166322998046875,1.607834425088763,9.606932314297556,1.1367067132614552
1789741092254400000,8.17639990234375,1.60983582803905,9.610448213464021,1.1036772079061716
1789741092264478000,8.18647802734375,1.6139812572807073,9.613300095763803,1.0723411355305463
1789741092274555000,8.196554931640625,1.6165375176347792,9.616198739814758,1.0420727654516697
1789741092284632800,8.2066328125,1.616579749341309,9.619098552909493,1.0148848257314413
1789741092294710000,8.2167099609375,1.6152850333556532,9.621685062271355,0.9921792190570383
1789741092304788000,8.2267880859375,1.6161154928304253,9.623779404202104,0.9702766723938285
1789741092314865000,8.236864990234375,1.618075248596072,9.625788990458846,0.946781011320278
1789741092324942800,8.24694287109375,1.6231452453367412,9.627416299399734,0.9212128548216074
1789741092335019800,8.257019775390624,1.6323770379319786,9.628606970489024,0.8919870525982231
1789741092345098000,8.267097900390626,1.6404485545761882,9.630069444257021,0.860847964099422
1789741092355175000,8.2771748046875,1.643958900784701,9.63214040531218,0.830455383118987
1789741092365252900,8.2872529296875,1.6401717834614216,9.635127312168478,0.802826348567754
1789741092375330000,8.297330078125,1.6312537329904735,9.638457917895913,0.7807226533092558
1789741092385408000,8.307407958984374,1.6214166679784654,9.641676879942416,0.7612286290924996
1789741092395485000,8.31748486328125,1.6132508971795438,9.64461585600376,0.7410813285987824
1789741092405563000,8.32756298828125,1.610348015344888,9.64681950352788,0.7183580401372164
1789741092415639800,8.337639892578125,1.610046840441227,9.648855393269658,0.6911851518556476
1789741092425717800,8.3477177734375,1.6111434035062788,9.65064227668643,0.6631079351454973
1789741092435795000,8.357794921875,1.6161897271104155,9.651488079860806,0.6380424674719571
1789741092445873000,8.367872802734375,1.621518082526326,9.652160280033945,0.6138727795943617
1789741092455949800,8.37794970703125,1.6272241852134466,9.652527359780668,0.5926517854545265
1789741092466028000,8.388028076171874,1.6347551652401684,9.652503394383192,0.571957847396098
1789741092476106000,8.39810595703125,1.6368388396464286,9.653581837269662,0.5472842651169747
1789741092486183000,8.408182861328125,1.6391101455792785,9.65467021702826,0.5206335740786046
1789741092496260900,8.4182607421875,1.6434923061862587,9.655437694269418,0.4917985978037119
1789741092506337800,8.428337890625,1.643826506576687,9.656813074275851,0.46278669405933465
1789741092516415700,8.438415771484374,1.6444173120766876,9.6579891323179,0.4353251615621149
1789741092526493000,8.448492919921875,1.6427213218137622,9.659566756898164,0.40573224305938926
1789741092536571000,8.45857080078125,1.6388599702104925,9.66146002329886,0.37511801868490874
1789741092546647800,8.468647705078125,1.6349467422895132,9.663120065465568,0.3484817214980721
1789741092556726000,8.47872607421875,1.632246543420106,9.664306060379744,0.32760479155555366
1789741092566803000,8.488802978515626,1.6297488813854752,9.665278120282291,0.3109917296025902
1789741092576880600,8.498880615234375,1.6307120273292064,9.665588501405715,0.295929331157729
1789741092586957600,8.50895751953125,1.634941043201089,9.66541431388259,0.2777090897364542
1789741092597035800,8.519035888671874,1.6394865776762366,9.665214991918205,0.25702921673599627
1789741092607113000,8.529113037109376,1.6455960004672407,9.664695351958274,0.23676895738709716
1789741092617191000,8.53919091796875,1.6502341816619037,9.664407767188548,0.21519834609199315
1789741092627267800,8.549267822265625,1.6502983329392968,9.664857849043607,0.19341102330628782
1789741092637345800,8.559345703125,1.6493306569509207,9.665327804642915,0.17755570265175774
1789741092647422700,8.569422607421876,1.649390424314141,9.665473935115337,0.1688165158790536
1789741092657500700,8.579500732421875,1.6496796165190637,9.665531802782416,0.16259906613631173
1789741092667577900,8.589577880859375,1.6509851461596785,9.66544821615219,0.1540444604165852
1789741092677655800,8.59965576171875,1.6559684875302016,9.664782445719837,0.14189146487871185
1789741092687732700,8.609732666015624,1.663809118027985,9.663619247159362,0.12877609971524215
1789741092697811000,8.61981103515625,1.671983364394307,9.662362525096535,0.11669059818931854
1789741092707887900,8.629887939453125,1.6731407177358866,9.662305826473235,0.1040742777223233
1789741092717965800,8.6399658203125,1.670018640192598,9.662955230292678,0.09331327539896592
1789741092728043800,8.650043701171874,1.6652194232173263,9.663843703565002,0.0868256212795619
1789741092738120700,8.66012060546875,1.6640883733607827,9.664114921721815,0.0780295714867767
1789741092748198700,8.67019873046875,1.6616626075185834,9.664643914031982,0.06258927964023314
1789741092758275800,8.68027587890625,1.6646958377346395,9.664223642793297,0.04421199819345493
1789741092768353800,8.690353759765625,1.6760012217335403,9.662343820396066,0.02253885582234943
1789741092778430700,8.7004306640625,1.688440285937488,9.660204470279812,-0.002277828432236856
1789741092788509000,8.710509033203126,1.6963056124851106,9.658787004697322,-0.02777179945621174
1789741092798585900,8.7205859375,1.69894136781618,9.658227617248892,-0.05131357382696587
1789741092808663800,8.730663818359375,1.697535738801956,9.658337507364154,-0.07274111425641458
1789741092818740700,8.74074072265625,1.6974277483828364,9.658204236373304,-0.09073131434805691
1789741092828818700,8.750818603515626,1.7017241304025053,9.657280107265711,-0.10718048184304498
1789741092838895900,8.760895751953125,1.7007884569875895,9.657139237490297,-0.13177123554376885
1789741092848973800,8.770973876953125,1.6928389592878519,9.658125910440086,-0.15896045390563085
1789741092859050800,8.78105078125,1.6920874102681873,9.657924250388145,-0.1781086786257103
1789741092869128700,8.791128662109376,1.7050038827255367,9.655590839004516,-0.18142898215483874
1789741092879205600,8.80120556640625,1.7196885338991879,9.652761168536543,-0.19305532347010448
1789741092889283600,8.81128369140625,1.7171385571554303,9.652705054435133,-0.21708377624610437
1789741092899360800,8.82136083984375,1.7057666837915777,9.654058807131648,-0.24475166323669253
1789741092909439000,8.83143896484375,1.70807496073395,9.653110128104686,-0.26516320415716615
1789741092919516000,8.841515869140625,1.7207579166963696,9.650390932273865,-0.28165506914956495
1789741092929593900,8.85159375,1.7243728923231363,9.64914882325828,-0.3014057167422026
1789741092939670800,8.8616708984375,1.721533723374456,9.649040686708688,-0.32049010071214284
1789741092949748700,8.871748779296874,1.7176175728440284,9.649423548546434,-0.32986791418194766
1789741092959825700,8.88182568359375,1.7160484238311646,9.649648589473962,-0.3314625629622489
1789741092969903600,8.891903564453125,1.7180429586492478,9.649339961916208,-0.3300686243858188
1789741092979980800,8.901980712890625,1.7228484592348337,9.648449735078215,-0.33106180014163256
1789741092990058800,8.912058837890624,1.7255922049850225,9.647793901517987,-0.3358440659821033
1789741093000135700,8.9221357421875,1.7280203089147805,9.64719184397161,-0.3406159565590322
1789741093010214000,8.9322138671875,1.7297187833957373,9.646900167548656,-0.3402570601187646
1789741093020291800,8.942291748046875,1.7262961154706775,9.647645432958006,-0.33649964381400493
1789741093030368800,8.95236865234375,1.718313007762283,9.649269819289445,-0.3307246406091377
1789741093040446700,8.96244677734375,1.7111014689482746,9.650935122153163,-0.3193109008649364
1789741093050523600,8.972523681640626,1.708674534062296,9.65183177873194,-0.30488606967125087
1789741093060601600,8.9826015625,1.7076099735707044,9.652453710022568,-0.2908630790104158
1789741093070678800,8.9926787109375,1.7076016441337762,9.652820789769292,-0.27843358635241167
1789741093080756700,9.0027568359375,1.7058458865076302,9.653497666117548,-0.2654608719294891
1789741093090833700,9.012833740234376,1.7009991771288215,9.654750296527146,-0.25058563008718193
1789741093100911900,9.022911865234375,1.6923329094618558,9.656693247288464,-0.23381142275575548
1789741093110988800,9.03298876953125,1.6839499887809157,9.658682959800958,-0.21103028489341957
1789741093121066800,9.043066650390625,1.6771939386494457,9.660388594675064,-0.18522212736010552
1789741093131144000,9.05314404296875,1.6696730416253207,9.662140406778454,-0.16010182422678917
1789741093141222000,9.063221923828126,1.66356201139912,9.663573069930075,-0.13522950450517238
1789741093151298800,9.073298828125,1.660709690707922,9.664393738663197,-0.1090807077074889
1789741093161376800,9.083376708984375,1.6610928448066113,9.66460942724049,-0.08062409975831396
1789741093171453700,9.09345361328125,1.6632086679168046,9.664448683720826,-0.0505921779169701
1789741093181531600,9.10353173828125,1.665498678550124,9.664167528691888,-0.019054511704773177
1789741093191608600,9.113608642578125,1.6626109942846,9.664674309170245,0.013849008633685298
1789741093201686800,9.123686767578125,1.6534810546286403,9.666136782938242,0.04673905985250603
1789741093211764000,9.133763916015624,1.6386128635816275,9.668459088405966,0.07901190618816763
1789741093221842000,9.143842041015626,1.6255806557901202,9.670322544190286,0.11290869589727372
1789741093231918800,9.1539189453125,1.620757619547844,9.67065163001418,0.14843414625413714
1789741093241996800,9.163996826171875,1.6249842973321675,9.66930956775546,0.18513282337514683
1789741093252073700,9.17407373046875,1.6319493140392005,9.667454295277595,0.2178683872851543
1789741093262151700,9.184151611328126,1.6362744837619363,9.666006434556841,0.24758080398170276
1789741093272228600,9.194228515625,1.638869176430255,9.664839144343137,0.274497014088463
1789741093282306600,9.204306640625,1.6374417739756404,9.664327687689662,0.29991973423445595
1789741093292384800,9.214384765625,1.63672003557235,9.663544428357481,0.32776140688937155
1789741093302462000,9.2244619140625,1.6365078541263938,9.662568276801705,0.35639380979686974
1789741093312540000,9.234539794921876,1.6353152833409605,9.661790278166531,0.3820190667776391
1789741093322616800,9.244616943359375,1.6329266346387563,9.661281744122505,0.40442718834280966
1789741093332694800,9.25469482421875,1.6280328712478278,9.66127180725038,0.4239439723806456
1789741093342771700,9.264771728515624,1.6245510204814373,9.660939798817038,0.4443550018444657
1789741093352849700,9.274849609375,1.6235764763608573,9.660093411120771,0.46580761278308924
1789741093362926800,9.2849267578125,1.6234719930730759,9.659244685336947,0.4834329935837537
1789741093373004800,9.2950048828125,1.6251276513256132,9.6582667802155,0.4972214265700429
1789741093383081700,9.305081787109375,1.6267188660398124,9.657339728498458,0.5098525427473709
1789741093393160000,9.315159912109374,1.6277926327511667,9.656502693152428,0.5221203420376405
1789741093403236900,9.32523681640625,1.6302750972166657,9.655351769551634,0.5355087428556755
1789741093413314800,9.335314697265625,1.6313427264481781,9.65438964652121,0.5494039606846869
1789741093423391700,9.345391845703125,1.6333607882723211,9.653298344153166,0.5624624354286119
1789741093433469700,9.3554697265625,1.6337990335591137,9.652411624446511,0.5762399816947058
1789741093443547000,9.365546875,1.6332355544574557,9.651789693155884,0.5881093927845359
1789741093453624800,9.375624755859375,1.6298165397942066,9.651866265523433,0.5962955487843603
1789741093463701800,9.38570166015625,1.6268860393002629,9.65189023092091,0.6038589697759598
1789741093473779700,9.39577978515625,1.6258397451177238,9.651433134803176,0.6139081431686878
1789741093483856600,9.405856689453126,1.6244553050220012,9.650948566156625,0.6250775527630001
1789741093493934800,9.415934814453125,1.6214683981657028,9.65071534192264,0.6363392437506467
1789741093504011800,9.42601171875,1.6206844081811607,9.649974752688408,0.6494413019079714
1789741093514089700,9.43608984375,1.6278116297125815,9.647788640820979,0.663915671331808
1789741093524167000,9.4461669921875,1.6392738117083907,9.644864277806878,0.6780567171480506
1789741093534244900,9.456244873046876,1.6492723508924245,9.642235682868957,0.6910768691755831
1789741093544321800,9.46632177734375,1.652767353401333,9.640800681629777,0.7026475530471652
1789741093554399700,9.476399658203125,1.6481407165139912,9.640692545080185,0.71489635537602
1789741093564476700,9.4864765625,1.642845678845793,9.640471011283994,0.7299148416139185
1789741093574558000,9.496557861328125,1.6435418444164096,9.639136547809839,0.7458009775318205
1789741093584636000,9.506635986328124,1.648416464715451,9.637018825003505,0.7622125255633145
1789741093594713000,9.516713134765626,1.6558746717669068,9.634588382986188,0.776634580278024
1789741093604791000,9.526791015625,1.6582753031678497,9.633189622104167,0.7887753921877593
1789741093614868000,9.536867919921875,1.659734854326397,9.63197206300795,0.8004783972021192
1789741093624946200,9.5469462890625,1.6669892093688248,9.629871875858306,0.8106091844636947
1789741093635023000,9.557023193359376,1.675131599292159,9.627997898679972,0.8160683266524225
1789741093645101000,9.56710107421875,1.680283429097384,9.626765142014623,0.8200113651897758
1789741093655178000,9.577177978515625,1.6819887717105446,9.626012277820706,0.8253204313833266
1789741093665256000,9.587255859375,1.6793319735914467,9.626101709669827,0.8296935319010168
1789741093675333000,9.5973330078125,1.6802116790354251,9.625655719467996,0.8330890195582061
1789741093685411000,9.6074111328125,1.683756365904957,9.62496306102872,0.8339311694707721
1789741093695488000,9.617488037109375,1.6860523678876458,9.624801732987164,0.8311516948200762
1789741093705566000,9.62756591796875,1.6832868486970662,9.625757426276802,0.8256849538467824
1789741093715643000,9.637642822265626,1.679188911858946,9.626867433345318,0.8210667925268411
1789741093725721000,9.64772119140625,1.679954489403963,9.627111178973317,0.8166315134931356
1789741093735798000,9.657798095703125,1.6816325056187809,9.62745896949768,0.8090178966842592
1789741093745876000,9.6678759765625,1.6833651746302842,9.627846507510542,0.8007744575392455
1789741093755953200,9.677953125,1.6842780516915021,9.62857715987265,0.7899932435449213
1789741093766031000,9.688031005859376,1.6800693479552864,9.630501990455388,0.7753526507087052
1789741093776108000,9.69810791015625,1.6753548866540193,9.63273544859588,0.7576098540734499
1789741093786186000,9.70818603515625,1.670629319436848,9.634949617514014,0.7396766494326293
1789741093796263000,9.718262939453124,1.6650681781783698,9.637347326305507,0.7207308336831629
1789741093806340900,9.7283408203125,1.6551494262322783,9.640758596053718,0.6975905619185417
1789741093816418000,9.73841796875,1.6479149449340997,9.643675360283256,0.6739997699074447
1789741093826496000,9.74849609375,1.6536789152882991,9.644353990197182,0.6497375083755701
1789741093836573200,9.7585732421875,1.658753003682196,9.6452144064188,0.6235103034462779
1789741093846651100,9.768651123046874,1.6601761683531104,9.646525489017368,0.5989498992180451
1789741093856729000,9.77872900390625,1.659085012115538,9.6483655639261,0.5717146862899884
1789741093866806000,9.788805908203125,1.6540509634710847,9.650963179203867,0.5416780060751364
1789741093876884000,9.798884033203125,1.6504560077190398,9.653131170892715,0.5132726899217814
1789741093886961000,9.8089609375,1.6469833631724118,9.655053663387895,0.487610681127198
1789741093897038800,9.819038818359376,1.641646239928156,9.65726140256524,0.4611849944837391
1789741093907116000,9.829115966796875,1.639306544934213,9.65897814335525,0.43266712133400137
1789741093917194200,9.8391943359375,1.6417448779970407,9.659797643044591,0.40417730523496864
1789741093927271200,9.849271240234375,1.6455433934971688,9.660248893943429,0.3770281996877864
1789741093937349000,9.85934912109375,1.6455867942474782,9.661112817296384,0.35403310854751613
1789741093947426000,9.869426025390625,1.6414263135671614,9.662460140252113,0.3361017305376008
1789741093957504000,9.87950390625,1.6363269446015356,9.663870007050036,0.32006537249404937
1789741093967581000,9.889580810546875,1.6323653474941848,9.665053663876652,0.30413389959707854
1789741093977659000,9.899658935546874,1.6271894061610102,9.66643781171143,0.2874211766619235
1789741093987736000,9.909736083984376,1.6246709935992956,9.667303488630056,0.27209864770984277
1789741093997814000,9.91981396484375,1.6229751494668423,9.66796809001863,0.2582777189597487
1789741094007891000,9.929890869140625,1.6209068187601863,9.668595282006264,0.24759139844095332
1789741094017969200,9.93996923828125,1.6190433629758656,9.669097970831393,0.240042261703033
1789741094028046000,9.950046142578126,1.6193929070658981,9.66923591799736,0.23199164171637965
1789741094038124000,9.9601240234375,1.621980000949651,9.668964699840545,0.2250945391464047
1789741094048201000,9.970200927734375,1.6296305157028137,9.667759415704012,0.22165344051551072
1789741094058279000,9.98027880859375,1.6349334444165229,9.666962127846478,0.217269069685135
1789741094068356000,9.990356201171876,1.6309855835735796,9.667808515542745,0.20915659997602923
1789741094078434000,10.00043408203125,1.6250557551331817,9.66897346766889,0.20131114717265589
1789741094088511000,10.010510986328125,1.6230271719150244,9.669435824483632,0.19533616441627963
1789741094098589000,10.0205888671875,1.620090533941239,9.669996380975842,0.1919970100562088
1789741094108665900,10.030665771484376,1.615765364218503,9.670732878556848,0.191361123305466
1789741094118744000,10.040744140625,1.6139850566729903,9.67102513950169,0.19157421806687489
1789741094128821200,10.0508212890625,1.6126920942530034,9.671237905469535,0.19180468408819287
1789741094138899200,10.060899169921875,1.6136596241109071,9.671035660895704,0.19381063534943385
1789741094148977200,10.07097705078125,1.6112353195734321,9.671389881160854,0.196267526982259
1789741094159054000,10.08105419921875,1.6095385986581443,9.671666360014676,0.19658576261857524
1789741094169132000,10.091132080078125,1.6058286382243037,9.672284784173964,0.19649541745400054
1789741094179209000,10.101208984375,1.6057083728455006,9.672254389035702,0.19900261450195683
1789741094189287000,10.111286865234375,1.6043242250107228,9.672397012376784,0.20317768996320665
1789741094199363800,10.12136376953125,1.599791842278093,9.673051676893234,0.20769054601145906
1789741094209442000,10.131442138671876,1.593208372234553,9.674051793846488,0.2115903481952846
1789741094219519200,10.141519287109375,1.5857755918852985,9.675220253103971,0.21401083507416768
1789741094229597200,10.15159716796875,1.57754362398237,9.676518476220965,0.21615610347455366
1789741094239674000,10.161674072265624,1.5762436472997068,9.676643563905358,0.22000945443445816
1789741094249752000,10.171751953125,1.578131799133867,9.67624901162982,0.22381502072988077
1789741094259829000,10.1818291015625,1.5793696703657507,9.675962595903872,0.22739919935958458
1789741094269907000,10.191906982421875,1.5815388310983776,9.675525373530387,0.23094269891902802
1789741094279983900,10.20198388671875,1.5849661751985549,9.674897012498974,0.23376089814491569
1789741094290061800,10.212061767578126,1.5827717338941991,9.675217915016413,0.23530474831974132
1789741094300139000,10.222138916015625,1.577124667917937,9.67613736794889,0.23544779178593306
1789741094310217200,10.23221728515625,1.5673624217078088,9.67772083774805,0.23552580719189717
1789741094320294100,10.242294189453125,1.5582248832672834,9.679171621078252,0.236581745985616
1789741094330372000,10.2523720703125,1.5604332069665192,9.678763040277362,0.23874065931886432
1789741094340449000,10.262448974609375,1.570467401985824,9.677111181417107,0.23982516661994158
1789741094350527000,10.27252685546875,1.5771071322612464,9.676018710005282,0.24035010380949823
1789741094360604200,10.282604248046875,1.582052187447995,9.675193365097046,0.24112081418735906
1789741094370682000,10.29268212890625,1.5857124635212123,9.67458780041933,0.2413840864997357
1789741094380759000,10.302759033203126,1.582054671666026,9.675195703184604,0.24099413733407854
1789741094390837000,10.3128369140625,1.5729184483997523,9.676636549642682,0.2429678120272234
1789741094400914000,10.322913818359375,1.567553121974319,9.677376554355025,0.24808592222593723
1789741094410991900,10.332991943359374,1.5651635964892803,9.677634328508377,0.2530696289226413
1789741094421068800,10.34306884765625,1.5641564652733504,9.67770330209136,0.25663382421024145
1789741094431147000,10.35314697265625,1.5677832774683833,9.67704980661869,0.25910490876520054
1789741094441225000,10.363224853515625,1.5733330205500125,9.676091775241494,0.2612744348240085
1789741094451302100,10.37330224609375,1.5727470373556016,9.67611807872653,0.263839937930461
1789741094461380000,10.383380126953124,1.5715866152741014,9.676161917868257,0.26905290507208557
1789741094471457000,10.39345703125,1.568769219765812,9.676466453772782,0.2744648836508393
1789741094481535000,10.403534912109375,1.566060399198532,9.67676923611164,0.27925392629196866
1789741094491612000,10.41361181640625,1.5676980834029615,9.676393388536573,0.28306794988848266
1789741094501689900,10.42368994140625,1.5702533208437264,9.675926355546713,0.2848386310891248
1789741094511766800,10.433766845703126,1.5685994161568582,9.676122170379758,0.28733066710056737
1789741094521845000,10.443844970703125,1.5674911626540124,9.6761706856966,0.29166117058554664
1789741094531922200,10.453922119140625,1.5633607848510145,9.67671370653212,0.29580663635982196
1789741094542000000,10.464000244140625,1.5610428632974624,9.677002460345625,0.29857964473711324
1789741094552077000,10.4740771484375,1.5618350365884601,9.67684405491352,0.29956116658775134
1789741094562155000,10.484155029296875,1.5637028762869536,9.676443072897195,0.3027447833262384
1789741094572229400,10.4942294921875,1.56745842942819,9.675654552868009,0.3084663393108174
1789741094582307300,10.504307373046874,1.5712733115412294,9.674881230407953,0.31330636322051286
1789741094592384300,10.51438427734375,1.5681250766433774,9.675251817286014,0.3176244821479544
1789741094602462500,10.52446240234375,1.5604919514164328,9.676355979135632,0.3215191514989361
1789741094612539600,10.53453955078125,1.5538554360114036,9.677322778341173,0.32455946904290467
1789741094622617600,10.54461767578125,1.5495482403367757,9.677942956066131,0.3266195433778688
1789741094632694500,10.554694580078126,1.5486445694953201,9.677976273813844,0.329922420848161
1789741094642772500,10.5647724609375,1.5549201426334678,9.67686275961399,0.3330879356743768
1789741094652849400,10.574849365234375,1.5563311784751712,9.67647054542601,0.33781624283790584
1789741094662927400,10.58492724609375,1.555446650725603,9.676442488375306,0.34268688108157364
1789741094673004300,10.59500439453125,1.5522278348095715,9.676827688300609,0.34641748244464393
1789741094683082200,10.605082275390625,1.5437201187051832,9.67803764861226,0.35056587082836776
1789741094693159400,10.615159423828125,1.5390931895568967,9.6785964515388,0.35543471897374834
1789741094703237600,10.625237548828125,1.5400217025786638,9.678249245536326,0.360838331582956
1789741094713315600,10.635315673828124,1.5427816688112914,9.677558340662717,0.3675292805889621
1789741094723392500,10.645392578125,1.5479970653720199,9.67654653327167,0.3722164154918864
1789741094733470500,10.655470458984375,1.554152227000892,9.675434772637486,0.3754747597007081
1789741094743547400,10.66554736328125,1.5569886194705962,9.674864279273152,0.37836306502074
1789741094753625300,10.675625244140624,1.5571031857609747,9.674689507228136,0.38235377862472086
1789741094763702300,10.685702392578126,1.5538465220525859,9.675033206099272,0.38691074780933554
1789741094773780200,10.6957802734375,1.545403687877953,9.676246673542261,0.3903463848138228
1789741094783857400,10.705857421875,1.5379508876539767,9.677297059378027,0.3937321547945961
1789741094793935600,10.715935546875,1.5336469068497418,9.677821375513076,0.39759997267127034
1789741094804012500,10.726012451171876,1.5342838895790278,9.677633743986487,0.3996845238603651
1789741094814090500,10.736090576171875,1.5403047573037445,9.676626028248668,0.4009641884073615
1789741094824167400,10.74616748046875,1.547730523390323,9.67542717385292,0.40126642275694757
1789741094834245400,10.756245361328125,1.553383872976899,9.674538116058706,0.40087552374321966
1789741094844322600,10.766322509765626,1.5526681259229778,9.674617026513815,0.4017639604829252
1789741094854400500,10.776400390625,1.5454045646607875,9.675608375638722,0.40585776913519944
1789741094864477400,10.7864775390625,1.5409664360828697,9.676143213167785,0.40995968802869315
1789741094874555400,10.796555419921875,1.5420266126602886,9.675838092741369,0.41317412003055215
1789741094884632300,10.80663232421875,1.5495634379059076,9.674610596773027,0.41370084731839596
1789741094894710500,10.81671044921875,1.560444897404313,9.672998485401273,0.41047479794397945
1789741094904787500,10.826787353515625,1.5717391754873096,9.671330844449997,0.4066520247854292
1789741094914865400,10.836865478515625,1.5815863235019147,9.66979647448957,0.4049431385083124
1789741094924942600,10.846942626953124,1.5884548940971492,9.668668931764364,0.40501795731019224
1789741094935020500,10.8570205078125,1.5899854646652936,9.668270287835597,0.40853155492171644
1789741094945097500,10.867097412109375,1.591115053217113,9.667903208088875,0.41276239742450416
1789741094955175400,10.877175537109375,1.5887031697697938,9.668264442616701,0.41361459380704907
1789741094965252400,10.88725244140625,1.5846674845129252,9.668995679500698,0.41199009787775576
1789741094975330300,10.897330322265624,1.5833412043452262,9.669331195065379,0.40920722569357604
1789741094985407200,10.9074072265625,1.581093279287964,9.669902857473492,0.4043544884327799
1789741094995485400,10.9174853515625,1.5789264566428958,9.670489132928848,0.39877073348369446
1789741095005562600,10.927562744140625,1.5756949273757637,9.671357732456922,0.39042518567107615
1789741095015640600,10.937640625,1.5613636196844278,9.673998017832636,0.3824755053082481
1789741095025718500,10.947718505859376,1.5454549796737729,9.676779172983766,0.3766919534707442
1789741095035795500,10.95779541015625,1.5323900386564433,9.6790272441715,0.37227877667099235
1789741095045873400,10.967873291015625,1.5235668268620968,9.680502577421068,0.37011768964696673
1789741095055950300,10.977950439453124,1.5207688667066395,9.681069563654065,0.366799358879216
1789741095066028300,10.9880283203125,1.5223812703393398,9.681032154253124,0.36099739460218694
1789741095076105500,10.99810546875,1.5239441357418895,9.681105804011224,0.35236893819496035
1789741095086183400,11.008183349609375,1.5275326617531477,9.680861473861336,0.3434420102978125
1789741095096260600,11.018260498046875,1.5251615487076342,9.681514384812116,0.33551530895177273
1789741095106338600,11.028338623046874,1.516397081363201,9.683118897399305,0.3288294379796833
1789741095116415500,11.03841552734375,1.5107790953509508,9.684180973672866,0.32336163756046443
1789741095126493400,11.048493408203125,1.507265972663462,9.684891167768836,0.31841676503680644
1789741095136570400,11.0585703125,1.5108683810696004,9.68447206557393,0.31413229265063997
1789741095146648300,11.0686484375,1.5195128752961753,9.683235217255353,0.3104765831546858
1789741095156725500,11.0787255859375,1.524631241223216,9.682598672917484,0.305232344091963
1789741095166803500,11.088803466796875,1.5249555047415195,9.682782797312736,0.29770826873006295
1789741095176880400,11.09888037109375,1.5231712516732514,9.683265612393617,0.29107255704263224
1789741095186958600,11.10895849609375,1.519999343638867,9.683919107866286,0.28586779147377234
1789741095197035500,11.119035400390626,1.5159341400265693,9.684687754151225,0.2813661874718964
1789741095207113500,11.129113525390625,1.5119108758598565,9.685428927907347,0.27739989592311903
1789741095217190400,11.1391904296875,1.5058762718707321,9.686495680356025,0.27297290979372335
1789741095227268400,11.149268310546875,1.5043234894707798,9.686851654186844,0.26885022210683673
1789741095237345500,11.159345458984374,1.505652984508872,9.686769236600398,0.2643822281136177
1789741095247423500,11.169423583984376,1.5050868750587105,9.686962128823994,0.26049026217637583
1789741095257500400,11.17950048828125,1.5082560066141186,9.686551794457435,0.257421102130413
1789741095267578400,11.189578369140625,1.5103912650771438,9.686311555960774,0.25395950870076195
1789741095277655300,11.1996552734375,1.5128607239305971,9.685991237965226,0.25140341274347155
1789741095287733500,11.2097333984375,1.5136707251392305,9.685952074998617,0.2480509422441013
1789741095297810400,11.219810546875,1.5056636520333588,9.68729004560411,0.24450389902070163
1789741095307888400,11.229888427734375,1.4974420593939721,9.68861223411858,0.24256407179823145
1789741095317966300,11.23996630859375,1.4920720567934214,9.689495446693897,0.24032937154872341
1789741095328043500,11.25004345703125,1.4880715889804064,9.6901074411124,0.24048607821408657
1789741095338121500,11.26012158203125,1.4893679124012589,9.689867787137628,0.24217439662721008
1789741095348198400,11.270198486328125,1.4912078411795198,9.689572603583334,0.24260075054680927
1789741095358276400,11.2802763671875,1.4901746987394988,9.689760235109924,0.2415055939875543
1789741095368353300,11.290353271484374,1.485128375135362,9.690622404897212,0.23792795469649133
1789741095378431500,11.300431396484376,1.4730920465134083,9.69254957356751,0.23424601478073745
1789741095388508700,11.3105087890625,1.4610264917969702,9.69444810066521,0.23123528865743428
1789741095398586600,11.320586669921875,1.4497367437586188,9.696181792590021,0.22959044405985624
1789741095408663600,11.33066357421875,1.4440893855214119,9.696998369669913,0.23064143268382176
1789741095418741500,11.340741455078126,1.442105664358288,9.69726724973917,0.23180207396103067
1789741095428818400,11.350818359375,1.4424468790113925,9.697215811812876,0.23184028707956894
1789741095438896400,11.360896484375,1.4475035778790712,9.696492758235335,0.23057523557981474
1789741095448973300,11.370973388671874,1.455597014094144,9.695343588200211,0.22789096493190153
1789741095459051300,11.38105126953125,1.4679754341520368,9.693560211914777,0.22429584478307515
1789741095469128400,11.39112841796875,1.4816606990247965,9.69155997800827,0.2207345355723053
1789741095479206400,11.401206298828125,1.4971389847941696,9.689275666463374,0.21654137646509333
1789741095489283300,11.411283447265625,1.506554463393241,9.687873982971906,0.21392909334115684
1789741095499361500,11.421361572265624,1.5144279732473194,9.686632458478211,0.21455164568629115
1789741095509438500,11.4314384765625,1.51569521670416,9.68641092468202,0.21558966523082926
1789741095519516400,11.441516357421875,1.5112978585280477,9.687049807107448,0.21776220523063092
1789741095529593300,11.45159326171875,1.508718071167916,9.687454880777,0.21765204112073405
1789741095539671300,11.46167138671875,1.510123407921195,9.687293552735447,0.2150332186581567
1789741095549748500,11.47174853515625,1.5150127873979509,9.686630704912544,0.21047385658705606
1789741095559826400,11.481826416015625,1.5235903538681566,9.685366384065151,0.20679036403503268
1789741095569903400,11.4919033203125,1.5332931249760091,9.683814478448033,0.2077158996484242
1789741095579981600,11.501981689453125,1.5372456619940698,9.68309200939238,0.2121396343748085
1789741095590059800,11.512059814453124,1.535038799599558,9.683362058505415,0.2157698623696342
1789741095600136700,11.52213671875,1.5278377821795641,9.684460959658026,0.21748221924547104
1789741095610214700,11.532214599609375,1.5181221515901386,9.686007020056246,0.21665786071792242
1789741095620291600,11.54229150390625,1.5169991389095783,9.686256610903143,0.21334546650061384
1789741095630369500,11.55236962890625,1.5221309488400816,9.685474520614743,0.21234765110230072
1789741095640446700,11.56244677734375,1.5346698201566933,9.683489484277366,0.21262349063530564
1789741095650524700,11.572524658203125,1.5426418219491838,9.682187169507145,0.21424773083627222
1789741095660601600,11.5826015625,1.548336380328983,9.681270639184117,0.2145750265618786
1789741095670679600,11.592679443359375,1.54923712856099,9.681205172732472,0.21104992117565124
1789741095680756500,11.602756591796876,1.5407890336893497,9.682651279887557,0.20646631971243767
1789741095690834700,11.612834716796876,1.5314165174491703,9.684178051063418,0.20448208709266036
1789741095700911900,11.622911865234375,1.5252102101549505,9.685156540706753,0.20456907125636933
1789741095710989800,11.63298974609375,1.5218439485922455,9.68572352693975,0.2028369319678284
1789741095721066800,11.643066650390624,1.5231212750516832,9.685606038039921,0.19884517718423156
1789741095731144700,11.653144775390626,1.5305812356688082,9.684511813062429,0.19475712241930887
1789741095741221600,11.6632216796875,1.5362503673464059,9.683638537359236,0.19350810873890295
1789741095751299600,11.673299560546875,1.5361064288310706,9.683662502756714,0.19349985236721112
1789741095761376500,11.68337646484375,1.532361835475266,9.68428618761301,0.19194666810845956
1789741095771454500,11.693454345703126,1.5224164877831936,9.685897129940987,0.18978298726854845
1789741095781531600,11.70353173828125,1.5153914114519953,9.687068511807919,0.18622927684234455
1789741095791609900,11.71360986328125,1.5104707600541412,9.687916653069854,0.18199626064877955
1789741095801686800,11.723686767578124,1.5106884944580494,9.687912561416626,0.18044168815053999
1789741095811764700,11.7337646484375,1.517596958672255,9.686828857833147,0.18060875181313604
1789741095821841700,11.743841552734375,1.525349326364696,9.685580903598666,0.18224713013730942
1789741095831919600,11.753919677734375,1.5311273252442479,9.684605336564779,0.18558032968062907
1789741095841996500,11.76399658203125,1.5308670668728648,9.684624625787139,0.186810291600693
1789741095852074500,11.774074462890624,1.5211059897065162,9.686192898017168,0.18518981425939127
1789741095862151700,11.784151611328125,1.5102452807351945,9.687912561416626,0.18412287914762274
1789741095872229600,11.794229736328125,1.505486249639839,9.688652566128969,0.18410561748556792
1789741095882306600,11.804306640625,1.5067384416580198,9.688414081197976,0.18638035748451948
1789741095892384800,11.814384765625,1.5090933342210948,9.687961076733469,0.19088431784026325
1789741095902462700,11.824462646484376,1.5134133893772959,9.68717664835751,0.19638191060954704
1789741095912539600,11.83453955078125,1.51750854973644,9.68644950312674,0.20059649609727784
1789741095922617600,11.84461767578125,1.516614377375692,9.686496849399804,0.2050734588482417
1789741095932694800,11.85469482421875,1.5163532422214745,9.686461778086423,0.2086094509546645
1789741095942772700,11.864772705078124,1.5111908910222351,9.687167880529165,0.2132532399062067
1789741095952849700,11.874849609375,1.5074899906776844,9.687608610033989,0.2192473292218521
1789741095962927600,11.884927734375,1.509723156557232,9.687174894791841,0.22306909773340447
1789741095973004500,11.895004638671875,1.5120092216677963,9.686696755886077,0.22831403091587124
1789741095983082500,11.90508251953125,1.515962489338219,9.685873164543509,0.2368545715776272
1789741095993159400,11.915159423828126,1.5245746887303888,9.68428794117868,0.24620619116025044
1789741096003237600,11.925237548828125,1.524086759082973,9.684107323914766,0.25612918089004233
1789741096013314800,11.935314697265625,1.5236742327593267,9.683892219859361,0.2665091206070967
1789741096023392800,11.945392822265624,1.527544936712831,9.6829604919672,0.2779772391533479
1789741096033469700,11.9554697265625,1.5257716434299944,9.682875151771306,0.2903866388713941
1789741096043547600,11.965547607421875,1.5218831115588545,9.683132925924658,0.30194437192985785
1789741096053624600,11.97562451171875,1.5182644826702774,9.68337199537754,0.31236115479227156
1789741096063702500,11.98570263671875,1.5174959825158119,9.683222357773781,0.3205864006934687
1789741096073779500,11.995779541015626,1.5194203747071324,9.682596919351816,0.33024434627890586
1789741096083857700,12.005857666015626,1.528414120762795,9.68066682807207,0.34502533396650104
1789741096093934600,12.0159345703125,1.533003348249197,9.679445761844516,0.35863884877730157
1789741096104012800,12.0260126953125,1.5331684756830333,9.679020814430713,0.3692663335146382
1789741096114089700,12.03608984375,1.5348941304318606,9.678406481924652,0.37803679220844055
1789741096124167700,12.046167724609376,1.5322424468792974,9.67844739845693,0.3876704801354557
1789741096134244600,12.05624462890625,1.5280854733303189,9.678664256078005,0.3984934143796563
1789741096144322600,12.066322509765625,1.525355171583593,9.6787098487854,0.40774453272987154
1789741096154400500,12.076400390625,1.520579481614381,9.679184480559826,0.4142548644719645
1789741096164477700,12.086477783203126,1.5151426973879336,9.67979121428132,0.41996600866038347
1789741096174555600,12.0965556640625,1.5131424634814261,9.679815764200686,0.42654973443225025
1789741096184632600,12.106632568359375,1.51345708238855,9.679556236481666,0.4312904261533171
1789741096194710800,12.116710693359375,1.5160076436541974,9.678936643278599,0.4362149500086903
1789741096204787700,12.12678759765625,1.5220055688947438,9.677682259303332,0.44311592503618447
1789741096214865700,12.13686572265625,1.5267843276038764,9.67650970839262,0.4521933673199266
1789741096224942600,12.146942626953125,1.5291192002922296,9.675708328881859,0.46134584760125724
1789741096235020500,12.1570205078125,1.5219775118440388,9.676534842833876,0.4675733438139781
1789741096245097700,12.16709765625,1.5146993375346063,9.677505149170756,0.4711105414967984
1789741096255175700,12.17717578125,1.509576879954338,9.67824573840499,0.4723347860621288
1789741096265252600,12.187252685546875,1.512629837784171,9.677564770403503,0.47652989966440945
1789741096275330600,12.19733056640625,1.5277980346910656,9.675041389405727,0.47934966979287563
1789741096285407500,12.207407470703124,1.539539033628255,9.672977442613243,0.4834362449867651
1789741096295485700,12.217485595703126,1.547331294939667,9.67154711754918,0.4871636680120602
1789741096305562600,12.227562744140625,1.5446084458470344,9.671776834651828,0.4912102765217423
1789741096315640600,12.237640625,1.537167043799907,9.672829558575152,0.49384215939529236
1789741096325717800,12.2477177734375,1.5264464739516377,9.6744931078732,0.4945044592289254
1789741096335795700,12.257795654296874,1.5199284703597427,9.675458153513073,0.495704153874889
1789741096345872600,12.26787255859375,1.518594006885588,9.675601945897936,0.4969734066257253
1789741096355950600,12.27795068359375,1.521945363140106,9.675030283489823,0.49786553315985943
1789741096366027500,12.288027587890625,1.5316336673311888,9.673529231277108,0.497316411377117
1789741096376105500,12.29810546875,1.5419998707838356,9.671859252238272,0.49772575936298813
1789741096386182700,12.3081826171875,1.5444687451153993,9.67145300952494,0.49798704064767807
1789741096396260900,12.3182607421875,1.5367523255191742,9.672636666351556,0.4988455206405371
1789741096406337800,12.328337890625,1.5250541428104043,9.674488431698084,0.4988724451800808
1789741096416415700,12.338415771484375,1.5107722272187472,9.67676982063353,0.4980960905127227
1789741096426493700,12.34849365234375,1.5033664810068905,9.677930681106448,0.49794323803856966
1789741096436570600,12.358570556640625,1.5061290775880216,9.677406949493289,0.4997475840467959
1789741096446648600,12.368648681640625,1.5119645057432352,9.676400402799247,0.5016240819757803
1789741096456725500,12.3787255859375,1.5271772724442183,9.674091541334986,0.5000655639547854
1789741096466803500,12.388803466796874,1.5326336381539702,9.673716278281807,0.4905131611030549
1789741096476880600,12.398880615234376,1.5350414299480617,9.673743750810623,0.48240467344932253
1789741096486958800,12.408958740234375,1.5286667803496121,9.674987028869985,0.4776810789935291
1789741096497035800,12.419035888671875,1.5173998286649584,9.676683895915746,0.479234738176316
1789741096507113700,12.42911376953125,1.5056804570376872,9.67835504399836,0.4824642581494525
1789741096517190700,12.439190673828126,1.4988811522863805,9.679424719056486,0.48216885539945215
1789741096527268600,12.4492685546875,1.4956848404631018,9.680021515905857,0.4800754267841577
1789741096537345500,12.459345458984375,1.4982145050711928,9.679840314120053,0.47584030996505167
1789741096547423500,12.469423583984375,1.5037148560531437,9.679211368566751,0.4712553202623501
1789741096557500700,12.479500732421876,1.5079745593242346,9.678655488249658,0.46908005858249957
1789741096567578600,12.48957861328125,1.5141792591832577,9.677678752171992,0.4692220243364572
1789741096577654800,12.49965478515625,1.5164416511572896,9.677267248761654,0.4704099189467728
1789741096587733000,12.50973291015625,1.5148801009289918,9.677484690904617,0.4709838463772088
1789741096597810000,12.519809814453126,1.511469854094088,9.678072719925641,0.46985392903182654
1789741096607888000,12.529887939453126,1.5052765524119138,9.67908452731669,0.46888950444646177
1789741096617965000,12.539965087890625,1.5042172526173292,9.679258130317926,0.46870384568125006
1789741096628043000,12.55004296875,1.5080030547663568,9.67869172860682,0.4682376529416069
1789741096638120000,12.560119873046874,1.509362360420823,9.67861457171738,0.46543417636081574
1789741096648198000,12.570197998046876,1.5086615186750887,9.678872345870733,0.46233975400943306
1789741096658274800,12.58027490234375,1.504734554489702,9.679552729350329,0.4608863403307274
1789741096668352800,12.590352783203125,1.5011233782552182,9.68021791526079,0.45869507736414666
1789741096678431000,12.600430908203125,1.5015626464553176,9.680258831793068,0.456357903120853
1789741096688508200,12.610508056640626,1.4994612902618945,9.680583241441845,0.456404701404646
1789741096698586000,12.620586181640626,1.5016377575181423,9.680258831793068,0.45615328392684457
1789741096708663000,12.6306630859375,1.5048346538633108,9.679870709258317,0.4538264484144747
1789741096718741000,12.640740966796875,1.5126806911885737,9.67885831734538,0.44932515493985264
1789741096728818000,12.65081787109375,1.5243627995453775,9.677314595034717,0.4430371607115492
1789741096738896000,12.660895751953126,1.528170082873851,9.676876788139342,0.43948728621024635
1789741096748972800,12.670972900390625,1.5238408214978874,9.677634328508377,0.4378289245439693
1789741096759050800,12.68105078125,1.516182854090631,9.678925537362694,0.43583541263919323
1789741096769128000,12.6911279296875,1.504909618795663,9.68076327418387,0.43409543710406867
1789741096779206100,12.7012060546875,1.5010161184884607,9.681589203613996,0.42913346731513735
1789741096789283000,12.711282958984375,1.5013209466539323,9.681738841217756,0.42467378449253734
1789741096799361000,12.721361083984375,1.5088205086290836,9.680693716078997,0.42191063992213457
1789741096809438000,12.73143798828125,1.5184231803633272,9.679376788261532,0.41764826976992186
1789741096819516000,12.741515869140626,1.5255537628956137,9.678416418796777,0.413917485743761
1789741096829592800,12.7515927734375,1.5290956732861696,9.678087332972884,0.40848972507398573
1789741096839670800,12.7616708984375,1.5225585266023873,9.679284433802962,0.4045081080919131
1789741096849748000,12.771748046875,1.514536694318801,9.680685532772541,0.4011286217214539
1789741096859826000,12.781825927734374,1.501434928422421,9.682893271949887,0.3970655004683882
1789741096869902800,12.79190283203125,1.4938896276094018,9.684187987935543,0.3939538712538779
1789741096879981000,12.80198095703125,1.497314195230603,9.683886959162354,0.38826738658268
1789741096890058000,12.81205810546875,1.5024197016760705,9.683379594162107,0.3811458276070654
1789741096900136000,12.822135986328124,1.5133702808879315,9.682017658159136,0.37233185856509954
1789741096910213000,12.832213134765626,1.5180916103214024,9.68162135231793,0.3632794411247596
1789741096920291000,12.842291015625,1.5180404646560548,9.681956867882608,0.35445783676560966
1789741096930369000,12.852369140625,1.5132213739365339,9.683021866765618,0.3458785167297348
1789741096940446000,12.862446044921874,1.5075842448323964,9.684200262895226,0.33738420809619124
1789741096950524000,12.87252392578125,1.5023055737771094,9.68527227604091,0.33009788701292125
1789741096960600800,12.882600830078125,1.502431245983392,9.685541156110167,0.32152959982771423
1789741096970679000,12.892678955078125,1.5021524290420114,9.685949152389169,0.31032120992988343
1789741096980756000,12.902755859375,1.4985098347559571,9.686886140978336,0.2984468852029182
1789741096990834000,12.912833984375,1.4982977994404731,9.687264911162853,0.28700808408269657
1789741097000911000,12.9229111328125,1.500142842785269,9.687274848034978,0.27690025757160036
1789741097010989000,12.932989013671875,1.5018692281864583,9.687291214647889,0.26677686816519125
1789741097021066000,12.94306591796875,1.5060880149252711,9.686910106375812,0.2566132746125571
1789741097031144000,12.95314404296875,1.5073086427614093,9.68697265021801,0.24690407376391812
1789741097041220900,12.963220947265626,1.5049408907167612,9.687608025512098,0.23618196954568846
1789741097051298800,12.973298828125,1.5011616644389927,9.688417588329315,0.22687488322453572
1789741097061375700,12.983375732421875,1.4979735359221695,9.689089788502454,0.21909173680134117
