time,seconds_elapsed,z,y,x
1789741084121840400,0.04384033203125,-0.011832690797746181,-0.03310122713446617,0.014212491922080517
1789741084131918300,0.05391845703125,-0.006359096150845289,-0.061043381690979004,0.022490128874778748
1789741084141995500,0.06399560546875,-0.007873902097344398,-0.05607791617512703,0.03134966641664505
1789741084152073700,0.07407373046875,-0.01178981363773346,-0.039623044431209564,0.018311362713575363
1789741084162150700,0.084150634765625,-0.009455819614231586,-0.004408597014844418,-0.0059934440068900585
1789741084172228600,0.094228515625,-0.013105682097375393,0.041785795241594315,-0.023685887455940247
1789741084182305500,0.104305419921875,-0.01194214727729559,0.09076186269521713,-0.021436316892504692
1789741084192383500,0.114383544921875,-0.006386260036379099,0.11713940650224686,0.014537929557263851
1789741084202460400,0.12446044921875,-0.007576693315058947,0.10092714428901672,0.056175652891397476
1789741084212538400,0.134538330078125,0.0107093695551157,0.07318100333213806,0.07667373865842819
1789741084222616300,0.1446162109375,0.046063099056482315,0.010605240240693092,0.0626298263669014
1789741084232693500,0.154693603515625,0.0717410296201706,-0.05674450471997261,0.016811205074191093
1789741084242771700,0.164771728515625,0.08689148724079132,-0.10354956239461899,-0.022946594282984734
1789741084252848600,0.1748486328125,0.09158770740032196,-0.08651651442050934,-0.04008004069328308
1789741084262926600,0.184926513671875,0.09226521849632263,-0.043788228183984756,-0.023984961211681366
1789741084273003500,0.19500341796875,0.09723307937383652,-0.006021406967192888,0.01570226438343525
1789741084283081500,0.20508154296875,0.12408945709466934,0.04078711196780205,0.06644480675458908
1789741084293158700,0.21515869140625,0.1730996072292328,0.08095104247331619,0.14178615808486938
1789741084303236600,0.225236572265625,0.18304891884326935,0.08851388841867447,0.19109858572483063
1789741084313313500,0.2353134765625,0.17433638870716095,0.09677501022815704,0.23359544575214386
1789741084323391500,0.2453916015625,0.16144242882728577,0.16533462703227997,0.311501681804657
1789741084333468400,0.255468505859375,0.13415274024009705,0.18351523578166962,0.43239590525627136
1789741084343546600,0.265546630859375,0.06572042405605316,0.1750091016292572,0.4616682827472687
1789741084353623600,0.27562353515625,-0.08518919348716736,0.1268407702445984,0.42838171124458313
1789741084363701500,0.285701416015625,-0.27354180812835693,0.0032317459117621183,0.3485414683818817
1789741084373778700,0.29577880859375,-0.4059416353702545,-0.08969846367835999,0.24880369007587433
1789741084383856600,0.305856689453125,-0.46161583065986633,-0.13948652148246765,0.17395341396331787
1789741084393933600,0.31593359375,-0.47813621163368225,-0.14644110202789307,0.10074178874492645
1789741084404011500,0.326011474609375,-0.47034940123558044,-0.12034185975790024,-0.001371794263832271
1789741084414088400,0.33608837890625,-0.4634470045566559,-0.043644681572914124,-0.1272311955690384
1789741084424166400,0.34616650390625,-0.46986788511276245,0.02388136461377144,-0.22573165595531464
1789741084434243300,0.356243408203125,-0.47948378324508667,0.08087354153394699,-0.2562781274318695
1789741084444321500,0.366321533203125,-0.5166439414024353,0.08946862816810608,-0.252920925617218
1789741084454399500,0.3763994140625,-0.5988522171974182,0.08432366698980331,-0.20416991412639618
1789741084464476700,0.3864765625,-0.7151631712913513,0.06408151239156723,-0.11430314183235168
1789741084474554600,0.3965546875,-0.7958249449729919,0.06346020102500916,-0.029201295226812363
1789741084484631600,0.406631591796875,-0.7948119044303894,0.02412797324359417,0.044021785259246826
1789741084494709500,0.41670947265625,-0.7304595708847046,0.024154338985681534,0.12582451105117798
1789741084504786400,0.426786376953125,-0.6366276144981384,0.061159227043390274,0.21434159576892853
1789741084514864400,0.436864501953125,-0.5587437152862549,0.1204553097486496,0.2862977981567383
1789741084524941600,0.446941650390625,-0.517870306968689,0.19823186099529266,0.31815239787101746
1789741084535019500,0.45701953125,-0.5141927599906921,0.20249424874782562,0.3374400734901428
1789741084545096700,0.4670966796875,-0.415692001581192,-0.18779653310775757,0.5659409165382385
1789741084555174700,0.477174560546875,-0.39071929454803467,-0.32927536964416504,0.7577875852584839
1789741084565251800,0.487251953125,-0.5166175365447998,-0.11973226070404053,0.6871016621589661
1789741084575329800,0.497329833984375,-0.7105513215065002,0.3385085463523865,0.4895619750022888
1789741084585406700,0.50740673828125,-0.8772985339164734,0.7547712922096252,0.4686785340309143
1789741084595484700,0.517484619140625,-0.9694023728370667,0.9696934223175049,0.7092676758766174
1789741084605561900,0.527561767578125,-0.8635004162788391,0.6569075584411621,1.3318582773208618
1789741084615639800,0.537639892578125,-1.026982069015503,0.7530247569084167,1.5910621881484985
1789741084625716700,0.547716796875,-1.216307520866394,1.007861614227295,1.5942883491516113
1789741084635795000,0.557794921875,-1.2658872604370117,1.0648771524429321,1.5659011602401733
1789741084645873000,0.567872802734375,-1.2540514469146729,0.8872949481010437,1.5632102489471436
1789741084655949800,0.57794970703125,-1.2284579277038574,0.6211349368095398,1.558827519416809
1789741084666027800,0.58802783203125,-1.185634732246399,0.35268348455429077,1.5010355710983276
1789741084676104700,0.598104736328125,-1.1489752531051636,0.17867839336395264,1.4054310321807861
1789741084686182700,0.6081826171875,-1.1376419067382812,0.13287203013896942,1.2847416400909424
1789741084696259800,0.618259765625,-1.1687431335449219,0.144840270280838,1.152944803237915
1789741084706337800,0.628337890625,-1.2149103879928589,0.19974400103092194,1.0154510736465454
1789741084716414700,0.638414794921875,-1.232147455215454,0.21381694078445435,0.8781187534332275
1789741084726493000,0.648492919921875,-1.1705913543701172,0.1811751127243042,0.7278680205345154
1789741084736569900,0.65856982421875,-1.0496084690093994,0.10651126503944397,0.5854783654212952
1789741084746647800,0.668647705078125,-0.8814722299575806,-0.012102468870580196,0.4802153408527374
1789741084756724700,0.678724853515625,-0.7022082209587097,-0.1399317979812622,0.41707658767700195
1789741084766802700,0.688802734375,-0.5391798615455627,-0.16689497232437134,0.40276503562927246
1789741084776879900,0.6988798828125,-0.42522481083869934,-0.07654324173927307,0.4151407480239868
1789741084786957800,0.708957763671875,-0.3126194179058075,0.005046956706792116,0.386590838432312
1789741084797034800,0.71903466796875,-0.17694121599197388,0.033241309225559235,0.36626267433166504
1789741084807112700,0.72911279296875,0.014157630503177643,-0.06115176901221275,0.19763478636741638
1789741084817189600,0.739189697265625,0.15047578513622284,-0.03628610074520111,0.12603995203971863
1789741084827267800,0.749267822265625,0.24287736415863037,-0.1864899843931198,0.15672063827514648
1789741084837344800,0.7593447265625,0.24780739843845367,-0.33664220571517944,0.1500062793493271
1789741084847422700,0.769422607421875,0.22000852227210999,-0.4328851103782654,0.1331852227449417
1789741084857500000,0.7795,0.1827160120010376,-0.4915100634098053,0.11032197624444962
1789741084867577900,0.789577880859375,0.16795571148395538,-0.536848247051239,0.09338188171386719
1789741084877655800,0.79965576171875,0.1936727911233902,-0.5434347987174988,0.08072493970394135
1789741084887732700,0.809732666015625,0.20682641863822937,-0.5390496253967285,0.11198485642671585
1789741084897810700,0.819810791015625,0.1175556555390358,-0.38496631383895874,0.22599025070667267
1789741084907887600,0.8298876953125,-0.058944810181856155,-0.17748716473579407,0.35657355189323425
1789741084917965800,0.8399658203125,-0.1268564760684967,-0.025436118245124817,0.4041125774383545
1789741084928043000,0.85004296875,-0.0024671524297446012,0.07819920033216476,0.37935903668403625
1789741084938121000,0.860120849609375,0.014314490370452404,0.12940140068531036,0.32601219415664673
1789741084948198000,0.870197998046875,-0.04639066755771637,0.14252598583698273,0.28974127769470215
1789741084958275800,0.88027587890625,-0.16838981211185455,0.09916706383228302,0.2982577979564667
1789741084968352800,0.890352783203125,-0.279702752828598,0.08219926804304123,0.27285149693489075
1789741084978430700,0.9004306640625,-0.3134937286376953,0.08230526000261307,0.18944263458251953
1789741084988507600,0.910507568359375,-0.25449779629707336,0.048946771770715714,0.10875257849693298
1789741084998585600,0.920585693359375,-0.2261580377817154,-0.011784753762185574,0.12341008335351944
1789741085008662800,0.930662841796875,-0.28345009684562683,-0.11860734224319458,0.25601181387901306
1789741085018741000,0.940740966796875,-0.415499746799469,-0.15507879853248596,0.4249747395515442
1789741085028818000,0.95081787109375,-0.5156023502349854,-0.1342933624982834,0.5007163882255554
1789741085038895900,0.960895751953125,-0.3905957043170929,-0.1052318811416626,0.3911360800266266
1789741085048972800,0.970972900390625,-0.2658545672893524,0.04436453431844711,0.24098172783851624
1789741085059050800,0.98105078125,-0.21391788125038147,0.27634716033935547,0.12985201179981232
1789741085069127700,0.991127685546875,-0.319676011800766,0.30820950865745544,0.21181398630142212
1789741085079205600,1.00120556640625,-0.3368821442127228,0.3620719313621521,0.471280962228775
1789741085089283600,1.01128369140625,-0.3905235528945923,0.13249999284744263,0.6007177829742432
1789741085099360800,1.02136083984375,-0.40800851583480835,-0.9065072536468506,0.5763980746269226
1789741085109438700,1.031438720703125,-0.394992858171463,-1.0564658641815186,0.6381320357322693
1789741085119515600,1.041515625,-0.35283342003822327,-1.1242902278900146,0.8215630650520325
1789741085129593900,1.05159375,-0.21803486347198486,-0.9521021842956543,1.0937674045562744
1789741085139670800,1.0616708984375,-0.12188143283128738,-0.8009379506111145,1.3740798234939575
1789741085149748700,1.071748779296875,-0.059361595660448074,-0.7155269384384155,1.6255258321762085
1789741085159826000,1.081825927734375,-0.001454884884878993,-0.7069230675697327,1.827435851097107
1789741085169903900,1.09190380859375,0.0353100523352623,-0.7007879614830017,2.038785696029663
1789741085179980800,1.101980712890625,-0.0029055087361484766,-0.7080264091491699,2.193463087081909
1789741085190058800,1.112058837890625,-0.04344121739268303,-0.5511771440505981,2.1085972785949707
1789741085200135700,1.1221357421875,-0.013201289810240269,-0.434407114982605,1.74203622341156
1789741085210213600,1.132213623046875,0.057729076594114304,-0.6179252862930298,1.534244418144226
1789741085220290600,1.14229052734375,0.06708928942680359,-0.6487018465995789,1.5649213790893555
1789741085230368800,1.15236865234375,0.13547579944133759,-0.26698508858680725,1.3706471920013428
1789741085240446000,1.162446044921875,0.19986757636070251,-0.6884438991546631,1.3725026845932007
1789741085250524000,1.17252392578125,0.09889835119247437,-0.9106636643409729,1.5911321640014648
1789741085260600800,1.182600830078125,0.13236069679260254,-0.8262627720832825,1.7802733182907104
1789741085270678800,1.1926787109375,0.2744462192058563,-0.7279431223869324,1.9546147584915161
1789741085280755700,1.202755615234375,0.4544071853160858,-0.6313678622245789,2.1378636360168457
1789741085290833700,1.212833740234375,0.6398226022720337,-0.6595531702041626,2.277658700942993
1789741085300911600,1.22291162109375,0.8301565647125244,-0.6919217109680176,2.3457391262054443
1789741085310988500,1.232988525390625,1.0254136323928833,-0.7047901153564453,2.302098512649536
1789741085321066800,1.243066650390625,1.2153841257095337,-0.7126672267913818,2.19930362701416
1789741085331144000,1.25314404296875,1.3254635334014893,-0.5994243025779724,1.9333840608596802
1789741085341222000,1.263221923828125,1.384743332862854,-0.4177325367927551,1.5488172769546509
1789741085351298800,1.273298828125,1.3826535940170288,-0.24253088235855103,1.200936198234558
1789741085361376800,1.283376708984375,1.3328425884246826,-0.08384616672992706,1.0320178270339966
1789741085371453700,1.29345361328125,1.2088702917099,-0.008493619970977306,0.9929678440093994
1789741085381531600,1.30353173828125,1.0278733968734741,-0.16611547768115997,0.9742860794067383
1789741085391608800,1.31360888671875,0.8057958483695984,-0.380911648273468,0.9363799691200256
1789741085401686800,1.323686767578125,0.591686487197876,-0.41143256425857544,0.8645384907722473
1789741085411763700,1.333763671875,0.41650453209877014,-0.27098381519317627,0.7827323079109192
1789741085421842000,1.343842041015625,0.33383044600486755,-0.07533949613571167,0.671109139919281
1789741085431918800,1.3539189453125,0.30294230580329895,0.008342618122696877,0.5928226113319397
1789741085441996800,1.363996826171875,0.319225937128067,-0.015851667150855064,0.583845317363739
1789741085452073700,1.37407373046875,0.326884925365448,-0.0714680552482605,0.5819225311279297
1789741085462151700,1.384151611328125,0.3316785991191864,-0.150557279586792,0.5545148849487305
1789741085472228900,1.394228759765625,0.33684858679771423,-0.15072666108608246,0.5083495378494263
1789741085482306800,1.404306884765625,0.34802642464637756,-0.11562992632389069,0.414269357919693
1789741085492383700,1.4143837890625,0.36862435936927795,0.0046607982367277145,0.337867796421051
1789741085502461700,1.424461669921875,0.3826379179954529,0.15286651253700256,0.24098198115825653
1789741085512540000,1.434539794921875,0.36775776743888855,0.2043033391237259,0.09239411354064941
1789741085522616800,1.444616943359375,0.3465326428413391,0.1321266144514084,0.018264757469296455
1789741085532694800,1.45469482421875,0.32403481006622314,0.0824943408370018,0.050220560282468796
1789741085542771700,1.464771728515625,0.27116626501083374,0.09436964243650436,0.11940788477659225
1789741085552849700,1.474849609375,0.23470811545848846,0.2014971673488617,0.19919006526470184
1789741085562926800,1.4849267578125,0.16599269211292267,0.33556067943573,0.1563722938299179
1789741085573004300,1.49500439453125,0.06464983522891998,0.38870567083358765,0.011753861792385578
1789741085583081200,1.505081298828125,-0.006583866663277149,0.2920028269290924,-0.10437700897455215
1789741085593159200,1.5151591796875,-0.044987183064222336,0.1799340844154358,-0.15441326797008514
1789741085603236000,1.525236083984375,-0.06994392722845078,0.08586670458316803,-0.1988246738910675
1789741085613314000,1.53531396484375,-0.05907663702964783,0.0424710288643837,-0.1857008934020996
1789741085623391200,1.54539111328125,0.02743295580148697,0.15931083261966705,-0.1610269695520401
1789741085633469200,1.55546923828125,0.11695031821727753,0.3287632465362549,-0.19681400060653687
1789741085643546000,1.565546142578125,0.15936408936977386,0.3652608096599579,-0.2875913083553314
1789741085653624300,1.575624267578125,0.18511046469211578,0.38366883993148804,-0.3648141920566559
1789741085663701200,1.585701171875,0.19802546501159668,0.3568398952484131,-0.4448336660861969
1789741085673779200,1.595779296875,0.20873084664344788,0.254373699426651,-0.4836723804473877
1789741085683856100,1.605856201171875,0.2123415619134903,0.22400246560573578,-0.5009158253669739
1789741085693934000,1.61593408203125,0.21465450525283813,0.2572227418422699,-0.4389379322528839
1789741085704011300,1.62601123046875,0.24275937676429749,0.32537969946861267,-0.3059711158275604
1789741085714089200,1.636089111328125,0.24991503357887268,0.400519996881485,-0.1933193951845169
1789741085724166100,1.646166259765625,0.11367463320493698,0.0932503193616867,0.34642985463142395
1789741085734244000,1.656244140625,0.029703833162784576,0.020727382972836494,0.7704327702522278
1789741085744322300,1.666322265625,-0.028436169028282166,0.3226536810398102,0.4448104798793793
1789741085754399200,1.676399169921875,0.05751708894968033,0.16961859166622162,0.31266069412231445
1789741085764477200,1.686477294921875,0.11088843643665314,0.0996195375919342,0.3512698709964752
1789741085774554400,1.696554443359375,0.18148750066757202,0.23003320395946503,0.3444164991378784
1789741085784632300,1.70663232421875,0.23616033792495728,0.31632494926452637,0.2923048436641693
1789741085794709200,1.716709228515625,0.2739444673061371,0.2856064438819885,0.2804574966430664
1789741085804787200,1.726787109375,0.3093269467353821,0.2618055045604706,0.25523683428764343
1789741085814864100,1.736864013671875,0.3104361593723297,0.32042089104652405,0.1716359406709671
1789741085824942000,1.746942138671875,0.2928347885608673,0.47974929213523865,0.07175567746162415
1789741085835019000,1.75701904296875,0.2453136146068573,0.5317488312721252,0.0547705702483654
1789741085845097200,1.76709716796875,0.18216180801391602,0.44607043266296387,0.11969790607690811
1789741085855174400,1.77717431640625,0.09764373302459717,0.2698296010494232,0.15661518275737762
1789741085865252400,1.78725244140625,0.06780754029750824,0.1295774281024933,0.13782018423080444
1789741085875329300,1.797329345703125,0.06957375258207321,0.19071455299854279,0.02720285952091217
1789741085885407200,1.8074072265625,0.07478901743888855,0.2705899477005005,-0.20715558528900146
1789741085895484200,1.817484130859375,0.10468513518571854,0.30712106823921204,-0.42029130458831787
1789741085905562000,1.82756201171875,0.1052880734205246,0.041553035378456116,-0.1590985804796219
1789741085915639000,1.83763916015625,0.08138167858123779,0.12674489617347717,0.06185084953904152
1789741085925717000,1.847717041015625,0.1273752599954605,0.39932236075401306,-0.1241602972149849
1789741085935794200,1.857794189453125,0.16081391274929047,0.33910641074180603,0.07255968451499939
1789741085945872400,1.867872314453125,0.1303713172674179,0.43342921137809753,0.04432698339223862
1789741085955949300,1.87794921875,0.08396920561790466,0.3242374658584595,-0.031072698533535004
1789741085966027300,1.88802734375,0.011504589579999447,0.170338973402977,-0.08722518384456635
1789741085976104200,1.898104248046875,-0.055396679788827896,0.06064444035291672,-0.21212983131408691
1789741085986182100,1.90818212890625,-0.07178603857755661,-0.10564520210027695,-0.2687899172306061
1789741085996260000,1.918260009765625,-0.06680779159069061,-0.0972924679517746,-0.3358171582221985
1789741086006337300,1.928337158203125,-0.04531022533774376,-0.12130405753850937,-0.34134960174560547
1789741086016415200,1.938415283203125,0.003454386256635189,-0.01447161752730608,-0.3145076036453247
1789741086026492200,1.9484921875,0.0506831519305706,0.08370528370141983,-0.29313814640045166
1789741086036570400,1.9585703125,0.08613035827875137,0.06510709971189499,-0.23873135447502136
1789741086046647300,1.968647216796875,0.09884615242481232,0.09547405689954758,-0.2633378803730011
1789741086056725200,1.978725341796875,0.09551693499088287,0.06236164644360542,-0.3084648847579956
1789741086066802200,1.98880224609375,0.06192968040704727,0.02238892950117588,-0.34458693861961365
1789741086076880100,1.998880126953125,0.007632619701325893,-0.015380021184682846,-0.3735291063785553
1789741086086957300,2.008957275390625,-0.043235886842012405,-0.04843677580356598,-0.3824927806854248
1789741086097035300,2.01903515625,-0.06583866477012634,-0.13920769095420837,-0.6628267168998718
1789741086107112200,2.0291123046875,-0.1407051831483841,-0.49524277448654175,-0.7366647124290466
1789741086117190100,2.039190185546875,-0.18787536025047302,-0.5451141595840454,-0.7419633269309998
1789741086127267000,2.04926708984375,-0.19802093505859375,-0.4147084951400757,-0.7416397333145142
1789741086137345000,2.059344970703125,-0.18885406851768494,-0.27294206619262695,-0.7209866642951965
1789741086147422000,2.069421875,-0.1756138950586319,-0.16877223551273346,-0.6917547583580017
1789741086157500200,2.079500244140625,-0.18451231718063354,-0.1729978770017624,-0.6953388452529907
1789741086167577300,2.089577392578125,-0.18897870182991028,-0.16713546216487885,-0.6869333982467651
1789741086177655300,2.0996552734375,-0.196580708026886,-0.13837358355522156,-0.6759126782417297
1789741086187732200,2.109732177734375,-0.20796091854572296,-0.10537782311439514,-0.6793527007102966
1789741086197810200,2.11981005859375,-0.1994348168373108,-0.03596732020378113,-0.6270415186882019
1789741086207887000,2.12988720703125,-0.21189653873443604,-0.05355563759803772,-0.5710019469261169
1789741086217965000,2.139965087890625,-0.21785590052604675,-0.19784782826900482,-0.5063979625701904
1789741086228043000,2.15004296875,-0.1730428785085678,-0.17534412443637848,-0.4064537584781647
1789741086238120200,2.1601201171875,-0.10453173518180847,-0.090642549097538,-0.37089070677757263
1789741086248198100,2.1701982421875,-0.0016612798208370805,0.01866156794130802,-0.3483332097530365
1789741086258275300,2.180275390625,0.06514225155115128,0.06808744370937347,-0.3138069212436676
1789741086268353300,2.190353271484375,0.11265464127063751,0.07611048221588135,-0.27430400252342224
1789741086278430200,2.20043017578125,0.1436690241098404,0.09494275599718094,-0.2641621530056
1789741086288508200,2.210508056640625,0.1454022079706192,0.11656096577644348,-0.29150667786598206
1789741086298585000,2.220585205078125,0.12524473667144775,0.0792175903916359,-0.33383017778396606
1789741086308663000,2.2306630859375,0.12395256757736206,0.0446992926299572,-0.36217260360717773
1789741086318740200,2.240740234375,0.09575448930263519,0.011182613670825958,-0.34794333577156067
1789741086328818200,2.250818115234375,0.005243231542408466,0.06867493689060211,-0.2669334411621094
1789741086338895000,2.26089501953125,0.10604999959468842,0.21120598912239075,-0.3151632845401764
1789741086348973300,2.270973388671875,0.11853090673685074,0.16600655019283295,-0.4184715449810028
1789741086359050200,2.28105029296875,0.0931461900472641,0.17956949770450592,-0.47667014598846436
1789741086369128200,2.291128173828125,0.069178007543087,0.30221524834632874,-0.4909875690937042
1789741086379205000,2.301205078125,0.033544376492500305,0.5263551473617554,-0.36000558733940125
1789741086389283000,2.311282958984375,0.03717266768217087,0.5413399338722229,-0.23045557737350464
1789741086399360300,2.3213603515625,0.030882282182574272,0.5337499380111694,-0.11765046417713165
1789741086409438200,2.331438232421875,0.023490145802497864,0.3272572159767151,-0.08896609395742416
1789741086419515100,2.34151513671875,0.009712282568216324,0.005776662845164537,-0.034213628619909286
1789741086429593000,2.351593017578125,-0.004674380179494619,-0.0032927324064075947,-0.04464682936668396
1789741086439671300,2.36167138671875,-0.040056340396404266,-0.008257131092250347,-0.05046850070357323
1789741086449748200,2.371748291015625,-0.07884634286165237,-0.02966601587831974,-0.02978186309337616
1789741086459826200,2.381826171875,-0.07972492277622223,0.019176091998815536,-0.019043466076254845
1789741086469903000,2.391903076171875,-0.05656687170267105,0.08192096650600433,-0.02425633743405342
1789741086479981300,2.401981201171875,-0.05979355797171593,0.1360720843076706,-0.026753317564725876
1789741086490058200,2.412058349609375,-0.06383517384529114,0.11331510543823242,-0.04538878798484802
1789741086500136200,2.42213623046875,-0.1158328577876091,0.0998845174908638,-0.06997375935316086
1789741086510213000,2.432213134765625,-0.14528502523899078,0.08605419099330902,-0.09173737466335297
1789741086520291000,2.442291015625,-0.15711957216262817,0.05242485925555229,-0.10683030635118484
1789741086530368000,2.452367919921875,-0.13420520722866058,0.06375181674957275,-0.09695078432559967
1789741086540446200,2.4624462890625,-0.08230152726173401,0.02375859208405018,-0.07999629527330399
1789741086550523400,2.4725234375,-0.04891907423734665,0.024480575695633888,-0.04362364485859871
1789741086560601300,2.482601318359375,0.010989001952111721,0.06351666152477264,0.017173394560813904
1789741086570678300,2.49267822265625,0.048344630748033524,0.054846737533807755,0.030483074486255646
1789741086580756200,2.502756103515625,0.074699267745018,0.019759856164455414,-0.022127939388155937
1789741086590833200,2.512833251953125,0.05097183585166931,-0.00998978316783905,-0.06791912764310837
1789741086600911400,2.522911376953125,0.03446796163916588,-0.02960502915084362,-0.09437017887830734
1789741086610988300,2.53298828125,0.023693345487117767,-0.055080827325582504,-0.12253843247890472
1789741086621066200,2.543066162109375,-0.018398182466626167,-0.021630993112921715,-0.047749679535627365
1789741086631143400,2.553143310546875,-0.0200972780585289,-0.04957820475101471,-0.06511934846639633
1789741086641221400,2.563221435546875,-0.07905726879835129,0.0448329858481884,-0.0075934710912406445
1789741086651299300,2.57329931640625,-0.11421951651573181,-0.09645996242761612,0.050572630017995834
1789741086661376300,2.583376220703125,-0.01426122710108757,-0.4370276629924774,0.10391228646039963
1789741086671454200,2.5934541015625,0.12449132651090622,-0.40795019268989563,0.21333757042884827
1789741086681531100,2.60353125,0.22561635076999664,-0.15846261382102966,0.2758427560329437
1789741086691609300,2.613609375,0.24419589340686798,-0.12846289575099945,0.26592516899108887
1789741086701686300,2.623686279296875,0.2900469899177551,-0.07814326882362366,0.175455704331398
1789741086711764200,2.63376416015625,0.364921510219574,0.07080493122339249,-0.014317686669528484
1789741086721841400,2.64384130859375,0.3426617383956909,0.06818198412656784,-0.23406416177749634
1789741086731919400,2.65391943359375,0.3338615894317627,0.02851659618318081,-0.45868420600891113
1789741086741996300,2.663996337890625,0.3075178861618042,0.03837908059358597,-0.5901807546615601
1789741086752074200,2.67407421875,0.27125680446624756,0.05319664254784584,-0.650938868522644
1789741086762151200,2.684151123046875,0.23669350147247314,0.10840743035078049,-0.675299882888794
1789741086772229000,2.69422900390625,0.2222898006439209,0.1410604566335678,-0.646528959274292
1789741086782306300,2.704306396484375,0.20185376703739166,0.15209712088108063,-0.5963555574417114
1789741086792384500,2.714384521484375,0.17691485583782196,0.610813319683075,-0.21867108345031738
1789741086802461400,2.72446142578125,0.27982473373413086,-0.0018399780383333564,0.007818241603672504
1789741086812539400,2.734539306640625,0.29238420724868774,0.1801101118326187,0.08660706132650375
1789741086822616300,2.7446162109375,0.2766907215118408,0.1872391253709793,0.027636954560875893
1789741086832694300,2.7546943359375,0.2635512053966522,0.073308564722538,0.13725505769252777
1789741086842771200,2.764771240234375,0.2951616048812866,0.10242197662591934,0.04856833443045616
1789741086852849200,2.77484912109375,0.1580447554588318,0.10692378878593445,0.02906014770269394
1789741086862927000,2.784927001953125,0.06234007328748703,0.09763840585947037,0.006791859865188599
1789741086873004300,2.79500439453125,0.02135562151670456,0.07951267063617706,-0.004564924165606499
1789741086883082500,2.80508251953125,0.01299409568309784,0.07557784765958786,-0.022469090297818184
1789741086893159400,2.815159423828125,0.00501100393012166,0.050284210592508316,-0.03454732522368431
1789741086903237400,2.8252373046875,0.001794171635992825,0.02189704217016697,-0.050026681274175644
1789741086913314300,2.835314208984375,0.0015816513914614916,-0.016564063727855682,-0.04336931183934212
1789741086923392300,2.845392333984375,-0.0028357338160276413,-0.03032781183719635,-0.038624357432127
1789741086933469200,2.85546923828125,0.012400477193295956,-0.024456074461340904,-0.031001059338450432
1789741086943547100,2.865547119140625,0.014247645623981953,-0.03633297234773636,-0.026276078075170517
1789741086953624300,2.875624267578125,0.016387229785323143,-0.030072947964072227,-0.021765749901533127
1789741086963702300,2.885702392578125,0.013709686696529388,-0.06161249801516533,-0.033054888248443604
1789741086973779200,2.895779296875,0.008794290944933891,-0.09011684358119965,-0.04399488866329193
1789741086983857400,2.905857421875,0.0037260286044329405,-0.1056329533457756,-0.05169914662837982
1789741086993934300,2.915934326171875,-0.0035412053111940622,-0.12607936561107635,-0.055573511868715286
1789741087004012300,2.92601220703125,-0.006010754499584436,-0.1137036606669426,-0.04834303259849548
1789741087014089500,2.93608935546875,-0.012161058373749256,-0.07555201649665833,-0.018130799755454063
1789741087024167400,2.94616748046875,-0.01702052913606167,-0.04382391273975372,0.0008423578692600131
1789741087034244400,2.956244384765625,-0.0324825756251812,-0.05910566449165344,-0.001261273049749434
1789741087044322300,2.966322265625,-0.04381991922855377,-0.05398973077535629,0.00395825644955039
1789741087054399200,2.976399169921875,-0.026223082095384598,-0.0418156236410141,0.011575163342058659
1789741087064477200,2.986477294921875,-0.030884146690368652,-0.07290776073932648,-0.0001613875647308305
1789741087074554000,2.99655419921875,-0.022521287202835083,-0.08460090309381485,-0.019053053110837936
1789741087084632000,3.006632080078125,-0.04225983843207359,-0.15871880948543549,-0.07775019109249115
1789741087094710300,3.016710205078125,-0.07901279628276825,-0.19643822312355042,-0.14861184358596802
1789741087104787500,3.026787353515625,-0.014395717531442642,0.15721732378005981,-0.030962176620960236
1789741087114865400,3.036865478515625,-0.015482286922633648,0.12041802704334259,-0.0346812829375267
1789741087124942300,3.0469423828125,0.0092334458604455,0.21881090104579926,-0.03382374346256256
1789741087135020300,3.057020263671875,0.10815469920635223,0.30881428718566895,-0.019411781802773476
1789741087145097200,3.06709716796875,0.14454546570777893,-0.10211917757987976,0.01001907791942358
1789741087155175200,3.077175048828125,0.18017269670963287,-0.04501647502183914,0.06972182542085648
1789741087165252000,3.087252197265625,0.21311280131340027,-0.03493880853056908,0.058520566672086716
1789741087175330000,3.097330078125,0.17503146827220917,-0.028912607580423355,0.057205766439437866
1789741087185407200,3.1074072265625,0.15878725051879883,-0.010963968001306057,0.07374931871891022
1789741087195485400,3.1174853515625,0.1503000259399414,0.006458431947976351,0.07846018671989441
1789741087205562400,3.127562255859375,0.0906958132982254,0.010094977915287018,0.08846621960401535
1789741087215640300,3.137640380859375,0.03008253499865532,0.011907259002327919,0.08562089502811432
1789741087225717200,3.14771728515625,-0.03286100924015045,0.006842725910246372,0.08975572139024734
1789741087235795200,3.157795166015625,-0.07160068303346634,0.020677048712968826,0.09955108910799026
1789741087245872400,3.167872314453125,-0.11012623459100723,0.02544863522052765,0.1095334142446518
1789741087255950300,3.177950439453125,-0.14552471041679382,0.019776634871959686,0.11521447449922562
1789741087266027300,3.18802734375,-0.1765768975019455,0.021274395287036896,0.13267788290977478
1789741087276105200,3.198105224609375,-0.20401757955551147,0.01804185099899769,0.12911324203014374
1789741087286182100,3.20818212890625,-0.23225906491279602,0.003954261541366577,0.11350338906049728
1789741087296260400,3.21826025390625,-0.24079929292201996,0.000368847802747041,0.0936010554432869
1789741087306337300,3.228337158203125,-0.23034478724002838,0.007192398887127638,0.08424244076013565
1789741087316415200,3.238415283203125,-0.20496194064617157,0.021158814430236816,0.0689777359366417
1789741087326493200,3.2484931640625,-0.1679871380329132,0.03136564418673515,0.05997758358716965
1789741087336570400,3.2585703125,-0.12939633429050446,0.015798404812812805,0.041018273681402206
1789741087346648300,3.2686484375,-0.09929516166448593,0.009583118371665478,0.020086092874407768
1789741087356725200,3.278725341796875,-0.044797033071517944,0.001059139147400856,-0.004483431577682495
1789741087366803200,3.28880322265625,-0.00007456851017195731,0.0006716492353007197,-0.011138671077787876
1789741087376880000,3.298880126953125,0.0034437335561960936,0.005678392015397549,-0.01077142171561718
1789741087386958300,3.308958251953125,0.005403819959610701,0.0041366880759596825,-0.00953944306820631
1789741087397035300,3.31903515625,0.006118080113083124,0.002877012826502323,-0.003908189013600349
1789741087407113200,3.32911328125,0.0041215079836547375,0.007124754600226879,-0.001612277701497078
1789741087417190400,3.3391904296875,-0.00009028115891851485,0.012236958369612694,0.0012796488590538502
1789741087427268400,3.349268310546875,-0.0024895230308175087,0.018384333699941635,0.0012639362830668688
1789741087437345300,3.35934521484375,0.0020602215081453323,0.020367855206131935,0.0008412926108576357
1789741087447423200,3.36942333984375,0.023898940533399582,0.02118411473929882,0.004539091605693102
1789741087457500200,3.379500244140625,0.017672469839453697,0.028679315000772476,0.010991930961608887
1789741087467578000,3.389578125,0.008040882647037506,0.04428490623831749,0.0322631299495697
1789741087477655300,3.3996552734375,0.006825415417551994,0.04587215185165405,0.02341531030833721
1789741087487733200,3.409733154296875,0.0014916365034878254,0.037635792046785355,0.01576458103954792
1789741087497810400,3.419810546875,-0.0033478597179055214,0.03395264223217964,0.013376259244978428
1789741087507888400,3.429888427734375,-0.004338289611041546,0.03290841355919838,0.014548316597938538
1789741087517965300,3.43996533203125,-0.013659619726240635,0.025961292907595634,0.011918976902961731
1789741087528043300,3.450043212890625,-0.04608041048049927,0.023132748901844025,0.005254683084785938
1789741087538120200,3.4601201171875,-0.08111189305782318,0.02123338356614113,0.0002564624010119587
1789741087548198100,3.4701982421875,-0.08510610461235046,0.019184080883860588,0.00034700988908298314
1789741087558276000,3.480276123046875,-0.06341465562582016,0.02003389596939087,-0.001862348522990942
1789741087568353000,3.49035302734375,-0.027765585109591484,0.01384257897734642,0.0011496866354718804
1789741087578431000,3.500430908203125,-0.004927380476146936,0.01386787835508585,-0.0015182681381702423
1789741087588508000,3.5105078125,0.0022889869287610054,0.010309096425771713,-0.0005925533478148282
1789741087598585900,3.5205859375,0.006154032424092293,0.009712282568216324,0.0018687400734052062
1789741087608662800,3.530662841796875,0.004450674634426832,0.008882441557943821,0.0010074737947434187
1789741087618740700,3.54074072265625,0.007080812472850084,0.006845655385404825,0.0021228056866675615
1789741087628818000,3.55081787109375,0.004945490043610334,0.007433947641402483,0.0022413162514567375
1789741087638895900,3.560895751953125,0.0029944581910967827,0.010748517699539661,0.00004926848123432137
1789741087648973000,3.57097314453125,0.0027361316606402397,0.011858523823320866,-0.0001699096756055951
1789741087659051000,3.581051025390625,0.009125587530434132,0.012101403437554836,0.0005744438385590911
1789741087669128000,3.5911279296875,0.007903196848928928,0.012625513598322868,0.000571248063351959
1789741087679206000,3.601205810546875,0.010172742418944836,0.015133146196603775,0.0015923039754852653
1789741087689282800,3.61128271484375,0.009640377014875412,0.019391007721424103,-0.00037257623625919223
1789741087699360800,3.62136083984375,0.006853378843516111,0.02479908987879753,-0.0026413232553750277
1789741087709438000,3.63143798828125,-0.0014612764352932572,0.03152863308787346,-0.006179865449666977
1789741087719516000,3.641515869140625,0.0005677859298884869,0.024383369833230972,-0.008206796832382679
1789741087729592800,3.6515927734375,0.0002593918761704117,0.029026858508586884,-0.0031502533238381147
1789741087739671000,3.661671142578125,0.0027425233274698257,0.030797859653830528,-0.0032650355715304613
1789741087749748000,3.671748046875,0.0004857605672441423,0.029108617454767227,-0.0023848607670515776
1789741087759826000,3.681825927734375,-0.002144643571227789,0.030237264931201935,-0.0006325007416307926
1789741087769902800,3.69190283203125,-0.0004338289436418563,0.028246818110346794,0.00044607947347685695
1789741087779980800,3.701980712890625,-0.004509264137595892,0.031127292662858963,0.003501524217426777
1789741087790058000,3.71205810546875,0.0003552656853571534,0.02847345359623432,-0.0016237293602898717
1789741087800136000,3.722135986328125,-0.0031430625822395086,0.031868450343608856,-0.003719104453921318
1789741087810214000,3.7322138671875,0.0014865765115246177,0.030397586524486542,-0.006842725910246372
1789741087820290800,3.742290771484375,0.0011145329335704446,0.02821379527449608,-0.005258411634713411
1789741087830369000,3.752369140625,-0.002293514320626855,0.03224262595176697,-0.004464789759367704
1789741087840446000,3.762446044921875,-0.003329484025016427,0.03265275061130524,-0.0038309572264552116
1789741087850524000,3.77252392578125,-0.00833702553063631,0.03236859291791916,-0.005490372888743877
1789741087860600800,3.782600830078125,-0.00920281931757927,0.031734492629766464,-0.003727892879396677
1789741087870678800,3.7926787109375,-0.010791128501296043,0.030780816450715065,-0.008224640041589737
1789741087880756000,3.802755859375,-0.009256082586944103,0.029032183811068535,-0.005374258849769831
1789741087890834000,3.812833984375,-0.010183128528296947,0.030463898554444313,-0.006013683974742889
1789741087900910800,3.822910888671875,-0.011680624447762966,0.028861209750175476,-0.004881840664893389
1789741087910988800,3.83298876953125,-0.014875352382659912,0.028310466557741165,-0.0026082999538630247
1789741087921065700,3.843065673828125,-0.01689908839762211,0.025791117921471596,-0.0011203918838873506
1789741087931144000,3.85314404296875,-0.016879115253686905,0.02960103563964367,0.00041092574247159064
1789741087941221000,3.86322119140625,-0.017974207177758217,0.02406432293355465,-0.00315957423299551
1789741087951299000,3.873299072265625,-0.020011791959404945,0.02425340749323368,-0.004087153356522322
1789741087961376000,3.8833759765625,-0.02003309689462185,0.023087475448846817,-0.0036975329276174307
1789741087971454000,3.893453857421875,-0.01949886605143547,0.02588352933526039,-0.0033190976828336716
1789741087981531000,3.90353076171875,-0.02225630357861519,0.032288696616888046,-0.002999251941218972
1789741087991608800,3.91360888671875,-0.032943300902843475,0.03864459693431854,-0.006666957400739193
1789741088001685800,3.923685791015625,-0.03819745406508446,0.03399045765399933,-0.014416756108403206
1789741088011763700,3.933763671875,-0.04092825949192047,0.024652082473039627,-0.019358783960342407
1789741088021841000,3.9438408203125,-0.04271790385246277,0.016223179176449776,-0.01920405402779579
1789741088031919000,3.953919189453125,-0.0455017052590847,0.009677394293248653,-0.020670125260949135
1789741088041997000,3.9639970703125,-0.048406414687633514,-0.0007384945638477802,-0.013934457674622536
1789741088052074000,3.974073974609375,-0.050809118896722794,-0.011474762111902237,-0.00424294825643301
1789741088062152000,3.98415185546875,-0.05194469168782234,-0.02425394020974636,0.0007329019135795534
1789741088072228900,3.994228759765625,-0.058517638593912125,-0.028737904503941536,0.001350222621113062
1789741088082306800,4.004306884765625,-0.06447353214025497,-0.03556225448846817,0.0003451456723269075
1789741088092383700,4.0143837890625,-0.06759288907051086,-0.0407429039478302,-0.0044168527238070965
1789741088102461700,4.024461669921875,-0.06993141025304794,-0.04638640582561493,-0.008615059778094292
1789741088112539000,4.034538818359375,-0.06835056096315384,-0.0481366366147995,-0.011471300385892391
1789741088122617000,4.0446171875,-0.0719199925661087,-0.05203310772776604,-0.012012721039354801
1789741088132694000,4.054694091796875,-0.07185528427362442,-0.05537297576665878,-0.009681922383606434
1789741088142772000,4.06477197265625,-0.07277620583772659,-0.05979888513684273,-0.008990831673145294
1789741088152849000,4.074848876953125,-0.07013274729251862,-0.061890266835689545,-0.005169461946934462
1789741088162926800,4.0849267578125,-0.070010244846344,-0.06690420210361481,0.000859934720210731
1789741088173004000,4.095004150390625,-0.06562720984220505,-0.06813005357980728,-0.0016295883106067777
1789741088183082000,4.10508203125,-0.0644674077630043,-0.06723230332136154,-0.0018378474051132798
1789741088193159000,4.115158935546875,-0.06252063810825348,-0.0646921768784523,-0.0020455741323530674
1789741088203236900,4.12523681640625,-0.058336012065410614,-0.06035654991865158,-0.0025686188600957394
1789741088213313800,4.135313720703125,-0.056294430047273636,-0.055453673005104065,-0.0033888723701238632
1789741088223392000,4.14539208984375,-0.04429076611995697,-0.023899739608168602,0.016774186864495277
1789741088233469000,4.155468994140625,-0.048778191208839417,-0.033796846866607666,-0.01552436500787735
1789741088243547000,4.165546875,-0.047816257923841476,-0.03616226464509964,-0.011710984632372856
1789741088253624000,4.1756240234375,-0.039386555552482605,0.014523282647132874,0.01715368591248989
1789741088263702000,4.185701904296875,-0.030963508412241936,0.028734175488352776,0.010246246121823788
1789741088273779000,4.195779052734375,-0.02636822499334812,0.0062246061861515045,-0.0187811441719532
1789741088283857000,4.20585693359375,0.004179564770311117,0.12281966209411621,-0.15857206284999847
1789741088293934800,4.215934814453125,0.009388175792992115,0.06334807723760605,-0.1072942316532135
1789741088304011800,4.22601171875,0.07837310433387756,0.07104301452636719,-0.08366240561008453
1789741088314090000,4.236090087890625,0.2538919150829315,0.08544538915157318,-0.12791934609413147
1789741088324167000,4.2461669921875,0.3757488429546356,0.0984719768166542,-0.10121343284845352
1789741088334244900,4.256244873046875,0.20704559981822968,0.10335302352905273,-0.044680118560791016
1789741088344322000,4.266322021484375,0.024285897612571716,0.13127626478672028,-0.020749753341078758
1789741088354400000,4.27639990234375,-0.14762035012245178,0.1877371370792389,0.03472575545310974
1789741088364477000,4.286476806640625,-0.40208324790000916,0.20030087232589722,0.0631432831287384
1789741088374555000,4.296554931640625,-0.7593399286270142,0.13011884689331055,0.03296061232686043
1789741088384631800,4.3066318359375,-1.0561894178390503,-0.26542767882347107,-0.007178550586104393
1789741088394709800,4.316709716796875,-1.2738996744155884,-0.42502105236053467,-0.003945206757634878
1789741088404787000,4.326786865234375,-1.4043782949447632,-0.051350004971027374,-0.036324985325336456
1789741088414865000,4.336864990234375,-1.5495234727859497,0.09377443045377731,-0.15288008749485016
1789741088424942000,4.346942138671875,-1.7595971822738647,0.13145096600055695,-0.1937958300113678
1789741088435020000,4.35702001953125,-1.9009196758270264,0.15432246029376984,-0.21711447834968567
1789741088445097000,4.367096923828125,-1.9708515405654907,0.29539355635643005,-0.20067504048347473
1789741088455175000,4.3771748046875,-1.8467406034469604,-0.11664565652608871,-0.15108326077461243
1789741088465251800,4.387251953125,-1.2839879989624023,-0.7576131224632263,0.09305457770824432
1789741088475329800,4.397329833984375,-0.8872150778770447,-0.2644023597240448,-0.03669968992471695
1789741088485407000,4.407406982421875,-0.6227831244468689,-0.06713163107633591,-0.0006705839768983424
1789741088495485000,4.41748486328125,-0.32640740275382996,0.11297235637903214,0.02858743630349636
1789741088505561900,4.427561767578125,-0.08125757426023483,0.029047098010778427,-0.00384427304379642
1789741088515639800,4.437639892578125,0.03864646330475807,0.014483601786196232,-0.011507252231240273
1789741088525718000,4.447718017578125,0.039794016629457474,-0.0029204224701970816,-0.01212830189615488
1789741088535795000,4.457794921875,0.05296734347939491,0.02954217977821827,-0.009159409441053867
1789741088545873000,4.467872802734375,0.07475626468658447,0.020255737006664276,-0.016938770189881325
1789741088555949800,4.47794970703125,0.09344872087240219,0.006551109720021486,-0.025061145424842834
1789741088566028500,4.488028564453125,0.080843985080719,0.013234046287834644,-0.02636023424565792
1789741088576105500,4.49810546875,0.10915578156709671,0.07256421446800232,-0.0025891251862049103
1789741088586183700,4.50818359375,0.14505226910114288,0.0726691409945488,-0.001062068622559309
1789741088596260900,4.5182607421875,0.19574153423309326,0.06389962136745453,-0.002204564632847905
1789741088606338800,4.5283388671875,0.3006700873374939,0.12199195474386215,0.02520708553493023
1789741088616415700,4.538415771484375,0.3618844449520111,0.10600792616605759,0.02508697658777237
1789741088626493700,4.54849365234375,0.4421875476837158,0.05867663025856018,0.006085323169827461
1789741088636570600,4.558570556640625,0.5383039712905884,0.08439024537801743,0.014539261348545551
1789741088646648600,4.568648681640625,0.6352525949478149,0.10036042332649231,0.01829138956964016
1789741088656725800,4.578725830078125,0.72721928358078,0.07221933454275131,0.004834169987589121
1789741088666803700,4.5888037109375,0.8182916641235352,0.09960568696260452,0.016987239941954613
1789741088676880600,4.598880615234375,0.9086106419563293,0.14406955242156982,0.03133954852819443
1789741088686958800,4.608958740234375,0.9907726049423218,0.12133362144231796,0.02466646395623684
1789741088697035800,4.619035888671875,1.0466076135635376,0.10470724105834961,0.03164554387331009
1789741088707113700,4.62911376953125,1.1717727184295654,0.11739426851272583,0.017831994220614433
1789741088717190700,4.639190673828125,1.1952954530715942,0.2241998165845871,0.0705852210521698
1789741088727268600,4.6492685546875,1.2281534671783447,0.19359104335308075,0.06863179057836533
1789741088737345800,4.659345703125,1.2494025230407715,0.11478996276855469,0.024226509034633636
1789741088747423700,4.669423828125,1.175607681274414,0.01764077879488468,-0.040099214762449265
1789741088757501700,4.679501708984375,1.1517633199691772,0.16668911278247833,0.027211114764213562
1789741088767578600,4.68957861328125,1.041351079940796,-0.01452780980616808,-0.040110401809215546
1789741088777656800,4.69965673828125,0.9628075361251831,0.004948419518768787,-0.04360393434762955
1789741088787733800,4.709733642578125,0.8252965807914734,-0.053036853671073914,-0.07103369385004044
1789741088797811700,4.719811767578125,0.7153761982917786,-0.09466125816106796,-0.06660672277212143
1789741088807888600,4.729888671875,0.6435161232948303,-0.09829993546009064,-0.06077094003558159
1789741088817966600,4.739966552734375,0.5323464274406433,-0.11787576973438263,-0.06491934508085251
1789741088828043800,4.750043701171875,0.48032906651496887,-0.04302336648106575,-0.03477609157562256
1789741088838121700,4.760121826171875,0.39344796538352966,-0.049132391810417175,-0.03879852965474129
1789741088848198700,4.77019873046875,0.2655794620513916,-0.05951259657740593,-0.044488903135061264
1789741088858276600,4.780276611328125,0.16032949090003967,-0.03831516578793526,-0.040941040962934494
1789741088868353500,4.790353515625,0.07032635807991028,-0.06030834838747978,-0.04153332859277725
1789741088878431700,4.800431640625,0.0009534116834402084,-0.07199935615062714,-0.04408783093094826
1789741088888508700,4.8105087890625,-0.021437380462884903,-0.0859021246433258,-0.03952131047844887
1789741088898586600,4.820586669921875,-0.010420150123536587,-0.07176686078310013,-0.02406778559088707
1789741088908663800,4.830663818359375,0.020789965987205505,-0.05654609948396683,-0.01266785804182291
1789741088918741800,4.84074169921875,0.03145166486501694,-0.037821680307388306,-0.0026706180069595575
1789741088928818700,4.850818603515625,0.03599075600504875,-0.03183383122086525,0.001645567244850099
1789741088938896600,4.860896728515625,0.04129151254892349,-0.02810353972017765,0.0033510555513203144
1789741088948973600,4.8709736328125,0.04590677097439766,-0.0025268071331083775,0.008286425843834877
1789741088959051500,4.881051513671875,0.04897180199623108,-0.03369724377989769,0.006238721311092377
1789741088969128700,4.891128662109375,0.04308195784687996,-0.036855485290288925,0.002417883835732937
1789741088979207000,4.90120703125,0.041375670582056046,-0.034338001161813736,0.006514891050755978
1789741088989283800,4.911283935546875,0.04126035422086716,-0.011935755610466003,0.012556537985801697
1789741088999361800,4.92136181640625,0.03567330911755562,-0.0023521038237959146,0.016956612467765808
1789741089009439700,4.931439697265625,0.04105502367019653,-0.010306965559720993,0.012651879340410233
1789741089019516700,4.9415166015625,0.043049734085798264,-0.009123989380896091,0.010298710316419601
1789741089029594600,4.9515947265625,0.04224066436290741,-0.024939171969890594,0.00535348616540432
1789741089039671600,4.961671630859375,0.03965047374367714,-0.02742842771112919,0.0065439194440841675
1789741089049749500,4.97174951171875,0.03979002311825752,-0.026521354913711548,0.0030543794855475426
1789741089059826700,4.98182666015625,0.03627172112464905,-0.026269420981407166,0.0043308325111866
1789741089069905000,4.99190478515625,0.031929969787597656,-0.022765500470995903,0.005449626594781876
1789741089079981800,5.00198193359375,0.030780816450715065,-0.02564251236617565,0.0065385932102799416
1789741089090059800,5.012059814453125,0.03221279755234718,-0.02231675758957863,0.007493336219340563
1789741089100136700,5.02213671875,0.03291693702340126,-0.025165807455778122,0.0043686493299901485
1789741089110214700,5.032214599609375,0.033474601805210114,-0.026203639805316925,0.0031433289404958487
1789741089120291600,5.04229150390625,0.030716367065906525,-0.02413170225918293,0.00030413299100473523
1789741089130369500,5.05236962890625,0.027177825570106506,-0.021680794656276703,0.004388356581330299
1789741089140446700,5.06244677734375,0.026872361078858376,-0.023014238104224205,0.0020775320008397102
1789741089150524700,5.072524658203125,0.02461559697985649,-0.025614816695451736,0.0017624800093472004
1789741089160601600,5.0826015625,0.023478960618376732,-0.02846919186413288,0.00395799009129405
1789741089170679800,5.0926796875,0.021150026470422745,-0.03429379314184189,0.0044011399149894714
1789741089180756700,5.1027568359375,0.02104989066720009,-0.038228344172239304,0.004559065215289593
1789741089190834700,5.112834716796875,0.02286749891936779,-0.03804618492722511,0.0036272252909839153
1789741089200912000,5.122911865234375,0.02004401572048664,-0.04029815271496773,0.0070222229696810246
1789741089210989800,5.13298974609375,0.022282402962446213,-0.04255305230617523,0.004771052859723568
1789741089221067800,5.14306787109375,0.021619275212287903,-0.034325748682022095,0.00669332267716527
1789741089231144700,5.153144775390625,0.023665914312005043,-0.029458556324243546,0.010916297324001789
1789741089241222700,5.16322265625,0.02057052217423916,-0.02485474944114685,0.012686500325798988
1789741089251299600,5.173299560546875,0.022401446476578712,-0.026574086397886276,0.007517304737120867
1789741089261377500,5.18337744140625,0.027362115681171417,-0.022284798324108124,0.007755924016237259
1789741089271454500,5.193454345703125,0.02719646692276001,-0.0007193197961896658,0.013513145968317986
1789741089281532700,5.20353271484375,0.0008452873444184661,0.032883115112781525,0.0008862999966368079
1789741089291609900,5.21360986328125,0.005688245873898268,-0.015233014710247517,-0.01888953521847725
1789741089301687800,5.223687744140625,0.011328021995723248,0.013195164501667023,-0.011080880649387836
1789741089311764700,5.2337646484375,0.007483748719096184,0.002238120650872588,-0.0026431872975081205
1789741089321842700,5.2438427734375,0.017949705943465233,0.0007656587986275554,-0.0006242449744604528
1789741089331919600,5.253919677734375,0.02527925744652748,0.012687832117080688,0.009663013741374016
1789741089341997600,5.26399755859375,0.03020264394581318,0.02105095610022545,0.015745140612125397
1789741089352074500,5.274074462890625,0.028971197083592415,0.03237338736653328,0.01455870270729065
1789741089362152700,5.284152587890625,0.02022510953247547,0.04722636938095093,0.008051801472902298
1789741089372229600,5.294229736328125,0.01763598434627056,0.054116230458021164,-0.006482933182269335
1789741089382307800,5.304307861328125,0.019825635477900505,0.06841447949409485,-0.009984190575778484
1789741089392384800,5.314384765625,0.019160378724336624,0.06310626119375229,-0.014969628304243088
1789741089402462700,5.324462646484375,0.01666659489274025,0.06805708259344101,-0.006822219584137201
1789741089412539600,5.33453955078125,0.013403156772255898,0.04607827961444855,-0.01028805784881115
1789741089422617600,5.34461767578125,0.011598599143326283,0.03657212480902672,0.004571315832436085
1789741089432694800,5.35469482421875,0.004504204262048006,0.009338374249637127,-0.0009323726990260184
1789741089442772700,5.364772705078125,-0.005058141890913248,0.022310897707939148,0.0080296965315938
1789741089452850700,5.3748505859375,-0.020963339135050774,0.015212508849799633,-0.004750014282763004
1789741089462927600,5.384927734375,-0.015633821487426758,0.019822441041469574,-0.003082342678681016
1789741089473005800,5.395005859375,-0.030961377546191216,-0.0037979339249432087,-0.013704626820981503
1789741089483082800,5.405082763671875,-0.035101793706417084,-0.018818428739905357,-0.015578427352011204
1789741089493160700,5.41516064453125,-0.04009362310171127,-0.030674556270241737,-0.0159483402967453
1789741089503237600,5.425237548828125,-0.06326685100793839,-0.023430224508047104,-0.011381285265088081
1789741089513315600,5.435315673828125,-0.07096099108457565,-0.038117025047540665,-0.012471583671867847
1789741089523392800,5.445392822265625,-0.06581203639507294,-0.06514731049537659,-0.006867759861052036
1789741089533470700,5.455470703125,-0.07521512359380722,-0.07759013026952744,-0.009696835651993752
1789741089543547600,5.465547607421875,-0.08319608867168427,-0.07520446926355362,-0.008644620887935162
1789741089553625600,5.47562548828125,-0.08899804949760437,-0.08144239336252213,-0.012408199720084667
1789741089563702500,5.48570263671875,-0.09918064624071121,-0.08827579766511917,-0.018094316124916077
1789741089573780000,5.495780029296875,-0.11090361326932907,-0.08048498630523682,-0.020113790407776833
1789741089583857200,5.505857177734375,-0.11462085694074631,-0.08898446708917618,-0.0208877045661211
1789741089593935000,5.51593505859375,-0.12256133556365967,-0.09996441751718521,-0.018128937110304832
1789741089604012000,5.526011962890625,-0.12557949125766754,-0.09938224405050278,-0.020626714453101158
1789741089614090000,5.536090087890625,-0.12863121926784515,-0.10752192884683609,-0.019696472212672234
1789741089624167000,5.5461669921875,-0.1396780014038086,-0.1089179590344429,-0.020595289766788483
1789741089634244900,5.556244873046875,-0.14689117670059204,-0.10723937302827835,-0.0206363033503294
1789741089644321800,5.56632177734375,-0.14966565370559692,-0.11911919713020325,-0.021934326738119125
1789741089654400000,5.57639990234375,-0.15705086290836334,-0.0783906802535057,-0.02370373159646988
1789741089664477200,5.586477294921875,-0.1793748140335083,-0.10654694586992264,-0.0054155378602445126
1789741089674555100,5.59655517578125,-0.14943529665470123,-0.08369170129299164,-0.04417811334133148
1789741089684633000,5.606633056640625,-0.16859833896160126,-0.02719620056450367,-0.030669495463371277
1789741089694710000,5.6167099609375,-0.13025067746639252,0.03708185628056526,-0.013286510482430458
1789741089704788000,5.6267880859375,-0.12328917533159256,-0.08894052356481552,-0.03620540723204613
1789741089714865000,5.636864990234375,-0.15446999669075012,-0.0007419566973112524,-0.03893301635980606
1789741089724942800,5.64694287109375,-0.1522156298160553,0.02726251445710659,-0.023153256624937057
1789741089735020000,5.65702001953125,-0.1408439427614212,-0.07163263857364655,-0.04493764787912369
1789741089745098200,5.66709814453125,-0.13506567478179932,-0.05053853988647461,-0.019175292924046516
1789741089755175200,5.677175048828125,-0.13887719810009003,-0.059362128376960754,-0.0018426411552354693
1789741089765253000,5.687253173828125,-0.15164491534233093,-0.06944485753774643,-0.007530088070780039
1789741089775330000,5.697330078125,-0.12632811069488525,-0.021710621193051338,-0.008200937882065773
1789741089785408000,5.707407958984375,-0.12812307476997375,-0.0070432620123028755,-0.018907111138105392
1789741089795485000,5.71748486328125,-0.14293691515922546,-0.0524272546172142,-0.029682794585824013
1789741089805563000,5.72756298828125,-0.1758892685174942,-0.09439947456121445,-0.02929903194308281
1789741089815640000,5.73764013671875,-0.17899292707443237,-0.1231168732047081,-0.02111860178411007
1789741089825718000,5.747718017578125,-0.1763734370470047,-0.21610833704471588,-0.03123088926076889
1789741089835795000,5.757794921875,-0.15099510550498962,-0.20168252289295197,-0.019235480576753616
1789741089845873200,5.767873046875,-0.1356012374162674,-0.1995735615491867,-0.0035518580116331577
1789741089855950000,5.7779501953125,-0.1090330109000206,-0.20503810048103333,0.0027885958552360535
1789741089866028000,5.788028076171875,-0.09630602598190308,-0.19725075364112854,0.011830560863018036
1789741089876105000,5.79810498046875,-0.09593052417039871,-0.2040599286556244,0.011028416454792023
1789741089886183000,5.808182861328125,-0.09737582504749298,-0.21225419640541077,0.0031435952987521887
1789741089896260000,5.818260009765625,-0.09501706063747406,-0.21951158344745636,-0.006206230726093054
1789741089906338000,5.828338134765625,-0.0819835513830185,-0.2419026494026184,-0.007904528640210629
1789741089916416000,5.838416015625,-0.08040189743041992,-0.252431720495224,0.00006924218905624002
1789741089926493000,5.848492919921875,-0.07608118653297424,-0.26535019278526306,0.01489479374140501
1789741089936571100,5.858571044921875,-0.06421573460102081,-0.2789938151836395,0.02869343012571335
1789741089946648000,5.86864794921875,-0.05127410590648651,-0.3051993250846863,0.03225993365049362
1789741089956726000,5.87872607421875,-0.0035473306197673082,-0.2858929932117462,0.038591865450143814
1789741089966803200,5.88880322265625,0.03298165276646614,-0.2865886092185974,0.03696281090378761
1789741089976881200,5.898881103515625,0.05674956738948822,-0.27813655138015747,0.03907389938831329
1789741089986958000,5.9089580078125,0.07553363591432571,-0.2661592364311218,0.040517598390579224
1789741089997036000,5.9190361328125,0.08973867446184158,-0.2658175528049469,0.03777054697275162
1789741090007113000,5.929113037109375,0.09775851666927338,-0.2529981732368469,0.04315492883324623
1789741090017191000,5.93919091796875,0.11078057438135147,-0.23841363191604614,0.051114048808813095
1789741090027267800,5.949267822265625,0.1258721798658371,-0.23216000199317932,0.061160292476415634
1789741090037346000,5.959345947265625,0.14467382431030273,-0.21916510164737701,0.069935142993927
1789741090047423200,5.96942333984375,0.16962525248527527,-0.19705767929553986,0.07514908164739609
1789741090057501200,5.979501220703125,0.19355854392051697,-0.1994883418083191,0.07018707692623138
1789741090067578000,5.989578125,0.22062531113624573,-0.17020182311534882,0.06843817979097366
1789741090077656000,5.999656005859375,0.23871776461601257,-0.1362379938364029,0.07361429929733276
1789741090087733000,6.00973291015625,0.2536431849002838,-0.10787453502416611,0.07603777945041656
1789741090097811000,6.01981103515625,0.26920509338378906,-0.08221657574176788,0.07874168455600739
1789741090107887900,6.029887939453125,0.28626665472984314,-0.04976782202720642,0.0788910835981369
1789741090117965800,6.0399658203125,0.3071575462818146,-0.038769498467445374,0.07870466262102127
1789741090128043000,6.05004296875,0.3323718309402466,-0.007151918951421976,0.08822359889745712
1789741090138121200,6.060121337890625,0.35425421595573425,0.01738698035478592,0.09205269813537598
1789741090148199200,6.07019921875,0.37586525082588196,0.060437511652708054,0.1005665510892868
1789741090158276000,6.080276123046875,0.39594441652297974,0.09445380419492722,0.09623891860246658
1789741090168354000,6.09035400390625,0.4226332902908325,0.1552513688802719,0.08819830417633057
1789741090178431000,6.100430908203125,0.4361536204814911,0.19064931571483612,0.06758836656808853
1789741090188509000,6.110509033203125,0.44145411252975464,0.2403673380613327,0.05855252593755722
1789741090198586000,6.120586181640625,0.448493629693985,0.28823792934417725,0.061895858496427536
1789741090208664000,6.1306640625,0.4501439929008484,0.3122042417526245,0.061154965311288834
1789741090218741000,6.140740966796875,0.45112884044647217,0.35406434535980225,0.07136872410774231
1789741090228819200,6.150819091796875,0.44644033908843994,0.3878270983695984,0.07283399254083633
1789741090238896000,6.160896240234375,0.45045745372772217,0.43283796310424805,0.07263532280921936
1789741090248974000,6.17097412109375,0.4511890113353729,0.4492957890033722,0.060509148985147476
1789741090259051000,6.181051025390625,0.457610160112381,0.47744220495224,0.05865691974759102
1789741090269129000,6.19112890625,0.45742347836494446,0.48496562242507935,0.05116385221481323
1789741090279206100,6.2012060546875,0.45453208684921265,0.49467551708221436,0.04643114656209946
1789741090289284000,6.2112841796875,0.4388183653354645,0.5237635970115662,0.04065821319818497
1789741090299361000,6.221361083984375,0.41910937428474426,0.5467197895050049,0.04303508624434471
1789741090309439000,6.23143896484375,0.401905357837677,0.5635312795639038,0.044621795415878296
1789741090319516000,6.241515869140625,0.3875056505203247,0.5595439672470093,0.041791390627622604
1789741090329594000,6.251593994140625,0.37400901317596436,0.5518264174461365,0.04326358437538147
1789741090339671000,6.261671142578125,0.3703080117702484,0.5426459908485413,0.04316265136003494
1789741090349749000,6.2717490234375,0.3551839292049408,0.5226778388023376,0.03573242947459221
1789741090359826200,6.281826171875,0.34131577610969543,0.5445972681045532,0.03575879707932472
1789741090369904000,6.291904052734375,0.33395081758499146,0.5244645476341248,0.023575367406010628
1789741090379981000,6.30198095703125,0.3191803991794586,0.5343619585037231,0.019113507121801376
1789741090390059000,6.31205908203125,0.3116588294506073,0.5273269414901733,0.01666925847530365
1789741090400137000,6.322136962890625,0.29697123169898987,0.5140390992164612,0.013138172216713428
1789741090410214000,6.3322138671875,0.2848610281944275,0.5126630067825317,0.013379720970988274
1789741090420292000,6.3422919921875,0.27319344878196716,0.49153590202331543,0.01518960576504469
1789741090430369000,6.352369140625,0.26158714294433594,0.4668273627758026,0.015626363456249237
1789741090440447000,6.362447021484375,0.24892114102840424,0.45726048946380615,0.026936808601021767
1789741090450524200,6.372524169921875,0.24422384798526764,0.42797398567199707,0.03391934931278229
1789741090460602000,6.38260205078125,0.23873481154441833,0.39594653248786926,0.024104004725813866
1789741090470679000,6.392678955078125,0.2299567610025406,0.4016110897064209,0.024284834042191505
1789741090480757000,6.402757080078125,0.22257155179977417,0.37129393219947815,0.014253504574298859
1789741090490834000,6.412833984375,0.21246220171451569,0.3628900647163391,0.008334362879395485
1789741090500911900,6.422911865234375,0.20193232595920563,0.3803931474685669,0.020474914461374283
1789741090510989000,6.432989013671875,0.2027009129524231,0.33434441685676575,0.021687185391783714
1789741090521067300,6.4430673828125,0.20325112342834473,0.31772151589393616,0.020564397796988487
1789741090531144200,6.453144287109375,0.20492731034755707,0.3112838566303253,0.02161315083503723
1789741090541222100,6.46322216796875,0.20207667350769043,0.27301156520843506,0.010339190252125263
1789741090551299000,6.473299072265625,0.19032999873161316,0.27248531579971313,0.007041397970169783
1789741090561377000,6.483376953125,0.1797974556684494,0.28107136487960815,0.01522768847644329
1789741090571454200,6.4934541015625,0.1775422990322113,0.25557637214660645,0.010432400740683079
1789741090581532200,6.5035322265625,0.17954924702644348,0.2653094232082367,0.0084275733679533
1789741090591609300,6.513609375,0.18845166265964508,0.2766217291355133,0.008887501433491707
1789741090601687600,6.5236875,0.20111499726772308,0.26373177766799927,0.0034293525386601686
1789741090611764500,6.533764404296875,0.20411372184753418,0.2686927020549774,0.009857158176600933
1789741090621842400,6.543842529296875,0.20134828984737396,0.28597182035446167,0.015386146493256092
1789741090631919400,6.55391943359375,0.19782786071300507,0.2894536554813385,0.021765483543276787
1789741090641997300,6.563997314453125,0.198375403881073,0.2918028235435486,0.024352211505174637
1789741090652075300,6.5740751953125,0.19752319157123566,0.30061015486717224,0.025705629959702492
1789741090662152200,6.584152099609375,0.1977176070213318,0.2946244478225708,0.019699934870004654
1789741090672230100,6.594230224609375,0.19554926455020905,0.2925839424133301,0.010515757836401463
1789741090682307300,6.604307373046875,0.1981961727142334,0.288928747177124,0.006981210317462683
1789741090692385500,6.614385498046875,0.19863294064998627,0.2869734466075897,0.0013140037190169096
1789741090702462500,6.62446240234375,0.19768750667572021,0.3017609119415283,0.01176478061825037
1789741090712540400,6.63454052734375,0.20162606239318848,0.3037412464618683,0.01756913959980011
1789741090722617300,6.644617431640625,0.20576195418834686,0.288482666015625,0.0000066579027588886674
1789741090732695300,6.6546953125,0.20594091713428497,0.3052123785018921,0.01774996891617775
1789741090742772200,6.664772216796875,0.2060500979423523,0.4435998201370239,0.03157763183116913
1789741090752850200,6.67485009765625,0.20929649472236633,0.3014892637729645,-0.0029933929909020662
1789741090762927400,6.68492724609375,0.22723954916000366,0.3425733149051666,0.003614442190155387
1789741090773005300,6.69500537109375,0.22394095361232758,0.32492294907569885,-0.001487109111621976
1789741090783082200,6.705082275390625,0.19266319274902344,0.33982014656066895,0.0018109495285898447
1789741090793160200,6.71516015625,0.19491197168827057,0.4314291775226593,0.03597104921936989
1789741090803237000,6.725237060546875,0.1960992068052292,0.37334775924682617,0.03344397619366646
1789741090813315300,6.7353154296875,0.18620076775550842,0.33359819650650024,-0.0017989652696996927
1789741090823392500,6.745392578125,0.1916290819644928,0.3735693395137787,0.008982310071587563
1789741090833470500,6.755470458984375,0.20339199900627136,0.32506224513053894,-0.03230946883559227
1789741090843547400,6.76554736328125,0.20770952105522156,0.30991604924201965,-0.018730809912085533
1789741090853625300,6.775625244140625,0.1741401106119156,0.28347086906433105,0.008518919348716736
1789741090863702300,6.785702392578125,0.1733054667711258,0.3685724437236786,0.04219166189432144
1789741090873780200,6.7957802734375,0.17615479230880737,0.3243591785430908,0.054245661944150925
1789741090883857200,6.805857177734375,0.16333086788654327,0.292484849691391,0.03201518952846527
1789741090893935000,6.81593505859375,0.17563600838184357,0.33266130089759827,0.01926237717270851
1789741090904013300,6.826013427734375,0.18466491997241974,0.20499415695667267,-0.01570945419371128
1789741090914090500,6.836090576171875,0.14385943114757538,0.16661641001701355,-0.05712107568979263
1789741090924168400,6.84616845703125,0.14022794365882874,0.346877783536911,0.05490106716752052
1789741090934245400,6.856245361328125,0.15014556050300598,0.24985884130001068,0.09093363583087921
1789741090944323300,6.8663232421875,0.12510065734386444,0.26540449261665344,0.13801832497119904
1789741090954400300,6.876400146484375,0.12048859894275665,0.33675485849380493,0.13143472373485565
1789741090964478200,6.886478271484375,0.16118834912776947,0.22026924788951874,0.019534552469849586
1789741090974555100,6.89655517578125,0.17826826870441437,0.22177952527999878,-0.05023493990302086
1789741090984633000,6.906633056640625,0.13389867544174194,0.21348963677883148,-0.07328140735626221
1789741090994710300,6.916710205078125,0.09727488458156586,0.2819267511367798,-0.025469940155744553
1789741091004788500,6.92678857421875,0.0813121646642685,0.25653326511383057,0.007963384501636028
1789741091014865400,6.936865478515625,0.08287118375301361,0.21681620180606842,0.040772464126348495
1789741091024943400,6.946943359375,0.1037149429321289,0.18363028764724731,0.06404609233140945
1789741091035020300,6.957020263671875,0.11319340020418167,0.12441089749336243,0.05957517772912979
1789741091045098200,6.96709814453125,0.11484669148921967,0.08227143436670303,0.055141814053058624
1789741091055175400,6.977175537109375,0.09013202041387558,0.10827800631523132,0.053049102425575256
1789741091065253400,6.98725341796875,0.08158593624830246,0.16085518896579742,0.0572129562497139
1789741091075330300,6.997330322265625,0.0872558057308197,0.16600894927978516,0.05793600529432297
1789741091085408300,7.007408203125,0.0883551612496376,0.16962870955467224,0.03302505984902382
1789741091095485200,7.017485107421875,0.08722704648971558,0.21766814589500427,0.011631089262664318
1789741091105563400,7.0275634765625,0.1039370521903038,0.2132459580898285,0.001175519311800599
1789741091115640300,7.037640380859375,0.11194038391113281,0.20111766457557678,0.023667512461543083
1789741091125718300,7.04771826171875,0.09929462522268295,0.2571510970592499,0.06556995213031769
1789741091135795500,7.05779541015625,0.11129483580589294,0.35763537883758545,0.08668988943099976
1789741091145873400,7.067873291015625,0.12194854021072388,0.294199675321579,0.04718562215566635
1789741091155950300,7.077950439453125,0.1293095201253891,0.323081374168396,0.04397891089320183
1789741091166028300,7.0880283203125,0.1268751174211502,0.36235713958740234,0.0707162469625473
1789741091176106200,7.098106201171875,0.1281537115573883,0.387749582529068,0.10884765535593033
1789741091186183200,7.10818310546875,0.11223199963569641,0.3720396161079407,0.10907215625047684
1789741091196261400,7.118261474609375,0.09285217523574829,0.384311705827713,0.08040881901979446
1789741091206338300,7.12833837890625,0.09687674790620804,0.3994608521461487,0.023192137479782104
1789741091216416300,7.138416259765625,0.10201051831245422,0.43402495980262756,-0.024581775069236755
1789741091226493400,7.148493408203125,0.11016245931386948,0.48724690079689026,-0.01961577869951725
1789741091236571400,7.1585712890625,0.1055261567234993,0.4923982322216034,0.021272797137498856
1789741091246648300,7.1686484375,0.10851262509822845,0.525937020778656,0.06963420659303665
1789741091256726300,7.178726318359375,0.09139063209295273,0.5285852551460266,0.10022380948066711
1789741091266803200,7.18880322265625,0.08095716685056686,0.4676942229270935,0.05505979061126709
1789741091276881200,7.198881103515625,0.08329702168703079,0.4412727355957031,0.0032735576387494802
1789741091286958300,7.208958251953125,0.07263212651014328,0.3233804702758789,-0.05011376738548279
1789741091297036300,7.219036376953125,0.07313226908445358,0.24307097494602203,-0.040337301790714264
1789741091307113500,7.229113525390625,0.11610929667949677,0.18524868786334991,0.001996838254854083
1789741091317191400,7.23919140625,0.14192624390125275,0.09259731322526932,0.045643385499715805
1789741091327268400,7.249268310546875,0.1400524377822876,0.19309942424297333,0.08079471439123154
1789741091337346300,7.25934619140625,0.17744135856628418,0.19415482878684998,0.02834482304751873
1789741091347423200,7.26942333984375,0.20340877771377563,0.13133539259433746,-0.060922738164663315
1789741091357501200,7.279501220703125,0.19845157861709595,0.20311583578586578,-0.06807412207126617
1789741091367578400,7.289578369140625,0.19659028947353363,0.22709067165851593,-0.04590917006134987
1789741091377656300,7.29965625,0.1999722421169281,0.28339123725891113,0.01495205145329237
1789741091387733200,7.309733154296875,0.21997924149036407,0.29343828558921814,0.03193343058228493
1789741091397811500,7.3198115234375,0.2592480778694153,0.25614628195762634,0.06273289024829865
1789741091407889400,7.329889404296875,0.3102465569972992,0.2636793255805969,0.0524781197309494
1789741091417966300,7.33996630859375,0.3431150019168854,0.45123589038848877,0.056772202253341675
1789741091428044300,7.350044189453125,0.3795422613620758,0.6600905656814575,0.021585986018180847
1789741091438121200,7.360121337890625,0.4196135103702545,0.8051801323890686,-0.040110401809215546
1789741091448199200,7.37019921875,0.5043997764587402,0.9639458060264587,-0.05161738768219948
1789741091458276400,7.3802763671875,0.5725756287574768,1.0547451972961426,0.0024647556710988283
1789741091468354300,7.390354248046875,0.60610431432724,1.2737483978271484,0.12121804058551788
1789741091478431200,7.40043115234375,0.6583930850028992,1.367930293083191,0.1287422627210617
1789741091488509400,7.410509521484375,0.6701692938804626,1.3902289867401123,0.13974058628082275
1789741091498586400,7.42058642578125,0.6616365313529968,1.5664175748825073,0.15019722282886505
1789741091508664300,7.430664306640625,0.5632697343826294,1.6413737535476685,0.17781206965446472
1789741091518741200,7.4407412109375,0.505232036113739,1.74100661277771,0.18391630053520203
1789741091528819200,7.450819091796875,0.5079354047775269,1.8369348049163818,0.1708923876285553
1789741091538896400,7.460896484375,0.526904284954071,1.8243452310562134,0.20134297013282776
1789741091548974300,7.470974365234375,0.559549868106842,1.4792948961257935,0.2097678780555725
1789741091559051300,7.48105126953125,0.5572765469551086,1.6547561883926392,0.3191167414188385
1789741091569129000,7.49112890625,0.43009623885154724,1.324370265007019,0.32531896233558655
1789741091579206000,7.501205810546875,0.3137637972831726,1.2589150667190552,0.35859623551368713
1789741091589283800,7.511283935546875,0.24960929155349731,1.0305168628692627,0.3541167974472046
1789741091599361000,7.521361083984375,0.2052018940448761,0.8202837109565735,0.2662993371486664
1789741091609439000,7.53143896484375,0.1189197301864624,0.646298348903656,0.15354907512664795
1789741091619516000,7.541515869140625,0.04884983226656914,0.464293897151947,0.08151189982891083
1789741091629593900,7.55159375,0.041963428258895874,0.22637322545051575,0.032644495368003845
1789741091639670800,7.5616708984375,0.06241703778505325,-0.12511956691741943,0.01079645473510027
1789741091649748700,7.571748779296875,-0.029703833162784576,-0.17478007078170776,0.02971741557121277
1789741091659826000,7.581825927734375,-0.059721920639276505,-0.23114080727100372,0.02738581784069538
1789741091669904000,7.59190380859375,-0.0817987248301506,-0.22942999005317688,0.032519858330488205
1789741091679981800,7.60198193359375,-0.0899844840168953,-0.23551425337791443,-0.008654207922518253
1789741091690059000,7.61205908203125,-0.050285808742046356,-0.17867280542850494,-0.04411659389734268
1789741091700137000,7.622136962890625,-0.02406672015786171,-0.288335382938385,-0.09690816700458527
1789741091710214000,7.6322138671875,-0.004530835896730423,-0.2116270363330841,-0.11441153287887573
1789741091720291800,7.642291748046875,0.0014002900570631027,-0.21432986855506897,-0.09112538397312164
1789741091730368800,7.65236865234375,-0.008143413811922073,-0.22093957662582397,-0.042028408497571945
1789741091740446700,7.66244677734375,-0.039507195353507996,-0.13944178819656372,0.014740063808858395
1789741091750524000,7.67252392578125,-0.058938153088092804,-0.058168765157461166,0.08450502902269363
1789741091760602000,7.68260205078125,-0.12695981562137604,-0.026196982711553574,0.10036495327949524
1789741091770679000,7.692678955078125,-0.18154342472553253,0.06993354111909866,0.0699886754155159
1789741091780757000,7.702757080078125,-0.17366686463356018,0.05790511146187782,0.04472832381725311
1789741091790834000,7.712833984375,-0.148537278175354,-0.07390724867582321,-0.004692489746958017
1789741091800912000,7.722911865234375,-0.11325199156999588,-0.17056454718112946,-0.01926583983004093
1789741091810988800,7.73298876953125,-0.12991778552532196,-0.18061985075473785,-0.0007731156656518579
1789741091821066800,7.743066650390625,-0.1801396757364273,-0.17288842797279358,0.023667778819799423
1789741091831144000,7.75314404296875,-0.27207785844802856,-0.15128938853740692,0.045213017612695694
1789741091841222000,7.763221923828125,-0.3348882496356964,-0.16969875991344452,0.06421973556280136
1789741091851298800,7.773298828125,-0.3406105637550354,-0.29061293601989746,0.043533626943826675
1789741091861377000,7.783376953125,-0.33847445249557495,-0.3723565340042114,0.009883522987365723
1789741091871454000,7.793453857421875,-0.31259918212890625,-0.4131108820438385,-0.01085850689560175
1789741091881532000,7.803531982421875,-0.26724421977996826,-0.488503634929657,-0.025729332119226456
1789741091891608800,7.81360888671875,-0.24440361559391022,-0.4488382339477539,0.003698598127812147
1789741091901686800,7.823686767578125,-0.2592776417732239,-0.4730149507522583,0.012136558070778847
1789741091911764000,7.833763916015625,-0.28717878460884094,-0.3668197989463806,0.03086790069937706
1789741091921842000,7.843842041015625,-0.31371450424194336,-0.27102911472320557,0.016697486862540245
1789741091931920000,7.853919921875,-0.3190581500530243,-0.2415577620267868,-0.004564658273011446
1789741091941996800,7.863996826171875,-0.3072475492954254,-0.20976760983467102,-0.007925833575427532
1789741091952075000,7.874074951171875,-0.2910158634185791,-0.18739093840122223,0.014432734809815884
1789741091962152000,7.88415185546875,-0.2682277262210846,-0.16629283130168915,0.05301395058631897
1789741091972230000,7.89422998046875,-0.26174744963645935,-0.15796300768852234,0.08612849563360214
1789741091982307000,7.90430712890625,-0.28973275423049927,-0.11623206734657288,0.09482824057340622
1789741091992385000,7.914385009765625,-0.30608323216438293,-0.109273761510849,0.08006633818149567
1789741092002462000,7.9244619140625,-0.32712939381599426,-0.0958453044295311,0.04737230762839317
1789741092012540000,7.934539794921875,-0.3522648513317108,-0.11199231445789337,0.008107993751764297
1789741092022616800,7.944616943359375,-0.35810354351997375,-0.10337086021900177,0.02905215695500374
1789741092032694800,7.95469482421875,-0.3488674461841583,-0.17935191094875336,0.04162254557013512
1789741092042771700,7.964771728515625,-0.34636619687080383,-0.2947152554988861,0.04735579714179039
1789741092052850000,7.974849853515625,-0.356472373008728,-0.3025481402873993,0.07862130552530289
1789741092062927000,7.984927001953125,-0.37043532729148865,-0.34885677695274353,0.08312764018774033
1789741092073005000,7.995005126953125,-0.37859418988227844,-0.43982210755348206,0.04980484023690224
1789741092083082000,8.00508203125,-0.3862853944301605,-0.41267916560173035,0.020123111084103584
1789741092093160000,8.015159912109375,-0.3932495415210724,-0.45288917422294617,-0.01594887301325798
1789741092103236900,8.02523681640625,-0.4101209342479706,-0.52452552318573,-0.014371749013662338
1789741092113314800,8.035314697265624,-0.4332236051559448,-0.5547052621841431,0.020804613828659058
1789741092123391700,8.045391845703126,-0.44586774706840515,-0.6896061301231384,0.05407921224832535
1789741092133469700,8.0554697265625,-0.46894538402557373,-0.7488648891448975,0.07030585408210754
1789741092143547000,8.065546875,-0.4781053364276886,-0.6700286865234375,0.0832621306180954
1789741092153625000,8.075625,-0.4910237789154053,-0.724539577960968,0.02028423175215721
1789741092163702000,8.085701904296876,-0.4844191372394562,-0.6258636116981506,-0.05914347991347313
1789741092173780000,8.095780029296876,-0.45822614431381226,-0.519806981086731,-0.08396946638822556
1789741092183857000,8.10585693359375,-0.4596448242664337,-0.4424770176410675,-0.05235002189874649
1789741092193934800,8.115934814453125,-0.45059114694595337,-0.36342349648475647,-0.015267635695636272
1789741092204012800,8.1260126953125,-0.44900548458099365,-0.39326155185699463,0.026914704591035843
1789741092214090000,8.136090087890626,-0.4367155432701111,-0.35162752866744995,0.029051359742879868
1789741092224168000,8.14616796875,-0.4206143319606781,-0.3382941484451294,-0.005181446205824614
1789741092234244900,8.156244873046875,-0.40185847878456116,-0.2755117416381836,-0.0220286026597023
1789741092244323000,8.166322998046875,-0.3904915750026703,-0.25746455788612366,-0.03877456113696098
1789741092254400000,8.17639990234375,-0.3647715747356415,-0.15948019921779633,-0.053820088505744934
1789741092264478000,8.18647802734375,-0.340187132358551,-0.13885802030563354,-0.060267068445682526
1789741092274555000,8.196554931640625,-0.32321053743362427,-0.11985929310321808,-0.024042218923568726
1789741092284632800,8.2066328125,-0.282356858253479,-0.16894428431987762,-0.004442685283720493
1789741092294710000,8.2167099609375,-0.2799839675426483,-0.3562276065349579,-0.03716787323355675
1789741092304788000,8.2267880859375,-0.291401743888855,-0.3171321451663971,-0.04242894798517227
1789741092314865000,8.236864990234375,-0.31820034980773926,-0.41656073927879333,-0.07587692141532898
1789741092324942800,8.24694287109375,-0.3598921298980713,-0.4422623813152313,-0.11667361855506897
1789741092335019800,8.257019775390624,-0.3870220184326172,-0.43325474858283997,-0.14561311900615692
1789741092345098000,8.267097900390626,-0.4064905345439911,-0.5033462047576904,-0.1142706498503685
1789741092355175000,8.2771748046875,-0.4091246426105499,-0.5812836289405823,-0.0523015521466732
1789741092365252900,8.2872529296875,-0.37455204129219055,-0.7008630037307739,0.01417520735412836
1789741092375330000,8.297330078125,-0.3457227945327759,-0.837875485420227,0.028241490945219994
1789741092385408000,8.307407958984374,-0.3393189311027527,-0.7958869934082031,0.046239934861660004
1789741092395485000,8.31748486328125,-0.35497087240219116,-0.8461368680000305,-0.017011474817991257
1789741092405563000,8.32756298828125,-0.39752498269081116,-0.8504621386528015,-0.052915945649147034
1789741092415639800,8.337639892578125,-0.425963819026947,-0.753454327583313,-0.05742334574460983
1789741092425717800,8.3477177734375,-0.4023128151893616,-0.7924094796180725,-0.08521290123462677
1789741092435795000,8.357794921875,-0.39311185479164124,-0.8508365750312805,-0.12705542147159576
1789741092445873000,8.367872802734375,-0.3671228885650635,-0.7478065490722656,-0.09023375809192657
1789741092455949800,8.37794970703125,-0.3503987491130829,-0.8766023516654968,-0.13430027663707733
1789741092466028000,8.388028076171874,-0.368694931268692,-0.8023422360420227,-0.10904845595359802
1789741092476106000,8.39810595703125,-0.38708752393722534,-0.6895509958267212,-0.03355689346790314
1789741092486183000,8.408182861328125,-0.4300893247127533,-0.8688943982124329,-0.11455214768648148
1789741092496260900,8.4182607421875,-0.4241054654121399,-0.7004081606864929,-0.05820072069764137
1789741092506337800,8.428337890625,-0.4077776372432709,-0.7265774607658386,-0.030905185267329216
1789741092516415700,8.438415771484374,-0.41553249955177307,-0.759055495262146,-0.04285825043916702
1789741092526493000,8.448492919921875,-0.41633808612823486,-0.6076595783233643,0.010429738089442253
1789741092536571000,8.45857080078125,-0.39866936206817627,-0.5618481636047363,0.013850567862391472
1789741092546647800,8.468647705078125,-0.32130372524261475,-0.4524020850658417,0.018970228731632233
1789741092556726000,8.47872607421875,-0.25885260105133057,-0.402986079454422,0.01209687627851963
1789741092566803000,8.488802978515626,-0.2145935297012329,-0.3750641644001007,0.002769421087577939
1789741092576880600,8.498880615234375,-0.22764433920383453,-0.3695703148841858,-0.05101125314831734
1789741092586957600,8.50895751953125,-0.251720130443573,-0.24400733411312103,-0.05342807248234749
1789741092597035800,8.519035888671874,-0.2523401081562042,-0.24353861808776855,-0.058989282697439194
1789741092607113000,8.529113037109376,-0.26840561628341675,-0.3103453516960144,-0.07611820101737976
1789741092617191000,8.53919091796875,-0.2716243267059326,-0.26517733931541443,-0.032109733670949936
1789741092627267800,8.549267822265625,-0.2598179876804352,-0.2942870259284973,0.004803809802979231
1789741092637345800,8.559345703125,-0.1851661205291748,-0.38424620032310486,-0.0004950816510245204
1789741092647422700,8.569422607421876,-0.145212322473526,-0.4692055583000183,-0.014335263520479202
1789741092657500700,8.579500732421875,-0.1553453803062439,-0.5108321309089661,-0.009771137498319149
1789741092667577900,8.589577880859375,-0.1937023550271988,-0.5082986354827881,-0.039922915399074554
1789741092677655800,8.59965576171875,-0.22359900176525116,-0.49626249074935913,-0.07739918678998947
1789741092687732700,8.609732666015624,-0.22831013798713684,-0.5610673427581787,-0.09669032692909241
1789741092697811000,8.61981103515625,-0.24436473846435547,-0.6660003662109375,-0.07831664383411407
1789741092707887900,8.629887939453125,-0.24776852130889893,-0.6543349623680115,0.026128273457288742
1789741092717965800,8.6399658203125,-0.1895291805267334,-0.660870373249054,0.044731784611940384
1789741092728043800,8.650043701171874,-0.20152272284030914,-0.7813831567764282,0.0217116866260767
1789741092738120700,8.66012060546875,-0.23694249987602234,-0.677314817905426,0.006385994143784046
1789741092748198700,8.67019873046875,-0.27848461270332336,-0.567785918712616,0.01330089196562767
1789741092758275800,8.68027587890625,-0.30436521768569946,-0.5843300223350525,-0.0835670679807663
1789741092768353800,8.690353759765625,-0.3292393982410431,-0.48784610629081726,-0.14031769335269928
1789741092778430700,8.7004306640625,-0.34987330436706543,-0.497504323720932,-0.11668667197227478
1789741092788509000,8.710509033203126,-0.3471100330352783,-0.5136407017707825,-0.046551257371902466
1789741092798585900,8.7205859375,-0.33333560824394226,-0.5883146524429321,-0.003117230022326112
1789741092808663800,8.730663818359375,-0.3063194453716278,-0.5617157816886902,0.027632426470518112
1789741092818740700,8.74074072265625,-0.2816159725189209,-0.6706987619400024,-0.033004820346832275
1789741092828818700,8.750818603515626,-0.3215239644050598,-0.6906916499137878,-0.03605973348021507
1789741092838895900,8.760895751953125,-0.40771186351776123,-0.6597728729248047,0.08370395004749298
1789741092848973800,8.770973876953125,-0.39214327931404114,-0.6981143951416016,0.08742065727710724
1789741092859050800,8.78105078125,-0.22385573387145996,-0.6983527541160583,-0.04783783107995987
1789741092869128700,8.791128662109376,-0.18942078948020935,-0.8787864446640015,-0.21040436625480652
1789741092879205600,8.80120556640625,-0.30586299300193787,-0.6094819903373718,-0.054190002381801605
1789741092889283600,8.81128369140625,-0.36889442801475525,-0.4466395378112793,0.12252485007047653
1789741092899360800,8.82136083984375,-0.33640971779823303,-0.46317538619041443,0.07914967834949493
1789741092909439000,8.83143896484375,-0.26210084557533264,-0.5011829733848572,-0.09116186946630478
1789741092919516000,8.841515869140625,-0.26781201362609863,-0.508895754814148,-0.10347872227430344
1789741092929593900,8.85159375,-0.28742164373397827,-0.36479872465133667,0.03152330592274666
1789741092939670800,8.8616708984375,-0.24459430575370789,-0.48253920674324036,0.06025295332074165
1789741092949748700,8.871748779296874,-0.12721627950668335,-0.48348358273506165,0.04193013906478882
1789741092959825700,8.88182568359375,-0.08066581934690475,-0.49418309330940247,0.016688166186213493
1789741092969903600,8.891903564453125,-0.0741003230214119,-0.4803333282470703,-0.03333798423409462
1789741092979980800,8.901980712890625,-0.10591418296098709,-0.38505420088768005,-0.02141501009464264
1789741092990058800,8.912058837890624,-0.10326007753610611,-0.2601977586746216,-0.006292250473052263
1789741093000135700,8.9221357421875,-0.08305733650922775,-0.3216525912284851,-0.028969598934054375
1789741093010214000,8.9322138671875,-0.01727406121790409,-0.2442624717950821,0.014189855195581913
1789741093020291800,8.942291748046875,0.025303758680820465,-0.11403069645166397,0.07312268018722534
1789741093030368800,8.95236865234375,0.08199713379144669,-0.03994954749941826,0.08765128999948502
1789741093040446700,8.96244677734375,0.13403822481632233,-0.07014260441064835,0.045405030250549316
1789741093050523600,8.972523681640626,0.16747820377349854,0.11553937941789627,0.017661018297076225
1789741093060601600,8.9826015625,0.16458415985107422,0.15072984993457794,-0.010964234359562397
1789741093070678800,8.9926787109375,0.18002009391784668,0.3085405230522156,0.0011265170760452747
1789741093080756700,9.0027568359375,0.19775621592998505,0.2857995331287384,0.022707976400852203
1789741093090833700,9.012833740234376,0.22225970029830933,0.36519208550453186,0.05709018558263779
1789741093100911900,9.022911865234375,0.2749737799167633,0.4240993559360504,0.09137571603059769
1789741093110988800,9.03298876953125,0.3311622142791748,0.3786093592643738,0.061280932277441025
1789741093121066800,9.043066650390625,0.34254828095436096,0.4887712895870209,0.06271211802959442
1789741093131144000,9.05314404296875,0.35227736830711365,0.539387583732605,0.067768394947052
1789741093141222000,9.063221923828126,0.35052764415740967,0.5522743463516235,0.04090588912367821
1789741093151298800,9.073298828125,0.37897101044654846,0.5732715129852295,0.0068086376413702965
1789741093161376800,9.083376708984375,0.39600858092308044,0.5505768656730652,-0.029284385964274406
1789741093171453700,9.09345361328125,0.41026875376701355,0.5539529323577881,-0.03008999116718769
1789741093181531600,9.10353173828125,0.4331682026386261,0.608795166015625,0.003093527862802148
1789741093191608600,9.113608642578125,0.4378252923488617,0.512641191482544,0.04782531410455704
1789741093201686800,9.123686767578125,0.412630170583725,0.5046011209487915,0.13406512141227722
1789741093211764000,9.133763916015624,0.42520296573638916,0.5204468965530396,0.17330600321292877
1789741093221842000,9.143842041015626,0.4367962181568146,0.5326487421989441,0.10250480473041534
1789741093231918800,9.1539189453125,0.46055349707603455,0.5057817101478577,0.0014703312190249562
1789741093241996800,9.163996826171875,0.44224080443382263,0.49960049986839294,-0.0664176419377327
1789741093252073700,9.17407373046875,0.41686326265335083,0.5992767810821533,-0.03874260187149048
1789741093262151700,9.184151611328126,0.38001498579978943,0.48803943395614624,-0.03700222447514534
1789741093272228600,9.194228515625,0.35750406980514526,0.5916478633880615,0.0029049760196357965
1789741093282306600,9.204306640625,0.3825143575668335,0.6674597859382629,0.0558619350194931
1789741093292384800,9.214384765625,0.38408616185188293,0.48985493183135986,0.003552923211827874
1789741093302462000,9.2244619140625,0.38088661432266235,0.5909727811813354,0.03199921175837517
1789741093312540000,9.234539794921876,0.3411746323108673,0.5544461607933044,0.031627967953681946
1789741093322616800,9.244616943359375,0.3084784746170044,0.5794657468795776,0.06654386967420578
1789741093332694800,9.25469482421875,0.2906246483325958,0.5385340452194214,0.07404333353042603
1789741093342771700,9.264771728515624,0.3027971386909485,0.4705965518951416,0.04096820577979088
1789741093352849700,9.274849609375,0.2814418077468872,0.45736008882522583,0.02642175368964672
1789741093362926800,9.2849267578125,0.24109011888504028,0.49770087003707886,0.012315788306295872
1789741093373004800,9.2950048828125,0.22477132081985474,0.5661818981170654,0.00794234499335289
1789741093383081700,9.305081787109375,0.22288154065608978,0.541407585144043,0.011547733098268509
1789741093393160000,9.315159912109374,0.21897628903388977,0.5350152254104614,0.006587861571460962
1789741093403236900,9.32523681640625,0.23891031742095947,0.5792809128761292,0.016522783786058426
1789741093413314800,9.335314697265625,0.22638653218746185,0.48367026448249817,-0.003665574826300144
1789741093423391700,9.345391845703125,0.2346055805683136,0.6121640801429749,0.03190254047513008
1789741093433469700,9.3554697265625,0.2151234894990921,0.4432589113712311,0.0142905218526721
1789741093443547000,9.365546875,0.1893792450428009,0.5493946671485901,0.06534891575574875
1789741093453624800,9.375624755859375,0.1686318963766098,0.5415279865264893,0.06893885135650635
1789741093463701800,9.38570166015625,0.176761195063591,0.529000461101532,0.05032682046294212
1789741093473779700,9.39577978515625,0.19800975918769836,0.4807692766189575,0.03464985638856888
1789741093483856600,9.405856689453126,0.20633798837661743,0.5765224695205688,0.05829579755663872
1789741093493934800,9.415934814453125,0.22415028512477875,0.6080388426780701,0.07285050302743912
1789741093504011800,9.42601171875,0.2307645082473755,0.5260584950447083,0.010693124495446682
1789741093514089700,9.43608984375,0.24060088396072388,0.5539880990982056,-0.08263975381851196
1789741093524167000,9.4461669921875,0.24165257811546326,0.5752265453338623,-0.0907200500369072
1789741093534244900,9.456244873046876,0.22597773373126984,0.5636526942253113,-0.02484383061528206
1789741093544321800,9.46632177734375,0.20061539113521576,0.45802828669548035,0.04206329584121704
1789741093554399700,9.476399658203125,0.21318738162517548,0.4339067041873932,0.09042150527238846
1789741093564476700,9.4864765625,0.24672242999076843,0.48354190587997437,0.059792228043079376
1789741093574558000,9.496557861328125,0.2554109990596771,0.5056530833244324,0.006205698009580374
1789741093584636000,9.506635986328124,0.24481001496315002,0.4824601113796234,-0.04264919459819794
1789741093594713000,9.516713134765626,0.22019441425800323,0.5328798890113831,-0.010834804736077785
1789741093604791000,9.526791015625,0.1920298933982849,0.3904029130935669,0.01822694018483162
1789741093614868000,9.536867919921875,0.19109299778938293,0.38514769077301025,-0.01805143803358078
1789741093624946200,9.5469462890625,0.1575361043214798,0.4793628752231598,-0.04433071240782738
1789741093635023000,9.557023193359376,0.11288021504878998,0.39564958214759827,-0.05541079491376877
1789741093645101000,9.56710107421875,0.10912036150693893,0.3702044188976288,0.0015840481501072645
1789741093655178000,9.577177978515625,0.1106889620423317,0.3105802536010742,0.04124011471867561
1789741093665256000,9.587255859375,0.10056362301111221,0.32787615060806274,0.04679786413908005
1789741093675333000,9.5973330078125,0.07222466170787811,0.2818564474582672,-0.01986505091190338
1789741093685411000,9.6074111328125,0.040946632623672485,0.27458813786506653,-0.01079618837684393
1789741093695488000,9.617488037109375,-0.005635781679302454,0.24748143553733826,0.01375016663223505
1789741093705566000,9.62756591796875,-0.029801305383443832,0.15872493386268616,0.051963333040475845
1789741093715643000,9.637642822265626,-0.021201426163315773,0.03327593207359314,0.02455993741750717
1789741093725721000,9.64772119140625,-0.048778459429740906,0.11384321004152298,-0.0149840097874403
1789741093735798000,9.657798095703125,-0.07991454005241394,-0.00443842401728034,-0.021744709461927414
1789741093745876000,9.6678759765625,-0.11774846911430359,-0.12093999981880188,-0.03527703136205673
1789741093755953200,9.677953125,-0.14853434264659882,-0.15928739309310913,0.00026258768048137426
1789741093766031000,9.688031005859376,-0.20268626511096954,-0.1774461567401886,0.02809581719338894
1789741093776108000,9.69810791015625,-0.2353464663028717,-0.19078193604946136,0.04039269685745239
1789741093786186000,9.70818603515625,-0.23840191960334778,-0.38433969020843506,0.015558453276753426
1789741093796263000,9.718262939453124,-0.2846498489379883,-0.33911415934562683,0.035416048020124435
1789741093806340900,9.7283408203125,-0.293303519487381,-0.2588408887386322,0.11788269132375717
1789741093816418000,9.73841796875,-0.319718599319458,-0.5373910069465637,-0.05609389394521713
1789741093826496000,9.74849609375,-0.33041438460350037,-0.3430846631526947,-0.09594011306762695
1789741093836573200,9.7585732421875,-0.32867321372032166,-0.339107483625412,-0.05444326624274254
1789741093846651100,9.768651123046874,-0.33921828866004944,-0.4746094048023224,-0.032050877809524536
1789741093856729000,9.77872900390625,-0.3752484619617462,-0.41418731212615967,0.004797684494405985
1789741093866806000,9.788805908203125,-0.3692001402378082,-0.3429142236709595,0.03458061441779137
1789741093876884000,9.798884033203125,-0.3506355285644531,-0.4259049594402313,0.012271313928067684
1789741093886961000,9.8089609375,-0.3463323712348938,-0.4696311354637146,0.027363980188965797
1789741093897038800,9.819038818359376,-0.3652879595756531,-0.4908147156238556,0.01992523856461048
1789741093907116000,9.829115966796875,-0.36854445934295654,-0.42513930797576904,-0.025829199701547623
1789741093917194200,9.8391943359375,-0.3655596077442169,-0.4366646707057953,-0.06390281766653061
1789741093927271200,9.849271240234375,-0.33055049180984497,-0.3939236104488373,-0.04932307451963425
1789741093937349000,9.85934912109375,-0.286278635263443,-0.5071966052055359,0.002365153282880783
1789741093947426000,9.869426025390625,-0.250867635011673,-0.46322011947631836,0.037936728447675705
1789741093957504000,9.87950390625,-0.24484384059906006,-0.5090592503547668,0.021395303308963776
1789741093967581000,9.889580810546875,-0.24274447560310364,-0.423834890127182,0.02496393956243992
1789741093977659000,9.899658935546874,-0.24549710750579834,-0.4772416651248932,0.02689393237233162
1789741093987736000,9.909736083984376,-0.23021136224269867,-0.4382644295692444,0.005636846646666527
1789741093997814000,9.91981396484375,-0.19797833263874054,-0.3880675733089447,0.004126035608351231
1789741094007891000,9.929890869140625,-0.15993453562259674,-0.4269348084926605,0.008668056689202785
1789741094017969200,9.93996923828125,-0.14983609318733215,-0.4455071687698364,0.00495161535218358
1789741094028046000,9.950046142578126,-0.1271856427192688,-0.26747938990592957,-0.02695092372596264
1789741094038124000,9.9601240234375,-0.09679605066776276,-0.28869783878326416,-0.06335154175758362
1789741094048201000,9.970200927734375,-0.09030912071466446,-0.374896377325058,-0.10435463488101959
1789741094058279000,9.98027880859375,-0.10951477289199829,-0.231588214635849,-0.012591158971190453
1789741094068356000,9.990356201171876,-0.12139726430177689,-0.1875256896018982,0.07353626936674118
1789741094078434000,10.00043408203125,-0.11884009838104248,-0.27957597374916077,0.0229167677462101
1789741094088511000,10.010510986328125,-0.08083412796258926,-0.17145377397537231,0.0105929896235466
1789741094098589000,10.0205888671875,-0.04109816625714302,-0.11926247924566269,0.052071988582611084
1789741094108665900,10.030665771484376,-0.03308045491576195,-0.21748624742031097,0.017883924767374992
1789741094118744000,10.040744140625,-0.008756740018725395,-0.0517665259540081,0.022410767152905464
1789741094128821200,10.0508212890625,0.0028700886759907007,-0.045034587383270264,-0.018629344180226326
1789741094138899200,10.060899169921875,0.029982399195432663,0.006571882404386997,0.010897921398282051
1789741094148977200,10.07097705078125,0.0072808158583939075,-0.07561752945184708,0.010187390260398388
1789741094159054000,10.08105419921875,0.00532419141381979,0.12311314046382904,0.04691131412982941
1789741094169132000,10.091132080078125,0.012341088615357876,-0.015354988165199757,0.011871573515236378
1789741094179209000,10.101208984375,0.03802434727549553,0.009369267150759697,-0.005890912376344204
1789741094189287000,10.111286865234375,0.04433896765112877,-0.02455088309943676,0.023979634046554565
1789741094199363800,10.12136376953125,0.03187244385480881,-0.06491801142692566,0.05679430812597275
1789741094209442000,10.131442138671876,0.017192834988236427,-0.08764995634555817,0.062185078859329224
1789741094219519200,10.141519287109375,0.02016492374241352,0.04295625537633896,0.09790711849927902
1789741094229597200,10.15159716796875,0.015749135985970497,-0.07670170068740845,0.05551838502287865
1789741094239674000,10.161674072265624,0.022697055712342262,-0.14331720769405365,-0.031260449439287186
1789741094249752000,10.171751953125,0.030179740861058235,-0.00959696713835001,-0.008739695884287357
1789741094259829000,10.1818291015625,0.024226775392889977,-0.06583094596862793,-0.008828379213809967
1789741094269907000,10.191906982421875,0.021807027980685234,-0.14010198414325714,-0.06019489839673042
1789741094279983900,10.20198388671875,0.018873289227485657,0.003150519449263811,-0.008077899925410748
1789741094290061800,10.212061767578126,-0.0022540995851159096,-0.07480020821094513,0.04083637893199921
1789741094300139000,10.222138916015625,-0.017423465847969055,-0.10175511986017227,0.07481298595666885
1789741094310217200,10.23221728515625,-0.009677394293248653,-0.08610852062702179,0.10406648367643356
1789741094320294100,10.242294189453125,-0.008700813166797161,-0.1583036184310913,0.06504584848880768
1789741094330372000,10.2523720703125,-0.007838215678930283,-0.19563181698322296,-0.13574957847595215
1789741094340449000,10.262448974609375,0.015737151727080345,-0.10107575356960297,-0.15766499936580658
1789741094350527000,10.27252685546875,-0.005751895252615213,0.035359855741262436,0.0029553098138421774
1789741094360604200,10.282604248046875,0.012022308073937893,0.023726368322968483,-0.0485004223883152
1789741094370682000,10.29268212890625,0.0020029633305966854,0.028624454513192177,-0.0133863789960742
1789741094380759000,10.302759033203126,0.008780442178249359,0.018917232751846313,0.06919771432876587
1789741094390837000,10.3128369140625,0.02215110883116722,-0.05927557498216629,0.09245749562978745
1789741094400914000,10.322913818359375,0.03852875158190727,-0.09444181621074677,0.023789752274751663
1789741094410991900,10.332991943359374,0.04332989826798439,-0.03110199235379696,0.020623786374926567
1789741094421068800,10.34306884765625,0.02400599978864193,-0.00808935146778822,-0.01130911335349083
1789741094431147000,10.35314697265625,0.006976949516683817,-0.11248473078012466,-0.07574030011892319
1789741094441225000,10.363224853515625,0.02622814103960991,0.04615577682852745,-0.03087748773396015
1789741094451302100,10.37330224609375,0.049312952905893326,-0.03543255850672722,0.012840431183576584
1789741094461380000,10.383380126953124,0.03891810402274132,-0.12623117864131927,0.006434197071939707
1789741094471457000,10.39345703125,0.05476870760321617,-0.010247045196592808,0.03470365330576897
1789741094481535000,10.403534912109375,0.044685713946819305,-0.03893674537539482,-0.0015363775892183185
1789741094491612000,10.41361181640625,0.017533453181385994,-0.04729720950126648,-0.032081238925457
1789741094501689900,10.42368994140625,0.022284001111984253,0.07252906262874603,0.0031350732315331697
1789741094511766800,10.433766845703126,0.027758127078413963,-0.0773182213306427,0.003166232258081436
1789741094521845000,10.443844970703125,0.03958176448941231,-0.06884351372718811,0.03320349380373955
1789741094531922200,10.453922119140625,0.02203472889959812,-0.0877160057425499,0.025010811164975166
1789741094542000000,10.464000244140625,0.008305600844323635,-0.0701489970088005,0.0021252024453133345
1789741094552077000,10.4740771484375,0.026324547827243805,0.04055222123861313,-0.01643516682088375
1789741094562155000,10.484155029296875,0.04754408448934555,0.03964701294898987,-0.01110351737588644
1789741094572229400,10.4942294921875,0.04800640791654587,-0.055742889642715454,-0.0629640519618988
1789741094582307300,10.504307373046874,0.04526707902550697,0.02539670281112194,-0.01643436774611473
1789741094592384300,10.51438427734375,0.05088874697685242,0.012917130254209042,0.06449856609106064
1789741094602462500,10.52446240234375,0.026971163228154182,-0.05699723958969116,0.08485550433397293
1789741094612539600,10.53453955078125,0.013079849071800709,0.043891824781894684,0.05007621645927429
1789741094622617600,10.54461767578125,0.0468900091946125,0.10584787279367447,0.057741325348615646
1789741094632694500,10.554694580078126,0.029643911868333817,-0.04722743481397629,-0.058938950300216675
1789741094642772500,10.5647724609375,0.05053774267435074,0.12225320935249329,-0.043286487460136414
1789741094652849400,10.574849365234375,0.05167917162179947,-0.07301082462072372,-0.00025592977181077003
1789741094662927400,10.58492724609375,0.02936694398522377,-0.04344947263598442,0.0075718993321061134
1789741094673004300,10.59500439453125,0.04158632457256317,0.009060073643922806,0.05696821212768555
1789741094683082200,10.605082275390625,0.043296873569488525,0.018989402800798416,0.09253765642642975
1789741094693159400,10.615159423828125,0.04929511249065399,-0.010613495483994484,0.004201935604214668
1789741094703237600,10.625237548828125,0.07253652065992355,0.02075720950961113,-0.017062872648239136
1789741094713315600,10.635315673828124,0.06390947103500366,0.029802104458212852,-0.037213150411844254
1789741094723392500,10.645392578125,0.037271205335855484,-0.04514563828706741,-0.08837779611349106
1789741094733470500,10.655470458984375,0.041975680738687515,0.10699409246444702,-0.04446893185377121
1789741094743547400,10.66554736328125,0.043601807206869125,0.07909534871578217,-0.01798858866095543
1789741094753625300,10.675625244140624,0.04814143106341362,0.021503694355487823,0.02424355410039425
1789741094763702300,10.685702392578126,0.04578053951263428,-0.00017124126316048205,0.056049421429634094
1789741094773780200,10.6957802734375,0.04003529995679855,0.04537813365459442,0.08837087452411652
1789741094783857400,10.705857421875,0.03526477888226509,-0.06045348942279816,0.0508623830974102
1789741094793935600,10.715935546875,0.03163702040910721,0.004020308144390583,0.02618260122835636
1789741094804012500,10.726012451171876,0.021273862570524216,0.06539711356163025,-0.029826872050762177
1789741094814090500,10.736090576171875,0.012777048163115978,-0.0023318638559430838,-0.09752309322357178
1789741094824167400,10.74616748046875,0.013170929625630379,0.08996371179819107,-0.0629051923751831
1789741094834245400,10.756245361328125,0.01044491771608591,0.07543909549713135,-0.048536643385887146
1789741094844322600,10.766322509765626,0.03906244784593582,0.05709417909383774,0.06082180514931679
1789741094854400500,10.776400390625,0.0459003783762455,-0.0025683525018393993,0.07021983712911606
1789741094864477400,10.7864775390625,0.03350549563765526,0.02190929278731346,0.02580389939248562
1789741094874555400,10.796555419921875,0.03821662813425064,0.07754672318696976,-0.03766748309135437
1789741094884632300,10.80663232421875,-0.02004028670489788,-0.025421736761927605,-0.11333534866571426
1789741094894710500,10.81671044921875,-0.02478950284421444,0.14384105801582336,-0.10447926819324493
1789741094904787500,10.826787353515625,-0.012164787389338017,0.1019388809800148,-0.1238979771733284
1789741094914865400,10.836865478515625,-0.0059566921554505825,0.044438570737838745,-0.07295623421669006
1789741094924942600,10.846942626953124,0.02401132695376873,0.07072050869464874,-0.046170689165592194
1789741094935020500,10.8570205078125,0.049078330397605896,-0.013827398419380188,-0.00666482700034976
1789741094945097500,10.867097412109375,0.016868729144334793,-0.035891156643629074,-0.008560997433960438
1789741094955175400,10.877175537109375,-0.006711432244628668,-0.017132647335529327,0.038180675357580185
1789741094965252400,10.88725244140625,-0.033616017550230026,-0.07911772280931473,0.025416942313313484
1789741094975330300,10.897330322265624,-0.04837658628821373,-0.09417017549276352,-0.02045281045138836
1789741094985407200,10.9074072265625,-0.06190597638487816,-0.07598930597305298,0.043467581272125244
1789741094995485400,10.9174853515625,-0.11642114818096161,-0.16080646216869354,0.000928377965465188
1789741095005562600,10.927562744140625,-0.10016308724880219,-0.09228625148534775,0.08120377361774445
1789741095015640600,10.937640625,-0.09855267405509949,-0.1692047417163849,0.16502943634986877
1789741095025718500,10.947718505859376,-0.0810951218008995,-0.18971693515777588,0.14571325480937958
1789741095035795500,10.95779541015625,-0.053164150565862656,-0.16084827482700348,0.09608791768550873
1789741095045873400,10.967873291015625,-0.0325118713080883,-0.09196054935455322,0.060986388474702835
1789741095055950300,10.977950439453124,-0.06805681437253952,-0.16862550377845764,-0.01611984707415104
1789741095066028300,10.9880283203125,-0.09020392596721649,-0.038294125348329544,-0.01498454250395298
1789741095076105500,10.99810546875,-0.09977106750011444,-0.10244328528642654,-0.03818946331739426
1789741095086183400,11.008183349609375,-0.1091746911406517,-0.13855335116386414,-0.04098125547170639
1789741095096260600,11.018260498046875,-0.08817806094884872,-0.09875427186489105,0.08621717989444733
1789741095106338600,11.028338623046874,-0.09209876507520676,-0.17960810661315918,0.06306897848844528
1789741095116415500,11.03841552734375,-0.06743975728750229,-0.10692698508501053,0.049433063715696335
1789741095126493400,11.048493408203125,-0.057794857770204544,-0.07969748973846436,-0.005409678909927607
1789741095136570400,11.0585703125,-0.04104836657643318,0.0043678502552211285,-0.0704166442155838
1789741095146648300,11.0686484375,-0.050822433084249496,-0.07340763509273529,-0.09907545149326324
1789741095156725500,11.0787255859375,-0.07734139263629913,-0.033068470656871796,-0.02563532255589962
1789741095166803500,11.088803466796875,-0.07406383752822876,0.05788007751107216,0.022814501076936722
1789741095176880400,11.09888037109375,-0.059179432690143585,-0.04232135787606239,0.005204082932323217
1789741095186958600,11.10895849609375,-0.04670731723308563,0.02323075383901596,0.051230695098638535
1789741095197035500,11.119035400390626,-0.05228317901492119,-0.10829558223485947,0.02237534709274769
1789741095207113500,11.129113525390625,-0.05692267045378685,-0.10402866452932358,0.044620729982852936
1789741095217190400,11.1391904296875,-0.055680837482213974,-0.05741455778479576,0.05070685222744942
1789741095227268400,11.149268310546875,-0.05982951074838638,-0.08691093325614929,-0.012654276564717293
1789741095237345500,11.159345458984374,-0.04728708788752556,-0.025243304669857025,-0.003516437951475382
1789741095247423500,11.169423583984376,-0.05125785991549492,-0.10439804196357727,-0.013902765698730946
1789741095257500400,11.17950048828125,-0.0418638251721859,-0.07956539839506149,-0.04086993634700775
1789741095267578400,11.189578369140625,-0.042267829179763794,-0.051965195685625076,-0.016654077917337418
1789741095277655300,11.1996552734375,-0.04980484023690224,-0.13046719133853912,-0.04186142981052399
1789741095287733500,11.2097333984375,-0.05236360430717468,-0.08997037261724472,0.02713015489280224
1789741095297810400,11.219810546875,-0.05723505839705467,-0.14273664355278015,0.10195645689964294
1789741095307888400,11.229888427734375,-0.044203147292137146,-0.19542169570922852,0.05474154278635979
1789741095317966300,11.23996630859375,-0.018564630299806595,-0.05344991013407707,0.03789438679814339
1789741095328043500,11.25004345703125,0.008021974004805088,-0.02298068255186081,0.03466556966304779
1789741095338121500,11.26012158203125,-0.010028133168816566,-0.17030835151672363,-0.04267742112278938
1789741095348198400,11.270198486328125,-0.010031594894826412,-0.022908776998519897,-0.0014514228096231818
1789741095358276400,11.2802763671875,-0.03471909835934639,-0.09050992876291275,0.012438559904694557
1789741095368353300,11.290353271484374,-0.045635662972927094,-0.060387443751096725,0.09036771208047867
1789741095378431500,11.300431396484376,-0.05030524730682373,-0.11609571427106857,0.11706776916980743
1789741095388508700,11.3105087890625,-0.041006822139024734,-0.06683602184057236,0.12042148411273956
1789741095398586600,11.320586669921875,-0.007938350550830364,-0.02472984790802002,0.1026853621006012
1789741095408663600,11.33066357421875,-0.0049196574836969376,-0.14109507203102112,0.01883227750658989
1789741095418741500,11.340741455078126,-0.0025358619168400764,-0.014670289121568203,0.021264808252453804
1789741095428818400,11.350818359375,-0.01859259232878685,-0.047922518104314804,-0.01985652931034565
1789741095438896400,11.360896484375,-0.027950940653681755,-0.09297174960374832,-0.07949802279472351
1789741095448973300,11.370973388671874,-0.041849713772535324,-0.054068028926849365,-0.11053130775690079
1789741095459051300,11.38105126953125,-0.03719424083828926,0.02137053571641445,-0.1350611448287964
1789741095469128400,11.39112841796875,-0.04821306839585304,-0.07237912714481354,-0.16160860657691956
1789741095479206400,11.401206298828125,-0.0331084169447422,0.05125466361641884,-0.1435936540365219
1789741095489283300,11.411283447265625,-0.006649646908044815,-0.007479754276573658,-0.07207339257001877
1789741095499361500,11.421361572265624,0.00010412959818495438,-0.08764143288135529,-0.07970201969146729
1789741095509438500,11.4314384765625,0.026910176500678062,0.019636550918221474,0.032352615147829056
1789741095519516400,11.441516357421875,-0.008322644978761673,-0.15346971154212952,0.03929201140999794
1789741095529593300,11.45159326171875,-0.03274276480078697,-0.077061228454113,0.006209160201251507
1789741095539671300,11.46167138671875,-0.039503999054431915,0.02088823728263378,-0.022277608513832092
1789741095549748500,11.47174853515625,-0.05699750408530235,-0.06380508095026016,-0.08830642700195312
1789741095559826400,11.481826416015625,-0.014178935438394547,0.02449788525700569,-0.09630150347948074
1789741095569903400,11.4919033203125,0.030709443613886833,-0.008684035390615463,-0.08630745857954025
1789741095579981600,11.501981689453125,0.047676440328359604,-0.06034722924232483,-0.00663366774097085
1789741095590059800,11.512059814453124,0.013832724653184414,-0.06909278780221939,0.050216831266880035
1789741095600136700,11.52213671875,0.0001294296234846115,-0.0445842444896698,0.09574969857931137
1789741095610214700,11.532214599609375,-0.039574574679136276,-0.07488223165273666,0.06986670196056366
1789741095620291600,11.54229150390625,-0.015574698336422443,0.04387930780649185,-0.03669276833534241
1789741095630369500,11.55236962890625,0.004837099462747574,0.004491953644901514,-0.10271865874528885
1789741095640446700,11.56244677734375,0.016884706914424896,0.07431710511445999,-0.11524377018213272
1789741095650524700,11.572524658203125,0.022102639079093933,-0.044614072889089584,-0.07724631577730179
1789741095660601600,11.5826015625,-0.022485600784420967,-0.07952651381492615,-0.053815294057130814
1789741095670679600,11.592679443359375,-0.033679667860269547,0.08310926705598831,0.03874819353222847
1789741095680756500,11.602756591796876,-0.03701500967144966,0.037997983396053314,0.11100694537162781
1789741095690834700,11.612834716796876,-0.010439325124025345,-0.11154117435216904,0.06909438222646713
1789741095700911900,11.622911865234375,-0.013064935803413391,-0.06007718667387962,0.0480751171708107
1789741095710989800,11.63298974609375,-0.03592311218380928,-0.0596177913248539,0.0024975123815238476
1789741095721066800,11.643066650390624,-0.035776641219854355,0.030707845464348793,-0.04860055819153786
1789741095731144700,11.653144775390626,-0.04211869090795517,-0.058095525950193405,-0.09310517460107803
1789741095741221600,11.6632216796875,-0.00974610447883606,-0.1179380863904953,-0.034261032938957214
1789741095751299600,11.673299560546875,-0.03525306284427643,-0.18983225524425507,0.0006764429272152483
1789741095761376500,11.68337646484375,-0.0395311638712883,-0.09402556717395782,0.08291139453649521
1789741095771454500,11.693454345703126,-0.053947120904922485,-0.18107764422893524,0.08403551578521729
1789741095781531600,11.70353173828125,-0.07236074656248093,-0.14706695079803467,0.058583419770002365
1789741095791609900,11.71360986328125,-0.05109274387359619,-0.13516448438167572,0.029018601402640343
1789741095801686800,11.723686767578124,-0.04020867124199867,-0.1920139193534851,-0.04791319742798805
1789741095811764700,11.7337646484375,-0.006594253238290548,-0.11644032597541809,-0.0892087072134018
1789741095821841700,11.743841552734375,0.010119745507836342,-0.1356574296951294,-0.08905371278524399
1789741095831919600,11.753919677734375,0.0005989448982290924,-0.15267902612686157,-0.03633324056863785
1789741095841996500,11.76399658203125,-0.029931267723441124,-0.10401961207389832,0.05018593743443489
1789741095852074500,11.774074462890624,-0.030897995457053185,-0.0730382576584816,0.13819542527198792
1789741095862151700,11.784151611328125,-0.028497954830527306,-0.1667109578847885,0.06393450498580933
1789741095872229600,11.794229736328125,-0.0052208611741662025,-0.09896120429039001,0.017346499487757683
1789741095882306600,11.804306640625,0.018216554075479507,-0.08208049088716507,-0.03422561287879944
1789741095892384800,11.814384765625,0.05089487135410309,-0.04096554219722748,-0.013744307681918144
1789741095902462700,11.824462646484376,0.03236406669020653,-0.1224910244345665,-0.08138620108366013
1789741095912539600,11.83453955078125,0.041253697127103806,0.017788585275411606,-0.0009054747642949224
1789741095922617600,11.84461767578125,0.029622606933116913,-0.0642213299870491,-0.0005909554311074317
1789741095932694800,11.85469482421875,0.043650541454553604,0.038901593536138535,0.02496686950325966
1789741095942772700,11.864772705078124,0.04977234825491905,-0.05014412850141525,0.06859210878610611
1789741095952849700,11.874849609375,0.04493977874517441,-0.09543278068304062,-0.0036099147982895374
1789741095962927600,11.884927734375,0.045825280249118805,0.01890498213469982,-0.05425950884819031
1789741095973004500,11.895004638671875,0.08804570138454437,0.08708563446998596,-0.00324852392077446
1789741095983082500,11.90508251953125,0.08166077733039856,-0.10471176356077194,-0.09534729272127151
1789741095993159400,11.915159423828126,0.11533138900995255,0.14620248973369598,-0.03922942653298378
1789741096003237600,11.925237548828125,0.12234455347061157,-0.01606418751180172,0.019392605870962143
1789741096013314800,11.935314697265625,0.0960671454668045,-0.025651033967733383,-0.046915311366319656
1789741096023392800,11.945392822265624,0.14724697172641754,0.10812859982252121,-0.005274123977869749
1789741096033469700,11.9554697265625,0.11961108446121216,-0.042453717440366745,0.016998425126075745
1789741096043547600,11.965547607421875,0.1133049875497818,0.023261645808815956,0.05144800990819931
1789741096053624600,11.97562451171875,0.09421331435441971,0.05982551723718643,0.03351934254169464
1789741096063702500,11.98570263671875,0.10485237836837769,0.14606346189975739,-0.011591142043471336
1789741096073779500,11.995779541015626,0.1481732279062271,0.149173766374588,-0.04777764156460762
1789741096083857700,12.005857666015626,0.1612354964017868,0.011412178166210651,-0.09779766947031021
1789741096093934600,12.0159345703125,0.1347234547138214,0.09318134188652039,-0.0020354539155960083
1789741096104012800,12.0260126953125,0.11124476790428162,0.1261528730392456,-0.001793905277736485
1789741096114089700,12.03608984375,0.10884818434715271,0.06466261297464371,-0.029316609725356102
1789741096124167700,12.046167724609376,0.1350877732038498,0.19050629436969757,0.07400152087211609
1789741096134244600,12.05624462890625,0.11472392082214355,0.03556891158223152,0.02822844125330448
1789741096144322600,12.066322509765625,0.0917416363954544,0.07552538067102432,0.03548821806907654
1789741096154400500,12.076400390625,0.07107310742139816,0.08429091423749924,0.049919355660676956
1789741096164477700,12.086477783203126,0.07985168695449829,0.05979648977518082,0.05155720189213753
1789741096174555600,12.0965556640625,0.06526901572942734,0.061048705130815506,-0.0028610338922590017
1789741096184632600,12.106632568359375,0.06916575878858566,0.18557891249656677,0.002394714392721653
1789741096194710800,12.116710693359375,0.08053958415985107,0.12376854568719864,-0.03760010749101639
1789741096204787700,12.12678759765625,0.09991461038589478,0.09532518684864044,-0.07354559004306793
1789741096214865700,12.13686572265625,0.10974567383527756,0.0855117067694664,-0.021143101155757904
1789741096224942600,12.146942626953125,0.10043259710073471,0.14431776106357574,0.020000074058771133
1789741096235020500,12.1570205078125,0.056342367082834244,-0.022666962817311287,0.08390741795301437
1789741096245097700,12.16709765625,0.022884543985128403,0.12269396334886551,0.06960543990135193
1789741096255175700,12.17717578125,0.05001603066921234,0.18501459062099457,0.05975254625082016
1789741096265252600,12.187252685546875,0.050637878477573395,-0.019881563261151314,-0.13237614929676056
1789741096275330600,12.19733056640625,0.05994296073913574,0.2187643051147461,-0.1700337827205658
1789741096285407500,12.207407470703124,0.0579618364572525,0.05950354039669037,-0.0867849588394165
1789741096295485700,12.217485595703126,0.045645516365766525,0.13693735003471375,-0.04296877235174179
1789741096305562600,12.227562744140625,0.06208068132400513,-0.07060413062572479,0.020633639767766
1789741096315640600,12.237640625,0.003186472225934267,-0.02665957435965538,0.10115990787744522
1789741096325717800,12.2477177734375,-0.005017395596951246,0.02754800394177437,0.12801575660705566
1789741096335795700,12.257795654296874,0.018987540155649185,-0.060379453003406525,-0.005067196674644947
1789741096345872600,12.26787255859375,0.0072986590676009655,0.062429822981357574,0.021686919033527374
1789741096355950600,12.27795068359375,0.00999138131737709,0.0782412737607956,-0.05729338154196739
1789741096366027500,12.288027587890625,0.009184443391859531,0.1057027280330658,-0.126813605427742
