time,seconds_elapsed,z,y,x
1789741084141995500,0.06399560546875,-0.00804880727082491,-0.06132369488477707,0.03171061351895332
1789741084152073700,0.07407373046875,-0.01196471881121397,-0.044868823140859604,0.018672311678528786
1789741084162150700,0.084150634765625,-0.009630724787712097,-0.009654376655817032,-0.005632495973259211
1789741084172228600,0.094228515625,-0.013280801475048065,0.03653935715556145,-0.023324910551309586
1789741084182305500,0.104305419921875,-0.012117266654968262,0.08551542460918427,-0.02107533998787403
1789741084192383500,0.114383544921875,-0.0065613798797130585,0.11189296841621399,0.014898906461894512
1789741084202460400,0.12446044921875,-0.007751813158392906,0.09568070620298386,0.05653662979602814
1789741084212538400,0.134538330078125,0.010534250177443027,0.0679345652461052,0.07703471183776855
1789741084222616300,0.1446162109375,0.04588798061013222,0.0053588030859827995,0.06299079954624176
1789741084232693500,0.154693603515625,0.0715659111738205,-0.06199094280600548,0.017172181978821754
1789741084242771700,0.164771728515625,0.08671636879444122,-0.10879600048065186,-0.022585617378354073
1789741084252848600,0.1748486328125,0.09141258895397186,-0.0917629525065422,-0.03971906378865242
1789741084262926600,0.184926513671875,0.09209010004997253,-0.049034666270017624,-0.023623984307050705
1789741084273003500,0.19500341796875,0.09705796092748642,-0.011267844587564468,0.01606324128806591
1789741084283081500,0.20508154296875,0.12391433864831924,0.03554067388176918,0.06680577993392944
1789741084293158700,0.21515869140625,0.1729244887828827,0.07570460438728333,0.14214713871479034
1789741084303236600,0.225236572265625,0.18287380039691925,0.0832674503326416,0.1914595663547516
1789741084313313500,0.2353134765625,0.17416127026081085,0.09152857214212418,0.23395642638206482
1789741084323391500,0.2453916015625,0.16126731038093567,0.1600881963968277,0.31186264753341675
1789741084333468400,0.255468505859375,0.13397762179374695,0.17826880514621735,0.43275687098503113
1789741084343546600,0.265546630859375,0.06554530560970306,0.16976267099380493,0.46202924847602844
1789741084353623600,0.27562353515625,-0.08536431193351746,0.12159433215856552,0.4287426769733429
1789741084363701500,0.285701416015625,-0.27371692657470703,-0.0020146912429481745,0.3489024341106415
1789741084373778700,0.29577880859375,-0.4061167538166046,-0.09494490176439285,0.2491646707057953
1789741084383856600,0.305856689453125,-0.46179094910621643,-0.14473295211791992,0.17431439459323883
1789741084393933600,0.31593359375,-0.47831133008003235,-0.15168753266334534,0.10110276937484741
1789741084404011500,0.326011474609375,-0.47052451968193054,-0.1255882978439331,-0.00101081735920161
1789741084414088400,0.33608837890625,-0.463622123003006,-0.04889111965894699,-0.12687021493911743
1789741084424166400,0.34616650390625,-0.47004300355911255,0.01863492652773857,-0.22537067532539368
1789741084434243300,0.356243408203125,-0.47965890169143677,0.07562710344791412,-0.25591716170310974
1789741084444321500,0.366321533203125,-0.5168190598487854,0.08422219008207321,-0.25255995988845825
1789741084454399500,0.3763994140625,-0.5990273356437683,0.07907722890377045,-0.20380893349647522
1789741084464476700,0.3864765625,-0.7153382897377014,0.05883507430553436,-0.11394216120243073
1789741084474554600,0.3965546875,-0.796000063419342,0.05821376293897629,-0.0288403183221817
1789741084484631600,0.406631591796875,-0.7949870228767395,0.01888153702020645,0.04438276216387749
1789741084494709500,0.41670947265625,-0.7306346893310547,0.018907900899648666,0.12618549168109894
1789741084504786400,0.426786376953125,-0.6368027329444885,0.05591278895735741,0.2147025763988495
1789741084514864400,0.436864501953125,-0.558918833732605,0.11520887166261673,0.28665876388549805
1789741084524941600,0.446941650390625,-0.5180454254150391,0.1929854303598404,0.3185133635997772
1789741084535019500,0.45701953125,-0.5143678784370422,0.19724781811237335,0.3378010392189026
1789741084545096700,0.4670966796875,-0.4158671200275421,-0.19304296374320984,0.5663018822669983
1789741084555174700,0.477174560546875,-0.39089441299438477,-0.3345218002796173,0.7581485509872437
1789741084565251800,0.487251953125,-0.5167926549911499,-0.1249786987900734,0.6874626278877258
1789741084575329800,0.497329833984375,-0.7107264399528503,0.3332621157169342,0.4899229407310486
1789741084585406700,0.50740673828125,-0.8774736523628235,0.7495248317718506,0.4690394997596741
1789741084595484700,0.517484619140625,-0.9695774912834167,0.9644469618797302,0.7096286416053772
1789741084605561900,0.527561767578125,-0.8636755347251892,0.6516610980033875,1.3322192430496216
1789741084615639800,0.537639892578125,-1.027157187461853,0.7477782964706421,1.5914231538772583
1789741084625716700,0.547716796875,-1.2164826393127441,1.002615213394165,1.594649314880371
1789741084635795000,0.557794921875,-1.2660623788833618,1.0596307516098022,1.566262125968933
1789741084645873000,0.567872802734375,-1.254226565361023,0.882048487663269,1.5635712146759033
1789741084655949800,0.57794970703125,-1.2286330461502075,0.6158884763717651,1.5591884851455688
1789741084666027800,0.58802783203125,-1.185809850692749,0.3474370539188385,1.5013965368270874
1789741084676104700,0.598104736328125,-1.1491503715515137,0.17343196272850037,1.405791997909546
1789741084686182700,0.6081826171875,-1.1378170251846313,0.12762559950351715,1.2851026058197021
1789741084696259800,0.618259765625,-1.168918251991272,0.13959383964538574,1.1533057689666748
1789741084706337800,0.628337890625,-1.215085506439209,0.19449757039546967,1.0158120393753052
1789741084716414700,0.638414794921875,-1.2323225736618042,0.20857051014900208,0.8784797191619873
1789741084726493000,0.648492919921875,-1.1707664728164673,0.17592868208885193,0.7282289862632751
1789741084736569900,0.65856982421875,-1.0497835874557495,0.1012648269534111,0.5858393311500549
1789741084746647800,0.668647705078125,-0.8816473484039307,-0.01734890602529049,0.4805763065814972
1789741084756724700,0.678724853515625,-0.7023833394050598,-0.14517822861671448,0.4174375534057617
1789741084766802700,0.688802734375,-0.5393549799919128,-0.1721414029598236,0.4031260013580322
1789741084776879900,0.6988798828125,-0.42539992928504944,-0.08178967982530594,0.4155017137527466
1789741084786957800,0.708957763671875,-0.3127945363521576,-0.00019948044791817665,0.3869518041610718
1789741084797034800,0.71903466796875,-0.17711633443832397,0.027994871139526367,0.3666236400604248
1789741084807112700,0.72911279296875,0.01398251112550497,-0.06639820337295532,0.19799576699733734
1789741084817189600,0.739189697265625,0.15030066668987274,-0.04153253883123398,0.1264009326696396
1789741084827267800,0.749267822265625,0.24270224571228027,-0.19173641502857208,0.15708161890506744
1789741084837344800,0.7593447265625,0.24763227999210358,-0.3418886363506317,0.15036725997924805
1789741084847422700,0.769422607421875,0.2198334038257599,-0.43813154101371765,0.13354620337486267
1789741084857500000,0.7795,0.1825408935546875,-0.49675649404525757,0.11068294942378998
1789741084867577900,0.789577880859375,0.16778059303760529,-0.5420947074890137,0.09374286234378815
1789741084877655800,0.79965576171875,0.1934976726770401,-0.5486812591552734,0.0810859203338623
1789741084887732700,0.809732666015625,0.20665130019187927,-0.5442960858345032,0.11234582960605621
1789741084897810700,0.819810791015625,0.1173805370926857,-0.390212744474411,0.22635123133659363
1789741084907887600,0.8298876953125,-0.05911992862820625,-0.18273359537124634,0.356934517621994
1789741084917965800,0.8399658203125,-0.1270315945148468,-0.030682556331157684,0.40447354316711426
1789741084928043000,0.85004296875,-0.002642272273078561,0.0729527622461319,0.379720002412796
1789741084938121000,0.860120849609375,0.014139370992779732,0.1241549625992775,0.3263731598854065
1789741084948198000,0.870197998046875,-0.04656578600406647,0.13727955520153046,0.2901022434234619
1789741084958275800,0.88027587890625,-0.16856493055820465,0.09392062574625015,0.29861876368522644
1789741084968352800,0.890352783203125,-0.2798778712749481,0.07695282995700836,0.2732124626636505
1789741084978430700,0.9004306640625,-0.3136688470840454,0.0770588219165802,0.1898036152124405
1789741084988507600,0.910507568359375,-0.25467291474342346,0.043700333684682846,0.10911355912685394
1789741084998585600,0.920585693359375,-0.2263331562280655,-0.017031190916895866,0.1237710565328598
1789741085008662800,0.930662841796875,-0.28362521529197693,-0.12385378032922745,0.2563727796077728
1789741085018741000,0.940740966796875,-0.4156748652458191,-0.16032522916793823,0.42533570528030396
1789741085028818000,0.95081787109375,-0.5157774686813354,-0.13953979313373566,0.5010773539543152
1789741085038895900,0.960895751953125,-0.390770822763443,-0.11047831922769547,0.39149704575538635
1789741085048972800,0.970972900390625,-0.2660296857357025,0.039118096232414246,0.2413427084684372
1789741085059050800,0.98105078125,-0.21409299969673157,0.2711007297039032,0.13021299242973328
1789741085069127700,0.991127685546875,-0.3198511302471161,0.3029630780220032,0.21217496693134308
1789741085079205600,1.00120556640625,-0.3370572626590729,0.35682550072669983,0.4716419279575348
1789741085089283600,1.01128369140625,-0.3906986713409424,0.12725356221199036,0.6010787487030029
1789741085099360800,1.02136083984375,-0.40818363428115845,-0.9117537140846252,0.5767590403556824
1789741085109438700,1.031438720703125,-0.3951679766178131,-1.0617122650146484,0.638493001461029
1789741085119515600,1.041515625,-0.35300853848457336,-1.1295366287231445,0.8219240307807922
1789741085129593900,1.05159375,-0.21820998191833496,-0.957348644733429,1.0941283702850342
1789741085139670800,1.0616708984375,-0.12205655127763748,-0.8061844110488892,1.3744407892227173
1789741085149748700,1.071748779296875,-0.05953671410679817,-0.7207733988761902,1.6258867979049683
1789741085159826000,1.081825927734375,-0.0016300046117976308,-0.7121695280075073,1.8277968168258667
1789741085169903900,1.09190380859375,0.0351349338889122,-0.7060344219207764,2.039146661758423
1789741085179980800,1.101980712890625,-0.003079983638599515,-0.713270902633667,2.193824052810669
1789741085190058800,1.112058837890625,-0.04361569136381149,-0.5564216375350952,2.1089582443237305
1789741085200135700,1.1221357421875,-0.013375764712691307,-0.43965157866477966,1.7423970699310303
1789741085210213600,1.132213623046875,0.05755460262298584,-0.6231697797775269,1.5346052646636963
1789741085220290600,1.14229052734375,0.06691481173038483,-0.6539463400840759,1.5652822256088257
1789741085230368800,1.15236865234375,0.13530132174491882,-0.27222955226898193,1.371008038520813
1789741085240446000,1.162446044921875,0.19969309866428375,-0.6936883926391602,1.372863531112671
1789741085250524000,1.17252392578125,0.0987238734960556,-0.91590815782547,1.591493010520935
1789741085260600800,1.182600830078125,0.13218621909618378,-0.8315072655677795,1.7806341648101807
1789741085270678800,1.1926787109375,0.27427175641059875,-0.7331876158714294,1.9549756050109863
1789741085280755700,1.202755615234375,0.45423272252082825,-0.6366123557090759,2.1382246017456055
1789741085290833700,1.212833740234375,0.6396481394767761,-0.6647976636886597,2.278019666671753
1789741085300911600,1.22291162109375,0.8299821019172668,-0.6971662044525146,2.346100091934204
1789741085310988500,1.232988525390625,1.025239109992981,-0.7100346088409424,2.302459478378296
1789741085321066800,1.243066650390625,1.2152096033096313,-0.7179117202758789,2.19966459274292
1789741085331144000,1.25314404296875,1.325289011001587,-0.6046687960624695,1.9337449073791504
1789741085341222000,1.263221923828125,1.3845688104629517,-0.4229770004749298,1.549178123474121
1789741085351298800,1.273298828125,1.3824790716171265,-0.2477753460407257,1.2012970447540283
1789741085361376800,1.283376708984375,1.3326680660247803,-0.08909063041210175,1.0323786735534668
1789741085371453700,1.29345361328125,1.2086957693099976,-0.013738087378442287,0.9933287501335144
1789741085381531600,1.30353173828125,1.0276988744735718,-0.17135994136333466,0.9746469855308533
1789741085391608800,1.31360888671875,0.8056213855743408,-0.3861561119556427,0.9367408752441406
1789741085401686800,1.323686767578125,0.5915120244026184,-0.4166770279407501,0.8648993968963623
1789741085411763700,1.333763671875,0.4163300693035126,-0.27622827887535095,0.7830932140350342
1789741085421842000,1.343842041015625,0.33365598320961,-0.08058395981788635,0.671470046043396
1789741085431918800,1.3539189453125,0.3027678430080414,0.0030981507152318954,0.5931835174560547
1789741085441996800,1.363996826171875,0.31905147433280945,-0.021096134558320045,0.584206223487854
1789741085452073700,1.37407373046875,0.32671046257019043,-0.07671251893043518,0.5822834372520447
1789741085462151700,1.384151611328125,0.33150413632392883,-0.15580174326896667,0.5548757910728455
1789741085472228900,1.394228759765625,0.33667412400245667,-0.15597112476825714,0.5087104439735413
1789741085482306800,1.404306884765625,0.34785196185112,-0.12087439000606537,0.4146302342414856
1789741085492383700,1.4143837890625,0.3684498965740204,-0.0005836691707372665,0.338228702545166
1789741085502461700,1.424461669921875,0.3824634552001953,0.14762204885482788,0.24134287238121033
1789741085512540000,1.434539794921875,0.367583304643631,0.1990588754415512,0.09275500476360321
1789741085522616800,1.444616943359375,0.34635818004608154,0.1268821507692337,0.018625648692250252
1789741085532694800,1.45469482421875,0.3238603472709656,0.07724986970424652,0.05058145150542259
1789741085542771700,1.464771728515625,0.27099180221557617,0.08912517130374908,0.11976877599954605
1789741085552849700,1.474849609375,0.2345336377620697,0.196252703666687,0.19955095648765564
1789741085562926300,1.48492626953125,0.1658182144165039,0.3303162157535553,0.1567331850528717
1789741085573004300,1.49500439453125,0.06447535753250122,0.38346120715141296,0.012114753015339375
1789741085583081200,1.505081298828125,-0.0067583415657281876,0.2867583632469177,-0.10401611775159836
1789741085593159200,1.5151591796875,-0.0451616570353508,0.1746896207332611,-0.15405237674713135
1789741085603236000,1.525236083984375,-0.07011840492486954,0.08062224090099335,-0.1984637826681137
1789741085613314000,1.53531396484375,-0.05925111100077629,0.037226561456918716,-0.1853400021791458
1789741085623391200,1.54539111328125,0.027258479967713356,0.15406636893749237,-0.1606660783290863
1789741085633469200,1.55546923828125,0.11677584052085876,0.3235187828540802,-0.19645310938358307
1789741085643546000,1.565546142578125,0.1591896116733551,0.3600163459777832,-0.2872304320335388
1789741085653624300,1.575624267578125,0.18493598699569702,0.37842437624931335,-0.3644533157348633
1789741085663701200,1.585701171875,0.19785098731517792,0.3515954315662384,-0.4444727897644043
1789741085673779200,1.595779296875,0.2085563689470291,0.24912923574447632,-0.4833114743232727
1789741085683856100,1.605856201171875,0.21216708421707153,0.2187580019235611,-0.5005549192428589
1789741085693934000,1.61593408203125,0.21448002755641937,0.2519782781600952,-0.4385770559310913
1789741085704011300,1.62601123046875,0.24258489906787872,0.320135235786438,-0.3056102395057678
1789741085714089200,1.636089111328125,0.24974055588245392,0.3952755331993103,-0.1929585039615631
1789741085724166100,1.646166259765625,0.11350015550851822,0.08800585567951202,0.34679073095321655
1789741085734244000,1.656244140625,0.029529357329010963,0.015482915565371513,0.7707936763763428
1789741085744322300,1.666322265625,-0.02861064486205578,0.3174092173576355,0.4451713562011719
1789741085754399200,1.676399169921875,0.057342614978551865,0.16437412798404694,0.31302160024642944
1789741085764477200,1.686477294921875,0.11071395874023438,0.09437507390975952,0.3516307473182678
1789741085774554400,1.696554443359375,0.18131302297115326,0.22478874027729034,0.3447774052619934
1789741085784632300,1.70663232421875,0.2359858602285385,0.3110804855823517,0.2926657199859619
1789741085794709200,1.716709228515625,0.2737700045108795,0.28036198019981384,0.2808184027671814
1789741085804787200,1.726787109375,0.3091524839401245,0.2565610408782959,0.25559771060943604
1789741085814864100,1.736864013671875,0.31026169657707214,0.31517642736434937,0.1719968318939209
1789741085824942000,1.746942138671875,0.29266032576560974,0.47450482845306396,0.07211656868457794
1789741085835019000,1.75701904296875,0.24513913691043854,0.5265043377876282,0.0551314614713192
1789741085845097200,1.76709716796875,0.18198733031749725,0.4408259689807892,0.12005879729986191
1789741085855174400,1.77717431640625,0.0974692553281784,0.26458513736724854,0.15697607398033142
1789741085865252400,1.78725244140625,0.06763306260108948,0.1243329644203186,0.13818107545375824
1789741085875329300,1.797329345703125,0.06939927488565445,0.1854700893163681,0.027563750743865967
1789741085885407200,1.8074072265625,0.07461453974246979,0.2653454840183258,-0.20679469406604767
1789741085895484200,1.817484130859375,0.10451065748929977,0.30187660455703735,-0.4199303984642029
1789741085905562000,1.82756201171875,0.10511359572410583,0.036308567970991135,-0.1587376892566681
1789741085915639000,1.83763916015625,0.08120720088481903,0.12150043249130249,0.062211740761995316
1789741085925717000,1.847717041015625,0.12720078229904175,0.3940778970718384,-0.1237994059920311
1789741085935794200,1.857794189453125,0.1606394350528717,0.33386194705963135,0.07292057573795319
1789741085945872400,1.867872314453125,0.13019683957099915,0.42818474769592285,0.04468787461519241
1789741085955949300,1.87794921875,0.0837947279214859,0.3189930021762848,-0.030711807310581207
1789741085966027300,1.88802734375,0.011330114677548409,0.1650945097208023,-0.08686429262161255
1789741085976104200,1.898104248046875,-0.05557115375995636,0.055399972945451736,-0.21176894009113312
1789741085986182100,1.90818212890625,-0.07196051627397537,-0.11088967323303223,-0.2684290409088135
1789741085996260000,1.918260009765625,-0.06698226928710938,-0.10253693163394928,-0.3354562520980835
1789741086006337300,1.928337158203125,-0.04548469930887222,-0.12654852867126465,-0.3409886956214905
1789741086016415200,1.938415283203125,0.0032799113541841507,-0.019716084003448486,-0.3141466975212097
1789741086026492200,1.9484921875,0.05050867795944214,0.07846081256866455,-0.29277724027633667
1789741086036570400,1.9585703125,0.08595588058233261,0.05986263230443001,-0.23837046325206757
1789741086046647300,1.968647216796875,0.09867167472839355,0.0902295857667923,-0.2629770040512085
1789741086056725200,1.978725341796875,0.09534245729446411,0.05711717903614044,-0.3081039786338806
1789741086066802200,1.98880224609375,0.06175520643591881,0.0171444620937109,-0.34422606229782104
1789741086076880100,1.998880126953125,0.007458144798874855,-0.020624488592147827,-0.3731682300567627
1789741086086957300,2.008957275390625,-0.04341036081314087,-0.05368124321103096,-0.3821318745613098
1789741086097035300,2.01903515625,-0.0660131424665451,-0.14445215463638306,-0.6624658107757568
1789741086107112200,2.0291123046875,-0.14087966084480286,-0.5004872679710388,-0.7363038063049316
1789741086117190100,2.039190185546875,-0.18804983794689178,-0.5503586530685425,-0.7416024208068848
1789741086127267000,2.04926708984375,-0.1981954127550125,-0.41995295882225037,-0.7412788271903992
1789741086137345000,2.059344970703125,-0.1890285462141037,-0.27818652987480164,-0.7206257581710815
1789741086147422000,2.069421875,-0.17578837275505066,-0.17401669919490814,-0.6913938522338867
1789741086157500200,2.079500244140625,-0.1846867948770523,-0.17824234068393707,-0.6949779391288757
1789741086167577300,2.089577392578125,-0.18915317952632904,-0.17237992584705353,-0.6865724921226501
1789741086177655300,2.0996552734375,-0.19675518572330475,-0.14361804723739624,-0.6755517721176147
1789741086187732200,2.109732177734375,-0.20813588798046112,-0.11062382161617279,-0.6789917349815369
1789741086197810200,2.11981005859375,-0.19960978627204895,-0.04121331870555878,-0.6266805529594421
1789741086207887000,2.12988720703125,-0.2120715081691742,-0.05880163609981537,-0.5706409811973572
1789741086217965000,2.139965087890625,-0.2180308699607849,-0.20309382677078247,-0.5060369968414307
1789741086228043000,2.15004296875,-0.17321784794330597,-0.18059012293815613,-0.4060927927494049
1789741086238120200,2.1601201171875,-0.10470671206712723,-0.09588854759931564,-0.37052974104881287
1789741086248198100,2.1701982421875,-0.001836256473325193,0.013415569439530373,-0.34797224402427673
1789741086258275300,2.180275390625,0.06496727466583252,0.06284144520759583,-0.31344595551490784
1789741086268353300,2.190353271484375,0.11247966438531876,0.0708644837141037,-0.2739430367946625
1789741086278430200,2.20043017578125,0.14349405467510223,0.08969675749540329,-0.2638011872768402
1789741086288508200,2.210508056640625,0.14522723853588104,0.11131496727466583,-0.2911457121372223
1789741086298585000,2.220585205078125,0.1250697672367096,0.07397159188985825,-0.3334692120552063
1789741086308663000,2.2306630859375,0.1237775906920433,0.03945329412817955,-0.36181163787841797
1789741086318740200,2.240740234375,0.09557951241731644,0.005936614703387022,-0.3475823700428009
1789741086328818200,2.250818115234375,0.0050682551227509975,0.06342893838882446,-0.2665724754333496
1789741086338895000,2.26089501953125,0.10587502270936966,0.2059599906206131,-0.3148023188114166
1789741086348973300,2.270973388671875,0.11835592985153198,0.1607605516910553,-0.41811057925224304
1789741086359050200,2.28105029296875,0.09297121316194534,0.17432349920272827,-0.4763091802597046
1789741086369128200,2.291128173828125,0.06900303065776825,0.2969692349433899,-0.49062660336494446
1789741086379205000,2.301205078125,0.03336939960718155,0.5211091637611389,-0.3596446216106415
1789741086389283000,2.311282958984375,0.03699769079685211,0.5360939502716064,-0.23009462654590607
1789741086399360300,2.3213603515625,0.030707305297255516,0.528503954410553,-0.11728950589895248
1789741086409438200,2.331438232421875,0.023315168917179108,0.32201120257377625,-0.088605135679245
1789741086419515100,2.34151513671875,0.009537305682897568,0.0005306638777256012,-0.03385267034173012
1789741086429593000,2.351593017578125,-0.004849356599152088,-0.008538731373846531,-0.04428587108850479
1789741086439671300,2.36167138671875,-0.04023131728172302,-0.01350313052535057,-0.05010754242539406
1789741086449748200,2.371748291015625,-0.07902131974697113,-0.03491201624274254,-0.02942090481519699
1789741086459826200,2.381826171875,-0.07989989966154099,0.013930093497037888,-0.018682507798075676
1789741086469903000,2.391903076171875,-0.05674184858798981,0.07667496800422668,-0.023895379155874252
1789741086479981300,2.401981201171875,-0.05996853485703468,0.13082608580589294,-0.026392359286546707
1789741086490058200,2.412058349609375,-0.0640101507306099,0.10806910693645477,-0.045027829706668854
1789741086500136200,2.42213623046875,-0.11600783467292786,0.09463851898908615,-0.06961280107498169
1789741086510213000,2.432213134765625,-0.14545999467372894,0.08080819249153137,-0.0913764163851738
1789741086520291000,2.442291015625,-0.15729454159736633,0.04717886075377464,-0.10646934807300568
1789741086530368000,2.452367919921875,-0.13438017666339874,0.058505818247795105,-0.0965898260474205
1789741086540446200,2.4624462890625,-0.08247650414705276,0.01851259358227253,-0.07963533699512482
1789741086550523400,2.4725234375,-0.049094051122665405,0.01923457719385624,-0.04326268658041954
1789741086560601300,2.482601318359375,0.010814025066792965,0.058270663022994995,0.017534352838993073
1789741086570678300,2.49267822265625,0.04816965386271477,0.049600739032030106,0.030844032764434814
1789741086580756200,2.502756103515625,0.07452429085969925,0.014513857662677765,-0.02176698110997677
1789741086590833200,2.512833251953125,0.050796858966350555,-0.0152357816696167,-0.0675581693649292
1789741086600911400,2.522911376953125,0.03429298475384712,-0.03485102951526642,-0.09400922060012817
1789741086610988300,2.53298828125,0.02351836860179901,-0.06032682582736015,-0.12217747420072556
1789741086621066200,2.543066162109375,-0.018573159351944923,-0.026876991614699364,-0.047388721257448196
1789741086631143400,2.553143310546875,-0.020272254943847656,-0.05482420325279236,-0.06475839018821716
1789741086641221400,2.563221435546875,-0.07923224568367004,0.03958698734641075,-0.007232513278722763
1789741086651299300,2.57329931640625,-0.11439449340105057,-0.10170596092939377,0.050933588296175
1789741086661376300,2.583376220703125,-0.014436203986406326,-0.44227367639541626,0.1042732447385788
1789741086671454200,2.5934541015625,0.12431634962558746,-0.4131962060928345,0.21369852125644684
1789741086681531100,2.60353125,0.22544138133525848,-0.1637086123228073,0.2762037217617035
1789741086691609300,2.613609375,0.24402092397212982,-0.1337088942527771,0.26628613471984863
1789741086701686300,2.623686279296875,0.28987202048301697,-0.0833892673254013,0.17581665515899658
1789741086711764200,2.63376416015625,0.3647465407848358,0.06555893272161484,-0.01395672932267189
1789741086721841400,2.64384130859375,0.34248676896095276,0.06293598562479019,-0.23370321094989777
1789741086731919400,2.65391943359375,0.33368661999702454,0.02327059768140316,-0.45832324028015137
1789741086741996300,2.663996337890625,0.30734291672706604,0.03313308209180832,-0.5898197889328003
1789741086752074200,2.67407421875,0.2710818350315094,0.04795064404606819,-0.6505779027938843
1789741086762151200,2.684151123046875,0.23651853203773499,0.10316143184900284,-0.6749389171600342
1789741086772229000,2.69422900390625,0.22211483120918274,0.13581445813179016,-0.6461679935455322
1789741086782306300,2.704306396484375,0.2016787976026535,0.14685112237930298,-0.5959945917129517
1789741086792384500,2.714384521484375,0.1767398864030838,0.6055673360824585,-0.2183101326227188
1789741086802461400,2.72446142578125,0.2796497642993927,-0.0070859771221876144,0.008179198950529099
1789741086812539400,2.734539306640625,0.2922092378139496,0.17486411333084106,0.08696801960468292
1789741086822616300,2.7446162109375,0.27651575207710266,0.18199312686920166,0.02799791283905506
1789741086832694300,2.7546943359375,0.26337623596191406,0.06806256622076035,0.13761600852012634
1789741086842771200,2.764771240234375,0.29498663544654846,0.0971759781241417,0.04892929270863533
1789741086852849200,2.77484912109375,0.15786978602409363,0.1016777902841568,0.029421105980873108
1789741086862927000,2.784927001953125,0.062165096402168274,0.09239240735769272,0.00715281767770648
1789741086873004300,2.79500439453125,0.021180644631385803,0.07426667213439941,-0.004203966353088617
1789741086883082500,2.80508251953125,0.012819118797779083,0.07033184915781021,-0.022108132019639015
1789741086893159400,2.815159423828125,0.0048360275104641914,0.04503821209073067,-0.03418636694550514
1789741086903237400,2.8252373046875,0.0016191949835047126,0.01665104366838932,-0.049665722995996475
1789741086913314300,2.835314208984375,0.0014066747389733791,-0.02181006222963333,-0.04300835356116295
1789741086923392300,2.845392333984375,-0.0030107104685157537,-0.035573810338974,-0.03826339915394783
1789741086933469200,2.85546923828125,0.0122255003079772,-0.029702072963118553,-0.030640101060271263
1789741086943547100,2.865547119140625,0.014072668738663197,-0.04157897084951401,-0.02591511979699135
1789741086953624300,2.875624267578125,0.016212252900004387,-0.035318948328495026,-0.021404791623353958
1789741086963702300,2.885702392578125,0.013534709811210632,-0.06685850024223328,-0.032693929970264435
1789741086973779200,2.895779296875,0.008619314059615135,-0.0953628420829773,-0.04363393038511276
1789741086983857400,2.905857421875,0.003551051951944828,-0.11087895184755325,-0.05133818835020065
1789741086993934300,2.915934326171875,-0.0037161819636821747,-0.131325364112854,-0.05521255359053612
1789741087004012300,2.92601220703125,-0.006185730919241905,-0.11894965916872025,-0.047982074320316315
1789741087014089500,2.93608935546875,-0.012336035259068012,-0.08079801499843597,-0.017769841477274895
1789741087024167400,2.94616748046875,-0.017195506021380424,-0.04906991124153137,0.0012033155653625727
1789741087034244400,2.956244384765625,-0.032657552510499954,-0.06435166299343109,-0.0009003154118545353
1789741087044322300,2.966322265625,-0.04399489611387253,-0.05923572927713394,0.004319214262068272
1789741087054399200,2.976399169921875,-0.026398058980703354,-0.04706162214279175,0.011936120688915253
1789741087064477200,2.986477294921875,-0.03105912357568741,-0.07815375924110413,0.00019957007316406816
1789741087074554000,2.99655419921875,-0.02269626408815384,-0.0898469015955925,-0.018692094832658768
1789741087084632000,3.006632080078125,-0.04243481531739235,-0.16396480798721313,-0.07738923281431198
1789741087094710300,3.016710205078125,-0.079187773168087,-0.20168422162532806,-0.14825089275836945
1789741087104787500,3.026787353515625,-0.014570694416761398,0.15197132527828217,-0.030601218342781067
1789741087114865400,3.036865478515625,-0.01565726287662983,0.11517202854156494,-0.034320324659347534
1789741087124942300,3.0469423828125,0.009058468975126743,0.2135649025440216,-0.03346278518438339
1789741087135020300,3.057020263671875,0.10797972232103348,0.3035682737827301,-0.019050823524594307
1789741087145097200,3.06709716796875,0.14437049627304077,-0.10736517608165741,0.010380035266280174
1789741087155175200,3.077175048828125,0.17999772727489471,-0.05026247352361679,0.07008278369903564
1789741087165252000,3.087252197265625,0.2129378318786621,-0.040184807032346725,0.058881524950265884
1789741087175330000,3.097330078125,0.174856498837471,-0.034158606082201004,0.057566724717617035
1789741087185407200,3.1074072265625,0.15861228108406067,-0.01620996743440628,0.07411027699708939
1789741087195485400,3.1174853515625,0.15012454986572266,0.0012108967639505863,0.07882121205329895
1789741087205562400,3.127562255859375,0.09052033722400665,0.004847442731261253,0.08882724493741989
1789741087215640300,3.137640380859375,0.02990705892443657,0.0066597238183021545,0.08598192036151886
1789741087225717200,3.14771728515625,-0.0330364853143692,0.0015951907262206078,0.09011674672365189
1789741087235795200,3.157795166015625,-0.07177615910768509,0.015429513528943062,0.0999121144413948
1789741087245872400,3.167872314453125,-0.11030171066522598,0.020201100036501884,0.10989443957805634
1789741087255950300,3.177950439453125,-0.14570018649101257,0.014529099687933922,0.11557549983263016
1789741087266027300,3.18802734375,-0.17675237357616425,0.01602686010301113,0.13303890824317932
1789741087276105200,3.198105224609375,-0.20419305562973022,0.012794315814971924,0.12947426736354828
1789741087286182100,3.20818212890625,-0.23243454098701477,-0.0012932736426591873,0.11386441439390182
1789741087296260400,3.21826025390625,-0.2409747689962387,-0.004878687206655741,0.09396208077669144
1789741087306337300,3.228337158203125,-0.23052026331424713,0.0019448637031018734,0.08460346609354019
1789741087316415200,3.238415283203125,-0.20513741672039032,0.015911279246211052,0.06933876127004623
1789741087326493200,3.2484931640625,-0.16816261410713196,0.02611810900270939,0.06033860892057419
1789741087336570400,3.2585703125,-0.1295718103647232,0.01055086962878704,0.04137929901480675
1789741087346648300,3.2686484375,-0.09947063773870468,0.004335583187639713,0.02044711820781231
1789741087356725200,3.278725341796875,-0.044972509145736694,-0.0041883960366249084,-0.004122406244277954
1789741087366803200,3.28880322265625,-0.0002500455011613667,-0.004575885832309723,-0.010777645744383335
1789741087376880000,3.298880126953125,0.003268256550654769,0.0004308568313717842,-0.010410396382212639
1789741087386958300,3.308958251953125,0.005228342954069376,-0.001110847108066082,-0.00917841773480177
1789741087397035300,3.31903515625,0.0059426031075417995,-0.0023705223575234413,-0.0035471636801958084
1789741087407113200,3.32911328125,0.003946030978113413,0.0018772194162011147,-0.001251252368092537
1789741087417190400,3.3391904296875,-0.000265758135356009,0.006989423185586929,0.0016406741924583912
1789741087427268400,3.349268310546875,-0.0026650000363588333,0.01313679851591587,0.0016249616164714098
1789741087437345300,3.35934521484375,0.0018847445026040077,0.01512032002210617,0.0012023178860545158
1789741087447423200,3.36942333984375,0.023723464459180832,0.015936579555273056,0.004900116939097643
1789741087457500200,3.379500244140625,0.017496993765234947,0.02343177981674671,0.011352956295013428
1789741087467578000,3.389578125,0.007865405641496181,0.039037369191646576,0.03262415528297424
1789741087477655300,3.3996552734375,0.00664993841201067,0.04062461853027344,0.023776335641741753
1789741087487733200,3.409733154296875,0.0013161594979465008,0.03238825500011444,0.01612560637295246
1789741087497810400,3.419810546875,-0.003523336723446846,0.028705107048153877,0.013737284578382969
1789741087507888400,3.429888427734375,-0.0045137666165828705,0.027660878375172615,0.014909341931343079
1789741087517965300,3.43996533203125,-0.01383509673178196,0.02071375772356987,0.012280002236366272
1789741087528043300,3.450043212890625,-0.04625588655471802,0.01788521371781826,0.005615708418190479
1789741087538120200,3.4601201171875,-0.08128736913204193,0.015985848382115364,0.0006174877053126693
1789741087548198100,3.4701982421875,-0.08528158068656921,0.013936545699834824,0.0007080351933836937
1789741087558276000,3.480276123046875,-0.06359013170003891,0.014786360785365105,-0.001501323189586401
1789741087568353000,3.49035302734375,-0.027941061183810234,0.008595043793320656,0.0015107119688764215
1789741087578431000,3.500430908203125,-0.005102857481688261,0.008620343171060085,-0.0011572428047657013
1789741087588508000,3.5105078125,0.002113509923219681,0.005061561241745949,-0.00023152801441028714
1789741087598585900,3.5205859375,0.005978555418550968,0.004464747384190559,0.002229765523225069
1789741087608662800,3.530662841796875,0.004275197628885508,0.0036349063739180565,0.0013684991281479597
1789741087618740700,3.54074072265625,0.00690533546730876,0.0015981202013790607,0.0024838310200721025
1789741087628818000,3.55081787109375,0.00477001303806901,0.0021864124573767185,0.0026023415848612785
1789741087638895900,3.560895751953125,0.002818981185555458,0.005500982515513897,0.0004102938110008836
1789741087648973000,3.57097314453125,0.002560654655098915,0.006610988639295101,0.0001911156577989459
1789741087659051000,3.581051025390625,0.008950110524892807,0.006853868253529072,0.0009354691719636321
1789741087669128000,3.5911279296875,0.007727719843387604,0.007377978414297104,0.0009322733967565
1789741087679206000,3.601205810546875,0.009997265413403511,0.00988561101257801,0.001953329425305128
1789741087689282800,3.61128271484375,0.009464900009334087,0.014143472537398338,-0.000011550902854651213
1789741087699360800,3.62136083984375,0.006677901837974787,0.019551554694771767,-0.0022802979219704866
1789741087709438000,3.63143798828125,-0.0016367534408345819,0.026281097903847694,-0.005818840116262436
1789741087719516000,3.641515869140625,0.00039230892434716225,0.019135834649205208,-0.007845771498978138
1789741087729592800,3.6515927734375,0.00008391488518100232,0.02377932332456112,-0.0027892279904335737
1789741087739671000,3.661671142578125,0.002567046321928501,0.025550324469804764,-0.0029040102381259203
1789741087749748000,3.671748046875,0.0003102835617028177,0.023861082270741463,-0.0020238354336470366
1789741087759826000,3.681825927734375,-0.0023201205767691135,0.02498972974717617,-0.0002714754082262516
1789741087769902800,3.69190283203125,-0.0006093059200793505,0.02299928292632103,0.000807104806881398
1789741087779980800,3.701980712890625,-0.004684741143137217,0.0258797574788332,0.003862549550831318
1789741087790058000,3.71205810546875,0.00017978869436774403,0.023225918412208557,-0.0012627040268853307
1789741087800136000,3.722135986328125,-0.0033185395877808332,0.026620915159583092,-0.003358079120516777
1789741087810214000,3.7322138671875,0.001311099505983293,0.025150051340460777,-0.006481700576841831
1789741087820290800,3.742290771484375,0.00093905592802912,0.022966260090470314,-0.00489738630130887
1789741087830369000,3.752369140625,-0.0024689913261681795,0.026995090767741203,-0.004103764425963163
1789741087840446000,3.762446044921875,-0.0035049610305577517,0.027405215427279472,-0.0034699318930506706
1789741087850524000,3.77252392578125,-0.008512502536177635,0.027121057733893394,-0.005129347555339336
1789741087860600800,3.782600830078125,-0.009378296323120594,0.0264869574457407,-0.003366867545992136
1789741087870678800,3.7926787109375,-0.010966605506837368,0.0255332812666893,-0.007863614708185196
1789741087880756000,3.802755859375,-0.009431559592485428,0.02378464862704277,-0.00501323351636529
1789741087890834000,3.812833984375,-0.010358605533838272,0.02521636337041855,-0.005652658641338348
1789741087900910800,3.822910888671875,-0.01185610145330429,0.02361367456614971,-0.004520815331488848
1789741087910988800,3.83298876953125,-0.015050829388201237,0.0230629313737154,-0.0022472746204584837
1789741087921065700,3.843065673828125,-0.01707456447184086,0.02054358273744583,-0.0007593665504828095
1789741087931144000,3.85314404296875,-0.017054591327905655,0.024353500455617905,0.0007719510467723012
1789741087941221000,3.86322119140625,-0.018149683251976967,0.018816787749528885,-0.002798548899590969
1789741087951299000,3.873299072265625,-0.020187268033623695,0.019005872309207916,-0.0037261280231177807
1789741087961376000,3.8833759765625,-0.0202085729688406,0.017839940264821053,-0.0033365075942128897
1789741087971454000,3.893453857421875,-0.01967434212565422,0.020635994151234627,-0.0029580723494291306
1789741087981531000,3.90353076171875,-0.02243177965283394,0.027041161432862282,-0.002638226607814431
1789741087991608800,3.91360888671875,-0.033118776977062225,0.03339706361293793,-0.006305932067334652
1789741088001685800,3.923685791015625,-0.03837293013930321,0.028742922469973564,-0.014055730774998665
1789741088011763700,3.933763671875,-0.04110373556613922,0.019404547289013863,-0.018997758626937866
1789741088021841000,3.9438408203125,-0.04289337992668152,0.010975643992424011,-0.01884302869439125
1789741088031919000,3.953919189453125,-0.04567718133330345,0.004429859109222889,-0.020309099927544594
1789741088041997000,3.9639970703125,-0.048581890761852264,-0.005986029747873545,-0.013573432341217995
1789741088052074000,3.974073974609375,-0.050984594970941544,-0.016722297295928,-0.003881922923028469
1789741088062152000,3.98415185546875,-0.05212016776204109,-0.029501475393772125,0.0010939273051917553
1789741088072228900,3.994228759765625,-0.058693114668130875,-0.0339854396879673,0.001711247954517603
1789741088082306800,4.004306884765625,-0.06464900821447372,-0.040809787809848785,0.000706171034835279
1789741088092383700,4.0143837890625,-0.06776836514472961,-0.045990437269210815,-0.0040558273904025555
1789741088102461700,4.024461669921875,-0.0701068863272667,-0.051633939146995544,-0.00825403444468975
1789741088112539000,4.034538818359375,-0.06852603703737259,-0.053384169936180115,-0.01111027505248785
1789741088122617000,4.0446171875,-0.07209546864032745,-0.05728064477443695,-0.01165169570595026
1789741088132694000,4.054694091796875,-0.07203076034784317,-0.0606205090880394,-0.009320897050201893
1789741088142772000,4.06477197265625,-0.07295168191194534,-0.06504642218351364,-0.008629806339740753
1789741088152849000,4.074848876953125,-0.07030822336673737,-0.06713780015707016,-0.004808436613529921
1789741088162926800,4.0849267578125,-0.07018572092056274,-0.07215173542499542,0.001220960053615272
1789741088173004000,4.095004150390625,-0.0658026859164238,-0.0733775869011879,-0.0012685629772022367
1789741088183082000,4.10508203125,-0.06464288383722305,-0.07247983664274216,-0.0014768220717087388
1789741088193159000,4.115158935546875,-0.06269611418247223,-0.06993971019983292,-0.0016845487989485264
1789741088203236900,4.12523681640625,-0.05851070210337639,-0.06560167670249939,-0.002207699231803417
1789741088213313800,4.135313720703125,-0.05646912008523941,-0.060698796063661575,-0.003027952741831541
1789741088223392000,4.14539208984375,-0.044465456157922745,-0.029144862666726112,0.017135106027126312
1789741088233469000,4.155468994140625,-0.04895288124680519,-0.039041969925165176,-0.015163445845246315
1789741088243547000,4.165546875,-0.04799094796180725,-0.04140738770365715,-0.011350065469741821
1789741088253624000,4.1756240234375,-0.03956124559044838,0.009278159588575363,0.017514605075120926
1789741088263702000,4.185701904296875,-0.03113819845020771,0.023489052429795265,0.010607165284454823
1789741088273779000,4.195779052734375,-0.026542915031313896,0.0009794831275939941,-0.018420225009322166
1789741088283857000,4.20585693359375,0.004004874732345343,0.117574542760849,-0.1582111418247223
1789741088293934800,4.215934814453125,0.00921348575502634,0.05810295417904854,-0.10693331062793732
1789741088304011800,4.22601171875,0.07819841057062149,0.06579789519309998,-0.08330148458480835
1789741088314090000,4.236090087890625,0.25371721386909485,0.08020026981830597,-0.12755842506885529
1789741088324167000,4.2461669921875,0.37557414174079895,0.0932268500328064,-0.10085251182317734
1789741088334244900,4.256244873046875,0.2068709135055542,0.09810790419578552,-0.04431919753551483
1789741088344322000,4.266322021484375,0.024111207574605942,0.12603114545345306,-0.020388834178447723
1789741088354400000,4.27639990234375,-0.14779503643512726,0.18249201774597168,0.035086676478385925
1789741088364477000,4.286476806640625,-0.4022579491138458,0.19505575299263,0.06350420415401459
1789741088374555000,4.296554931640625,-0.7595146298408508,0.12487372756004333,0.03332153335213661
1789741088384631800,4.3066318359375,-1.0563640594482422,-0.2706727981567383,-0.006817630957812071
1789741088394709800,4.316709716796875,-1.2740743160247803,-0.4302661716938019,-0.003584287129342556
1789741088404787000,4.326786865234375,-1.404552936553955,-0.056595128029584885,-0.03596406430006027
1789741088414865000,4.336864990234375,-1.5496981143951416,0.0885293036699295,-0.15251916646957397
1789741088424942000,4.346942138671875,-1.7597718238830566,0.12620584666728973,-0.1934349089860916
1789741088435020000,4.35702001953125,-1.9010943174362183,0.14907734096050262,-0.21675355732440948
1789741088445097000,4.367096923828125,-1.9710261821746826,0.29014843702316284,-0.20031411945819855
1789741088455175000,4.3771748046875,-1.8469152450561523,-0.12189078330993652,-0.15072233974933624
1789741088465251800,4.387251953125,-1.2841626405715942,-0.7628582715988159,0.09341549873352051
1789741088475329800,4.397329833984375,-0.8873897790908813,-0.269647479057312,-0.036338768899440765
1789741088485407000,4.407406982421875,-0.6229578256607056,-0.07237675786018372,-0.0003096644068136811
1789741088495485000,4.41748486328125,-0.3265821039676666,0.10772722959518433,0.028948355466127396
1789741088505561900,4.427561767578125,-0.0814322680234909,0.023801974952220917,-0.003483353415504098
1789741088515639800,4.437639892578125,0.0384717732667923,0.009238478727638721,-0.011146333068609238
1789741088525718000,4.447718017578125,0.0396193265914917,-0.008165545761585236,-0.011767382733523846
1789741088535795000,4.457794921875,0.05279265344142914,0.02429705671966076,-0.008798490278422832
1789741088545873000,4.467872802734375,0.0745815709233284,0.015010613948106766,-0.01657785102725029
1789741088555949800,4.47794970703125,0.09327402710914612,0.001305986661463976,-0.0247002262622118
1789741088566028500,4.488028564453125,0.08066929131746292,0.007988923229277134,-0.025999315083026886
1789741088576105500,4.49810546875,0.10898108780384064,0.06731909513473511,-0.002228205557912588
1789741088586183700,4.50818359375,0.1448775827884674,0.06742401421070099,-0.0007011490524746478
1789741088596260900,4.5182607421875,0.19556684792041779,0.05865449830889702,-0.001843645004555583
1789741088606338800,4.5283388671875,0.3004953861236572,0.11674682796001434,0.025568004697561264
1789741088616415700,4.538415771484375,0.36170974373817444,0.10076279938220978,0.025447895750403404
1789741088626493700,4.54849365234375,0.44201284646987915,0.05343150720000267,0.006446242798119783
1789741088636570600,4.558570556640625,0.5381292700767517,0.07914511859416962,0.014900180511176586
1789741088646648600,4.568648681640625,0.6350778937339783,0.0951153039932251,0.018652308732271194
1789741088656725800,4.578725830078125,0.7270445823669434,0.0669742077589035,0.005195089615881443
1789741088666803700,4.5888037109375,0.8181169629096985,0.09436056017875671,0.017348159104585648
1789741088676880600,4.598880615234375,0.9084359407424927,0.1388244330883026,0.03170046955347061
1789741088686958800,4.608958740234375,0.9905979037284851,0.11608849465847015,0.025027383118867874
1789741088697035800,4.619035888671875,1.0464329719543457,0.0994621217250824,0.03200646489858627
1789741088707113700,4.62911376953125,1.1715980768203735,0.11214914917945862,0.018192913383245468
1789741088717190700,4.639190673828125,1.1951208114624023,0.21895469725131989,0.07094614207744598
1789741088727268600,4.6492685546875,1.2279788255691528,0.18834592401981354,0.06899271160364151
1789741088737345800,4.659345703125,1.2492278814315796,0.10954484343528748,0.02458742819726467
1789741088747423700,4.669423828125,1.1754330396652222,0.012395655736327171,-0.03973829373717308
1789741088757501700,4.679501708984375,1.1515886783599854,0.16144399344921112,0.027572033926844597
1789741088767578600,4.68957861328125,1.041176438331604,-0.019772931933403015,-0.03974948078393936
1789741088777656800,4.69965673828125,0.9626328349113464,-0.000296703539788723,-0.04324301332235336
1789741088787733800,4.709733642578125,0.8251218795776367,-0.058281976729631424,-0.07067277282476425
1789741088797811700,4.719811767578125,0.7152014970779419,-0.09990638494491577,-0.06624580174684525
1789741088807888600,4.729888671875,0.6433414220809937,-0.10354505479335785,-0.060410019010305405
1789741088817966600,4.739966552734375,0.5321717262268066,-0.12312088906764984,-0.06455842405557632
1789741088828043800,4.750043701171875,0.4801543653011322,-0.04826848953962326,-0.034415170550346375
1789741088838121700,4.760121826171875,0.393273264169693,-0.054377514868974686,-0.0384376086294651
1789741088848198700,4.77019873046875,0.26540476083755493,-0.06475771963596344,-0.04412798210978508
1789741088858276600,4.780276611328125,0.1601548045873642,-0.04356028884649277,-0.04058011993765831
1789741088868353500,4.790353515625,0.0701516643166542,-0.06555347144603729,-0.04117240756750107
1789741088878431700,4.800431640625,0.0007787215290591121,-0.07724447548389435,-0.04372690990567207
1789741088888508700,4.8105087890625,-0.021612070500850677,-0.09114724397659302,-0.039160389453172684
1789741088898586600,4.820586669921875,-0.010594840161502361,-0.07701198756694794,-0.023706866428256035
1789741088908663800,4.830663818359375,0.02061527594923973,-0.06179122254252434,-0.012306938879191875
1789741088918741800,4.84074169921875,0.03127697482705116,-0.043066803365945816,-0.0023096983786672354
1789741088928818700,4.850818603515625,0.03581606596708298,-0.03707895427942276,0.0020064867567270994
1789741088938896600,4.860896728515625,0.04111682251095772,-0.03334866464138031,0.0037119751796126366
1789741088948973600,4.8709736328125,0.045732080936431885,-0.007771930191665888,0.008647345006465912
1789741088959051500,4.881051513671875,0.048797111958265305,-0.0389423668384552,0.006599640939384699
1789741088969128700,4.891128662109375,0.042907267808914185,-0.042100608348846436,0.002778803464025259
1789741088979207000,4.90120703125,0.04120098054409027,-0.039583124220371246,0.0068758106790483
1789741088989283800,4.911283935546875,0.04108566418290138,-0.017180878669023514,0.012917457148432732
1789741088999361800,4.92136181640625,0.035498619079589844,-0.007597226649522781,0.017317531630396843
1789741089009439700,4.931439697265625,0.04088033363223076,-0.015552088618278503,0.013012798503041267
1789741089019516700,4.9415166015625,0.04287504404783249,-0.014369112439453602,0.010659629479050636
1789741089029594600,4.9515947265625,0.042065974324941635,-0.030184295028448105,0.005714405793696642
1789741089039671600,4.961671630859375,0.039475783705711365,-0.03267355263233185,0.00690483907237649
1789741089049749500,4.97174951171875,0.03961533308029175,-0.03176647797226906,0.0034152991138398647
1789741089059826700,4.98182666015625,0.03609703108668327,-0.031514544039964676,0.004691752139478922
1789741089069905000,4.99190478515625,0.03175527974963188,-0.028010623529553413,0.005810546223074198
1789741089079981800,5.00198193359375,0.03060612641274929,-0.030887635424733162,0.006899512838572264
1789741089090059800,5.012059814453125,0.03203810751438141,-0.02756188064813614,0.007854255847632885
1789741089100136700,5.02213671875,0.032742246985435486,-0.030410930514335632,0.004729568958282471
1789741089110214700,5.032214599609375,0.03329991176724434,-0.031448762863874435,0.003504248568788171
1789741089120291600,5.04229150390625,0.03054167702794075,-0.02937682531774044,0.0006650525610893965
1789741089130369500,5.05236962890625,0.027003135532140732,-0.026925917714834213,0.0047492762096226215
1789741089140446700,5.06244677734375,0.0266976710408926,-0.028259361162781715,0.0024384516291320324
1789741089150524700,5.072524658203125,0.024440906941890717,-0.030859939754009247,0.0021233996376395226
1789741089160601600,5.0826015625,0.023304270580410957,-0.03371431678533554,0.004318909719586372
1789741089170679800,5.0926796875,0.02097533643245697,-0.0395389162003994,0.004762059543281794
1789741089180756700,5.1027568359375,0.020875200629234314,-0.043473467230796814,0.004919984843581915
1789741089190834700,5.112834716796875,0.022692808881402016,-0.04329130798578262,0.0039881449192762375
1789741089200912000,5.122911865234375,0.019869325682520866,-0.04554327577352524,0.007383142597973347
1789741089210989800,5.13298974609375,0.022107211872935295,-0.04779971018433571,0.0051320395432412624
1789741089221067800,5.14306787109375,0.021444084122776985,-0.03957240656018257,0.007054309360682964
1789741089231144700,5.153144775390625,0.023490723222494125,-0.03470521420240402,0.011277283541858196
1789741089241222700,5.16322265625,0.02039533108472824,-0.030101407319307327,0.013047486543655396
1789741089251299600,5.173299560546875,0.022226255387067795,-0.03182074427604675,0.007878291420638561
1789741089261377500,5.18337744140625,0.0271869245916605,-0.0275314562022686,0.008116910234093666
1789741089271454500,5.193454345703125,0.027021275833249092,-0.0059659769758582115,0.013874132186174393
1789741089281532700,5.20353271484375,0.0006700960802845657,0.027636457234621048,0.0012472865637391806
1789741089291609900,5.21360986328125,0.00551305478438735,-0.02047967165708542,-0.018528549000620842
1789741089301687800,5.223687744140625,0.01115283090621233,0.00794850755482912,-0.01071989443153143
1789741089311764700,5.2337646484375,0.007308557629585266,-0.003008536295965314,-0.0022822008468210697
1789741089321842700,5.2438427734375,0.017774514853954315,-0.004480998031795025,-0.00026325846556574106
1789741089331919600,5.253919677734375,0.025104066357016563,0.007441175170242786,0.010023999959230423
1789741089341997600,5.26399755859375,0.03002745285630226,0.015804298222064972,0.016106126829981804
1789741089352074500,5.274074462890625,0.028796005994081497,0.027126729488372803,0.014919688925147057
1789741089362152700,5.284152587890625,0.020049918442964554,0.04197971150279045,0.008412787690758705
1789741089372229600,5.294229736328125,0.017460793256759644,0.04886957257986069,-0.00612194649875164
1789741089382307800,5.304307861328125,0.019650444388389587,0.06316782534122467,-0.009623204357922077
1789741089392384800,5.314384765625,0.018985187634825706,0.05785960331559181,-0.01460864208638668
1789741089402462700,5.324462646484375,0.016491403803229332,0.06281042844057083,-0.006461232900619507
1789741089412539600,5.33453955078125,0.01322796568274498,0.04083162173628807,-0.009927071630954742
1789741089422617600,5.34461767578125,0.011423408053815365,0.03132546693086624,0.004932302515953779
1789741089432694800,5.35469482421875,0.004329013172537088,0.004091717302799225,-0.0005713861901313066
1789741089442772700,5.364772705078125,-0.005233332980424166,0.01706423982977867,0.008390682749450207
1789741089452850700,5.3748505859375,-0.02113853022456169,0.009965851902961731,-0.00438902759924531
1789741089462927600,5.384927734375,-0.015809012576937675,0.014575784094631672,-0.002721356227993965
1789741089473005800,5.395005859375,-0.031136568635702133,-0.009044591337442398,-0.013343640603125095
1789741089483082800,5.405082763671875,-0.03527698665857315,-0.024065084755420685,-0.015217441134154797
1789741089493160700,5.41516064453125,-0.04026881605386734,-0.035921212285757065,-0.015587354078888893
1789741089503237600,5.425237548828125,-0.06344204396009445,-0.02867688238620758,-0.011020299047231674
1789741089513315600,5.435315673828125,-0.07113618403673172,-0.04336368292570114,-0.01211059745401144
1789741089523392800,5.445392822265625,-0.065987229347229,-0.07039396464824677,-0.006506773177534342
1789741089533470700,5.455470703125,-0.07539031654596329,-0.08283678442239761,-0.009335849434137344
1789741089543547600,5.465547607421875,-0.08337128162384033,-0.0804511234164238,-0.008283634670078754
1789741089553625600,5.47562548828125,-0.08917324244976044,-0.0866890475153923,-0.01204721350222826
1789741089563702500,5.48570263671875,-0.09935583919286728,-0.09352245181798935,-0.01773332990705967
1789741089573780000,5.495780029296875,-0.11107880622148514,-0.085731640458107,-0.019752804189920425
1789741089583857200,5.505857177734375,-0.11479604989290237,-0.09423112124204636,-0.020526718348264694
1789741089593935000,5.51593505859375,-0.12273652851581573,-0.10521107167005539,-0.017767950892448425
1789741089604012000,5.526011962890625,-0.1257546842098236,-0.10462889820337296,-0.02026572823524475
1789741089614090000,5.536090087890625,-0.12880641222000122,-0.11276858299970627,-0.019335485994815826
1789741089624167000,5.5461669921875,-0.13985319435596466,-0.11416461318731308,-0.020234303548932076
1789741089634244900,5.556244873046875,-0.1470663696527481,-0.11248602718114853,-0.020275317132472992
1789741089644321800,5.56632177734375,-0.149840846657753,-0.12436585128307343,-0.021573340520262718
1789741089654400000,5.57639990234375,-0.1572260558605194,-0.08363733440637589,-0.023342745378613472
1789741089664477200,5.586477294921875,-0.17955000698566437,-0.11179360002279282,-0.005054551176726818
1789741089674555100,5.59655517578125,-0.1496104896068573,-0.08893835544586182,-0.043817125260829926
1789741089684633000,5.606633056640625,-0.16877353191375732,-0.032442856580019,-0.03030850924551487
1789741089694710000,5.6167099609375,-0.13042587041854858,0.031835198402404785,-0.012925524264574051
1789741089704788000,5.6267880859375,-0.12346436828374863,-0.0941871777176857,-0.03584441915154457
1789741089714865000,5.636864990234375,-0.1546451896429062,-0.005988613702356815,-0.038572028279304504
1789741089724942800,5.64694287109375,-0.15239082276821136,0.022015858441591263,-0.02279227040708065
1789741089735020000,5.65702001953125,-0.14101913571357727,-0.07687929272651672,-0.04457665979862213
1789741089745098200,5.66709814453125,-0.13524086773395538,-0.055785197764635086,-0.01881430670619011
1789741089755175200,5.677175048828125,-0.1390523910522461,-0.06460878252983093,-0.0014816545881330967
1789741089765253000,5.687253173828125,-0.151820108294487,-0.07469151169061661,-0.007169101387262344
1789741089775330000,5.697330078125,-0.12650330364704132,-0.026957277208566666,-0.007839951664209366
1789741089785408000,5.707407958984375,-0.12829826772212982,-0.012289918959140778,-0.018546124920248985
1789741089795485000,5.71748486328125,-0.14311210811138153,-0.05767391249537468,-0.029321808367967606
1789741089805563000,5.72756298828125,-0.17606446146965027,-0.09964612871408463,-0.028938045725226402
1789741089815640000,5.73764013671875,-0.17916812002658844,-0.12836353480815887,-0.020757615566253662
1789741089825718000,5.747718017578125,-0.17654862999916077,-0.22135499119758606,-0.030869903042912483
1789741089835795000,5.757794921875,-0.1511702984571457,-0.20692917704582214,-0.01887449435889721
1789741089845873200,5.767873046875,-0.13577643036842346,-0.20482021570205688,-0.003190871560946107
1789741089855950000,5.7779501953125,-0.10920820385217667,-0.2102847546339035,0.0031495823059231043
1789741089866028000,5.788028076171875,-0.09648121893405914,-0.20249740779399872,0.012191547080874443
1789741089876105000,5.79810498046875,-0.09610571712255478,-0.20930658280849457,0.01138940267264843
1789741089886183000,5.808182861328125,-0.09755101799964905,-0.21750085055828094,0.0035045817494392395
1789741089896260000,5.818260009765625,-0.09519225358963013,-0.22475823760032654,-0.005845244042575359
1789741089906338000,5.828338134765625,-0.08215874433517456,-0.2471493035554886,-0.007543541956692934
1789741089916416000,5.838416015625,-0.08057709038257599,-0.25767838954925537,0.000430228712502867
1789741089926493000,5.848492919921875,-0.07625637948513031,-0.27059686183929443,0.015255779959261417
1789741089936571100,5.858571044921875,-0.06439092755317688,-0.2842404842376709,0.029054416343569756
1789741089946648000,5.86864794921875,-0.05144929885864258,-0.31044599413871765,0.03262092173099518
1789741089956726000,5.87872607421875,-0.0037225219421088696,-0.2911396622657776,0.03895285353064537
1789741089966803200,5.88880322265625,0.032806459814310074,-0.2918352782726288,0.03732379898428917
1789741089976881200,5.898881103515625,0.05657437443733215,-0.28338322043418884,0.03943488746881485
1789741089986958000,5.9089580078125,0.07535844296216965,-0.2714059054851532,0.04087858647108078
1789741089997036000,5.9190361328125,0.08956348150968552,-0.27106422185897827,0.038131535053253174
1789741090007113000,5.929113037109375,0.09758332371711731,-0.2582448422908783,0.04351591691374779
1789741090017191000,5.93919091796875,0.1106053814291954,-0.24366028606891632,0.05147503688931465
1789741090027267800,5.949267822265625,0.12569698691368103,-0.2374066561460495,0.06152128055691719
1789741090037346000,5.959345947265625,0.14449863135814667,-0.2244117558002472,0.07029613107442856
1789741090047423200,5.96942333984375,0.1694500595331192,-0.20230433344841003,0.07551006972789764
1789741090057501200,5.979501220703125,0.1933833509683609,-0.20473499596118927,0.07054806500673294
1789741090067578000,5.989578125,0.22045011818408966,-0.175448477268219,0.06879916787147522
1789741090077656000,5.999656005859375,0.2385425716638565,-0.14148464798927307,0.07397528737783432
1789741090087733000,6.00973291015625,0.25346800684928894,-0.11312118917703629,0.07639876753091812
1789741090097811000,6.01981103515625,0.2690299153327942,-0.08746322989463806,0.07910267263650894
1789741090107887900,6.029887939453125,0.28609147667884827,-0.0550144799053669,0.07925207167863846
1789741090117965800,6.0399658203125,0.3069823682308197,-0.04401615634560585,0.07906565070152283
1789741090128043000,6.05004296875,0.3321966528892517,-0.012398576363921165,0.08858458697795868
1789741090138121200,6.060121337890625,0.3540790379047394,0.012140323407948017,0.09241368621587753
1789741090148199200,6.07019921875,0.3756900727748871,0.05519085377454758,0.10092753916978836
1789741090158276000,6.080276123046875,0.39576923847198486,0.08920715004205704,0.09659990668296814
1789741090168354000,6.09035400390625,0.42245811223983765,0.15000471472740173,0.08855929225683212
1789741090178431000,6.100430908203125,0.4359784424304962,0.18540266156196594,0.06794935464859009
1789741090188509000,6.110509033203125,0.44127893447875977,0.23512068390846252,0.05891351401805878
1789741090198586000,6.120586181640625,0.4483184516429901,0.2829912602901459,0.06225684657692909
1789741090208664000,6.1306640625,0.4499688148498535,0.30695757269859314,0.06151595339179039
1789741090218741000,6.140740966796875,0.450953871011734,0.3488183319568634,0.07172968238592148
1789741090228819200,6.150819091796875,0.4462653696537018,0.38258108496665955,0.0731949508190155
1789741090238896000,6.160896240234375,0.450282484292984,0.4275919497013092,0.07299628108739853
1789741090248974000,6.17097412109375,0.45101404190063477,0.44404977560043335,0.060870107263326645
1789741090259051000,6.181051025390625,0.4574351906776428,0.47219619154930115,0.05901787802577019
1789741090269129000,6.19112890625,0.4572485089302063,0.4797196090221405,0.0515248104929924
1789741090279206100,6.2012060546875,0.4543571174144745,0.4894295036792755,0.046792104840278625
1789741090289284000,6.2112841796875,0.4386433959007263,0.5185176134109497,0.041019171476364136
1789741090299361000,6.221361083984375,0.4189344048500061,0.5414738059043884,0.04339604452252388
1789741090309439000,6.23143896484375,0.40173038840293884,0.5582852959632874,0.044982753694057465
1789741090319516000,6.241515869140625,0.38733068108558655,0.5542979836463928,0.04215234890580177
1789741090329594000,6.251593994140625,0.3738340437412262,0.54658043384552,0.04362454265356064
1789741090339671000,6.261671142578125,0.37013304233551025,0.5374000072479248,0.04352360963821411
1789741090349749000,6.2717490234375,0.35500895977020264,0.5174318552017212,0.03609338775277138
1789741090359826200,6.281826171875,0.3411408066749573,0.5393512845039368,0.03611975535750389
1789741090369904000,6.291904052734375,0.3337758481502533,0.5192185640335083,0.023936325684189796
1789741090379981000,6.30198095703125,0.31900542974472046,0.5291159749031067,0.019474465399980545
1789741090390059000,6.31205908203125,0.31148386001586914,0.5220809578895569,0.01703021675348282
1789741090400137000,6.322136962890625,0.2967962622642517,0.5087931156158447,0.013499129563570023
1789741090410214000,6.3322138671875,0.28468605875968933,0.5074170231819153,0.013740678317844868
1789741090420292000,6.3422919921875,0.273018479347229,0.4862898886203766,0.015550563111901283
1789741090430369000,6.352369140625,0.2614121735095978,0.46158134937286377,0.015987321734428406
1789741090440447000,6.362447021484375,0.24874617159366608,0.4520144760608673,0.027297766879200935
1789741090450524200,6.372524169921875,0.24404887855052948,0.4227279722690582,0.034280307590961456
1789741090460602000,6.38260205078125,0.23855984210968018,0.3907005190849304,0.024464963003993034
1789741090470679000,6.392678955078125,0.22978179156780243,0.39636507630348206,0.024645792320370674
1789741090480757000,6.402757080078125,0.222396582365036,0.3660479187965393,0.014614461921155453
1789741090490834000,6.412833984375,0.21228723227977753,0.35764405131340027,0.008695320226252079
1789741090500911900,6.422911865234375,0.20175735652446747,0.37514713406562805,0.02083587273955345
1789741090510989000,6.432989013671875,0.20252594351768494,0.3290984034538269,0.022048143669962883
1789741090521067300,6.4430673828125,0.20307615399360657,0.3124755024909973,0.020925356075167656
1789741090531144200,6.453144287109375,0.2047523409128189,0.3060378432273865,0.0219741091132164
1789741090541222100,6.46322216796875,0.20190170407295227,0.2677655518054962,0.010700147598981857
1789741090551299000,6.473299072265625,0.190155029296875,0.2672393023967743,0.007402355782687664
1789741090561377000,6.483376953125,0.17962248623371124,0.2758253514766693,0.015588645823299885
1789741090571454200,6.4934541015625,0.17736732959747314,0.2503303587436676,0.010793358087539673
1789741090581532200,6.5035322265625,0.17937427759170532,0.26006340980529785,0.008788530714809895
1789741090591609300,6.513609375,0.18827669322490692,0.27137571573257446,0.009248458780348301
1789741090601687600,6.5236875,0.20094002783298492,0.2584857642650604,0.0037903101183474064
1789741090611764500,6.533764404296875,0.20393875241279602,0.2634466886520386,0.010218115523457527
1789741090621842400,6.543842529296875,0.2011733204126358,0.2807258069515228,0.015747103840112686
1789741090631919400,6.55391943359375,0.1976528912782669,0.28420764207839966,0.022126441821455956
1789741090641997300,6.563997314453125,0.19820043444633484,0.28655681014060974,0.024713169783353806
1789741090652075300,6.5740751953125,0.1973482221364975,0.2953641414642334,0.02606658823788166
1789741090662152200,6.584152099609375,0.19754263758659363,0.28937843441963196,0.020060893148183823
1789741090672230100,6.594230224609375,0.1953742951154709,0.28733792901039124,0.010876715183258057
1789741090682307300,6.604307373046875,0.19802120327949524,0.2836827337741852,0.007342168129980564
1789741090692385500,6.614385498046875,0.1984579712152481,0.2817274332046509,0.0016749612987041473
1789741090702462500,6.62446240234375,0.19751253724098206,0.2965148985385895,0.012125737965106964
1789741090712540400,6.63454052734375,0.20145109295845032,0.29849523305892944,0.01793009787797928
1789741090722617300,6.644617431640625,0.2055869847536087,0.28323665261268616,0.0003676155465655029
1789741090732695300,6.6546953125,0.20576594769954681,0.29996636509895325,0.01811092719435692
1789741090742772200,6.664772216796875,0.20587512850761414,0.4383538067340851,0.0319385901093483
1789741090752850200,6.67485009765625,0.20912152528762817,0.29624325037002563,-0.0026324354112148285
1789741090762927400,6.68492724609375,0.2270645797252655,0.3373273015022278,0.003975399769842625
1789741090773005300,6.69500537109375,0.22376598417758942,0.31967693567276,-0.0011261515319347382
1789741090783082200,6.705082275390625,0.19248822331428528,0.3345741331577301,0.0021719071082770824
1789741090793160200,6.71516015625,0.1947370022535324,0.42618316411972046,0.03633200749754906
1789741090803237000,6.725237060546875,0.19592423737049103,0.36810174584388733,0.03380493447184563
1789741090813315300,6.7353154296875,0.18602579832077026,0.3283521831035614,-0.001438007690012455
1789741090823392500,6.745392578125,0.19145411252975464,0.36832332611083984,0.009343267418444157
1789741090833470500,6.755470458984375,0.2032170295715332,0.3198162317276001,-0.0319485105574131
1789741090843547400,6.76554736328125,0.2075345516204834,0.3046700358390808,-0.018369851633906364
1789741090853625300,6.775625244140625,0.17396514117717743,0.2782248556613922,0.00887987669557333
1789741090863702300,6.785702392578125,0.17313049733638763,0.36332643032073975,0.04255262017250061
1789741090873780200,6.7957802734375,0.1759798228740692,0.319113165140152,0.05460662022233009
1789741090883857200,6.805857177734375,0.16315589845180511,0.28723883628845215,0.03237614780664444
1789741090893935000,6.81593505859375,0.1754610389471054,0.3274152874946594,0.01962333545088768
1789741090904013300,6.826013427734375,0.18448995053768158,0.19974815845489502,-0.015348496846854687
1789741090914090500,6.836090576171875,0.14368446171283722,0.1613704115152359,-0.056760117411613464
1789741090924168400,6.84616845703125,0.14005297422409058,0.34163177013397217,0.05526202544569969
1789741090934245400,6.856245361328125,0.14997059106826782,0.24461284279823303,0.09129459410905838
1789741090944323300,6.8663232421875,0.12492568045854568,0.2601584792137146,0.1383792757987976
1789741090954400300,6.876400146484375,0.1203136220574379,0.3315088450908661,0.13179567456245422
1789741090964478200,6.886478271484375,0.1610133796930313,0.2150232493877411,0.019895510748028755
1789741090974555100,6.89655517578125,0.1780932992696762,0.21653352677822113,-0.04987398162484169
1789741090984633000,6.906633056640625,0.13372370600700378,0.20824363827705383,-0.07292044907808304
1789741090994710300,6.916710205078125,0.0970999076962471,0.27668073773384094,-0.025108981877565384
1789741091004788500,6.92678857421875,0.08113718777894974,0.2512872517108917,0.008324341848492622
1789741091014865400,6.936865478515625,0.08269620686769485,0.21157020330429077,0.041133422404527664
1789741091024943400,6.946943359375,0.10353996604681015,0.17838428914546967,0.06440705060958862
1789741091035020300,6.957020263671875,0.11301842331886292,0.11916489899158478,0.05993613600730896
1789741091045098200,6.96709814453125,0.11467171460390091,0.07702543586492538,0.05550277233123779
1789741091055175400,6.977175537109375,0.08995704352855682,0.10303200781345367,0.053410060703754425
1789741091065253400,6.98725341796875,0.0814109593629837,0.15560919046401978,0.057573914527893066
1789741091075330300,6.997330322265625,0.08708082884550095,0.1607629507780075,0.058296963572502136
1789741091085408300,7.007408203125,0.08818018436431885,0.1643827110528946,0.03338601812720299
1789741091095485200,7.017485107421875,0.08705206960439682,0.21242214739322662,0.011992046609520912
1789741091105563400,7.0275634765625,0.10376207530498505,0.20799995958805084,0.0015364768914878368
1789741091115640300,7.037640380859375,0.11176540702581406,0.19587166607379913,0.024028470739722252
1789741091125718300,7.04771826171875,0.0991196483373642,0.25190508365631104,0.06593091040849686
1789741091135795500,7.05779541015625,0.11111985892057419,0.3523893654346466,0.08705084770917892
1789741091145873400,7.067873291015625,0.12177356332540512,0.28895366191864014,0.04754658043384552
1789741091155950300,7.077950439453125,0.12913455069065094,0.31783536076545715,0.044339869171381
1789741091166028300,7.0880283203125,0.12670014798641205,0.3571111261844635,0.07107720524072647
1789741091176106200,7.098106201171875,0.12797874212265015,0.38250356912612915,0.1092086136341095
1789741091186183200,7.10818310546875,0.11205702275037766,0.36679360270500183,0.109433114528656
1789741091196261400,7.118261474609375,0.09267719835042953,0.37906569242477417,0.08076977729797363
1789741091206338300,7.12833837890625,0.09670177102088928,0.39421483874320984,0.023553095757961273
1789741091216416300,7.138416259765625,0.10183554142713547,0.4287789463996887,-0.024220816791057587
1789741091226493400,7.148493408203125,0.10998634248971939,0.48199737071990967,-0.019254663959145546
1789741091236571400,7.1585712890625,0.10535003989934921,0.4871487021446228,0.02163391187787056
1789741091246648300,7.1686484375,0.10833650827407837,0.5206875205039978,0.06999532133340836
1789741091256726300,7.178726318359375,0.09121451526880264,0.5233357548713684,0.10058492422103882
1789741091266803200,7.18880322265625,0.08078105002641678,0.4624446928501129,0.055420905351638794
1789741091276881200,7.198881103515625,0.0831209048628807,0.43602320551872253,0.003634671913459897
1789741091286958300,7.208958251953125,0.0724560096859932,0.3181309401988983,-0.049752652645111084
1789741091297036300,7.219036376953125,0.0729561522603035,0.23782145977020264,-0.03997618705034256
1789741091307113500,7.229113525390625,0.11593317985534668,0.17999917268753052,0.0023579525295645
1789741091317191400,7.23919140625,0.14175012707710266,0.08734779804944992,0.04600450024008751
1789741091327268400,7.249268310546875,0.1398763209581375,0.18784990906715393,0.08115582913160324
1789741091337346300,7.25934619140625,0.1772652417421341,0.18890531361103058,0.028705937787890434
1789741091347423200,7.26942333984375,0.20323266088962555,0.12608587741851807,-0.06056162342429161
1789741091357501200,7.279501220703125,0.19827546179294586,0.1978663206100464,-0.06771300733089447
1789741091367578400,7.289578369140625,0.19641417264938354,0.22184115648269653,-0.045548055320978165
1789741091377656300,7.29965625,0.19979612529277802,0.27814170718193054,0.0153131652623415
1789741091387733200,7.309733154296875,0.219803124666214,0.28818875551223755,0.03229454532265663
1789741091397811500,7.3198115234375,0.259071946144104,0.25089675188064575,0.06309400498867035
1789741091407889400,7.329889404296875,0.3100704252719879,0.25842979550361633,0.052839234471321106
1789741091417966300,7.33996630859375,0.3429388701915741,0.4459863603115082,0.05713331699371338
1789741091428044300,7.350044189453125,0.3793661296367645,0.6548410654067993,0.02194710075855255
1789741091438121200,7.360121337890625,0.41943737864494324,0.7999306321144104,-0.03974928706884384
1789741091448199200,7.37019921875,0.504223644733429,0.9586963057518005,-0.051256272941827774
1789741091458276400,7.3802763671875,0.5723994970321655,1.0494956970214844,0.002825869945809245
1789741091468354300,7.390354248046875,0.6059281826019287,1.2684988975524902,0.12157915532588959
1789741091478431200,7.40043115234375,0.6582169532775879,1.3626807928085327,0.1291033774614334
1789741091488509400,7.410509521484375,0.6699931621551514,1.384979486465454,0.14010170102119446
1789741091498586400,7.42058642578125,0.6614603996276855,1.5611680746078491,0.15055833756923676
1789741091508664300,7.430664306640625,0.5630936026573181,1.6361242532730103,0.17817318439483643
1789741091518741200,7.4407412109375,0.5050559043884277,1.7357571125030518,0.18427741527557373
1789741091528819200,7.450819091796875,0.5077592730522156,1.8316853046417236,0.171253502368927
1789741091538896400,7.460896484375,0.5267281532287598,1.8190957307815552,0.20170408487319946
1789741091548974300,7.470974365234375,0.5593737363815308,1.4740453958511353,0.2101289927959442
1789741091559051300,7.48105126953125,0.5571004152297974,1.649506688117981,0.3194778561592102
1789741091569129000,7.49112890625,0.42992010712623596,1.3191207647323608,0.32568007707595825
1789741091579206000,7.501205810546875,0.31358766555786133,1.253665566444397,0.35895735025405884
1789741091589283800,7.511283935546875,0.24943317472934723,1.0252673625946045,0.3544779121875763
1789741091599361000,7.521361083984375,0.205025777220726,0.8150342106819153,0.2666604518890381
1789741091609439000,7.53143896484375,0.11874361336231232,0.6410488486289978,0.15391018986701965
1789741091619516000,7.541515869140625,0.04867371544241905,0.45904436707496643,0.08187301456928253
1789741091629593900,7.55159375,0.04178731143474579,0.22112371027469635,0.03300561010837555
1789741091639670800,7.5616708984375,0.06224092096090317,-0.13036908209323883,0.011157568544149399
1789741091649748700,7.571748779296875,-0.02987995184957981,-0.18002958595752716,0.030078530311584473
1789741091659826000,7.581825927734375,-0.05989803746342659,-0.23639032244682312,0.027746932581067085
1789741091669904000,7.59190380859375,-0.08197484165430069,-0.23467950522899628,0.03288097307085991
1789741091679981800,7.60198193359375,-0.09016060084104538,-0.24076376855373383,-0.008293094113469124
1789741091690059000,7.61205908203125,-0.05046192556619644,-0.18392232060432434,-0.04375547915697098
1789741091700137000,7.622136962890625,-0.024242838844656944,-0.2935849130153656,-0.09654705226421356
1789741091710214000,7.6322138671875,-0.00470695411786437,-0.2168765515089035,-0.11405041813850403
1789741091720291800,7.642291748046875,0.0012241719523444772,-0.21957938373088837,-0.09076426923274994
1789741091730368800,7.65236865234375,-0.008319531567394733,-0.22618909180164337,-0.04166729375720024
1789741091740446700,7.66244677734375,-0.03968331217765808,-0.14469130337238312,0.015101177617907524
1789741091750524000,7.67252392578125,-0.05911426991224289,-0.06341828405857086,0.08486614376306534
1789741091760602000,7.68260205078125,-0.12713593244552612,-0.03144649788737297,0.10072606801986694
1789741091770679000,7.692678955078125,-0.18171954154968262,0.06468402594327927,0.0703497901558876
1789741091780757000,7.702757080078125,-0.17384298145771027,0.052655596286058426,0.04508943855762482
1789741091790834000,7.712833984375,-0.1487133949995041,-0.07915676385164261,-0.0043313754722476006
1789741091800912000,7.722911865234375,-0.11342810839414597,-0.17581406235694885,-0.018904725089669228
1789741091810988800,7.73298876953125,-0.13009390234947205,-0.18586936593055725,-0.00041200139094144106
1789741091821066800,7.743066650390625,-0.1803157925605774,-0.17813794314861298,0.024028893560171127
1789741091831144000,7.75314404296875,-0.27225399017333984,-0.15653890371322632,0.0455741323530674
1789741091841222000,7.763221923828125,-0.3350643813610077,-0.17494827508926392,0.06458085030317307
1789741091851298800,7.773298828125,-0.3407866954803467,-0.29586246609687805,0.04389474168419838
1789741091861377000,7.783376953125,-0.33865058422088623,-0.377606064081192,0.010244637727737427
1789741091871454000,7.793453857421875,-0.31277531385421753,-0.4183604121208191,-0.01049739308655262
1789741091881532000,7.803531982421875,-0.26742035150527954,-0.4937531650066376,-0.02536821737885475
1789741091891608800,7.81360888671875,-0.2445797324180603,-0.4540877640247345,0.004059712402522564
1789741091901686800,7.823686767578125,-0.25945377349853516,-0.4782644808292389,0.01249767281115055
1789741091911764000,7.833763916015625,-0.2873549163341522,-0.3720693290233612,0.031229015439748764
1789741091921842000,7.843842041015625,-0.31389063596725464,-0.27627864480018616,0.01705860160291195
1789741091931920000,7.853919921875,-0.31923428177833557,-0.2468072772026062,-0.004203543998301029
1789741091941996800,7.863996826171875,-0.3074236810207367,-0.21501712501049042,-0.007564719300717115
1789741091952075000,7.874074951171875,-0.2911919951438904,-0.19264045357704163,0.014793848618865013
1789741091962152000,7.88415185546875,-0.2684038579463959,-0.17154234647750854,0.053375065326690674
1789741091972230000,7.89422998046875,-0.26192358136177063,-0.16321252286434174,0.08648961037397385
1789741091982307000,7.90430712890625,-0.28990888595581055,-0.12148158252239227,0.09518935531377792
1789741091992385000,7.914385009765625,-0.3062593638896942,-0.1145232766866684,0.08042745292186737
1789741092002462000,7.9244619140625,-0.32730552554130554,-0.1010948196053505,0.04773342236876488
1789741092012540000,7.934539794921875,-0.3524409830570221,-0.11724182963371277,0.008469108492136002
1789741092022616800,7.944616943359375,-0.35827967524528503,-0.10862037539482117,0.029413271695375443
1789741092032694800,7.95469482421875,-0.3490435779094696,-0.18460142612457275,0.04198366031050682
1789741092042771700,7.964771728515625,-0.3465423285961151,-0.2999647855758667,0.047716911882162094
1789741092052850000,7.974849853515625,-0.3566485047340393,-0.3077976703643799,0.07898242026567459
1789741092062927000,7.984927001953125,-0.3706114590167999,-0.3541063070297241,0.08348875492811203
1789741092073005000,7.995005126953125,-0.3787703216075897,-0.44507163763046265,0.05016595497727394
1789741092083082000,8.00508203125,-0.3864615261554718,-0.41792869567871094,0.02048422582447529
1789741092093160000,8.015159912109375,-0.39342567324638367,-0.45813870429992676,-0.015587758272886276
1789741092103236900,8.02523681640625,-0.41029706597328186,-0.5297750234603882,-0.014010634273290634
1789741092113314800,8.035314697265624,-0.4333997368812561,-0.5599547624588013,0.02116572856903076
1789741092123391700,8.045391845703126,-0.44604387879371643,-0.6948556303977966,0.05444032698869705
1789741092133469700,8.0554697265625,-0.469121515750885,-0.7541143894195557,0.07066696882247925
1789741092143547000,8.065546875,-0.4782814681529999,-0.6752781867980957,0.0836232453584671
1789741092153625000,8.075625,-0.49119991064071655,-0.7297890782356262,0.020645346492528915
1789741092163702000,8.085701904296876,-0.48459526896476746,-0.6311131119728088,-0.058782365173101425
1789741092173780000,8.095780029296876,-0.45840227603912354,-0.5250564813613892,-0.08360835164785385
1789741092183857000,8.10585693359375,-0.459820955991745,-0.4477265477180481,-0.051988907158374786
1789741092193934800,8.115934814453125,-0.45076727867126465,-0.36867302656173706,-0.014906521886587143
1789741092204012800,8.1260126953125,-0.44918161630630493,-0.3985110819339752,0.027275819331407547
1789741092214090000,8.136090087890626,-0.43689167499542236,-0.35687705874443054,0.02941247448325157
1789741092224168000,8.14616796875,-0.4207904636859894,-0.34354367852211,-0.004820331931114197
1789741092234244900,8.156244873046875,-0.4020346701145172,-0.2807614803314209,-0.02166747860610485
1789741092244323000,8.166322998046875,-0.39066776633262634,-0.26271429657936096,-0.038413435220718384
1789741092254400000,8.17639990234375,-0.36494776606559753,-0.16472993791103363,-0.053458962589502335
1789741092264478000,8.18647802734375,-0.3403633236885071,-0.14410775899887085,-0.059905942529439926
1789741092274555000,8.196554931640625,-0.3233867287635803,-0.12510903179645538,-0.023681094869971275
1789741092284632800,8.2066328125,-0.28253304958343506,-0.17419402301311493,-0.004081561230123043
1789741092294710000,8.2167099609375,-0.28016015887260437,-0.3614773452281952,-0.03680674731731415
1789741092304788000,8.2267880859375,-0.29157793521881104,-0.3223818838596344,-0.04206782206892967
1789741092314865000,8.236864990234375,-0.3183765411376953,-0.42181047797203064,-0.07551579922437668
1789741092324942800,8.24694287109375,-0.36006832122802734,-0.44751212000846863,-0.11631249636411667
1789741092335019800,8.257019775390624,-0.38719820976257324,-0.43850448727607727,-0.14525198936462402
1789741092345098000,8.267097900390626,-0.40666672587394714,-0.5085959434509277,-0.1139095276594162
1789741092355175000,8.2771748046875,-0.409300833940506,-0.5865333676338196,-0.0519404262304306
1789741092365252900,8.2872529296875,-0.3747282326221466,-0.7061127424240112,0.014536331407725811
1789741092375330000,8.297330078125,-0.34589898586273193,-0.8431252241134644,0.028602614998817444
1789741092385408000,8.307407958984374,-0.33949512243270874,-0.8011367321014404,0.0466010607779026
1789741092395485000,8.31748486328125,-0.3551470637321472,-0.8513866066932678,-0.016650350764393806
1789741092405563000,8.32756298828125,-0.3977011740207672,-0.8557118773460388,-0.052554819732904434
1789741092415639800,8.337639892578125,-0.4261400103569031,-0.7587040662765503,-0.05706221982836723
1789741092425717800,8.3477177734375,-0.4024890065193176,-0.7976592183113098,-0.08485177904367447
1789741092435795000,8.357794921875,-0.3932880461215973,-0.8560863137245178,-0.12669429183006287
1789741092445873000,8.367872802734375,-0.36729907989501953,-0.7530562877655029,-0.08987263590097427
1789741092455949800,8.37794970703125,-0.35057494044303894,-0.8818520903587341,-0.13393914699554443
1789741092466028000,8.388028076171874,-0.36887112259864807,-0.80759197473526,-0.10868733376264572
1789741092476106000,8.39810595703125,-0.3872637152671814,-0.6948007345199585,-0.03319576755166054
1789741092486183000,8.408182861328125,-0.43026551604270935,-0.8741441369056702,-0.11419102549552917
1789741092496260900,8.4182607421875,-0.42428165674209595,-0.7056578993797302,-0.05783959478139877
1789741092506337800,8.428337890625,-0.40795382857322693,-0.7318271994590759,-0.030544061213731766
1789741092516415700,8.438415771484374,-0.4157086908817291,-0.7643052339553833,-0.04249712452292442
1789741092526493000,8.448492919921875,-0.4165142774581909,-0.6129093170166016,0.010790862143039703
1789741092536571000,8.45857080078125,-0.3988455533981323,-0.5670979022979736,0.014211691915988922
1789741092546647800,8.468647705078125,-0.3214799165725708,-0.457651823759079,0.019331352785229683
1789741092556726000,8.47872607421875,-0.2590287923812866,-0.4082358181476593,0.01245800033211708
1789741092566803000,8.488802978515626,-0.21476972103118896,-0.380313903093338,0.003130545374006033
1789741092576880600,8.498880615234375,-0.2278205305337906,-0.3748200535774231,-0.05065012723207474
1789741092586957600,8.50895751953125,-0.25189632177352905,-0.24925707280635834,-0.05306694656610489
1789741092597035800,8.519035888671874,-0.2525162994861603,-0.24878835678100586,-0.058628156781196594
1789741092607113000,8.529113037109376,-0.2685818076133728,-0.3155950903892517,-0.07575707882642746
1789741092617191000,8.53919091796875,-0.27180051803588867,-0.27042707800865173,-0.031748607754707336
1789741092627267800,8.549267822265625,-0.25999417901039124,-0.2995367646217346,0.0051649343222379684
1789741092637345800,8.559345703125,-0.18534231185913086,-0.38949593901634216,-0.0001339573645964265
1789741092647422700,8.569422607421876,-0.14538851380348206,-0.4744552969932556,-0.013974139466881752
1789741092657500700,8.579500732421875,-0.15552157163619995,-0.5160818696022034,-0.009410013444721699
1789741092667577900,8.589577880859375,-0.19387854635715485,-0.5135483741760254,-0.039561789482831955
1789741092677655800,8.59965576171875,-0.22377519309520721,-0.5015122294425964,-0.07703806459903717
1789741092687732700,8.609732666015624,-0.2284863293170929,-0.566317081451416,-0.0963292047381401
1789741092697811000,8.61981103515625,-0.24454092979431152,-0.6712501049041748,-0.07795552164316177
1789741092707887900,8.629887939453125,-0.24794471263885498,-0.6595847010612488,0.026489397510886192
1789741092717965800,8.6399658203125,-0.18970537185668945,-0.6661201119422913,0.04509291052818298
1789741092728043800,8.650043701171874,-0.2016989141702652,-0.7866328954696655,0.02207281067967415
1789741092738120700,8.66012060546875,-0.2371186912059784,-0.6825645565986633,0.006747118197381496
1789741092748198700,8.67019873046875,-0.2786608040332794,-0.5730356574058533,0.01366201601922512
1789741092758275800,8.68027587890625,-0.3045414090156555,-0.5895797610282898,-0.083205945789814
1789741092768353800,8.690353759765625,-0.32941558957099915,-0.49309584498405457,-0.13995656371116638
1789741092778430700,8.7004306640625,-0.3500494956970215,-0.5027540326118469,-0.11632554978132248
1789741092788509000,8.710509033203126,-0.3472862243652344,-0.5188904404640198,-0.046190131455659866
1789741092798585900,8.7205859375,-0.3335117995738983,-0.5935643911361694,-0.002756105735898018
1789741092808663800,8.730663818359375,-0.30649563670158386,-0.5669655203819275,0.027993550524115562
1789741092818740700,8.74074072265625,-0.28179216384887695,-0.6759485006332397,-0.032643694430589676
1789741092828818700,8.750818603515626,-0.32170015573501587,-0.6959413886070251,-0.03569860756397247
1789741092838895900,8.760895751953125,-0.4078880548477173,-0.665022611618042,0.08406507223844528
1789741092848973800,8.770973876953125,-0.3923194706439972,-0.7033641338348389,0.08778177946805954
1789741092859050800,8.78105078125,-0.22403192520141602,-0.7036024928092957,-0.04747670516371727
1789741092869128700,8.791128662109376,-0.1895969808101654,-0.8840361833572388,-0.21004323661327362
1789741092879205600,8.80120556640625,-0.3060391843318939,-0.6147317290306091,-0.053828876465559006
1789741092889283600,8.81128369140625,-0.3690706193447113,-0.4518892765045166,0.12288597226142883
1789741092899360800,8.82136083984375,-0.3365859091281891,-0.46842512488365173,0.07951080054044724
1789741092909439000,8.83143896484375,-0.2622770369052887,-0.5064327120780945,-0.09080074727535248
1789741092919516000,8.841515869140625,-0.2679882049560547,-0.5141454935073853,-0.10311760008335114
1789741092929593900,8.85159375,-0.2875978350639343,-0.370048463344574,0.03188443183898926
1789741092939670800,8.8616708984375,-0.24477049708366394,-0.48778894543647766,0.06061407923698425
1789741092949748700,8.871748779296874,-0.1273924708366394,-0.48873332142829895,0.04229126498103142
1789741092959825700,8.88182568359375,-0.08084201067686081,-0.49943283200263977,0.017049290239810944
1789741092969903600,8.891903564453125,-0.07427651435136795,-0.4855830669403076,-0.03297685831785202
1789741092979980800,8.901980712890625,-0.10609037429094315,-0.39030393958091736,-0.02105388604104519
1789741092990058800,8.912058837890624,-0.10343626886606216,-0.2654474973678589,-0.005931125953793526
1789741093000135700,8.9221357421875,-0.08323352783918381,-0.3269023299217224,-0.028608474880456924
1789741093010214000,8.9322138671875,-0.017450250685214996,-0.2495122104883194,0.014550979249179363
1789741093020291800,8.942291748046875,0.02512756921350956,-0.11928043514490128,0.07348380237817764
1789741093030368800,8.95236865234375,0.08182094246149063,-0.045199282467365265,0.08801241219043732
1789741093040446700,8.96244677734375,0.13386203348636627,-0.07539234310388565,0.045766156166791916
1789741093050523600,8.972523681640626,0.16730201244354248,0.11028964072465897,0.018022142350673676
1789741093060601600,8.9826015625,0.16440796852111816,0.14548011124134064,-0.010603110305964947
1789741093070678800,8.9926787109375,0.17984390258789062,0.30329078435897827,0.0014876413624733686
1789741093080756700,9.0027568359375,0.197580024600029,0.2805497944355011,0.023069100454449654
1789741093090833700,9.012833740234376,0.22208350896835327,0.35994234681129456,0.057451311498880386
1789741093100911900,9.022911865234375,0.27479758858680725,0.4188496172428131,0.09173683822154999
1789741093110988800,9.03298876953125,0.33098602294921875,0.3733596205711365,0.061642058193683624
1789741093121066800,9.043066650390625,0.3423720896244049,0.48352155089378357,0.06307324022054672
1789741093131144000,9.05314404296875,0.3521011769771576,0.5341378450393677,0.0681295171380043
1789741093141222000,9.063221923828126,0.3503514528274536,0.5470246076583862,0.04126701503992081
1789741093151298800,9.073298828125,0.3787948191165924,0.5680217742919922,0.007169761694967747
1789741093161376800,9.083376708984375,0.3958323895931244,0.5453271269798279,-0.028923261910676956
1789741093171453700,9.09345361328125,0.4100925624370575,0.5487031936645508,-0.02972886711359024
1789741093181531600,9.10353173828125,0.43299201130867004,0.6035454273223877,0.0034546521492302418
1789741093191608600,9.113608642578125,0.43764910101890564,0.5073914527893066,0.04818644002079964
1789741093201686800,9.123686767578125,0.4124539792537689,0.4993513822555542,0.13442625105381012
1789741093211764000,9.133763916015624,0.4250267744064331,0.5151971578598022,0.17366713285446167
1789741093221842000,9.143842041015626,0.4366200268268585,0.5273990035057068,0.10286592692136765
1789741093231918800,9.1539189453125,0.4603773057460785,0.5005319714546204,0.0018314555054530501
1789741093241996800,9.163996826171875,0.44206491112709045,0.49435165524482727,-0.06605655699968338
1789741093252073700,9.17407373046875,0.41668736934661865,0.5940279364585876,-0.03838151693344116
1789741093262151700,9.184151611328126,0.37983909249305725,0.48279058933258057,-0.036641139537096024
1789741093272228600,9.194228515625,0.3573281764984131,0.5863990187644958,0.0032660604920238256
1789741093282306600,9.204306640625,0.3823384642601013,0.6622109413146973,0.05622301995754242
1789741093292384800,9.214384765625,0.38391026854515076,0.4846060872077942,0.00391400745138526
1789741093302462000,9.2244619140625,0.3807107210159302,0.5857239365577698,0.032360296696424484
1789741093312540000,9.234539794921876,0.34099873900413513,0.5491973161697388,0.03198905289173126
1789741093322616800,9.244616943359375,0.3083025813102722,0.574216902256012,0.0669049546122551
1789741093332694800,9.25469482421875,0.29044875502586365,0.5332852005958557,0.07440441846847534
1789741093342771700,9.264771728515624,0.3026212453842163,0.4653477072715759,0.041329290717840195
1789741093352849700,9.274849609375,0.28126591444015503,0.45211124420166016,0.026782838627696037
1789741093362926800,9.2849267578125,0.2409142106771469,0.4924520254135132,0.012676872313022614
1789741093373004800,9.2950048828125,0.22459541261196136,0.5609330534934998,0.008303429000079632
1789741093383081700,9.305081787109375,0.2227056324481964,0.5361587405204773,0.01190881710499525
1789741093393160000,9.315159912109374,0.2188003808259964,0.5297663807868958,0.006948946043848991
1789741093403236900,9.32523681640625,0.2387344092130661,0.5740320682525635,0.016883868724107742
1789741093413314800,9.335314697265625,0.22621062397956848,0.4784214198589325,-0.003304490353912115
1789741093423391700,9.345391845703125,0.23442967236042023,0.6069152355194092,0.0322636254131794
1789741093433469700,9.3554697265625,0.21494758129119873,0.4380100667476654,0.014651605859398842
1789741093443547000,9.365546875,0.18920333683490753,0.5441458225250244,0.06571000069379807
1789741093453624800,9.375624755859375,0.16845598816871643,0.5362791419029236,0.06929993629455566
1789741093463701800,9.38570166015625,0.17658528685569763,0.5237516164779663,0.05068790540099144
1789741093473779700,9.39577978515625,0.197833850979805,0.47552043199539185,0.035010941326618195
1789741093483856600,9.405856689453126,0.20616208016872406,0.5712736248970032,0.058656882494688034
1789741093493934800,9.415934814453125,0.22397437691688538,0.6027899980545044,0.07321158796548843
1789741093504011800,9.42601171875,0.23058860003948212,0.5208096504211426,0.011054208502173424
1789741093514089700,9.43608984375,0.2404249757528305,0.5487392544746399,-0.08227866888046265
1789741093524167000,9.4461669921875,0.24147666990756989,0.5699777007102966,-0.09035896509885788
1789741093534244900,9.456244873046876,0.22580182552337646,0.5584038496017456,-0.024482745677232742
1789741093544321800,9.46632177734375,0.2004394829273224,0.4527794420719147,0.04242438077926636
1789741093554399700,9.476399658203125,0.2130114734172821,0.4286578595638275,0.09078259021043777
1789741093564476700,9.4864765625,0.24654652178287506,0.4782930612564087,0.06015331298112869
1789741093574558000,9.496557861328125,0.25523510575294495,0.5004042387008667,0.006566782481968403
1789741093584636000,9.506635986328124,0.24463410675525665,0.47721126675605774,-0.04228810966014862
1789741093594713000,9.516713134765626,0.22001850605010986,0.5276310443878174,-0.010473720729351044
1789741093604791000,9.526791015625,0.19185398519039154,0.3851540684700012,0.018588025122880936
1789741093614868000,9.536867919921875,0.19091708958148956,0.3798988461494446,-0.017690353095531464
1789741093624946200,9.5469462890625,0.15736019611358643,0.4741140305995941,-0.04396962746977806
1789741093635023000,9.557023193359376,0.1127043068408966,0.3904007375240326,-0.05504970997571945
1789741093645101000,9.56710107421875,0.10894445329904556,0.3649555742740631,0.0019451326224952936
1789741093655178000,9.577177978515625,0.11051305383443832,0.30533140897750854,0.04160119965672493
1789741093665256000,9.587255859375,0.10038771480321884,0.32262730598449707,0.047158949077129364
1789741093675333000,9.5973330078125,0.07204875349998474,0.27660760283470154,-0.019503965973854065
1789741093685411000,9.6074111328125,0.04077072814106941,0.26933929324150085,-0.010435104370117188
1789741093695488000,9.617488037109375,-0.005811686161905527,0.2422325760126114,0.014111250638961792
1789741093705566000,9.62756591796875,-0.029977209866046906,0.1534760743379593,0.05232441797852516
1789741093715643000,9.637642822265626,-0.021377330645918846,0.02802707627415657,0.024921022355556488
1789741093725721000,9.64772119140625,-0.04895436391234398,0.10859435796737671,-0.014622925780713558
1789741093735798000,9.657798095703125,-0.08009044826030731,-0.009687279351055622,-0.021383624523878098
1789741093745876000,9.6678759765625,-0.11792437732219696,-0.12618885934352875,-0.034915946424007416
1789741093755953200,9.677953125,-0.1487102508544922,-0.164536252617836,0.0006236720946617424
1789741093766031000,9.688031005859376,-0.20286217331886292,-0.18269501626491547,0.028456902131438255
1789741093776108000,9.69810791015625,-0.23552237451076508,-0.19603079557418823,0.04075378179550171
1789741093786186000,9.70818603515625,-0.23857782781124115,-0.38958853483200073,0.015919538214802742
1789741093796263000,9.718262939453124,-0.28482574224472046,-0.3443630039691925,0.03577713295817375
1789741093806340900,9.7283408203125,-0.29347941279411316,-0.2640897333621979,0.11824377626180649
1789741093816418000,9.73841796875,-0.3198944926261902,-0.5426398515701294,-0.055732809007167816
1789741093826496000,9.74849609375,-0.33059027791023254,-0.3483335077762604,-0.09557902812957764
1789741093836573200,9.7585732421875,-0.32884910702705383,-0.34435632824897766,-0.05408218130469322
1789741093846651100,9.768651123046874,-0.3393941819667816,-0.47985824942588806,-0.03168979287147522
1789741093856729000,9.77872900390625,-0.3754243552684784,-0.41943615674972534,0.005158768966794014
1789741093866806000,9.788805908203125,-0.3693760335445404,-0.34816306829452515,0.03494169935584068
1789741093876884000,9.798884033203125,-0.3508114218711853,-0.431153804063797,0.012632397934794426
1789741093886961000,9.8089609375,-0.346508264541626,-0.4748799800872803,0.027725065127015114
1789741093897038800,9.819038818359376,-0.36546385288238525,-0.49606356024742126,0.020286323502659798
1789741093907116000,9.829115966796875,-0.3687203526496887,-0.4303881525993347,-0.025468114763498306
1789741093917194200,9.8391943359375,-0.3657355010509491,-0.44191351532936096,-0.06354173272848129
1789741093927271200,9.849271240234375,-0.33072638511657715,-0.39917245507240295,-0.04896198958158493
1789741093937349000,9.85934912109375,-0.28645452857017517,-0.5124454498291016,0.002726237755268812
1789741093947426000,9.869426025390625,-0.25104352831840515,-0.46846896409988403,0.03829781338572502
1789741093957504000,9.87950390625,-0.24501974880695343,-0.5143080949783325,0.021756388247013092
1789741093967581000,9.889580810546875,-0.242920383810997,-0.4290837347507477,0.025325024500489235
1789741093977659000,9.899658935546874,-0.2456730157136917,-0.48249050974845886,0.027255017310380936
1789741093987736000,9.909736083984376,-0.23038727045059204,-0.44351327419281006,0.005997931119054556
1789741093997814000,9.91981396484375,-0.1981542408466339,-0.3933164179325104,0.00448712008073926
1789741094007891000,9.929890869140625,-0.1601104438304901,-0.4321836531162262,0.009029140695929527
1789741094017969200,9.93996923828125,-0.15001200139522552,-0.4507560133934021,0.0053126998245716095
1789741094028046000,9.950046142578126,-0.12736155092716217,-0.27272823452949524,-0.026589838787913322
1789741094038124000,9.9601240234375,-0.09697195887565613,-0.29394668340682983,-0.0629904568195343
1789741094048201000,9.970200927734375,-0.09048502892255783,-0.38014522194862366,-0.10399354994297028
1789741094058279000,9.98027880859375,-0.10969068109989166,-0.23683707416057587,-0.01223007496446371
1789741094068356000,9.990356201171876,-0.12157317250967026,-0.19277454912662506,0.0738973543047905
1789741094078434000,10.00043408203125,-0.11901600658893585,-0.28482481837272644,0.023277852684259415
1789741094088511000,10.010510986328125,-0.08101003617048264,-0.17670263350009918,0.010954073630273342
1789741094098589000,10.0205888671875,-0.041274070739746094,-0.12451133131980896,0.0524330735206604
1789741094108665900,10.030665771484376,-0.03325635939836502,-0.22273510694503784,0.01824500970542431
1789741094118744000,10.040744140625,-0.008932644501328468,-0.05701538175344467,0.02277185209095478
1789741094128821200,10.0508212890625,0.002694183960556984,-0.05028344318270683,-0.01826825924217701
1789741094138899200,10.060899169921875,0.02980649471282959,0.0013230270706117153,0.011259005405008793
1789741094148977200,10.07097705078125,0.007104911375790834,-0.08086638152599335,0.01054847426712513
1789741094159054000,10.08105419921875,0.005148286931216717,0.11786428838968277,0.04727239906787872
1789741094169132000,10.091132080078125,0.012165184132754803,-0.02060384303331375,0.01223265752196312
1789741094179209000,10.101208984375,0.037848442792892456,0.004120411816984415,-0.005529827903956175
1789741094189287000,10.111286865234375,0.044163063168525696,-0.02979973889887333,0.024340718984603882
1789741094199363800,10.12136376953125,0.031696539372205734,-0.07016686350107193,0.057155393064022064
1789741094209442000,10.131442138671876,0.017016930505633354,-0.09289880841970444,0.06254616379737854
1789741094219519200,10.141519287109375,0.019989019259810448,0.03770739957690239,0.09826820343732834
1789741094229597200,10.15159716796875,0.015573231503367424,-0.08195055276155472,0.05587946996092796
1789741094239674000,10.161674072265624,0.02252115122973919,-0.14856606721878052,-0.03089936450123787
1789741094249752000,10.171751953125,0.030004121363162994,-0.014844941906630993,-0.00837865099310875
1789741094259829000,10.1818291015625,0.024051155894994736,-0.07107891887426376,-0.008467334322631359
1789741094269907000,10.191906982421875,0.021631408482789993,-0.14534996449947357,-0.05983385443687439
1789741094279983900,10.20198388671875,0.018697669729590416,-0.002097455319017172,-0.00771685503423214
1789741094290061800,10.212061767578126,-0.002429719315841794,-0.08004818111658096,0.04119742289185524
1789741094300139000,10.222138916015625,-0.017599085345864296,-0.1070030927658081,0.07517403364181519
1789741094310217200,10.23221728515625,-0.009853013791143894,-0.09135649353265762,0.1044275313615799
1789741094320294100,10.242294189453125,-0.008876432664692402,-0.16355159878730774,0.06540689617395401
1789741094330372000,10.2523720703125,-0.008013835176825523,-0.2008797973394394,-0.1353885382413864
1789741094340449000,10.262448974609375,0.015561532229185104,-0.1063237264752388,-0.15730395913124084
1789741094350527000,10.27252685546875,-0.005927514750510454,0.030111880972981453,0.0033163547050207853
1789741094360604200,10.282604248046875,0.011846688576042652,0.0184783935546875,-0.04813937842845917
1789741094370682000,10.29268212890625,0.0018273437162861228,0.023376479744911194,-0.013025334104895592
1789741094380759000,10.302759033203126,0.008604822680354118,0.01366925798356533,0.0695587620139122
1789741094390837000,10.3128369140625,0.02197548933327198,-0.06452354788780212,0.09281854331493378
1789741094400914000,10.322913818359375,0.03835313022136688,-0.0996897891163826,0.024150798097252846
1789741094410991900,10.332991943359374,0.043154276907444,-0.03634996712207794,0.02098483219742775
1789741094421068800,10.34306884765625,0.02383038029074669,-0.013337326236069202,-0.010948068462312222
1789741094431147000,10.35314697265625,0.006801330018788576,-0.1177327036857605,-0.07537925243377686
1789741094441225000,10.363224853515625,0.02605252154171467,0.04090780019760132,-0.03051644191145897
1789741094451302100,10.37330224609375,0.049137331545352936,-0.04068053513765335,0.013201476074755192
1789741094461380000,10.383380126953124,0.03874248266220093,-0.1314791589975357,0.006795241963118315
1789741094471457000,10.39345703125,0.05459308624267578,-0.01549501996487379,0.035064697265625
1789741094481535000,10.403534912109375,0.044510092586278915,-0.04418472200632095,-0.0011753325816243887
1789741094491612000,10.41361181640625,0.017357833683490753,-0.05254518240690231,-0.03172019496560097
1789741094501689900,10.42368994140625,0.022108381614089012,0.0672810897231102,0.0034961181227117777
1789741094511766800,10.433766845703126,0.027582507580518723,-0.08256619423627853,0.003527277149260044
1789741094521845000,10.443844970703125,0.03940614312887192,-0.07409148663282394,0.03356453776359558
1789741094531922200,10.453922119140625,0.02185910940170288,-0.09296397864818573,0.02537185698747635
1789741094542000000,10.464000244140625,0.008129981346428394,-0.07539696991443634,0.0024862473364919424
1789741094552077000,10.4740771484375,0.026148928329348564,0.035304248332977295,-0.01607412099838257
1789741094562155000,10.484155029296875,0.04736846312880516,0.034399040043354034,-0.010742472484707832
1789741094572229400,10.4942294921875,0.04783078655600548,-0.06099086254835129,-0.06260300427675247
1789741094582307300,10.504307373046874,0.04509145766496658,0.020148728042840958,-0.01607332192361355
1789741094592384300,10.51438427734375,0.05071312561631203,0.007669155485928059,0.06485961377620697
1789741094602462500,10.52446240234375,0.02679554373025894,-0.062245212495326996,0.08521655201911926
1789741094612539600,10.53453955078125,0.012904229573905468,0.03864385187625885,0.050437260419130325
1789741094622617600,10.54461767578125,0.04671438783407211,0.10059989988803864,0.05810236930847168
1789741094632694500,10.554694580078126,0.029468292370438576,-0.05247540771961212,-0.05857790634036064
1789741094642772500,10.5647724609375,0.05036212131381035,0.11700523644685745,-0.04292544350028038
1789741094652849400,10.574849365234375,0.05150355026125908,-0.07825879752635956,0.00010511517757549882
1789741094662927400,10.58492724609375,0.02919132448732853,-0.04869744926691055,0.007932944223284721
1789741094673004300,10.59500439453125,0.04141070321202278,0.003812098875641823,0.05732925608754158
1789741094683082200,10.605082275390625,0.043121252208948135,0.013741428032517433,0.09289870411157608
1789741094693159400,10.615159423828125,0.0491194911301136,-0.015861470252275467,0.004562980495393276
1789741094703237600,10.625237548828125,0.07236090302467346,0.015509234741330147,-0.016701826825737953
1789741094713315600,10.635315673828124,0.06373385339975357,0.02455412968993187,-0.03685210645198822
1789741094723392500,10.645392578125,0.037095583975315094,-0.05039361119270325,-0.08801674842834473
1789741094733470500,10.655470458984375,0.041800059378147125,0.10174611955881119,-0.044107887893915176
1789741094743547400,10.66554736328125,0.043426185846328735,0.07384737581014633,-0.017627542838454247
1789741094753625300,10.675625244140624,0.04796580970287323,0.01625571958720684,0.02460459992289543
1789741094763702300,10.685702392578126,0.04560491815209389,-0.005419216118752956,0.05641046538949013
1789741094773780200,10.6957802734375,0.03985967859625816,0.04013016074895859,0.08873192220926285
1789741094783857400,10.705857421875,0.0350891575217247,-0.06570146232843399,0.051223427057266235
1789741094793935600,10.715935546875,0.03146139904856682,-0.0012276666238904,0.026543647050857544
1789741094804012500,10.726012451171876,0.021098243072628975,0.060149140655994415,-0.029465826228260994
1789741094814090500,10.736090576171875,0.012601428665220737,-0.00757983885705471,-0.09716204553842545
1789741094824167400,10.74616748046875,0.012995310127735138,0.08471573889255524,-0.06254414469003677
1789741094834245400,10.756245361328125,0.01026929821819067,0.07019112259149551,-0.04817559942603111
1789741094844322600,10.766322509765626,0.03888682648539543,0.051846206188201904,0.06118284910917282
1789741094854400500,10.776400390625,0.04572475701570511,-0.00781632773578167,0.07058088481426239
1789741094864477400,10.7864775390625,0.03332987427711487,0.01666131801903248,0.0261649452149868
1789741094874555400,10.796555419921875,0.03804100677371025,0.07229875028133392,-0.03730643913149834
1789741094884632300,10.80663232421875,-0.02021590620279312,-0.030669711530208588,-0.11297430098056793
1789741094894710500,10.81671044921875,-0.02496512234210968,0.13859307765960693,-0.1041182205080986
1789741094904787500,10.826787353515625,-0.012340406887233257,0.09669090807437897,-0.12353692948818207
1789741094914865400,10.836865478515625,-0.006132311653345823,0.03919059783220291,-0.07259518653154373
1789741094924942600,10.846942626953124,0.02383570745587349,0.06547253578901291,-0.04580964520573616
1789741094935020500,10.8570205078125,0.048902709037065506,-0.01907537318766117,-0.006303782109171152
1789741094945097500,10.867097412109375,0.016693109646439552,-0.041139133274555206,-0.00819995254278183
1789741094955175400,10.877175537109375,-0.006887051742523909,-0.02238062210381031,0.03854171931743622
1789741094965252400,10.88725244140625,-0.033791638910770416,-0.08436569571495056,0.025777988135814667
1789741094975330300,10.897330322265624,-0.04855220764875412,-0.09941814839839935,-0.020091764628887177
1789741094985407200,10.9074072265625,-0.06208159774541855,-0.08123727887868881,0.04382862523198128
1789741094995485400,10.9174853515625,-0.1165967658162117,-0.16605444252490997,0.001289422856643796
1789741095005562600,10.927562744140625,-0.10033870488405228,-0.09753422439098358,0.08156482130289078
1789741095015640600,10.937640625,-0.09872829169034958,-0.17445272207260132,0.1653904765844345
1789741095025718500,10.947718505859376,-0.0812707394361496,-0.1949649155139923,0.1460742950439453
1789741095035795500,10.95779541015625,-0.053339771926403046,-0.1660962551832199,0.09644896537065506
1789741095045873400,10.967873291015625,-0.03268749266862869,-0.09720852226018906,0.06134743243455887
1789741095055950300,10.977950439453124,-0.06823243200778961,-0.17387348413467407,-0.015758801251649857
1789741095066028300,10.9880283203125,-0.09037954360246658,-0.043542101979255676,-0.014623497612774372
1789741095076105500,10.99810546875,-0.09994668513536453,-0.10769125819206238,-0.03782841935753822
1789741095086183400,11.008183349609375,-0.1093503087759018,-0.14380133152008057,-0.04062021151185036
1789741095096260600,11.018260498046875,-0.08835367858409882,-0.10400224477052689,0.08657822757959366
1789741095106338600,11.028338623046874,-0.09227438271045685,-0.1848560869693756,0.06343002617359161
1789741095116415500,11.03841552734375,-0.06761537492275238,-0.11217495799064636,0.04979410767555237
1789741095126493400,11.048493408203125,-0.057970479130744934,-0.08494546264410019,-0.005048634018748999
1789741095136570400,11.0585703125,-0.04122398793697357,-0.0008801245130598545,-0.07005559653043747
1789741095146648300,11.0686484375,-0.050998054444789886,-0.07865560799837112,-0.09871440380811691
1789741095156725500,11.0787255859375,-0.07751701027154922,-0.03831644356250763,-0.025274276733398438
1789741095166803500,11.088803466796875,-0.07423945516347885,0.05263210088014603,0.023175546899437904
1789741095176880400,11.09888037109375,-0.059355054050683975,-0.047569334506988525,0.005565127823501825
1789741095186958600,11.10895849609375,-0.04688293859362602,0.017982779070734978,0.05159173905849457
1789741095197035500,11.119035400390626,-0.05245880037546158,-0.1135435551404953,0.02273639291524887
1789741095207113500,11.129113525390625,-0.05709829181432724,-0.10927663743495941,0.04498177394270897
1789741095217190400,11.1391904296875,-0.055856458842754364,-0.0626625344157219,0.05106789618730545
1789741095227268400,11.149268310546875,-0.06000513210892677,-0.09215890616178513,-0.012293231673538685
1789741095237345500,11.159345458984374,-0.04746270924806595,-0.030491279438138008,-0.003155393060296774
1789741095247423500,11.169423583984376,-0.05143348127603531,-0.1096460148692131,-0.013541720807552338
1789741095257500400,11.17950048828125,-0.042038802057504654,-0.08481139689683914,-0.04050897806882858
1789741095267578400,11.189578369140625,-0.04244280606508255,-0.057211194187402725,-0.01629311963915825
1789741095277655300,11.1996552734375,-0.04997981712222099,-0.13571318984031677,-0.04150047153234482
1789741095287733500,11.2097333984375,-0.05253858119249344,-0.09521637111902237,0.027491113170981407
1789741095297810400,11.219810546875,-0.05741003528237343,-0.1479826420545578,0.10231741517782211
1789741095307888400,11.229888427734375,-0.0443781241774559,-0.20066769421100616,0.055102501064538956
1789741095317966300,11.23996630859375,-0.01873960718512535,-0.05869590863585472,0.038255345076322556
1789741095328043500,11.25004345703125,0.007846997119486332,-0.028226681053638458,0.03502652794122696
1789741095338121500,11.26012158203125,-0.010203110054135323,-0.17555435001850128,-0.042316462844610214
1789741095348198400,11.270198486328125,-0.010206571780145168,-0.028154775500297546,-0.0010904651135206223
1789741095358276400,11.2802763671875,-0.034894075244665146,-0.0957559272646904,0.012799517251551151
1789741095368353300,11.290353271484374,-0.04581063985824585,-0.06563344597816467,0.09072867035865784
1789741095378431500,11.300431396484376,-0.05048022419214249,-0.12134171277284622,0.1174287274479866
1789741095388508700,11.3105087890625,-0.04118179902434349,-0.07208202034235,0.12078244239091873
1789741095398586600,11.320586669921875,-0.00811332743614912,-0.02997584640979767,0.10304632037878036
1789741095408663600,11.33066357421875,-0.005094633903354406,-0.14634107053279877,0.019193235784769058
1789741095418741500,11.340741455078126,-0.002710838569328189,-0.019916288554668427,0.021625766530632973
1789741095428818400,11.350818359375,-0.018767569214105606,-0.05316851660609245,-0.01949557103216648
1789741095438896400,11.360896484375,-0.02812591753900051,-0.09821774810552597,-0.07913706451654434
1789741095448973300,11.370973388671874,-0.04202469065785408,-0.059314027428627014,-0.11017034947872162
1789741095459051300,11.38105126953125,-0.03736921772360802,0.016124537214636803,-0.13470019400119781
1789741095469128400,11.39112841796875,-0.0483880452811718,-0.07762512564659119,-0.16124765574932098
1789741095479206400,11.401206298828125,-0.03328339383006096,0.04600866511464119,-0.14323270320892334
1789741095489283300,11.411283447265625,-0.006824623327702284,-0.012725753709673882,-0.0717124342918396
1789741095499361500,11.421361572265624,-0.00007084701064741239,-0.09288743138313293,-0.07934106141328812
1789741095509438500,11.4314384765625,0.026735199615359306,0.014390552416443825,0.032713573426008224
1789741095519516400,11.441516357421875,-0.008497621864080429,-0.15871571004390717,0.03965296968817711
1789741095529593300,11.45159326171875,-0.03291774168610573,-0.08230722695589066,0.006570118013769388
1789741095539671300,11.46167138671875,-0.03967897593975067,0.015642238780856133,-0.021916650235652924
1789741095549748500,11.47174853515625,-0.05717248097062111,-0.06905107945203781,-0.08794546872377396
1789741095559826400,11.481826416015625,-0.014353912323713303,0.019251886755228043,-0.09594054520130157
1789741095569903400,11.4919033203125,0.030534466728568077,-0.013930033892393112,-0.08594650030136108
1789741095579981600,11.501981689453125,0.04750146344304085,-0.06559322774410248,-0.006272709928452969
1789741095590059800,11.512059814453124,0.013657747767865658,-0.07433878630399704,0.050577789545059204
1789741095600136700,11.52213671875,-0.00004554698534775525,-0.04983024299144745,0.09611065685749054
1789741095610214700,11.532214599609375,-0.03974955156445503,-0.08012823015451431,0.07022766023874283
1789741095620291600,11.54229150390625,-0.015749674290418625,0.0386333093047142,-0.03633181005716324
1789741095630369500,11.55236962890625,0.004662123043090105,-0.0007540453225374222,-0.10235770046710968
1789741095640446700,11.56244677734375,0.01670973002910614,0.06907110661268234,-0.11488281190395355
1789741095650524700,11.572524658203125,0.021927662193775177,-0.04986007139086723,-0.07688535749912262
1789741095660601600,11.5826015625,-0.022660577669739723,-0.0847725123167038,-0.053454335778951645
1789741095670679600,11.592679443359375,-0.0338546447455883,0.07786326855421066,0.03910915181040764
1789741095680756500,11.602756591796876,-0.03718998655676842,0.032751984894275665,0.11136790364980698
1789741095690834700,11.612834716796876,-0.010614302009344101,-0.11678717285394669,0.0694553405046463
1789741095700911900,11.622911865234375,-0.013239912688732147,-0.06532318890094757,0.04843607544898987
1789741095710989800,11.63298974609375,-0.036098089069128036,-0.06486379355192184,0.0028584699612110853
1789741095721066800,11.643066650390624,-0.03595161810517311,0.025461846962571144,-0.04823959991335869
1789741095731144700,11.653144775390626,-0.042293667793273926,-0.06334152817726135,-0.09274421632289886
1789741095741221600,11.6632216796875,-0.009921081364154816,-0.12318408489227295,-0.033900074660778046
1789741095751299600,11.673299560546875,-0.035428039729595184,-0.19507825374603271,0.001037400565110147
1789741095761376500,11.68337646484375,-0.039706140756607056,-0.09927156567573547,0.08327235281467438
1789741095771454500,11.693454345703126,-0.05412209779024124,-0.1863236427307129,0.08439647406339645
1789741095781531600,11.70353173828125,-0.07253572344779968,-0.15231294929981232,0.058944378048181534
1789741095791609900,11.71360986328125,-0.05126772075891495,-0.14041048288345337,0.02937955968081951
1789741095801686800,11.723686767578124,-0.04038364812731743,-0.19725991785526276,-0.047552239149808884
1789741095811764700,11.7337646484375,-0.006769229657948017,-0.12168632447719574,-0.08884774893522263
1789741095821841700,11.743841552734375,0.009944768622517586,-0.14090342819690704,-0.08869275450706482
1789741095831919600,11.753919677734375,0.0004239683039486408,-0.15792502462863922,-0.03597228229045868
1789741095841996500,11.76399658203125,-0.03010624460875988,-0.10926561057567596,0.05054689571261406
1789741095852074500,11.774074462890624,-0.03107297234237194,-0.07828425616025925,0.1385563760995865
1789741095862151700,11.784151611328125,-0.02867293171584606,-0.17195695638656616,0.0642954632639885
1789741095872229600,11.794229736328125,-0.005395837593823671,-0.10420720279216766,0.01770745776593685
1789741095882306600,11.804306640625,0.01804157719016075,-0.08732648938894272,-0.03386465460062027
1789741095892384800,11.814384765625,0.05071989446878433,-0.04621154069900513,-0.01338335033506155
1789741095902462700,11.824462646484376,0.03218908980488777,-0.12773703038692474,-0.08102524280548096
1789741095912539600,11.83453955078125,0.04107872024178505,0.012542586773633957,-0.0005445171264000237
1789741095922617600,11.84461767578125,0.029447630047798157,-0.06946732848882675,-0.000229997793212533
1789741095932694800,11.85469482421875,0.04347556456923485,0.033655595034360886,0.025327827781438828
1789741095942772700,11.864772705078124,0.049597371369600296,-0.0553901270031929,0.06895306706428528
1789741095952849700,11.874849609375,0.04476480185985565,-0.10067877918481827,-0.0032489572186022997
1789741095962927600,11.884927734375,0.04565030336380005,0.013658983632922173,-0.05389855057001114
1789741095973004500,11.895004638671875,0.08787072449922562,0.08183963596820831,-0.002887566341087222
1789741095983082500,11.90508251953125,0.0814858004450798,-0.10995776206254959,-0.09498633444309235
1789741095993159400,11.915159423828126,0.11515641212463379,0.14095649123191833,-0.03886846825480461
1789741096003237600,11.925237548828125,0.12216957658529282,-0.02131018601357937,0.01975356414914131
1789741096013314800,11.935314697265625,0.09589216858148575,-0.030897032469511032,-0.04655435308814049
1789741096023392800,11.945392822265624,0.14707200229167938,0.10288260132074356,-0.004913166165351868
1789741096033469700,11.9554697265625,0.1194361075758934,-0.047699715942144394,0.017359383404254913
1789741096043547600,11.965547607421875,0.11313001066446304,0.018015647307038307,0.05180896818637848
1789741096053624600,11.97562451171875,0.09403833746910095,0.05457951873540878,0.03388030081987381
1789741096063702500,11.98570263671875,0.10467740148305893,0.14081746339797974,-0.011230184696614742
1789741096073779500,11.995779541015626,0.14799825847148895,0.14392776787281036,-0.04741668328642845
1789741096083857700,12.005857666015626,0.16106052696704865,0.006166179198771715,-0.09743671119213104
1789741096093934600,12.0159345703125,0.13454848527908325,0.08793534338474274,-0.0016744963359087706
1789741096104012800,12.0260126953125,0.11106979101896286,0.12090687453746796,-0.0014329475816339254
1789741096114089700,12.03608984375,0.10867320746183395,0.05941661447286606,-0.028955651447176933
1789741096124167700,12.046167724609376,0.13491280376911163,0.18526029586791992,0.07436247915029526
1789741096134244600,12.05624462890625,0.1145489439368248,0.030322913080453873,0.02858939953148365
1789741096144322600,12.066322509765625,0.09156665951013565,0.07027938216924667,0.03584917634725571
1789741096154400500,12.076400390625,0.0708981305360794,0.07904491573572159,0.050280313938856125
1789741096164477700,12.086477783203126,0.07967671006917953,0.05455049127340317,0.051918160170316696
1789741096174555600,12.0965556640625,0.06509403884410858,0.05580270662903786,-0.002500076312571764
1789741096184632600,12.106632568359375,0.0689907819032669,0.18033291399478912,0.0027556719724088907
1789741096194710800,12.116710693359375,0.08036460727453232,0.11852254718542099,-0.03723914921283722
1789741096204787700,12.12678759765625,0.09973963350057602,0.09007918834686279,-0.07318463176488876
1789741096214865700,12.13686572265625,0.1095706969499588,0.08026570826768875,-0.020782142877578735
1789741096224942600,12.146942626953125,0.10025762021541595,0.1390717625617981,0.020361032336950302
1789741096235020500,12.1570205078125,0.05616739019751549,-0.027912961319088936,0.08426837623119354
1789741096245097700,12.16709765625,0.022709567099809647,0.11744796484708786,0.0699663981795311
1789741096255175700,12.17717578125,0.049841053783893585,0.17976859211921692,0.06011350452899933
1789741096265252600,12.187252685546875,0.05046211555600166,-0.025129977613687515,-0.13201507925987244
1789741096275330600,12.19733056640625,0.05976719781756401,0.21351589262485504,-0.16967271268367767
1789741096285407500,12.207407470703124,0.05778607353568077,0.05425512418150902,-0.08642389625310898
1789741096295485700,12.217485595703126,0.045469753444194794,0.1316889375448227,-0.04260770604014397
1789741096305562600,12.227562744140625,0.061904918402433395,-0.07585254311561584,0.020994704216718674
1789741096315640600,12.237640625,0.0030107100028544664,-0.03190799057483673,0.10152097046375275
1789741096325717800,12.2477177734375,-0.0051931580528616905,0.022299589589238167,0.1283768266439438
1789741096335795700,12.257795654296874,0.018811777234077454,-0.06562786549329758,-0.004706132225692272
1789741096345872600,12.26787255859375,0.007122896611690521,0.057181406766176224,0.02204798348248005
1789741096355950600,12.27795068359375,0.009815619327127934,0.07299286127090454,-0.05693231523036957
1789741096366027500,12.288027587890625,0.009008681401610374,0.10045431554317474,-0.12645253539085388
1789741096376105500,12.29810546875,0.02636716514825821,0.03043208457529545,-0.08024723082780838
1789741096386182700,12.3081826171875,0.011802070774137974,0.05396430566906929,0.028927195817232132
1789741096396260900,12.3182607421875,0.018506312742829323,0.014718901365995407,0.10410290211439133
