time,seconds_elapsed,z,y,x
1789221421173799400,0.08179931640625,3.4276690943479537,9.176751676017046,-0.45684060860387976
1789221421183879700,0.091879638671875,3.427842112827301,9.176616651460527,-0.458241196116805
1789221421193959400,0.10195947265625,3.4283298963442443,9.176372905832528,-0.45946383324693885
1789221421204038700,0.11203857421875,3.4283258046910166,9.176328482168913,-0.46037915799356993
1789221421214118400,0.122118408203125,3.428419328193366,9.176265938326717,-0.4609259416887536
1789221421224198700,0.13219873046875,3.4285993609353898,9.176162477952241,-0.4616434423083439
1789221421234278400,0.1422783203125,3.4286224495500326,9.17610928646028,-0.46253670135363933
1789221421244358700,0.152358642578125,3.4286151430264113,9.176075968712567,-0.4632540923753753
1789221421254438700,0.162438720703125,3.428846613694727,9.175956726247072,-0.4639144925128668
1789221421264517600,0.172517578125,3.4288854844003915,9.175906457364558,-0.4646317739367485
1789221421274597600,0.18259765625,3.428611928156018,9.175972508338093,-0.46532311720177527
1789221421284677600,0.192677734375,3.4282205907508727,9.17607070801556,-0.46628553249314425
1789221421294757600,0.202757568359375,3.428186980742216,9.17603388313651,-0.46726208590772
1789221421304837400,0.21283740234375,3.4280613085359333,9.176026284351945,-0.4683111200366169
1789221421314917600,0.222917724609375,3.427735437582433,9.176091166281699,-0.46942481689956034
1789221421324996400,0.232996337890625,3.4276316849470136,9.176076553234457,-0.47047366836536675
1789221421335076600,0.24307666015625,3.4276445444285866,9.176021023654938,-0.4714677574366331
1789221421345156400,0.25315625,3.427662372346222,9.175952634593845,-0.47266405454911287
1789221421355236600,0.263236572265625,3.427667925304174,9.175873724138736,-0.4741642665116116
1789221421365316600,0.273316650390625,3.4277900903791187,9.175738699582219,-0.4758752716805786
1789221421375396600,0.283396728515625,3.4277044579222795,9.17566154269278,-0.477972865014337
1789221421385475600,0.2934755859375,3.427474740819633,9.175637577295303,-0.4800898937009275
1789221421395555600,0.3035556640625,3.427160852564871,9.175645760601759,-0.48216564052905886
1789221421405635600,0.313635498046875,3.4268244602173565,9.175655697473884,-0.48435843786559996
1789221421415715600,0.323715576171875,3.4264369222044944,9.175690184265374,-0.48645778476502743
1789221421425795600,0.333795654296875,3.4261098822072147,9.175691353309153,-0.4887286157738417
1789221421435875600,0.34387548828125,3.4257071466252205,9.175721163925529,-0.49097504299376155
1789221421445954600,0.35395458984375,3.4254967187449332,9.175673233130574,-0.49333705941736694
1789221421456034600,0.36403466796875,3.4251348996952173,9.175687261655925,-0.4955909392913803
1789221421466114600,0.374114501953125,3.424805229349434,9.175690768787264,-0.49778921652063723
1789221421476194600,0.384194580078125,3.42447672804743,9.175689599743485,-0.5000666599333286
1789221421486274600,0.394274658203125,3.4242268449395894,9.17566212721467,-0.5022716591643169
1789221421496354600,0.4043544921875,3.424369468280673,9.175496122997998,-0.5043251941606403
1789221421506433500,0.41443359375,3.4243174458324908,9.175405522105097,-0.5063156373254954
1789221421516513500,0.424513427734375,3.424344333839416,9.175276342767477,-0.5084767974147573
1789221421526593500,0.434593505859375,3.4244878339633344,9.175072929149865,-0.5111642098678275
1789221421536673500,0.444673583984375,3.4247771722987292,9.17480404908061,-0.514060333168134
1789221421546753500,0.45475341796875,3.4246406864374874,9.17469240539968,-0.5169434143237769
1789221421556833500,0.46483349609375,3.424630457304418,9.174540429708362,-0.5196937724778429
1789221421566912800,0.474912841796875,3.4247041070625186,9.174343445831537,-0.5226978496646508
1789221421576992500,0.484992431640625,3.4248324096173044,9.174121912035346,-0.5257433913730084
1789221421587072500,0.495072509765625,3.424973571653664,9.173885765191912,-0.5289353558147326
1789221421597152500,0.505152587890625,3.425100120642781,9.173637927910685,-0.5324042009690776
1789221421607232500,0.515232421875,3.4252874599084255,9.173369632363318,-0.5358046205297112
1789221421617312500,0.5253125,3.4254350516855716,9.173121210560202,-0.5391105667399242
1789221421627391500,0.5353916015625,3.4256925335779784,9.17284297814071,-0.5421999841226265
1789221421637471500,0.545471435546875,3.4259649207785725,9.172565914765,-0.5451514908719808
1789221421647551500,0.555551513671875,3.4263170952171085,9.17226605503559,-0.5479808690790087
1789221421657631700,0.5656318359375,3.4266450119972225,9.171946321561933,-0.5512637997398152
1789221421667711500,0.57571142578125,3.4267096016660332,9.171721280634403,-0.5546018215887248
1789221421677791500,0.58579150390625,3.426774775856733,9.171510268232225,-0.5576758587392047
1789221421687870500,0.595870361328125,3.426592989549041,9.171319714096189,-0.561899979240261
1789221421697950700,0.60595068359375,3.4264930363059043,9.17107596846819,-0.5664610035454855
1789221421708030500,0.616030517578125,3.4262019444048404,9.170860279890894,-0.5717165129208936
1789221421718110500,0.6261103515625,3.4265988347679373,9.170395000466703,-0.5767675127001479
1789221421728190700,0.636190673828125,3.427949372594058,9.169605895915627,-0.5812548507146537
1789221421738270500,0.6462705078125,3.429678972865641,9.168681182286143,-0.5856223252091557
1789221421748349400,0.656349365234375,3.43125688970685,9.16777049718201,-0.5906131557663902
1789221421758429400,0.666429443359375,3.432437039402127,9.16697087123692,-0.5961757948622107
1789221421768509700,0.676509765625,3.4329847364127635,9.166433111098408,-0.6012543037028983
1789221421778589400,0.68658935546875,3.433082936090231,9.166109285971523,-0.6056148735325784
1789221421788669700,0.696669677734375,3.432840067245066,9.165964909064769,-0.6091730774708092
1789221421798749400,0.70674951171875,3.4323300718963146,9.165969000717997,-0.6119651193421334
1789221421808828700,0.71682861328125,3.432164652201533,9.165874308171867,-0.6143127784468233
1789221421818908400,0.726908447265625,3.432226319260895,9.16568375403583,-0.6168060565672815
1789221421828988700,0.73698876953125,3.4328073340192433,9.165285694628954,-0.6194716225147247
1789221421839068700,0.747068603515625,3.4333059311911462,9.164923291057347,-0.6220771288380026
1789221421849148400,0.7571484375,3.4338328776746985,9.164561472007632,-0.624484189979732
1789221421859227600,0.7672275390625,3.434003558066487,9.164371502393484,-0.6263313522163778
1789221421869307400,0.777307373046875,3.4339737474501133,9.164292591938375,-0.6276603357978164
1789221421879387600,0.7873876953125,3.433619234924018,9.164347536996006,-0.6288057795058936
1789221421889467400,0.79746728515625,3.4333091460615393,9.164369164305924,-0.6301731223363429
1789221421899547600,0.807547607421875,3.432968662060797,9.164418264144658,-0.6313116248469799
1789221421909627400,0.81762744140625,3.4328245774149893,9.164387869006395,-0.632538536293432
1789221421919708200,0.827708251953125,3.432875723080337,9.16428499315381,-0.6337418476685881
1789221421929787100,0.837787109375,3.4330773831322787,9.164111390152573,-0.6351587287291884
1789221421939867100,0.8478671875,3.4331966255977746,9.163957076373697,-0.6367490666605532
1789221421949947100,0.857947021484375,3.4331317436680195,9.163881673049927,-0.6381876480963081
1789221421960027100,0.868027099609375,3.4328377291575074,9.163896870619059,-0.639529198898375
1789221421970107400,0.878107421875,3.432459251233935,9.163979872727394,-0.6403718602675944
1789221421980187100,0.888187255859375,3.4321827723801133,9.164009098821879,-0.641451618328318
1789221421990266400,0.898266357421875,3.4322172591716047,9.163910314622521,-0.6426544182468206
1789221422000346000,0.90834619140625,3.4325343622967597,9.163689365348219,-0.6441210567332804
1789221422010426400,0.91842626953125,3.4328500041171908,9.163487120774388,-0.6453159656062721
1789221422020506000,0.928506103515625,3.4331466489762064,9.163301827335356,-0.6463627712454646
1789221422030586400,0.93858642578125,3.433212992210686,9.16320362765789,-0.6474120611026882
1789221422040666000,0.948666015625,3.4332959943190215,9.163100751805304,-0.6484300790388137
1789221422050745300,0.958745361328125,3.433254201003909,9.16303528535366,-0.6495647821571677
1789221422060825000,0.9688251953125,3.433235496303439,9.162973326033354,-0.6505292432751506
1789221422070905000,0.978905029296875,3.433179382202029,9.162937670198083,-0.6513243391755968
1789221422080985300,0.9889853515625,3.4332696908339857,9.16284823834896,-0.6521219192940741
1789221422091065000,0.999065185546875,3.433578026130795,9.162683987697958,-0.6528029603607952
1789221422101145300,1.009145263671875,3.433905650649965,9.162502785912155,-0.6536204142235219
1789221422111224000,1.01922412109375,3.434253441174328,9.162313400819897,-0.6544508736982941
1789221422121304300,1.02930419921875,3.434406585909426,9.162205848792194,-0.6551686665788292
1789221422131384000,1.039384033203125,3.434535765247047,9.162107064592838,-0.6558522649288178
1789221422141464300,1.04946435546875,3.434402494256198,9.162095958676934,-0.6567009176474065
1789221422151544000,1.0595439453125,3.4342639625683424,9.16210180389583,-0.657345060769841
1789221422161624300,1.069624267578125,3.4343712223351,9.162019970831274,-0.6579274637676775
1789221422171703000,1.079703125,3.434399279385805,9.161952166292071,-0.6587308160398155
1789221422181783300,1.089783203125,3.4344971868023273,9.161836430957912,-0.659825114082545
1789221422191863300,1.09986328125,3.4345798966497183,9.161721280145645,-0.661000368406996
1789221422201943000,1.109943115234375,3.434866896897554,9.161520204615593,-0.6622888007823378
1789221422212023300,1.120023193359375,3.4349116128221153,9.16139336336553,-0.6638164487410336
1789221422222103000,1.13010302734375,3.4347587603479623,9.161331988567113,-0.6654556673154235
1789221422232182300,1.140182373046875,3.4344258751317858,9.161330235001444,-0.6671735040839761
1789221422242262000,1.150261962890625,3.4341730694144963,9.16128464229405,-0.6690932201001792
1789221422252342300,1.16034228515625,3.4341190011397003,9.161140265387296,-0.6713686176862568
1789221422262422300,1.17042236328125,3.4340926976546644,9.160957894557715,-0.6739885909263044
1789221422272502300,1.180502197265625,3.4341669319346546,9.160701289448141,-0.6770794696137309
1789221422282582300,1.190582275390625,3.43442733643651,9.16036694292724,-0.6802613145202397
1789221422292661200,1.2006611328125,3.4338872382104393,9.160279264643787,-0.6841632903948426
1789221422302741200,1.2107412109375,3.432714687299728,9.160271081337331,-0.6901246099520474
1789221422312821200,1.2208212890625,3.431859239514172,9.1602389326334,-0.6948033423528075
1789221422322901200,1.2309013671875,3.431424939750135,9.160390323802828,-0.6949489613685756
1789221422332981000,1.24098095703125,3.431666931812465,9.160558081585169,-0.6915300928357988
1789221422343061200,1.251061279296875,3.431528400124609,9.160486769914627,-0.6931534562539309
1789221422353140200,1.26114013671875,3.4309365717113014,9.159812231653929,-0.7048984737791121
1789221422363220200,1.27122021484375,3.430108011932671,9.158863552626967,-0.7210901685148478
1789221422373300200,1.28130029296875,3.4294743902042506,9.158389505374432,-0.7300560036502778
1789221422383380200,1.291380126953125,3.429145304380357,9.158431590950489,-0.7310775287177413
1789221422393460200,1.301460205078125,3.428751628887653,9.158478352701664,-0.7323449183050542
1789221422403540200,1.311540283203125,3.42816067725718,9.158045806503296,-0.7404805131614208
1789221422413619200,1.321619140625,3.427468895600736,9.157311647009848,-0.752657711558789
1789221422423699200,1.33169921875,3.4272608058080074,9.15656521255672,-0.762629289670661
1789221422433779200,1.341779296875,3.427956971378624,9.15568667615652,-0.7700012066781521
1789221422443859200,1.351859130859375,3.4292879277214405,9.154443982619046,-0.778793365747109
1789221422453939200,1.361939208984375,3.4306752904266116,9.152970402935146,-0.7899280693542212
1789221422464019200,1.372019287109375,3.432050670433044,9.151606128844618,-0.799699229523167
1789221422474098200,1.38209814453125,3.433582117784023,9.150342977041005,-0.8075449745874852
1789221422484178400,1.392178466796875,3.4351699714973565,9.14906755027771,-0.8152090794745832
1789221422494258200,1.402258056640625,3.4367312294647094,9.147759390288591,-0.8232680288981645
1789221422504338200,1.412338134765625,3.438212992455065,9.146458829084038,-0.8314961974088102
1789221422514418200,1.422418212890625,3.439582527242601,9.14513371796012,-0.8403482699714601
1789221422524498200,1.432498291015625,3.4414220176294443,9.143636757400632,-0.8490618839114904
1789221422534577200,1.4425771484375,3.4437741337135432,9.142059132820368,-0.8564808549311012
1789221422544657200,1.4526572265625,3.4462989760160445,9.140524178338051,-0.8626930074442177
1789221422554737400,1.4627373046875,3.4488296635374427,9.139020788037776,-0.868474221194163
1789221422564817200,1.472817138671875,3.4510198670580983,9.137613843849302,-0.874557632761076
1789221422574897400,1.4828974609375,3.4527822005555033,9.136397453796864,-0.880286093410477
1789221422584977200,1.49297705078125,3.454051197578013,9.135413703456521,-0.885505800820142
1789221422595056400,1.503056396484375,3.4549186280623077,9.134677205875516,-0.8897078556198627
1789221422605136100,1.51313623046875,3.45572556053102,9.134080993548036,-0.8927066721096635
1789221422615216000,1.523216064453125,3.456755195839703,9.133510500183702,-0.8945398058209568
1789221422625296100,1.533296142578125,3.457889168305695,9.133066263547539,-0.8946977728616445
1789221422635376000,1.543376220703125,3.4588872394323347,9.132789200171828,-0.893663753638789
1789221422645456400,1.553456298828125,3.4594954344585536,9.13284063809812,-0.8907765808299183
1789221422655535000,1.56353515625,3.459692418335378,9.133205964279174,-0.8862618798844516
1789221422665615400,1.573615478515625,3.459186806900799,9.133952398732305,-0.8805136916212737
1789221422675695000,1.583695068359375,3.458629757539928,9.13480053999424,-0.8738920815244317
1789221422685775400,1.593775390625,3.4578280857682224,9.135869630530475,-0.8658527135841548
1789221422695855000,1.603855224609375,3.4570451186969873,9.137046273094414,-0.8565047472633421
1789221422705935400,1.613935302734375,3.456156353163719,9.138311762985587,-0.8465246935840696
1789221422716015000,1.62401513671875,3.455108013154566,9.13974091900587,-0.8353189705673605
1789221422726094300,1.63409423828125,3.453886654666066,9.141387517169118,-0.822244384938851
1789221422736174000,1.644174072265625,3.4524010922834276,9.143215901640056,-0.8080250131893902
1789221422746254000,1.654254150390625,3.4508594157993793,9.145141901266575,-0.7926759798228741
1789221422756334300,1.664334228515625,3.449434935954213,9.147149733957647,-0.7755301261674612
1789221422766414000,1.6744140625,3.447826039452851,9.149249921107291,-0.7577066655114293
1789221422776494300,1.684494384765625,3.445874905385077,9.151520204126834,-0.7389185245417058
1789221422786573000,1.694572998046875,3.4439094505310055,9.153865890470147,-0.7187454320196062
1789221422796653300,1.7046533203125,3.44186888461411,9.156260676652192,-0.697717841560021
1789221422806733000,1.714733154296875,3.4398461466148493,9.158677090144156,-0.67563328939341
1789221422816813300,1.724813232421875,3.4377781081691383,9.161119222599268,-0.6526569029536098
1789221422826893300,1.734893310546875,3.435708316157758,9.163560770532488,-0.628836101578921
1789221422836973300,1.744973388671875,3.4336768103301525,9.16596549358666,-0.6044257368132472
1789221422847052000,1.755052001953125,3.431474331849813,9.1684058724761,-0.5793941714093088
1789221422857132300,1.76513232421875,3.4292584093660112,9.170845666843652,-0.553317152073048
1789221422867212300,1.77521240234375,3.4267738990738987,9.173390090629457,-0.5258467786822467
1789221422877292000,1.7852919921875,3.4241137399539348,9.175998227301239,-0.49688532648347317
1789221422887372300,1.795372314453125,3.4210447077721353,9.178723268350959,-0.4667836547410115
1789221422897452000,1.8054521484375,3.418033543257415,9.18134777163565,-0.43621568066105243
1789221422907531300,1.81553125,3.414902844016254,9.183928435778617,-0.405325963813439
1789221422917612000,1.825612060546875,3.411611985777318,9.186489226177335,-0.37376861336994915
1789221422927692300,1.8356923828125,3.4085435381174087,9.188889857578276,-0.341344051637873
1789221422937772300,1.845772216796875,3.4051591563761234,9.191322053161263,-0.30801841288022697
1789221422947852000,1.85585205078125,3.4018557309165596,9.193624484884738,-0.2739298817249946
1789221422957932300,1.865932373046875,3.398542660845816,9.19584099189043,-0.23834026182442902
1789221422968011300,1.87601123046875,3.39545813883394,9.197875128066539,-0.2008496123418212
1789221422978091300,1.88609130859375,3.3924648022368546,9.199746767157317,-0.1619819936838932
1789221422988171000,1.8961708984375,3.3894141824945807,9.201467599600553,-0.12352679175175725
1789221422998251300,1.906251220703125,3.386324984307587,9.203013659998774,-0.08792001065383664
1789221423008331000,1.9163310546875,3.3836583954468367,9.20425167736113,-0.05461693535444792
1789221423018411300,1.926411376953125,3.380976024495065,9.205375712954998,-0.020834924281563142
1789221423028490000,1.936489990234375,3.379609120056033,9.20589184578359,0.013534789302072022
1789221423038570200,1.9465703125,3.378888696826994,9.206040314343571,0.04805912947512697
1789221423048650200,1.956650146484375,3.3785181099489328,9.205935684925317,0.08215329122012481
1789221423058730200,1.966730224609375,3.3779055310085413,9.205786047321558,0.11680433336263522
1789221423068810200,1.976810302734375,3.3776366509392854,9.205344733294844,0.1535868893748149
1789221423078890000,1.986889892578125,3.376740871143341,9.204933229884505,0.19289843414165078
1789221423088969200,1.99696923828125,3.37509222715348,9.20466376529336,0.2308402797241695
1789221423099049200,2.00704931640625,3.373782605859637,9.20430779146254,0.262089751528576
1789221423109129200,2.017129150390625,3.3735154793560502,9.203646697205304,0.2875363640068099
1789221423119209000,2.027208984375,3.374038334186375,9.202602156588435,0.31364107506759464
1789221423129289200,2.037289306640625,3.375293302683532,9.201096428200602,0.3429473951812833
1789221423139369200,2.047369140625,3.3766163679808376,9.19942060394287,0.3735199358385056
1789221423149449200,2.05744921875,3.37750659481883,9.197839472231268,0.4032166800418868
1789221423159528200,2.067528076171875,3.378114789845049,9.196429605433345,0.4294282490106299
1789221423169608200,2.077608154296875,3.3790634688720105,9.195154763191939,0.4488225757125765
1789221423179688200,2.087688232421875,3.3795872004851697,9.194240570956469,0.46338067789711057
1789221423189768200,2.097768310546875,3.3794922156780958,9.193630914625524,0.4759930528413504
1789221423199848200,2.10784814453125,3.3791859262079,9.193165635201334,0.48701753753963856
1789221423209928200,2.11792822265625,3.3791648834198713,9.192753547269106,0.49488520217481996
1789221423220007200,2.128007080078125,3.3797903218418357,9.192230400177836,0.5002927237741649
1789221423230087200,2.138087158203125,3.3804882409781216,9.191685625776648,0.5055683626221492
1789221423240167200,2.148167236328125,3.3807959917530415,9.191293996110558,0.510621262097545
1789221423250247200,2.1582470703125,3.3807378318250176,9.191103441974521,0.514421458098106
1789221423260327200,2.1683271484375,3.3801579861104485,9.191203395217656,0.5164197192432358
1789221423270407200,2.1784072265625,3.379531963166594,9.191389857700466,0.5172142671544104
1789221423280486100,2.188486083984375,3.37881241672039,9.191673350816965,0.5168601930197328
1789221423290566100,2.198566162109375,3.3776953953891993,9.19214973615706,0.5156946198390796
1789221423300646100,2.208646240234375,3.376614029893279,9.192620276278257,0.5143898573834449
1789221423310726100,2.21872607421875,3.375410499322414,9.193140500760078,0.5129940191108733
1789221423320806100,2.22880615234375,3.37394510294497,9.193774707010387,0.5112617884907871
1789221423330886100,2.23888623046875,3.3722391758099195,9.19453400094509,0.5088583440782501
1789221423340965400,2.24896533203125,3.371033891673386,9.19509397291541,0.506731378519535
1789221423351045000,2.259045166015625,3.3695009830176827,9.195800659880042,0.5040994591133668
1789221423361125000,2.269125,3.369085972476005,9.196145527794956,0.5005678509211168
1789221423371205000,2.279205078125,3.3684012050822374,9.19669731645882,0.4949996588673442
1789221423381285000,2.28928515625,3.3666683899402616,9.197850578147172,0.4852520257044583
1789221423391365000,2.299365234375,3.3661028650119897,9.198709825325011,0.47272729251105333
1789221423401444000,2.309444091796875,3.3665514855623244,9.19908859550953,0.46205896430667487
1789221423411524000,2.319524169921875,3.368053414557874,9.198794580999015,0.4569441420435905
1789221423421604000,2.32960400390625,3.367505425286293,9.199152892917395,0.45375579433105884
1789221423431684400,2.339684326171875,3.367551602515578,9.19921719032526,0.45208767845574765
1789221423441764000,2.34976416015625,3.368098130482435,9.199135941782593,0.44966611386463046
1789221423451844000,2.359843994140625,3.368487422060966,9.199190302318334,0.4456193592244759
1789221423461924000,2.369924072265625,3.370230466336012,9.198684106361865,0.44286684564594175
1789221423472003300,2.38000341796875,3.370970471048355,9.198334562271834,0.4445050778396427
1789221423482083000,2.3900830078125,3.3711168937817213,9.19809724638462,0.448299099827744
1789221423492163000,2.4001630859375,3.3723464355766772,9.197552471983432,0.4502334654238075
1789221423502243300,2.410243408203125,3.374018168181181,9.196972041746973,0.44956919282879676
1789221423512323000,2.420322998046875,3.375780501678586,9.196376413941383,0.44849692395478485
1789221423522403300,2.4304033203125,3.3772581730157136,9.195864372766017,0.4478902632985264
1789221423532482000,2.44048193359375,3.3783284325957297,9.195454622921346,0.44822490208037197
1789221423542562300,2.450562255859375,3.379666403201222,9.19502032315731,0.44703130838163196
1789221423552642000,2.46064208984375,3.3812843597918745,9.19457433295548,0.4439823326071724
1789221423562722300,2.470722412109375,3.383141385835409,9.194114898750186,0.4393120392411947
1789221423572802000,2.480802001953125,3.3853538011878728,9.193542067298292,0.43423773165158924
1789221423582882000,2.490882080078125,3.3867703899875283,9.193243376612664,0.42946777730342
1789221423592961000,2.5009609375,3.387555110624432,9.19311887345016,0.42593072575107216
1789221423603041300,2.511041259765625,3.3879236516758797,9.193131732931732,0.422714832444489
1789221423613121300,2.521121337890625,3.3880580917105076,9.193273771750926,0.4185369987705722
1789221423623201000,2.531200927734375,3.38884631947875,9.19320947434306,0.41354240535367276
1789221423633281300,2.54128125,3.3895743414923545,9.193183755379915,0.4080873548181727
1789221423643361000,2.551361083984375,3.390214685222506,9.193187847033142,0.40263281573932613
1789221423653440300,2.561440185546875,3.390362276999652,9.193352097684144,0.3976335826799273
1789221423663520000,2.57152001953125,3.3898283162534235,9.193786397448182,0.3921130291601643
1789221423673600300,2.581600341796875,3.3894998149514195,9.19414646293223,0.3864842294929549
1789221423683680000,2.591679931640625,3.389180373738706,9.19446035118699,0.38176574960369614
1789221423693760300,2.60176025390625,3.389674294735491,9.194435216745733,0.37796036597136407
1789221423703840300,2.61184033203125,3.389137703640759,9.194870101031661,0.37213903940673915
1789221423713919200,2.621919189453125,3.3901717228636143,9.194733907431363,0.3660394804226234
1789221423723999200,2.631999267578125,3.391116310237348,9.194653827932477,0.35923188276700674
1789221423734079200,2.642079345703125,3.391889924958348,9.194642722016573,0.3521427282236516
1789221423744159200,2.6521591796875,3.3924934438094496,9.194662011238933,0.345793322664313
1789221423754239000,2.662239013671875,3.3926331445410844,9.194824508324265,0.34007563913725314
1789221423764319200,2.6723193359375,3.392450773711502,9.195072345605492,0.3351281362650916
1789221423774399200,2.682399169921875,3.3925293919056654,9.195193926158547,0.33097613115217533
1789221423784478200,2.692478271484375,3.3926626628965137,9.195259392610192,0.327757753627561
1789221423794558200,2.70255810546875,3.3924750313699246,9.195420136129856,0.3251747879296541
1789221423804638200,2.71263818359375,3.391612569321692,9.195808843186498,0.32320114976912734
1789221423814718200,2.72271826171875,3.3897692795425654,9.196492733797431,0.3230578323082998
1789221423824798200,2.732798095703125,3.38877208519876,9.19683058744967,0.3238934063496068
1789221423834878200,2.742878173828125,3.388229648885131,9.197023479673266,0.3241243290286511
1789221423844957200,2.752957275390625,3.388136125382781,9.197084269949793,0.32335999359264966
1789221423855037200,2.763037109375,3.389245255668461,9.196683287933467,0.32315679917074736
1789221423865117200,2.7731171875,3.3911583958134055,9.195950882005691,0.32393107147887346
1789221423875197200,2.783197265625,3.3937168481245634,9.194930891308188,0.32607663214020427
1789221423885277200,2.793277099609375,3.397371278978884,9.193441529533267,0.329998335628584
1789221423895357200,2.803357177734375,3.4018837879672645,9.191582749924063,0.33524894963316615
1789221423905437200,2.813437255859375,3.407015013375878,9.189490746080875,0.34044611641746014
1789221423915515600,2.823515625,3.4125852147236464,9.187198835751413,0.3464395846785977
1789221423925595600,2.833595703125,3.420081123436987,9.184190301585197,0.35225513908956196
1789221423935675600,2.843675537109375,3.4295123841270803,9.180521257683635,0.3561788884045556
1789221423945755600,2.853755615234375,3.435104505045712,9.178285461455584,0.35990185445044187
1789221423955835600,2.863835693359375,3.4405633549734946,9.17607070801556,0.36421621051821856
1789221423965915600,2.87391552734375,3.446547690080106,9.173670076614618,0.36806897695623336
1789221423975994600,2.88399462890625,3.4481972108528014,9.172814921090007,0.3738931165324524
1789221423986074600,2.89407470703125,3.4529628178194165,9.170817025271058,0.3788713433364406
1789221423996155000,2.90415478515625,3.4554578495055437,9.169690651589631,0.3833768745947629
1789221424006234600,2.914234619140625,3.4550361169621344,9.169622847050428,0.38875637567602095
1789221424016314600,2.924314697265625,3.454923888759315,9.169519386675953,0.39215664910618214
1789221424026394600,2.93439453125,3.4546000636324283,9.169518802154064,0.3950263593235984
1789221424036473900,2.944473876953125,3.4548572532638904,9.169296683835983,0.39792401699386537
1789221424046553600,2.9545537109375,3.455802132898569,9.168799840229749,0.4011676750902086
1789221424056633600,2.964633544921875,3.4571164303675292,9.168214733818173,0.40320188433155413
1789221424066713600,2.974713623046875,3.4583427572920917,9.167725488996505,0.4038236694917083
1789221424076793600,2.984793701171875,3.4589839778050777,9.167461869624256,0.4043175904884934
1789221424086873900,2.994873779296875,3.458842231246829,9.167458947014808,0.405575518127717
1789221424096952600,3.00495263671875,3.4580732927009463,9.167676389157771,0.40723212622832505
1789221424107032800,3.01503271484375,3.4571500403761863,9.167951698967814,0.40887057761773465
1789221424117112600,3.025112548828125,3.456339308515191,9.168170310154556,0.41079135307986286
1789221424127192800,3.03519287109375,3.4556934118270872,9.168281369313597,0.4137470976129174
1789221424137272600,3.0452724609375,3.45476548332721,9.168477768668533,0.417127058907412
1789221424147352600,3.0553525390625,3.4534871339544653,9.168805100926756,0.4205224734993651
1789221424157432600,3.0654326171875,3.4522634373784062,9.169108467787504,0.42393860208578404
1789221424167511800,3.07551171875,3.4514123735070226,9.16928323983252,0.42706415022779254
1789221424177591600,3.085591552734375,3.4509573232159014,9.169280901744962,0.4307524833517149
1789221424187671600,3.095671630859375,3.4507828434318304,9.169106129699944,0.43587128767017275
1789221424197751800,3.105751708984375,3.4507170847192405,9.168857123374938,0.4415811166843399
1789221424207831600,3.11583154296875,3.450659801574051,9.168602856352924,0.4472855023384094
1789221424217911800,3.125911865234375,3.4507743678644296,9.168286045488715,0.45285793217588216
1789221424227990500,3.135990478515625,3.4509967784434554,9.167928318092226,0.4583617172239348
1789221424238070800,3.14607080078125,3.4511905474498867,9.167572344261407,0.4640014036113396
1789221424248150500,3.156150634765625,3.4513001453042027,9.167198834773897,0.4705090684723109
1789221424258230800,3.166230712890625,3.451759871770441,9.166676272204517,0.47728937626220286
1789221424268310800,3.176310791015625,3.4521699138760567,9.166180597642063,0.48379813710171726
1789221424278390500,3.186390625,3.452450484383106,9.16574103718102,0.49005964518189427
1789221424288470800,3.196470703125,3.452729593585431,9.165313167157768,0.49605676670484244
1789221424298549800,3.2065498046875,3.4530797221973537,9.164864838868379,0.501880760150589
1789221424308629800,3.216629638671875,3.453457615599036,9.164389622572063,0.5079164966508746
1789221424318709500,3.22670947265625,3.4538299560427665,9.16391265271008,0.513949383606948
1789221424328789800,3.236789794921875,3.4540874379351734,9.16350056477785,0.5195275125328451
1789221424338869500,3.246869384765625,3.454356610265374,9.163103089892864,0.524729830416292
1789221424348949800,3.25694970703125,3.4544770217746494,9.162767574328184,0.5297821088371798
1789221424359028500,3.267028564453125,3.454661146169901,9.162410431453585,0.5347261776432395
1789221424369108700,3.277108642578125,3.4545796053662894,9.162150319212675,0.5397026874141767
1789221424379188700,3.287188720703125,3.4540912373274564,9.162014710134267,0.5450873761272057
1789221424389268700,3.297268798828125,3.4537294182777405,9.16180545129776,0.5508742889655753
1789221424399348700,3.3073486328125,3.453109240552783,9.161716603970527,0.5562287652034312
1789221424409428500,3.317428466796875,3.452077267156541,9.161738815802336,0.5622110179508104
1789221424419507700,3.3275078125,3.45096930591464,9.16178440850973,0.5682483618862927
1789221424429587700,3.337587646484375,3.4497938323944806,9.161958011510968,0.5725693303579464
1789221424439667700,3.347667724609375,3.4482699838280677,9.162456024160981,0.5737848436275497
1789221424449747500,3.35774755859375,3.4468744378164407,9.163101336327195,0.5718497473791241
1789221424459827700,3.36782763671875,3.445876366689801,9.163478352946042,0.57183305197265
1789221424469907700,3.37790771484375,3.4442990343704816,9.16382029825151,0.5758373922431841
1789221424479987700,3.38798779296875,3.443172368428111,9.163958829939364,0.5803601668972521
1789221424490066700,3.398066650390625,3.442198554959893,9.163989225077628,0.5856366825280711
1789221424500146700,3.408146728515625,3.440691365267336,9.164113728240132,0.5924875348035246
1789221424510226700,3.418226806640625,3.438703406320512,9.164394883269072,0.5996425211247056
1789221424520306700,3.428306640625,3.436812478007376,9.164681883516907,0.606064261267893
1789221424530386700,3.43838671875,3.434695631983876,9.165140148678422,0.6111050319140776
1789221424540466700,3.448466796875,3.4326357768446205,9.16562647089064,0.6153666714139282
1789221424550545700,3.458545654296875,3.4314366301879287,9.166068369439243,0.6154720314845442
1789221424560625700,3.468625732421875,3.431902494134009,9.166633017584681,0.6043591013178229
1789221424570705700,3.47870556640625,3.4343107243195172,9.166979639065264,0.5851300481801852
1789221424580785700,3.48878564453125,3.441357427960634,9.165251792359351,0.5706295944670214
1789221424590865700,3.49886572265625,3.4465710709556934,9.162000097087025,0.5910142839131877
1789221424600945700,3.508945556640625,3.448222637555003,9.157541364112495,0.6477627742365002
1789221424611025700,3.519025634765625,3.4486686277568337,9.152090697491168,0.7185467676423489
1789221424621104600,3.529104736328125,3.450122918218374,9.146144356307387,0.7842738429848104
1789221424631184600,3.5391845703125,3.451594744336605,9.141733554127812,0.8280025831393897
1789221424641264600,3.5492646484375,3.452875431796908,9.139960699236392,0.8421117725126445
1789221424651345000,3.559344970703125,3.4538691190093753,9.139698833429813,0.8408819384567439
1789221424661424600,3.569424560546875,3.454856668742001,9.13879165545702,0.8466682667732238
1789221424671504600,3.579504638671875,3.4580408517360683,9.13634952300191,0.8599191588167101
1789221424681583600,3.58958349609375,3.46184316662848,9.133965258213877,0.8699006738007068
1789221424691663600,3.59966357421875,3.4629853224009275,9.133687025794387,0.868261820552498
1789221424701743600,3.60974365234375,3.4627331012055276,9.134676036831737,0.8588095901396126
1789221424711823600,3.61982373046875,3.463553185416758,9.1351541757375,0.850375596858561
1789221424721903600,3.629903564453125,3.465257651247084,9.134606478726864,0.8493087713446468
1789221424731983600,3.639983642578125,3.4658591242715713,9.134008512833715,0.8532869542606174
1789221424742063900,3.65006396484375,3.4646316283032297,9.13412658625543,0.8569986682601273
1789221424752142600,3.660142578125,3.4624121986880896,9.13481924469471,0.8585901752352714
1789221424762222800,3.670222900390625,3.4619501341342924,9.135017397615313,0.8583437261935323
1789221424772302600,3.680302490234375,3.4620343052864073,9.135252375414966,0.8554903825890272
1789221424782382800,3.6903828125,3.4619051259487867,9.135690766832232,0.851318284536153
1789221424792462600,3.700462646484375,3.4613474920660257,9.136416743019222,0.8457826430451124
1789221424802542600,3.71054248046875,3.461094101826846,9.137063808751106,0.8398162819866091
1789221424812621600,3.72062158203125,3.461160445061326,9.13754077861309,0.8343317130956799
1789221424822701600,3.73070166015625,3.4612770571783185,9.13796864863634,0.829148830565065
1789221424832781600,3.740781494140625,3.460727314341068,9.138713914045692,0.8232026355117559
1789221424842861600,3.750861572265625,3.459513554637134,9.13977832840681,0.8164548417519778
1789221424852941800,3.76094189453125,3.458026530949771,9.140874306949973,0.8104718218196183
1789221424863021600,3.771021484375,3.4568776531755923,9.141709004208446,0.8059451381754129
1789221424873101800,3.781101806640625,3.455666523820162,9.142489340931176,0.8022777747742831
1789221424883180500,3.7911806640625,3.4539261098936196,9.143410547429323,0.7992704096518456
1789221424893260800,3.8012607421875,3.4521588079601524,9.144374424025417,0.795865496579185
1789221424903340500,3.811340576171875,3.4507772904738783,9.145326025661825,0.7908936995159834
1789221424913420800,3.8214208984375,3.4500665118560194,9.14611922186613,0.7848055387087166
1789221424923500800,3.831500732421875,3.4494732221379873,9.146943397730588,0.7777812660951167
1789221424933580500,3.84158056640625,3.448894253206253,9.147895583888888,0.7691190170161426
1789221424943659800,3.85165966796875,3.448882855029404,9.148681181308627,0.7597482543416321
1789221424953739500,3.861739501953125,3.4486920086324213,9.149539843964575,0.7502280001938343
1789221424963819800,3.87181982421875,3.4483635073304173,9.150624716591835,0.7384094059757887
1789221424973899500,3.8818994140625,3.4478690018117426,9.151911833792925,0.7246352937757968
1789221424983979800,3.891979736328125,3.4475501451209185,9.153031777733563,0.7118900862321257
1789221424994059500,3.9020595703125,3.446862455117702,9.153856538119912,0.704587581199035
1789221425004139800,3.912139892578125,3.4459599533200262,9.154470870625973,0.7010121338650583
1789221425014218500,3.922218505859375,3.445159742853045,9.154916860827804,0.699114191289246
1789221425024298800,3.932298828125,3.4448587140798566,9.15531316666901,0.6953946593094616
1789221425034378800,3.942378662109375,3.4446722515970465,9.155750973564386,0.6905399858199059
1789221425044458800,3.952458740234375,3.4444074631810184,9.156296332487463,0.6845991975940764
1789221425054538800,3.962538818359375,3.4443422889903186,9.156827662885188,0.6777822110556065
1789221425064618500,3.972618408203125,3.4440699017897245,9.1574390727818,0.6708779115598649
1789221425074697700,3.98269775390625,3.4433410029932854,9.158173232275248,0.6645597413890063
1789221425084777500,3.992777587890625,3.4423043534219264,9.158948892822862,0.6592415420409291
1789221425094857700,4.002857666015625,3.440969597686827,9.159764300858974,0.6548454990390687
1789221425104937500,4.0129375,3.4387592281609773,9.16085443418324,0.651198593904078
1789221425115017700,4.023017822265625,3.4357822581768036,9.162240335583686,0.6474000053387134
1789221425125097700,4.03309765625,3.4329096253499385,9.16361337750256,0.6431975852128118
1789221425135177700,4.043177734375,3.4303564337357875,9.164905755400657,0.6383951533671468
1789221425145256700,4.053256591796875,3.427773431505263,9.166199886864423,0.6336701706718653
1789221425155336700,4.063336669921875,3.4253973500236867,9.167392896041273,0.6292365721385925
1789221425165416700,4.073416748046875,3.4228330524936315,9.168623899140954,0.6252589006792754
1789221425175496700,4.08349658203125,3.420182537984848,9.169835613018273,0.6219928115554153
1789221425185576700,4.09357666015625,3.417496659901738,9.171030960282684,0.619114771901071
1789221425195656700,4.10365673828125,3.414611459854245,9.172325676268338,0.6158418146450072
1789221425205735700,4.113735595703125,3.411657578484714,9.173643188607691,0.6125677248777821
1789221425215815700,4.123815673828125,3.408600529001653,9.174893480929732,0.6108548200126737
1789221425225895700,4.133895751953125,3.4049703558057542,9.176205148050188,0.611418079918623
1789221425235975700,4.1439755859375,3.401302480947971,9.177428552365303,0.6134515585076064
1789221425246055700,4.1540556640625,3.3977228688955305,9.17853329873681,0.6167627288822084
1789221425256135700,4.1641357421875,3.394301077753305,9.179553873956204,0.6204132142137736
1789221425266215700,4.174215576171875,3.391017233777046,9.180518335074186,0.6240756091788411
1789221425276294700,4.184294677734375,3.388465795728564,9.181212162557244,0.6277233180314302
1789221425286374700,4.194374755859375,3.386654946914315,9.181652307540178,0.6310599151082337
1789221425296454700,4.20445458984375,3.3849724006548523,9.182014126589893,0.634775647695735
1789221425306534700,4.21453466796875,3.3830656902506946,9.18241452408433,0.6391476522348821
1789221425316614700,4.22461474609375,3.381020448158681,9.182814921578764,0.6442115114957094
1789221425326694700,4.234694580078125,3.3792692205771804,9.183124718180299,0.6489524224124849
1789221425336774700,4.244774658203125,3.377766414798796,9.183377816158533,0.6531912290260196
1789221425346853600,4.254853515625,3.3763013106822966,9.183609871348738,0.6574892915461212
1789221425356933600,4.26493359375,3.3750717688873406,9.183788150525093,0.6613027854196727
1789221425367013600,4.275013671875,3.3738904501482843,9.183961169004439,0.6649121350232511
1789221425377093600,4.28509375,3.3732112357124686,9.183947140479088,0.6685485187642276
1789221425387173600,4.295173583984375,3.37324572250396,9.18368293658495,0.6719929601296782
1789221425397253600,4.305253662109375,3.373668916352093,9.183354435282945,0.6743493139974772
1789221425407332600,4.31533251953125,3.3740745745435357,9.183132316964864,0.6753278036408126
1789221425417412900,4.325412841796875,3.3743878782764076,9.182982094839215,0.6758224552899599
1789221425427492600,4.33549267578125,3.3754020237550137,9.1825635771662,0.6764499395385384
1789221425437572600,4.345572509765625,3.3769241187557575,9.181966780316829,0.676931512510404
1789221425447652600,4.355652587890625,3.378427801316976,9.181447140356898,0.6764843532647937
1789221425457732600,4.365732666015625,3.379845851421356,9.181035052424669,0.6749961605336516
1789221425467812900,4.375812744140625,3.3816049700483677,9.180531779077649,0.6730305595491081
1789221425477891600,4.3858916015625,3.3836595644906162,9.17991510848403,0.6711120856419205
1789221425487971800,4.395971923828125,3.3856925316229463,9.179301360499858,0.6692606125563383
1789221425498051600,4.406051513671875,3.38786753757447,9.178619223454595,0.6676044428471476
1789221425508131800,4.4161318359375,3.389799382419884,9.178027687302231,0.6659193393044174
1789221425518211600,4.426211669921875,3.391617245496809,9.177584035187959,0.6627697161670774
1789221425528291600,4.43629150390625,3.393217374169826,9.177312232509255,0.6583198240861297
1789221425538370600,4.44637060546875,3.3947575893491506,9.177076670187711,0.65364956725277
1789221425548450800,4.456450927734375,3.3961154336988923,9.176876763701438,0.6493984856795519
1789221425558530600,4.466530517578125,3.3972567126885056,9.176656398949026,0.6465420002698898
1789221425568610600,4.476610595703125,3.3979686603501436,9.176472859075664,0.6454069318253547
1789221425578690800,4.48669091796875,3.3980227286249396,9.176496824473142,0.6447744060754775
1789221425588770600,4.4967705078125,3.3976164859116076,9.176735893926024,0.6435141038160771
1789221425598850800,4.506850830078125,3.396972342789173,9.177102973672747,0.6416790704086422
1789221425608929500,4.516929443359375,3.396398050032556,9.177460116547346,0.6396212610960006
1789221425619009800,4.527009765625,3.396077147515118,9.17773016566038,0.6374263814002276
1789221425629089500,4.537089599609375,3.3958544446751473,9.177911367446184,0.6360058470778167
1789221425639169800,4.547169677734375,3.3953391886293884,9.17816095829308,0.6351573404897004
1789221425649249500,4.55724951171875,3.3947926606625316,9.178429253840445,0.6342146528121083
1789221425659329500,4.56732958984375,3.394227427995205,9.178724437394738,0.6329312619380653
1789221425669408500,4.577408447265625,3.393941304530203,9.1789816270262,0.6307473420277238
1789221425679488800,4.58748876953125,3.393967900276184,9.179263366577029,0.6264838393643498
1789221425689568800,4.59756884765625,3.394439609441161,9.179487822982669,0.6206137782871722
1789221425699648500,4.6076484375,3.3958889314666387,9.179199653691052,0.616952844626829
1789221425709728800,4.617728759765625,3.396678328278661,9.179075150528549,0.614446780090034
1789221425719808500,4.62780859375,3.397044823503494,9.17901669833958,0.6132898651398718
1789221425729888800,4.637888671875,3.3988220623090863,9.178393013483285,0.6127782988885417
1789221425739967500,4.647967529296875,3.402019689306617,9.177369515654444,0.6103544327424839
1789221425750047700,4.6580478515625,3.4047540827065705,9.1766862095654,0.6053632733916864
1789221425760127700,4.668127685546875,3.4064684854090213,9.17650033160448,0.5984946297312155
1789221425770207700,4.678207763671875,3.4081524929732083,9.176232036057113,0.5930003066312521
1789221425780287700,4.688287841796875,3.4100913520812988,9.175649852254987,0.5908489738162607
1789221425790367500,4.698367431640625,3.413116252860427,9.174423525330424,0.592426707994379
1789221425800447700,4.70844775390625,3.4105618922024963,9.175430072024463,0.591567168555595
1789221425810526700,4.718526611328125,3.4075197480276227,9.17657456588447,0.5913458539551124
1789221425820606700,4.728606689453125,3.40574367826581,9.177277161195875,0.5906539992334321
1789221425830686500,4.7386865234375,3.411964744737744,9.175255884501338,0.5861329781450331
1789221425840766700,4.7487666015625,3.4089790069252253,9.17650266969204,0.5839963679751381
1789221425850846700,4.7588466796875,3.405238066831231,9.177731334704161,0.586512442449294
1789221425860926700,4.7689267578125,3.410484735313058,9.175147747951746,0.596362366942875
1789221425871006700,4.7790068359375,3.412377417191863,9.173917913895846,0.6044030135247856
1789221425881085700,4.789085693359375,3.4103257453590627,9.17476897776723,0.6030612435270101
1789221425891165700,4.799165771484375,3.409013201455772,9.175594907197356,0.5979057969925925
1789221425901245700,4.80924560546875,3.410614206911623,9.175332456868887,0.5927728180183097
1789221425911325700,4.81932568359375,3.411748179377615,9.174934981983899,0.5923943400947377
1789221425921405400,4.829405517578125,3.4109529373466967,9.175053055405616,0.5951388530299068
1789221425931485700,4.839485595703125,3.40937034433037,9.175317843821643,0.6000946853389963
1789221425941564700,4.849564697265625,3.4077123479902744,9.175580878672003,0.6054684873318299
1789221425951644700,4.859644775390625,3.4062826074481007,9.175841575434804,0.6095510074051097
1789221425961724400,4.869724365234375,3.405222577001154,9.176023361742496,0.6127335098987445
1789221425971804700,4.8798046875,3.4043396566867825,9.176099934110045,0.6164813546575606
1789221425981884400,4.889884521484375,3.4041724834263323,9.175813518384098,0.6216555424250662
1789221425991964700,4.899964599609375,3.4045226120382543,9.175226658406853,0.6283670958276838
1789221426002044400,4.91004443359375,3.4045471619576215,9.174702342271804,0.6358402081873268
1789221426012123600,4.92012353515625,3.403721524788439,9.174527570226788,0.6427500606410205
1789221426022203400,4.930203369140625,3.40219066195935,9.17465674956441,0.6489699580691755
1789221426032283600,4.94028369140625,3.401015480700135,9.174674869742988,0.6548470334090292
1789221426042363600,4.95036376953125,3.4001676316991447,9.17450477387309,0.6616024259533733
1789221426052443400,4.960443359375,3.3995693735450505,9.174142954823374,0.6696539227228612
1789221426062523600,4.970523681640625,3.3990693150684237,9.173690534880757,0.6783161718018352
1789221426072603400,4.980603271484375,3.398665118181705,9.173204212668537,0.6868643660470843
1789221426082682600,4.9906826171875,3.398822354570031,9.172540195801854,0.6949065835315734
1789221426092762400,5.000762451171875,3.399857835097611,9.171622496435045,0.7019281527314335
1789221426102842600,5.010842529296875,3.4009099744990468,9.170707135155796,0.7087503269016743
1789221426112922400,5.02092236328125,3.4017905567258593,9.169766639435291,0.7166538665678351
1789221426123002600,5.031002685546875,3.4020471618354318,9.168970520621537,0.7255692136250436
1789221426133082600,5.04108251953125,3.401563762232661,9.1683889213413,0.735119132258743
1789221426143161600,5.05116162109375,3.4011318005561826,9.167746531784534,0.7450692291911691
1789221426153241600,5.06124169921875,3.401038277053833,9.16696736410558,0.7550121657304465
1789221426163321600,5.071321533203125,3.4009739796459675,9.166177090510725,0.7648293569982051
1789221426173401600,5.081401611328125,3.400901498931646,9.165341224208474,0.7751052518188953
1789221426183481300,5.0914814453125,3.400720589406788,9.164443398585915,0.786432482323423
1789221426193561600,5.1015615234375,3.400514253179729,9.163429253107308,0.7990382813964039
1789221426203641600,5.1116416015625,3.4002275451928377,9.162373022052645,0.8122636006072164
1789221426213720600,5.121720458984375,3.399903427805006,9.161310945779084,0.8254938151888549
1789221426223800600,5.131800537109375,3.399377942626178,9.160307321694493,0.8386823095206171
1789221426233880600,5.141880615234375,3.3988995114594696,9.159271548905968,0.8518344173647463
1789221426243960600,5.151960693359375,3.398592637467384,9.158139330005644,0.865127760310471
1789221426254040600,5.16204052734375,3.3992297663271427,9.156582163691521,0.8789956882737576
1789221426264120600,5.17212060546875,3.400567736932635,9.154667854502797,0.8936324086524545
1789221426274200300,5.182200439453125,3.4026059647619724,9.152436149927974,0.9086053752481937
1789221426284279600,5.192279541015625,3.4048730329111216,9.150121443244814,0.9233078543394804
1789221426294359600,5.202359619140625,3.407427685829997,9.147727241584658,0.9374950043197721
1789221426304439600,5.212439453125,3.4101977350652217,9.145250622338056,0.9514924038816243
1789221426314519600,5.22251953125,3.413291024905443,9.142654760625957,0.9652401395313441
1789221426324599600,5.232599609375,3.416553241571784,9.139950762364268,0.9792086783248931
1789221426334679600,5.242679443359375,3.420157403543591,9.137059132575988,0.99351200203076
1789221426344758500,5.252758544921875,3.423739061422646,9.134088592332601,1.0083762475550173
1789221426354838500,5.262838623046875,3.4273616358339782,9.13095613952577,1.0243130176816135
1789221426364918500,5.27291845703125,3.4310397398248313,9.127648330152034,1.041347519917041
1789221426374998500,5.28299853515625,3.434862805244326,9.124340520778297,1.0575967169936746
1789221426385078500,5.29307861328125,3.438649338045716,9.12131503547728,1.0712980562184005
1789221426395158500,5.303158447265625,3.441797572943568,9.118753076034784,1.082930553279817
1789221426405238500,5.313238525390625,3.4447768810153003,9.116268858003616,1.0943217889312653
1789221426415317500,5.3233173828125,3.4481039796113966,9.11359350131452,1.1060687792178243
1789221426425397800,5.333397705078125,3.451572240243852,9.110805916422605,1.1181482893943786
1789221426435477500,5.3434775390625,3.455136654727161,9.107949357947707,1.1303385664690284
1789221426445557500,5.3535576171875,3.4591154952302574,9.104880033504962,1.1428338178396225
1789221426455637500,5.363637451171875,3.4631489885300395,9.101829998284577,1.154848226890713
1789221426465717500,5.373717529296875,3.467372159183025,9.099027215823531,1.1642281227197497
1789221426475797800,5.3837978515625,3.4714281565755605,9.096378162619471,1.172806492907554
1789221426485876500,5.39387646484375,3.47501916680485,9.09397577765286,1.1807806135918943
1789221426495956700,5.403956787109375,3.4781162560373544,9.091665747144818,1.1894219660133123
1789221426506036500,5.414036376953125,3.4814883628189564,9.089120154315232,1.1989752456478773
1789221426516116700,5.42411669921875,3.484384668782353,9.08664587315619,1.2092631962325424
1789221426526196500,5.434196533203125,3.48675958122015,9.084558545488118,1.2180701875444502
1789221426536276500,5.4442763671875,3.4889053610771894,9.08282076191008,1.2248675195343792
1789221426546355500,5.45435546875,3.4919390296846626,9.08086378262341,1.2307191681720315
1789221426556435700,5.464435791015625,3.4954987679928538,9.07899623518586,1.2343863123774528
1789221426566515500,5.474515380859375,3.4997438582167026,9.077140962707995,1.2359978392273188
1789221426576595500,5.484595458984375,3.5046252005174754,9.075109749141335,1.2370903106391429
1789221426586675700,5.49467578125,3.508229362489283,9.073541476911306,1.2383690984033047
1789221426596755500,5.50475537109375,3.5099294444054365,9.072878044566512,1.2384167369373142
1789221426606835700,5.514835693359375,3.5109120257019995,9.072660602423548,1.237213060235977
1789221426616914400,5.52491455078125,3.5119530591875314,9.072636052504182,1.2344377503037451
1789221426626994700,5.53499462890625,3.5132834310084577,9.072624946588277,1.230723844347149
1789221426637074400,5.545074462890625,3.5151714367121456,9.072406919923424,1.2269390651114285
1789221426647154700,5.55515478515625,3.5174674386948346,9.072233901444077,1.2216379630286245
1789221426657234400,5.565234375,3.5194241257205605,9.072408673489093,1.2146764534529297
1789221426667314400,5.575314453125,3.5203541000470517,9.07316153768301,1.2063245854973792
1789221426677394700,5.585394775390625,3.5206074902862308,9.074236473438143,1.1974746318265794
1789221426687473400,5.595473388671875,3.520859419220686,9.075238343957066,1.1891104889113455
1789221426697553700,5.6055537109375,3.521004380649328,9.076358872419595,1.180100814634189
1789221426707633400,5.61563330078125,3.5210116871729493,9.077651250317691,1.1700945305351167
1789221426717713700,5.625713623046875,3.5196330922961234,9.079627518826722,1.1588528594221918
1789221426727793400,5.63579345703125,3.516177398884296,9.082584615066647,1.1460961075711995
1789221426737873700,5.645873779296875,3.5116266037121413,9.086032709693908,1.132634056995064
1789221426747953700,5.65595361328125,3.5070497973158954,9.089491325715183,1.118998549548164
1789221426758032600,5.66603271484375,3.5017566593438385,9.093119453084467,1.1060144917473196
1789221426768112600,5.676112548828125,3.4958719852194187,9.097020552176236,1.0924673201709985
1789221426778192600,5.686192626953125,3.4919863759577274,9.10012787054181,1.0789343232505022
1789221426788272600,5.696272705078125,3.491315344828367,9.101891373082994,1.0661435229994356
1789221426798352400,5.706352294921875,3.4916423848256466,9.103416975215076,1.0519590764328837
1789221426808432600,5.7164326171875,3.491614035513997,9.10533011536002,1.0353571934610604
1789221426818511400,5.726511474609375,3.4893992820739745,9.108312930563091,1.016420730061829
1789221426828591600,5.736591552734375,3.483898931092024,9.11252967147529,0.9973185547068715
1789221426838671400,5.74667138671875,3.4794682551681992,9.11611162161529,0.9799034556560218
1789221426848751600,5.756751708984375,3.480118243509531,9.11780848866105,0.9616349546462297
1789221426858831600,5.76683154296875,3.479448089163005,9.120182232055068,0.9413350208740681
1789221426868911600,5.77691162109375,3.47363852610141,9.12467077564597,0.919025500845164
1789221426878991600,5.78699169921875,3.466102285377681,9.129805215924979,0.8961994095962494
1789221426889070600,5.797070556640625,3.4580452356502414,9.134990509608388,0.8742234323706477
1789221426899150600,5.807150634765625,3.452733977499604,9.138879333740473,0.854337924618274
1789221426909230600,5.817230712890625,3.4519106784179803,9.140981274455784,0.8349619738232343
1789221426919309800,5.827309814453125,3.449063472293317,9.143966427746415,0.8137727630611509
1789221426929389800,5.837389892578125,3.4437425695315,9.148076785674691,0.7897513245478271
1789221426939469800,5.8474697265625,3.4377743087768553,9.152502200901507,0.7640720358248799
1789221426949549600,5.857549560546875,3.433533602467179,9.156352446588873,0.7365040107458829
1789221426959628800,5.86762890625,3.43113501689285,9.15954802775979,0.7073804267879575
1789221426969708800,5.877708740234375,3.4284196204543114,9.16275354580283,0.6784482737489044
1789221426979788800,5.887788818359375,3.425613038600981,9.165798904848097,0.6509216035936027
1789221426989868800,5.897868896484375,3.4201720165908336,9.169740335950255,0.6234409645371138
1789221426999948800,5.90794873046875,3.4146111675933,9.173556094846129,0.5972283726550638
1789221427010028800,5.91802880859375,3.412310197174549,9.176080060365795,0.5710400749640538
1789221427020107800,5.928107666015625,3.411147875396907,9.178213565263151,0.5430184974312782
1789221427030187800,5.938187744140625,3.408029743376374,9.181103441485762,0.5128761648848652
1789221427040267800,5.948267822265625,3.4050136104255913,9.18381270044446,0.4835822293287143
1789221427050347800,5.95834765625,3.3994206127241253,9.187275408118962,0.4564031670346856
1789221427060428000,5.968427978515625,3.395388872990012,9.190087542930245,0.4289655634023249
1789221427070507800,5.9785078125,3.39131680124551,9.192877465909719,0.40043318680319934
1789221427080587800,5.988587890625,3.3888618093088265,9.195053056383133,0.370167702801153
1789221427090666800,5.998666748046875,3.38853915322572,9.196206318071484,0.34347587603479623
1789221427100746800,6.008746826171875,3.38809140945822,9.197262549126147,0.31874888306800275
1789221427110826800,6.01882666015625,3.3877672920703885,9.198319364702702,0.2904133259489201
1789221427120906800,6.02890673828125,3.3882100674018263,9.19916224526763,0.25658156430004164
1789221427130986800,6.03898681640625,3.3893072149887677,9.19970058992803,0.22018234504964201
1789221427141066800,6.049066650390625,3.38941535153836,9.200441763684154,0.1847236580523662
1789221427151147000,6.05914697265625,3.389013785000145,9.201169493436813,0.15320313248792664
1789221427161225700,6.069225830078125,3.3889296138480303,9.201627758598327,0.1248391347256489
1789221427171306000,6.079305908203125,3.3910251248225567,9.201197550487517,0.09640893072620965
1789221427181385700,6.0893857421875,3.3926009958371517,9.200888338407873,0.06557405847152695
1789221427191465700,6.0994658203125,3.3911189405858515,9.201609638419747,0.033037005958438385
1789221427201545700,6.109545654296875,3.387570308193564,9.202975666075945,0.0005873596606918
1789221427211625700,6.119625732421875,3.388148692603409,9.20270561696291,-0.03250681263845181
1789221427221705700,6.129705810546875,3.395631157313287,9.199775408729911,-0.06487903911180329
1789221427231784700,6.13978466796875,3.3982395862460133,9.19852511640787,-0.09739995105755515
1789221427241864700,6.14986474609375,3.39032895925194,9.201011088004707,-0.1320827857109718
1789221427251944700,6.15994482421875,3.3812732538759707,9.20346783350706,-0.18315200655516237
1789221427262025000,6.17002490234375,3.3802196531698105,9.20249928073585,-0.24187373318020253
1789221427272104700,6.180104736328125,3.4003353894814845,9.193903886348009,-0.2832359816654585
1789221427282185000,6.19018505859375,3.4137598114609715,9.18847601608038,-0.2975815005452372
1789221427292263700,6.200263671875,3.4054984713330865,9.191436034929751,-0.30081253662202506
1789221427302344000,6.210343994140625,3.3957980383127926,9.1943294182837,-0.321331629570201
1789221427312423700,6.220423583984375,3.3735043734401464,9.201936386156081,-0.3379617522558197
1789221427322503700,6.230503662109375,3.3530355859071013,9.209124251833558,-0.3457910211093724
1789221427332584000,6.240583984375,3.363275240370631,9.205241857442259,-0.3496769226320088
1789221427342663700,6.25066357421875,3.406987248586118,9.189246415930986,-0.3472077925721183
1789221427352744000,6.260743896484375,3.4122581747263667,9.188222333580255,-0.3216267035266384
1789221427362822700,6.27082275390625,3.4131428486064075,9.188800425729156,-0.2945807112940587
1789221427372903000,6.28090283203125,3.414709659531712,9.189283240810036,-0.2592885217037983
1789221427382982700,6.290982666015625,3.4165757456645367,9.189194978004693,-0.2368218566181138
1789221427393063000,6.30106298828125,3.4198063981488347,9.188243376368284,-0.22695251503800973
1789221427403142700,6.311142578125,3.422143024402857,9.187515062093734,-0.22110530511345713
1789221427413223000,6.321222900390625,3.4221260732680556,9.187844732439517,-0.20723067341474816
1789221427423303000,6.331302978515625,3.422790966917574,9.188134070774913,-0.18189782350929454
1789221427433382000,6.3413818359375,3.4281498636022207,9.1867236194551,-0.14932439135843886
1789221427443462000,6.3514619140625,3.4315114489898084,9.185963740998506,-0.11479609881276265
1789221427453541600,6.361541748046875,3.434014956243336,9.185369866758585,-0.08313305037193931
1789221427463622000,6.371621826171875,3.4354318373039363,9.185047210675478,-0.05576003184181172
1789221427473701600,6.38170166015625,3.4366496886610984,9.184702342760563,-0.03271563080025371
1789221427483782000,6.391781982421875,3.439438442596793,9.183710993635653,-0.01009765788517543
1789221427493861600,6.401861572265625,3.446479301019013,9.181062524953484,0.015597761130309662
1789221427503940900,6.41194091796875,3.454156703779101,9.178095491841434,0.041952273100544696
1789221427514020600,6.4220205078125,3.4605253620281813,9.175554575186966,0.06598691815531346
1789221427524100900,6.432100830078125,3.4623753738090395,9.174680714961886,0.08704587643411942
1789221427534180900,6.442180908203125,3.4622488248199224,9.174500097697972,0.10849691647016442
1789221427544260900,6.4522607421875,3.4658778289720416,9.172763483163713,0.1359312230337411
1789221427554340900,6.4623408203125,3.4713220658525823,9.170186910673975,0.1672906580186449
1789221427564420600,6.472420654296875,3.4720921734422445,9.169308958795666,0.19679984376067294
1789221427574499800,6.482499755859375,3.46961906132698,9.16965324218869,0.22272002856740727
1789221427584579600,6.49257958984375,3.4668402442634103,9.170072344383597,0.2473077226613648
1789221427594659800,6.502659912109375,3.468801315203309,9.16861162418127,0.2726728491349146
1789221427604739800,6.51273974609375,3.4730692017808553,9.166160139375924,0.2994531579023227
1789221427614819800,6.52281982421875,3.476261275820434,9.163914990797638,0.3296416311454028
1789221427624899800,6.53289990234375,3.4832761230185625,9.159747934246063,0.3690406715326011
1789221427634978800,6.542978759765625,3.4967788709312675,9.152446086800097,0.419121228399314
1789221427645058800,6.553058837890625,3.513311780320108,9.143512254238129,0.4724513251138851
1789221427655138800,6.563138916015625,3.5248473198130723,9.136592684108019,0.5181908936342224
1789221427665218800,6.57321875,3.532628767469525,9.131399207118154,0.5554018493926153
1789221427675298800,6.583298828125,3.5406627285823222,9.125915222749114,0.5930986159065738
1789221427685378800,6.59337890625,3.5503646229073405,9.119043583413958,0.6390067824594676
1789221427695458800,6.603458740234375,3.557052430108189,9.112453683629631,0.6935127180203795
1789221427705537800,6.613537841796875,3.5654490870535374,9.104812813487648,0.7485510068923235
1789221427715617800,6.62361767578125,3.571856323747337,9.09790960997045,0.800175103406608
1789221427725697800,6.63369775390625,3.5796325107067823,9.090406102472544,0.8492011462517082
1789221427735777800,6.64377783203125,3.5942514031678434,9.079656160399317,0.9008904169566929
1789221427745857800,6.65385791015625,3.6102591196388003,9.067412180376053,0.9583535948880016
1789221427755937800,6.663937744140625,3.623077684679627,9.055303809431194,1.0223369683682917
1789221427766017800,6.674017822265625,3.6365143816187975,9.04225961894095,1.0879797994934022
1789221427776096800,6.6840966796875,3.646991644230485,9.029845543047784,1.1540128720451146
1789221427786176800,6.6941767578125,3.6586522714078424,9.017540188226103,1.2118628573369234
1789221427796256800,6.7042568359375,3.6745550661996003,9.00434109943509,1.260897741075605
1789221427806336800,6.714336669921875,3.691503570652008,8.990494944912195,1.3092678042300046
1789221427816416800,6.724416748046875,3.709138303802907,8.975625877082347,1.3604519018918275
1789221427826496800,6.734496826171875,3.7267242293760177,8.959670183059572,1.4164109588705003
1789221427836576800,6.74457666015625,3.744113171072304,8.943179066985845,1.473614901343733
1789221427846655700,6.75465576171875,3.760064773441851,8.926583906015754,1.5324493676282465
1789221427856735700,6.76473583984375,3.7754298080950974,8.910042521059513,1.5898540933705865
1789221427866815700,6.774815673828125,3.793144620744884,8.89274242669046,1.6436467660956084
1789221427876896000,6.78489599609375,3.8090366018816826,8.876564614349602,1.6935867089152334
1789221427886975700,6.794975830078125,3.8243244796454903,8.862666437378525,1.7314957299403846
1789221427897055700,6.8050556640625,3.8374075408414003,8.851406792217492,1.7599116770856083
1789221427907134700,6.815134765625,3.849497207085788,8.840376279637217,1.7887172080703078
1789221427917215000,6.825215087890625,3.864010301084816,8.826900127470493,1.8236349383249877
1789221427927294700,6.835294677734375,3.882625569705665,8.810030825734138,1.8651928372465072
1789221427937374500,6.84537451171875,3.8976793464526533,8.793241018974781,1.9124352115452288
1789221427947454700,6.855454833984375,3.904086583146453,8.779064025062322,1.963804018124193
1789221427957534700,6.86553466796875,3.906158420984447,8.766557010188698,2.0148926925875243
1789221427967614700,6.87561474609375,3.914189167226851,8.753999141910672,2.05353938023746
1789221427977693700,6.885693603515625,3.92333781158328,8.742600380539894,2.084404327969998
1789221427987773700,6.895773681640625,3.9354026356473564,8.731360024601221,2.1086375826030967
1789221427997853700,6.905853759765625,3.941710503619909,8.723214712068438,2.1304544237442316
1789221428007933700,6.91593359375,3.945148076853156,8.716212724351882,2.1526343991093335
1789221428018013700,6.926013671875,3.948993354104459,8.709228856813906,2.173745868460089
1789221428028093700,6.93609375,3.948756038217246,8.703379546263813,2.197476434268057
1789221428038173700,6.946173583984375,3.9522099780634043,8.695331264364718,2.2229810240112244
1789221428048253000,6.9562529296875,3.9532366907626386,8.685609496295452,2.2588683299504217
1789221428058332700,6.966332763671875,3.9493259470596906,8.675816416555643,2.3029170227743685
1789221428068412700,6.97641259765625,3.939144452524185,8.668048120641707,2.3491392602451144
1789221428078492700,6.98649267578125,3.9307843281969426,8.661340147435665,2.3875718667529524
1789221428088572700,6.99657275390625,3.9150156811788674,8.65913007017076,2.4212600552126764
1789221428098652700,7.006652587890625,3.8889316841125487,8.65726544534266,2.4694816498070953
1789221428108731600,7.016731689453125,3.8802129556059834,8.646571032848954,2.5201445000737905
1789221428118811600,7.026811767578125,3.8800203556433317,8.63577900519967,2.557174546307325
1789221428128891600,7.0368916015625,3.8816044099643823,8.628322259452938,2.579840259362757
1789221428138972000,7.046971923828125,3.8807740966200828,8.626829390546678,2.586074769838154
1789221428149051600,7.0570517578125,3.8671038831859823,8.636420810234545,2.574513803642988
1789221428159131600,7.067131591796875,3.8530814953133463,8.652092426618934,2.542721073541045
1789221428169211600,7.077211669921875,3.828460264275968,8.677446063584089,2.493030283176899
1789221428179291600,7.087291748046875,3.802297941276431,8.706155440717936,2.432233284647763
1789221428189370600,7.09737060546875,3.7856390674203633,8.730189811778068,2.371307545172423
1789221428199450600,7.10745068359375,3.7745679305687543,8.750053619155286,2.315077416167408
1789221428209530600,7.117530517578125,3.754699154755473,8.769232366877795,2.274463081706315
1789221428219610600,7.127610595703125,3.7223435300737617,8.793681163957714,2.232873326341808
1789221428229691000,7.13769091796875,3.6880449546307323,8.822553622698784,2.1751425835154947
1789221428239770600,7.1477705078125,3.6394241315856575,8.85855491040647,2.1097320998415348
1789221428249849900,7.157849853515625,3.5780405653402205,8.900623535329103,2.0363960838653146
1789221428259929600,7.1679296875,3.527405479863286,8.93539557350278,1.971421653521061
1789221428270009900,7.178009765625,3.5110645859152076,8.951184094265102,1.9285044489450751
1789221428280089600,7.188089599609375,3.528247775906324,8.951499151563644,1.8953937681123614
1789221428290169600,7.198169677734375,3.5684210886016485,8.9438787396878,1.8557430179864167
1789221428300249900,7.208249755859375,3.6123993465378876,8.93806040879786,1.7977875264935195
1789221428310329600,7.21832958984375,3.613124445942044,8.948678833445905,1.7426643358170986
1789221428320408800,7.228408935546875,3.6070609081193803,8.963432750463484,1.6782072073452174
1789221428330488600,7.238488525390625,3.596171849836409,8.978615706548094,1.6193815088890493
1789221428340568800,7.24856884765625,3.5772649047926066,8.996267098572849,1.5622908175319432
1789221428350648600,7.258648681640625,3.5488603558242318,9.01762085224688,1.5028263827808201
1789221428360728800,7.268728759765625,3.5217142824843526,9.03890329425037,1.4373993863634764
1789221428370808600,7.27880859375,3.521161324776709,9.050425389739871,1.364401224039495
1789221428380888600,7.288888671875,3.539132450275123,9.053642598220705,1.294786858934909
1789221428390967600,7.298967529296875,3.532272209116816,9.063876407465338,1.2407920877665282
1789221428401047800,7.3090478515625,3.522619122369587,9.074172176030277,1.1920333175554871
1789221428411127800,7.3191279296875,3.5094396150618787,9.08371800301075,1.1577082924969493
1789221428421207600,7.32920751953125,3.4970869139671326,9.094005588269233,1.113473502516374
1789221428431287800,7.339287841796875,3.487365145897865,9.103757751476763,1.0631424414873123
1789221428441367600,7.349367431640625,3.4955288708701726,9.107012953880428,1.0069609008643776
1789221428451447800,7.35944775390625,3.491936399336159,9.112280080628395,0.9711359926369041
1789221428461526500,7.369526611328125,3.4824493168056008,9.118938369473815,0.9422888875328004
1789221428471606800,7.379606689453125,3.474110527527332,9.124777743151784,0.9161769064810127
1789221428481686500,7.3896865234375,3.4720740532636643,9.129105543223023,0.8800679936803877
1789221428491766800,7.399766845703125,3.472024368903041,9.132698599278926,0.8421591918509453
1789221428501846800,7.4098466796875,3.474361871939897,9.134174517050385,0.8161129695117473
1789221428511926500,7.419926513671875,3.4718960663482545,9.137177205997705,0.7926613667756318
1789221428522006800,7.4300068359375,3.469357195520401,9.140590229311584,0.7639024514116346
1789221428532085800,7.440085693359375,3.4653479598790407,9.144837365362047,0.7305385264702141
1789221428542165800,7.450165771484375,3.4589211417019365,9.149671361389755,0.6998415557157248
1789221428552245500,7.46024560546875,3.4515979592069983,9.154507110983133,0.6722100369464605
1789221428562325800,7.47032568359375,3.440279569596052,9.160774354684353,0.6442778547301888
1789221428572405800,7.48040576171875,3.4207018856838345,9.169996941059827,0.6167126061301678
1789221428582485800,7.49048583984375,3.3964345826506612,9.181024531030655,0.5860103746786713
1789221428592565800,7.500565673828125,3.3656901925578713,9.193980458715558,0.5596961855856701
1789221428602644700,7.510644775390625,3.3571199326112864,9.198399444201588,0.5381287526283413
1789221428612724700,7.520724853515625,3.407536114640534,9.181607883876561,0.5071127059873193
1789221428622804700,7.5308046875,3.441620170550048,9.169499512931704,0.49587633210401977
1789221428632884700,7.540884765625,3.429990523032844,9.174516464310884,0.4835311201959848
1789221428642964500,7.550964599609375,3.4272830176398155,9.176794930636882,0.4588746351821348
1789221428653044700,7.561044677734375,3.435450542004406,9.175093387416005,0.4309592945028096
1789221428663123700,7.571123779296875,3.4465564579084513,9.172503370922803,0.3960283394403755
1789221428673203700,7.58120361328125,3.43620808237344,9.177437904715537,0.37080654869396235
1789221428683283700,7.59128369140625,3.415995023167133,9.186782656165956,0.32310718787536025
1789221428693363700,7.60136376953125,3.375412252888083,9.203079126450419,0.2834092193405144
1789221428703443700,7.611443603515625,3.320244200156629,9.223857126063107,0.2584998920767568
1789221428713523700,7.621523681640625,3.2814868917390703,9.238370804584026,0.23399794003749264
1789221428723603700,7.631603759765625,3.282423588067293,9.238708658236265,0.20576246402570977
1789221428733682700,7.6416826171875,3.3227684579372405,9.225054226893185,0.16721887142406774
1789221428743762700,7.6517626953125,3.372818437002599,9.207547211775184,0.12474822330549358
1789221428753842700,7.6618427734375,3.413610173857212,9.192898508697748,0.09097545270170085
1789221428763922700,7.671922607421875,3.4224218413442373,9.189846135389804,0.06436046316437423
1789221428774002700,7.682002685546875,3.415107426677644,9.192772836491464,0.018759354408300715
1789221428784082700,7.692082763671875,3.398954748778045,9.198746650204061,-0.023677956554607953
1789221428794162700,7.70216259765625,3.4046772180780764,9.196411485254764,-0.06766937308323104
1789221428804241700,7.71224169921875,3.433004317896068,9.18554580784738,-0.10303465987574309
1789221428814321700,7.72232177734375,3.444917750790715,9.180814103150368,-0.1248807910434436
1789221428824401700,7.732401611328125,3.444617306539416,9.180457544797658,-0.15552207695478573
1789221428834481700,7.742481689453125,3.4502900914788244,9.177747116795182,-0.18666469085123388
1789221428844562000,7.75256201171875,3.4501875078871844,9.176988991904258,-0.22242217813199386
1789221428854641700,7.7626416015625,3.4438048211127517,9.178356773126124,-0.2615019234369509
1789221428864721700,7.7727216796875,3.4357004251122474,9.180114430448413,-0.30303720866786316
1789221428874800600,7.782800537109375,3.427369526879489,9.181876179423927,-0.34156748513020574
1789221428884881000,7.792880859375,3.413790791121125,9.185967832651734,-0.36663514476083214
1789221428894960600,7.802960693359375,3.407268695876002,9.187623198643326,-0.38531876591015607
1789221428905040600,7.81304052734375,3.435341236411035,9.175891844317317,-0.4145032862750813
1789221428915120600,7.82312060546875,3.4819580261573195,9.156885530552268,-0.44475649531744416
1789221428925201000,7.833200927734375,3.4908851367175577,9.152230982744694,-0.46986642318721855
1789221428935281200,7.84328125,3.4923905728444455,9.14981281568706,-0.504490759985894
1789221428945360000,7.85335986328125,3.494737428231537,9.147176037442684,-0.5351287670947611
1789221428955440000,7.863440185546875,3.490981290568411,9.14665990461409,-0.5674887756906449
1789221428965520000,7.873519775390625,3.484377362258732,9.14695684173405,-0.6022326837483793
1789221428975600000,7.88360009765625,3.473239882172644,9.148987470778822,-0.6348432330392301
1789221428985680000,7.893679931640625,3.463019516931474,9.15132497381568,-0.6566014758609235
1789221428995759900,7.903759765625,3.4873005562290547,9.140957309058308,-0.6723143010385334
1789221429005840100,7.913840087890625,3.5300264760166407,9.123583564931154,-0.6852130186434835
1789221429015918800,7.9239189453125,3.5357612202763558,9.119651486179231,-0.7076163544356823
1789221429025999000,7.9339990234375,3.528886366070807,9.119156396138667,-0.747204414588958
1789221429036078800,7.944078857421875,3.5319790713891384,9.1156632933259,-0.7747266277648508
1789221429046159000,7.9541591796875,3.531416469070315,9.11383666242063,-0.7984200764328241
1789221429056238800,7.96423876953125,3.515739299727976,9.11801365584433,-0.8196336179185658
1789221429066319000,7.974319091796875,3.505114445339143,9.119965374433994,-0.8430866819594055
1789221429076397800,7.984397705078125,3.5089579690247774,9.116047324207425,-0.8690701412606984
1789221429086478000,7.99447802734375,3.5271237403124567,9.10736366701424,-0.8863961007233708
1789221429096557800,8.004557861328125,3.5551068489983675,9.095943278333545,-0.8918559735644608
1789221429106638000,8.01463818359375,3.5615316213488577,9.09326324546933,-0.8935499910660087
1789221429116718000,8.024718017578126,3.557154136916995,9.093637924000621,-0.907079188594222
1789221429126797800,8.0347978515625,3.5513720463842153,9.094699415752292,-0.9190145410597323
1789221429136878000,8.044878173828126,3.5416935329347847,9.097436147239804,-0.9292238734502345
1789221429146956800,8.054956787109376,3.5302950638249513,9.100749801832437,-0.9400926926627755
1789221429157037000,8.065037109375,3.5312846593841907,9.098906219792365,-0.9541139114916324
1789221429167116800,8.07511669921875,3.539984098668396,9.094474959346652,-0.9640693421863019
1789221429177197000,8.085197021484374,3.556611408342421,9.087808487194776,-0.9657390289641916
1789221429187277000,8.095277099609374,3.5599800079926847,9.087109399014711,-0.9598759090844541
1789221429197357000,8.105357177734374,3.546325868910551,9.091798433613777,-0.9659999449227005
1789221429207437000,8.11543701171875,3.532521507702768,9.097152069601416,-0.9661859690140933
1789221429217516000,8.12551611328125,3.5521909615516662,9.0894054009974,-0.9669821608930825
1789221429227596000,8.135595947265625,3.5613618177399036,9.08584566268921,-0.9666901191439479
1789221429237676000,8.145676025390625,3.563320842853188,9.083856534698604,-0.9781045164752751
1789221429247756000,8.155756103515625,3.5594369871571656,9.085500210252404,-0.9769790926419198
1789221429257835800,8.165835693359375,3.5487928435459732,9.087509211987257,-0.9968147699031978
1789221429267916000,8.175916015625,3.5288980565086003,9.094425274986028,-1.0043372743625194
1789221429277996000,8.18599609375,3.5027801571726798,9.103809773924946,-1.0107266831386834
1789221429288075000,8.196074951171875,3.487449024789035,9.10779445964694,-1.0276959381181745
1789221429298155000,8.206155029296875,3.4676240881174802,9.113075030398369,-1.0477696619190275
1789221429308235000,8.216235107421875,3.458808328977227,9.115755647784471,-1.0535779098063707
1789221429318315000,8.22631494140625,3.4641786238387224,9.114597709921002,-1.045921915160492
1789221429328395000,8.23639501953125,3.475411965514719,9.112931238013505,-1.0229329615000635
1789221429338475000,8.24647509765625,3.509088317406177,9.104042998158931,-0.986457188148424
1789221429348554800,8.2565546875,3.521798453636467,9.10394947465658,-0.9409730556938797
1789221429358634000,8.266634033203125,3.5092052217841148,9.111029203784465,-0.9192468885108828
1789221429368713700,8.276713623046875,3.4865830556094646,9.119957191127538,-0.9167908736608922
1789221429378794000,8.2867939453125,3.45557650744915,9.132461867913603,-0.9096830144170671
1789221429388874000,8.2968740234375,3.4164401365861297,9.148609285116196,-0.895140475127846
1789221429398954000,8.3069541015625,3.373668916352093,9.166188780948518,-0.877346825088188
1789221429409034000,8.317033935546876,3.3619781862974163,9.172423291423916,-0.8568143246691674
1789221429419114000,8.327114013671874,3.393490053631365,9.162501032346487,-0.8385646744903177
1789221429429193000,8.33719287109375,3.445339191073179,9.145185740408301,-0.8158481080304831
1789221429439273000,8.34727294921875,3.4540313238337634,9.14563582226336,-0.7729154136244207
1789221429449353000,8.35735302734375,3.4468940192997453,9.149324155387282,-0.7610321566723287
1789221429459433000,8.367432861328124,3.439087437202036,9.154777160096168,-0.7301371060624718
1789221429469513000,8.377512939453124,3.434117539834976,9.15919556106031,-0.6973804993644356
1789221429479593000,8.387593017578125,3.4235490918084976,9.165001616990565,-0.6726425831448286
1789221429489673000,8.3976728515625,3.40604236895144,9.173145175957679,-0.6501371752176434
1789221429499752000,8.407751953125,3.3861826532274484,9.182069656169414,-0.6274991538867354
1789221429509832000,8.41783203125,3.364196739129722,9.192188899123668,-0.5968444148387759
1789221429519912000,8.427911865234375,3.339444867449999,9.20380393359363,-0.555422234593518
1789221429529992000,8.437991943359375,3.3166730636715887,9.21476956424415,-0.5080468084996566
1789221429540072000,8.448072021484375,3.2993624479085204,9.223091986909509,-0.468168021771498
1789221429550152000,8.45815185546875,3.285064165703952,9.229756120973825,-0.43629594282303
1789221429560232000,8.46823193359375,3.268445623858273,9.236807208529115,-0.4111681870356202
1789221429570311200,8.478311279296875,3.263283126528561,9.239785932078957,-0.38435547383595253
1789221429580391000,8.488390869140625,3.3036446552723646,9.226674521571397,-0.35326559477373953
1789221429590471000,8.498470947265625,3.353330769461393,9.21044468678236,-0.30537012686114756
1789221429600551000,8.508551025390625,3.3481828851789235,9.213846019658446,-0.2551731588068418
1789221429610631000,8.518630859375,3.340320481240749,9.217124602937698,-0.23926596183460205
1789221429620711000,8.5287109375,3.3238989232718943,9.223315274271368,-0.22923706404492258
1789221429630790000,8.538789794921875,3.2936186435595154,9.234583687260747,-0.21199861846892162
1789221429640870000,8.548869873046876,3.2655256447583434,9.245060073089599,-0.18869420565115286
1789221429650950000,8.558949951171876,3.2566952725708482,9.24873145507872,-0.15901808411069213
1789221429661030100,8.569030029296876,3.2788810931548475,9.24143779093921,-0.12309316784115508
1789221429671110000,8.57910986328125,3.3172683992162346,9.228205968922376,-0.07963222091044299
1789221429681190000,8.58918994140625,3.3214158742845057,9.226998346698284,-0.03301680113733746
1789221429691270000,8.599269775390624,3.316413535952568,9.228816209775209,-0.027405690107156988
1789221429701349000,8.60934912109375,3.3028590578526256,9.233692291378974,-0.021102916151541282
1789221429711428900,8.619428955078124,3.2804388439908623,9.241699072223902,-0.010556772430060663
1789221429721508900,8.6295087890625,3.273695214949548,9.244095611971616,0.004852941044306499
1789221429731589000,8.639589111328124,3.2784114298164844,9.242385300922393,0.02687934412851464
1789221429741668900,8.6496689453125,3.2922777503445744,9.23728184030354,0.06271693374104798
1789221429751749000,8.6597490234375,3.3313167983129617,9.222782190307974,0.11406573871159925
1789221429761828900,8.669828857421875,3.3432997893124816,9.217432645973563,0.17798406586535273
1789221429771908000,8.679908203125,3.3380148346468803,9.218655465766787,0.21077963460059834
1789221429781987800,8.68998779296875,3.325777868886292,9.222823691362143,0.2215730687556788
1789221429792068000,8.700068115234375,3.2970565090537067,9.233100755226612,0.22279234488494692
1789221429802147800,8.71014794921875,3.239877701021731,9.25307795985043,0.23268384349793195
1789221429812227800,8.720227783203125,3.1774083853662014,9.273896875995398,0.263228929892648
1789221429822308000,8.73030810546875,3.153671243686974,9.280286284771561,0.3178670952647924
1789221429832387800,8.740387939453125,3.186418498034775,9.266981397518515,0.37439112918246537
1789221429842467000,8.750467041015625,3.3010932172238823,9.224738585072755,0.42114122645221647
1789221429852546800,8.760546875,3.351992506594956,9.203034702786804,0.4885420436931774
1789221429862627000,8.770626953125,3.365770856578648,9.197749455860256,0.4933271225452423
1789221429872706800,8.780706787109375,3.3408974043458697,9.207038677731155,0.4891027463158592
1789221429882787000,8.790787109375,3.3018051648855207,9.22051482989788,0.5005608731910586
1789221429892866800,8.80086669921875,3.29021555711776,9.223192524674534,0.5268493067882954
1789221429902947000,8.810947021484376,3.317414821949601,9.211405640769005,0.5613913355983794
1789221429913025800,8.82102587890625,3.364388462309539,9.192351396209,0.5932603823395446
1789221429923106000,8.83110595703125,3.3743262112170456,9.186361800405383,0.6285488821353763
1789221429933186000,8.84118603515625,3.3745667419746517,9.186154295134545,0.630280235972628
1789221429943266000,8.85126611328125,3.3508573650851843,9.194138864147662,0.6402775330476462
1789221429953346000,8.861345947265624,3.3099425863727925,9.207883896383642,0.6553902003750205
1789221429963426000,8.871426025390624,3.271958892676234,9.220389742213488,0.670151204720512
1789221429973506000,8.881506103515624,3.2777848223507404,9.217506295731663,0.6812360778365284
1789221429983585000,8.8915849609375,3.3282346143886445,9.198856540319323,0.6886790873188525
1789221429993665000,8.9016650390625,3.4025366989180443,9.170829884752632,0.6992981695540249
1789221430003745000,8.9117451171875,3.4216210463553667,9.159978235870598,0.7467915229391306
1789221430013825000,8.921824951171875,3.420182245723903,9.159839704182744,0.7550451181519776
1789221430023905000,8.931905029296875,3.3967999088317153,9.168566031473874,0.7546688321854919
1789221430033985000,8.941985107421875,3.3515336569115517,9.183878166896104,0.7707021214891224
1789221430044065000,8.95206494140625,3.3240365781769157,9.193288969320058,0.777558563255146
1789221430054144300,8.962144287109375,3.3408120641499757,9.18780440042913,0.7704642941452562
1789221430064224000,8.97222412109375,3.394068145780265,9.168774121266603,0.764374233641848
1789221430074304000,8.982303955078125,3.444541318693757,9.148753077501057,0.7783492021761834
1789221430084384000,8.992384033203125,3.4510894251629707,9.14569193636477,0.7852910572033375
1789221430094464000,9.002464111328125,3.4331241448834535,9.152715551391243,0.7821988633416592
1789221430104544300,9.012544189453125,3.3937542575255035,9.167869281381368,0.776527466641739
1789221430114624000,9.0226240234375,3.336232335144281,9.189439892676472,0.7708064586464315
1789221430124703000,9.032702880859375,3.304914821338653,9.200456961253284,0.7742742078222334
1789221430134783000,9.042782958984375,3.3257039268672464,9.192656516635417,0.777904381018132
1789221430144863200,9.05286328125,3.3934742715403434,9.167564745476842,0.7813276334650814
1789221430154943000,9.06294287109375,3.45949221958816,9.141710173252225,0.794635516392812
1789221430165023000,9.07302294921875,3.4612288341224193,9.13890154557228,0.8190086178880185
1789221430175103000,9.08310302734375,3.439868650707602,9.147452516296505,0.8135194458872079
1789221430185183000,9.093182861328126,3.391343981513381,9.165302645763754,0.8163262469362467
1789221430195262000,9.103261962890626,3.3564351652175186,9.177925395971537,0.8187840884171426
1789221430205342000,9.113342041015626,3.354589829611778,9.17892726649046,0.8151092723619192
1789221430215422200,9.123422119140624,3.385889223238826,9.167624366709589,0.8128958340961485
1789221430225502000,9.133501953125,3.426672192265093,9.152101218885182,0.8169108418911695
1789221430235582200,9.143582275390624,3.4182039313882586,9.154542182296513,0.8249958756040782
1789221430245662000,9.153661865234374,3.3906454778552053,9.16562705541253,0.8155896762900054
1789221430255741200,9.1637412109375,3.328097251744568,9.187837133654952,0.8232878295771777
1789221430265821000,9.173821044921874,3.2730972490563985,9.206932879269123,0.8304304678734391
1789221430275901200,9.183901123046875,3.276569309081137,9.206531312730908,0.821138469523564
1789221430285981000,9.19398095703125,3.3446947508022187,9.183787566003202,0.8009118201833217
1789221430296061000,9.20406103515625,3.4195302115559576,9.156502084192633,0.7973021783187985
1789221430306141200,9.21414111328125,3.4196512075871226,9.155232502648234,0.81123345384188
1789221430316221000,9.224220947265625,3.402355204871297,9.162204679748415,0.8052192350536584
1789221430326300200,9.234300048828125,3.3832156201153993,9.169780667960643,0.7995948923658579
1789221430336380000,9.2443798828125,3.3554788874059915,9.180405522349476,0.7945489340879023
1789221430346460200,9.254460205078125,3.3462431492879983,9.184142955312133,0.7902934686005115
1789221430356540000,9.264539794921875,3.3668700499922033,9.177210525700449,0.7831881666399538
1789221430366620200,9.2746201171875,3.374720471231639,9.174369164794683,0.7826965106654912
1789221430376700200,9.2847001953125,3.3615438865333793,9.179613495188951,0.7778806348163634
1789221430386780000,9.29477978515625,3.326905996133387,9.192976250109076,0.7689346003599464
1789221430396859000,9.30485888671875,3.2728146327227354,9.213048147279023,0.7607865113481879
1789221430406939100,9.314939208984375,3.2388284842297432,9.225480927872658,0.7555562094792723
1789221430417019100,9.32501904296875,3.2695702439740297,9.215561591404676,0.7441295371882617
1789221430427099000,9.335098876953126,3.360392086149752,9.184168089753388,0.7274759970944374
1789221430437179100,9.34517919921875,3.385060078938305,9.172912536245583,0.754615494563058
1789221430447259000,9.3552587890625,3.387178970788419,9.172646578785777,0.7482960092179477
1789221430457339100,9.365339111328124,3.36551512825191,9.181269445702434,0.7402516728416085
1789221430467417900,9.37541796875,3.322269276243448,9.1955989998281,0.7575414650123566
1789221430477498000,9.385498046875,3.2968411127373574,9.203644359117746,0.7708240673683583
1789221430487578000,9.395578125,3.3015161188110707,9.2017540153265,0.7733691487412899
1789221430497658000,9.405658203125,3.319136823436618,9.194861917725206,0.7798975275967269
1789221430507738000,9.415738037109374,3.339127764324844,9.186974963867664,0.7874663554158061
1789221430517817900,9.42581787109375,3.342914881648123,9.185056563025713,0.7937508425127714
1789221430527898000,9.435898193359375,3.3095278680920597,9.196339589062333,0.8029680220607668
1789221430537977000,9.44597705078125,3.2554134160667654,9.21482684738934,0.8121736573014408
1789221430548057000,9.45605712890625,3.2420541682779787,9.219158154591918,0.81644380890131
1789221430558136800,9.46613671875,3.2982436730116604,9.199666687658429,0.8112282662101089
1789221430568217000,9.476217041015625,3.3668995683476326,9.173545573452115,0.8248813823789357
1789221430578297000,9.486297119140625,3.3672339148685335,9.170479756140708,0.8569804019510745
1789221430588377000,9.496377197265625,3.3495945055425165,9.174389038538932,0.8838522614594548
1789221430598457000,9.50645703125,3.32294702937454,9.181207486382126,0.9131513481147586
1789221430608536000,9.5165361328125,3.2852126342639325,9.192536105126141,0.9354407752037048
1789221430618616000,9.526615966796875,3.275467193058133,9.195983030709623,0.9357264602772891
1789221430628696000,9.536696044921875,3.302581994476914,9.188115950596332,0.9175312436994164
1789221430638776000,9.546776123046875,3.325508988817036,9.181043235731124,0.90543712047562
1789221430648855800,9.556855712890625,3.3238352103859183,9.18211407983303,0.9007195173691958
1789221430658936000,9.56693603515625,3.3193551423624155,9.18343802191317,0.9037390113208442
1789221430669016000,9.57701611328125,3.3385090479046102,9.175974261903763,0.908974208560586
1789221430679095000,9.587094970703125,3.369040087507665,9.163786980503797,0.9192233615048229
1789221430689175000,9.597175048828126,3.372363094450533,9.159854317229986,0.9458430728830397
1789221430699255000,9.607255126953126,3.368961177052557,9.161105194073915,0.9458576859302819
1789221430709335000,9.6173349609375,3.3653391871631144,9.163516931390761,0.9353222633905708
1789221430719415000,9.6274150390625,3.3518507600367067,9.169873022419214,0.9213567933369428
1789221430729495000,9.6374951171875,3.3191981982350347,9.183172648975253,0.9069895375493914
1789221430739575000,9.647574951171874,3.2937229807168245,9.193965845668316,0.8903715802256017
1789221430749654000,9.657654052734374,3.299076616704464,9.194438139355182,0.8653271553400903
1789221430759734300,9.667734375,3.3332293539360163,9.184209590807557,0.8427681175295263
1789221430769814000,9.67781396484375,3.3664731596291064,9.172961636084318,0.8330801055993884
1789221430779894000,9.68789404296875,3.363735843619704,9.174754949241876,0.8243414302833377
1789221430789974000,9.69797412109375,3.3513509938210246,9.180568603956699,0.8099264628965407
1789221430800054000,9.708053955078125,3.346391910108924,9.184466195917128,0.7858917265102267
1789221430810134000,9.718134033203125,3.3604242348536846,9.18175693695843,0.7571417251050472
1789221430820213000,9.728212890625,3.3577895024359226,9.184640383440255,0.7334891199041158
1789221430830293000,9.73829296875,3.344722223331034,9.192000098553299,0.7002507210385054
1789221430840373000,9.748373046875,3.331990167529881,9.198550835371018,0.6744486827187239
1789221430850453200,9.758453369140625,3.3172683992162346,9.205704214257,0.6489332793205976
1789221430860533000,9.768532958984375,3.298404416531324,9.213785229381918,0.6301355668049305
1789221430870613000,9.778613037109375,3.309543942444026,9.211084153729677,0.6109281409772113
1789221430880693000,9.78869287109375,3.3464059386342764,9.199050601586698,0.5911161368524656
1789221430890772200,9.798772216796875,3.354705564945936,9.19636296993792,0.5858673494787886
1789221430900852000,9.80885205078125,3.3496640636473893,9.200495539698004,0.5486337069645524
1789221430910932000,9.818931884765625,3.337838893558085,9.20673063469529,0.515101037860103
1789221430921012500,9.829012451171875,3.326160438463092,9.212370101886988,0.48917044125720854
1789221430931092500,9.839092529296876,3.3246324982434508,9.214361567965149,0.4612550640452653
1789221430941172500,9.84917236328125,3.3452354335501786,9.208263251090049,0.43322848154380916
1789221430951252500,9.85925244140625,3.3537960488855836,9.20591288857162,0.4166613045591861
1789221430961331500,9.86933154296875,3.3507603344514965,9.20783304297924,0.3982426544889808
1789221430971411500,9.879411376953126,3.350956733806431,9.208544406118989,0.37971272606402634
1789221430981491200,9.8894912109375,3.33910642927587,9.213775877031683,0.3564827301893383
1789221430991571500,9.899571533203124,3.319253727814555,9.221845786240696,0.3324488705858588
1789221431001651500,9.9096513671875,3.3296947500690814,9.218957663583755,0.3071580331912264
1789221431011731500,9.9197314453125,3.3566628364935513,9.209870101764798,0.2854958346225321
1789221431021811500,9.9298115234375,3.3698967043370005,9.205068254441022,0.2844466908957809
1789221431031890400,9.939890380859374,3.3718162742227316,9.2049618714571,0.264420788292028
1789221431041970400,9.949970458984374,3.3671421449318526,9.207277162662148,0.24246724209394305
1789221431052050400,9.960050537109375,3.370330127318203,9.206587426832318,0.22362936196466907
1789221431062130400,9.97013037109375,3.3746520821705457,9.20527985136509,0.2119885537326336
1789221431072210400,9.98021044921875,3.3838150473132727,9.20188202562034,0.2134603433182463
1789221431082290400,9.99029052734375,3.380171722374856,9.203518686911464,0.20018144902298227
1789221431092370400,10.000370361328125,3.368819722755253,9.208104845657944,0.17956141645098103
1789221431102449400,10.010449462890625,3.3562978025734425,9.213061006760597,0.15862552286284043
1789221431112529400,10.020529296875,3.328627413098514,9.223488292750716,0.1337599525424186
1789221431122609400,10.030609375,3.311965324372053,9.22978417802453,0.11112759376731701
1789221431132689400,10.040689453125,3.331478710876405,9.22297800514102,0.09120171747193671
1789221431142769400,10.050769287109375,3.3605767950668928,9.212466547998785,0.08594032634501345
1789221431152849400,10.060849365234375,3.3707527366444467,9.20848478488624,0.11059696662249043
1789221431162929400,10.070929443359375,3.363405881012976,9.2112074878484,0.10743353415550663
1789221431173008400,10.08100830078125,3.345173474229872,9.217927736014127,0.10004287591492757
1789221431183088400,10.09108837890625,3.3342113507106896,9.221812468492985,0.10768005626248195
1789221431193168400,10.10116845703125,3.3436431959226725,9.218233440962432,0.12090577733209355
1789221431203248400,10.111248291015626,3.359964508387446,9.211932294991612,0.1460157874002587
1789221431213328400,10.121328369140626,3.350646937204897,9.2151635319978,0.15590144992750138
1789221431223408400,10.131408447265626,3.3371114560663697,9.220078776568174,0.15560442147599532
1789221431233488400,10.14148828125,3.322508053435385,9.22530674034953,0.15821093244627119
1789221431243567400,10.1515673828125,3.2966920596554874,9.234413006868959,0.166788170122914
1789221431253647400,10.1616474609375,3.2775755635142323,9.240735780149699,0.19153938421551137
1789221431263727400,10.171727294921874,3.283928147411346,9.23791546203196,0.21704066775674
1789221431273807600,10.1818076171875,3.3230671486228704,9.223553174680472,0.23167176211224869
1789221431283887400,10.191887451171874,3.335896819579601,9.218618056365846,0.24340742728719486
1789221431293967400,10.20196728515625,3.330020621022582,9.221306857058405,0.22099059269260612
1789221431304047400,10.21204736328125,3.3167224557712673,9.226213333800434,0.21616753818402065
1789221431314126600,10.222126708984375,3.3079245245486497,9.229193226394056,0.2236521765846759
1789221431324206300,10.232206298828125,3.317791254046559,9.225052473327517,0.24709952327078208
1789221431334286300,10.242286376953125,3.3411168923154473,9.215786047810315,0.2768167074739933
1789221431344366300,10.252366455078125,3.3355624730587006,9.217389975875616,0.2900444926365279
1789221431354446300,10.2624462890625,3.325915816052258,9.220798323014378,0.2925132025713101
1789221431364526600,10.272526611328125,3.299182707427442,9.230170546993612,0.29956834524720904
1789221431374606300,10.2826064453125,3.2692174850136038,9.240199189054966,0.31829375971164553
1789221431384685600,10.292685546875,3.2830586711004375,9.234562059950829,0.33876386241894213
1789221431394765300,10.302765380859375,3.3166806624561547,9.222095961609483,0.3506400320431217
1789221431404845600,10.312845458984375,3.3277108827754853,9.217117588675022,0.37612876663003114
1789221431414925300,10.32292529296875,3.3217277167126533,9.219422943007945,0.372499762477912
1789221431425005300,10.33300537109375,3.305676453360915,9.22528920469284,0.37005050616227086
1789221431435085600,10.34308544921875,3.295165288479626,9.228642606773972,0.3800555116197094
1789221431445165300,10.353165283203126,3.30231019179821,9.225429489946364,0.39570192049760367
1789221431455244300,10.363244384765625,3.3292236254259944,9.214977069514989,0.4133374208334833
1789221431465324300,10.37332421875,3.3293329310193656,9.214465028339625,0.4237483402106911
1789221431475404500,10.383404541015626,3.3210064167007802,9.217422124579548,0.4247757835622877
1789221431485484300,10.393484375,3.311289617067575,9.220809428930282,0.4270935589853674
1789221431495564500,10.403564453125,3.2931761604890224,9.227206436491013,0.4289932185942307
1789221431505644300,10.413644287109374,3.2884678366675972,9.22874139097333,0.43209560505636035
1789221431515724500,10.423724609375,3.30344767139554,9.223346253931522,0.43302736948113885
1789221431525803300,10.43380322265625,3.3266642963320017,9.21471345014274,0.43904834680370985
1789221431535883500,10.443883544921874,3.3305735787302253,9.213075619807839,0.4437162655495107
1789221431545963500,10.453963623046874,3.318708953413367,9.217733090224861,0.4358387371074408
1789221431556043300,10.464043212890624,3.3130624719589945,9.220021493422985,0.4303590635873377
1789221431566123500,10.47412353515625,3.3151831173747777,9.219539847385883,0.4243101388119161
1789221431576203300,10.484203369140625,3.3280326620757577,9.21493615298271,0.4237190775835886
1789221431586283500,10.494283447265625,3.335852395915985,9.211719529023766,0.4320891022503376
1789221431596362200,10.5043623046875,3.334458311209082,9.2122730712533,0.4310444520356133
1789221431606442500,10.5144423828125,3.325844212120771,9.215599000805616,0.4264846333067864
1789221431616522200,10.524522216796875,3.3070129626616835,9.222611509916186,0.4213006182650104
1789221431626602500,10.5346025390625,3.310355843348801,9.2216131465286,0.4168550370329991
1789221431636682500,10.5446826171875,3.337592517581582,9.212021142318845,0.41171610324196517
1789221431646762500,10.554762451171875,3.341355377246439,9.210068839207292,0.4246874111590907
1789221431656842500,10.564842529296875,3.338979588025808,9.210988876661657,0.423436388184689
1789221431666921500,10.57492138671875,3.330078196428716,9.214592454111575,0.41502541045304386
1789221431677001500,10.58500146484375,3.325589360576868,9.21650559425652,0.4084858891490847
1789221431687081200,10.595081298828125,3.329039208769798,9.21550080112815,0.4030267469603568
1789221431697161500,10.605161376953125,3.344327086533606,9.209961871701479,0.4030832629205659
1789221431707241500,10.615241455078126,3.3508868834406136,9.207499865502118,0.4048387282857671
1789221431717321500,10.625321533203126,3.3467779868170617,9.209599468129873,0.3908478680625558
1789221431727401500,10.6354013671875,3.3430580895110964,9.211348357623814,0.3813429576143622
1789221431737480400,10.64548046875,3.3315853861212728,9.215791893029213,0.37430410848613827
1789221431747560400,10.655560546875,3.312134543459117,9.222860516241193,0.37279991446826605
1789221431757640400,10.665640380859376,3.3209549787744876,9.219770149010419,0.370773486674577
1789221431767720400,10.675720458984374,3.35691739577651,9.206913590046764,0.3663725483018905
1789221431777800400,10.685800537109374,3.3652082542598247,9.202996708863973,0.3880592602573335
1789221431787880400,10.69588037109375,3.3602722591623664,9.20509105079472,0.3811241637645289
1789221431797960400,10.70596044921875,3.347910790239274,9.210211462548374,0.3659040174746886
1789221431808039400,10.716039306640624,3.3310110933646557,9.216628343853355,0.3585018149267882
1789221431818119400,10.726119384765624,3.3196412658274173,9.220896522691845,0.3541760241495445
1789221431828199400,10.736199462890625,3.3301948085457083,9.217147399291395,0.35265813039988275
1789221431838279400,10.746279541015625,3.3488115384712813,9.210430073735118,0.35189985937848683
1789221431848359400,10.756359375,3.358859177494049,9.20651143898666,0.3586221899034455
1789221431858439400,10.766439453125,3.358873790541291,9.206311532500386,0.3635610710777342
1789221431868519400,10.77651953125,3.348213280317187,9.210198018544911,0.36346911847796287
1789221431878598400,10.786598388671875,3.351204571087658,9.209093272173405,0.3638998380454257
1789221431888678400,10.796678466796875,3.3667987383216618,9.203220580747724,0.36850590706877406
1789221431898758400,10.80675830078125,3.3690222595900297,9.202036339399218,0.3776455278685316
1789221431908838400,10.81683837890625,3.367803823710978,9.202168441346288,0.38520796247944233
1789221431918918400,10.82691845703125,3.356838777582347,9.206241389873624,0.38360458240341394
1789221431928998100,10.836998046875,3.3424498944848775,9.211457078695297,0.38400706225708126
1789221431939078100,10.847078125,3.3428204813629385,9.21118819862604,0.38723000635895877
1789221431949157000,10.8571572265625,3.3602471247211096,9.204339355644583,0.39908776354361325
1789221431959237000,10.867237060546875,3.3763290754720567,9.197046860548854,0.4302691933467984
1789221431969317000,10.877317138671875,3.3739608850359915,9.19763255148232,0.436259191009216
1789221431979397000,10.887397216796876,3.3627915485069155,9.202035170355439,0.4296236254522577
1789221431989477000,10.89747705078125,3.339222456870973,9.210658621793986,0.42867779596950856
1789221431999557400,10.907557373046876,3.296875307267904,9.22579423160553,0.43094336628131563
1789221432009637000,10.91763720703125,3.27925898655653,9.231666923031211,0.43952323430646206
1789221432019716400,10.92771630859375,3.3044562639161943,9.222593974259496,0.4412656940596178
1789221432029796000,10.937796142578126,3.3526568157225847,9.205047796174883,0.44404071173090487
1789221432039876000,10.9478759765625,3.367876596686244,9.198493552225827,0.4642267367998138
1789221432049956000,10.9579560546875,3.3633693483948703,9.200555160930753,0.45598311499170957
1789221432060036000,10.9680361328125,3.34506475315839,9.206950999447702,0.46148284491915254
1789221432070116400,10.978116455078125,3.3348484795704483,9.209915694472194,0.47605687532518054
1789221432080196000,10.988196044921875,3.350734907749295,9.203124134635924,0.4954480236893519
1789221432090275300,10.998275390625,3.3768998610973355,9.191926448795199,0.5248133439812809
1789221432100355000,11.00835498046875,3.372484675003588,9.193218826693295,0.5305444715118035
1789221432110435300,11.018435302734375,3.3625229606986045,9.19766586923003,0.5165107585275546
1789221432120515000,11.02851513671875,3.340918154872954,9.206244312483072,0.5037227347554639
1789221432130595300,11.03859521484375,3.3170600171625613,9.215380389618874,0.494229843538627
1789221432140675000,11.048675048828125,3.308625366294384,9.218579477921129,0.49109227616526185
1789221432150755000,11.058755126953125,3.324265418496728,9.212417448160052,0.5010052194250747
1789221432160834000,11.068833984375,3.355432417915761,9.200287449905275,0.5159039882734417
1789221432170914000,11.0789140625,3.3671839382469653,9.195223152253032,0.5294452780982479
1789221432180994300,11.088994384765625,3.3631060212835666,9.19630802488029,0.5364736788976937
1789221432191074000,11.099073974609375,3.37653745752573,9.191191704779863,0.5398083762783557
1789221432201154300,11.109154296875,3.380813819670677,9.188850694611668,0.5527347856078296
1789221432211234000,11.119234130859375,3.3639529935017225,9.193158036416769,0.5831421988312154
1789221432221314300,11.129314208984376,3.3531492754146455,9.196930540692806,0.5858672764135524
1789221432231393000,11.13939306640625,3.3385929267957803,9.203386584964393,0.5673180222336203
1789221432241473300,11.149473388671876,3.3085756819337604,9.214949596986173,0.5553570969354361
1789221432251553000,11.159552978515626,3.2658205360516903,9.230553408831357,0.5492718952702358
1789221432261633300,11.16963330078125,3.2245594281196595,9.24483620120585,0.5528167648028582
1789221432271713300,11.17971337890625,3.2076264134973287,9.249772488564252,0.5685536284431815
1789221432281793000,11.18979296875,3.2254113687738775,9.242426801976562,0.5870654366895556
1789221432291873300,11.199873291015624,3.2477070794731375,9.23356895726025,0.6033287718893959
1789221432301952000,11.209951904296876,3.2825960220247503,9.221083569696544,0.6054551894588396
1789221432312032300,11.2200322265625,3.3395848604425784,9.20134485000372,0.5939838012432679
1789221432322112000,11.230112060546874,3.363327555079758,9.192071994745731,0.6035057358914986
1789221432332192300,11.240192138671874,3.360907049934566,9.191864489474892,0.6199428202230483
1789221432342272300,11.250272216796875,3.3570541738986965,9.19354498990774,0.6158780550021677
1789221432352352300,11.260352294921875,3.3495682020574806,9.19626886191368,0.6159657332856208
1789221432362432300,11.270432373046875,3.3385295061707496,9.200248871460557,0.616453443737328
1789221432372512000,11.280511962890625,3.3325618299379944,9.201852799525856,0.6247589152678847
1789221432382591200,11.29059130859375,3.3457769930809733,9.196476951706408,0.6332273222751915
1789221432392671200,11.300671142578125,3.345255891816318,9.195939191567897,0.6437067037787289
1789221432402751200,11.310751220703125,3.3449075167700646,9.195813519361614,0.6472942799419165
1789221432412831000,11.3208310546875,3.3372643085405227,9.198601688775419,0.6471321481827647
1789221432422911200,11.3309111328125,3.3162387639075517,9.206407978612184,0.6441989442750811
1789221432432991200,11.3409912109375,3.3046275288298723,9.210485603314638,0.6455811193484813
1789221432443071200,11.3510712890625,3.311972923156619,9.207544289165735,0.6498821044780314
1789221432453150200,11.361150146484375,3.348352688787877,9.193768277269601,0.6584246727000922
1789221432463230200,11.371230224609375,3.36127237611562,9.187356072139739,0.6816969733465462
1789221432473310200,11.381310302734375,3.360545523145795,9.188319364213942,0.6722285224512219
1789221432483390200,11.39139013671875,3.35182621011734,9.192191821733116,0.6627750499293208
1789221432493470200,11.40147021484375,3.3440286881089207,9.19544643961489,0.6569760082617402
1789221432503550000,11.411550048828126,3.348592050501704,9.193540313732624,0.6604018179919571
1789221432513630200,11.421630126953126,3.351253086404502,9.191717189958691,0.6721767191987484
1789221432523709200,11.431709228515626,3.348980173036456,9.191932294014096,0.6805117821499705
1789221432533789200,11.4417890625,3.3403274955034252,9.1954686514467,0.6752410021401941
1789221432543869200,11.451869140625,3.3132863438427447,9.205991214504838,0.6650065353084356
1789221432553949200,11.46194921875,3.2790845067724583,9.218745482137798,0.6578064677365124
1789221432564029200,11.472029296875,3.2760651589512824,9.220078776568174,0.654156932253018
1789221432574109200,11.482109130859374,3.30165728084743,9.211168909403682,0.6509956917431206
1789221432584189200,11.492189208984374,3.3563048168361185,9.190784293022752,0.6596085487224161
1789221432594268200,11.50226806640625,3.359689198577404,9.187927734547852,0.6817906429793685
1789221432604348200,11.51234814453125,3.3556773325875398,9.190188080695272,0.6709936468940227
1789221432614428200,11.52242822265625,3.3472160859733817,9.193907393479346,0.6622708267342299
1789221432624508200,11.532508056640625,3.3373134083792566,9.19843568455875,0.6492326275933533
1789221432634588200,11.542588134765625,3.332556569240987,9.200679079571366,0.6418237395763396
1789221432644668200,11.552668212890625,3.328107480877638,9.20210765106976,0.6444383059889077
1789221432654748200,11.562748046875,3.3165929841727015,9.205705383300781,0.6523791089255362
1789221432664827100,11.5728271484375,3.3020094552859662,9.210759744080901,0.6550039044711738
1789221432674907100,11.5829072265625,3.2846324962884186,9.217692173692583,0.644768341660872
1789221432684987100,11.592987060546875,3.292052709417045,9.2160023209095,0.6309237945731729
1789221432695067100,11.603067138671875,3.3402795647084713,9.198836666575074,0.6279404679134488
1789221432705147400,11.6131474609375,3.3480341243579983,9.19405118586421,0.6560940377954393
1789221432715227100,11.62322705078125,3.347786871598661,9.194138279625772,0.6561711216196418
1789221432725307100,11.63330712890625,3.3431486904039978,9.196367646113037,0.6485086972329765
1789221432735386000,11.64338623046875,3.3326939318850632,9.20137816775143,0.6310189255107194
1789221432745466000,11.653466064453125,3.3207056801885364,9.207124602448939,0.6100447457388043
1789221432755546000,11.663546142578125,3.309117241464555,9.212465378955006,0.5921268847975879
1789221432765626000,11.673626220703126,3.3044270378217098,9.214683639526367,0.5837333696573972
1789221432775706000,11.6837060546875,3.328464916013181,9.20639628817439,0.5779106548532843
1789221432785786000,11.6937861328125,3.338157165727019,9.20333806964755,0.5706766484791412
1789221432795866400,11.703866455078124,3.3282050960332152,9.207607417529822,0.559838224404864
1789221432805945000,11.713945068359376,3.334845264700055,9.206064864262938,0.545483572370559
1789221432816025300,11.724025390625,3.3505715338811277,9.2007112282753,0.5394005991950631
1789221432826105000,11.73410498046875,3.35264629432857,9.19971812558472,0.5434474634330719
1789221432836185300,11.744185302734374,3.351214215698838,9.201205149272084,0.5268620201393962
1789221432846265000,11.75426513671875,3.3442712646931407,9.204789437499642,0.5080262771682813
1789221432856345000,11.764344970703124,3.3324703522622583,9.210272252824902,0.48569622580800204
1789221432866425300,11.77442529296875,3.3038641432419418,9.22154183485806,0.46693679947610944
1789221432876505000,11.784505126953125,3.2874899315461517,9.227941765028238,0.4559341978160664
1789221432886584300,11.794584228515625,3.3028795161187645,9.222934750521182,0.44592616015132513
1789221432896664000,11.8046640625,3.3448493568420408,9.207914291521906,0.44351339992117134
1789221432906744300,11.814744384765625,3.35674905347228,9.203106598979234,0.45328262386135754
1789221432916824000,11.824823974609375,3.347931833027303,9.20714330714941,0.436185395120643
1789221432926903800,11.83490380859375,3.3378149281606078,9.211514361840486,0.4211677126003429
1789221432936983600,11.844983642578125,3.3264857248947024,9.216267693847417,0.40656098550111053
1789221432947063800,11.855063720703125,3.3253739642605185,9.217182470604778,0.3947441813813522
1789221432957142500,11.865142578125,3.337357247520983,9.213228764542936,0.3858179110713303
1789221432967222800,11.875222900390625,3.341099941180646,9.21184461670816,0.38646789941266174
1789221432977302500,11.885302490234375,3.3307524424284694,9.215531196266411,0.3878836844947189
1789221432987382500,11.895382568359375,3.327179844638705,9.21674700179696,0.3896613251591101
1789221432997462800,11.905462890625,3.3397695693597194,9.212256704640389,0.3881320332325995
1789221433007542500,11.91554248046875,3.343004313497245,9.21139745746255,0.3806257857883349
1789221433017622800,11.925622802734376,3.3447660624727606,9.210825210532546,0.37898587309420106
1789221433027701500,11.935701416015625,3.338683819949627,9.213443868598342,0.36882768636904656
1789221433037781800,11.94578173828125,3.3234310134992002,9.21924641739726,0.3615246698793024
1789221433047861500,11.955861572265626,3.3139380857497454,9.222713801246881,0.36019396926481273
1789221433057941800,11.965941650390626,3.3191683876186606,9.220644009235501,0.3650147404847666
1789221433068021800,11.976021728515626,3.3348233451291915,9.214644476559757,0.37372941387072206
1789221433078101800,11.986101806640624,3.3298923184677958,9.216372323265672,0.3751017982024699
1789221433088181800,11.996181640625,3.3160648686453698,9.22146409344673,0.37241022103093563
1789221433098260700,12.0062607421875,3.3054090345963836,9.225355840188264,0.37076186930201943
1789221433108340700,12.0163408203125,3.2917285920292136,9.23021380161345,0.37156602529175575
1789221433118420500,12.02642041015625,3.283462575726211,9.232993203198909,0.37565081038735804
1789221433128500700,12.036500732421874,3.2933605771452186,9.229309546250104,0.37948797739744183
1789221433138580500,12.04658056640625,3.3144705851912497,9.22126126435101,0.3911717297220602
1789221433148660700,12.05666064453125,3.312001272468269,9.221870920681953,0.3976808558877557
1789221433158740700,12.06674072265625,3.3008006640180945,9.225782541167735,0.40006219806633886
1789221433168819700,12.07681982421875,3.298307093636691,9.226544173189998,0.4030624393282458
1789221433178899700,12.086899658203125,3.2926740561857817,9.228288971030711,0.40912104524746534
1789221433188979700,12.096979736328125,3.3003023591071363,9.22525062624812,0.4160808743227273
1789221433199059700,12.107059814453125,3.313274361144006,9.22036577681601,0.4212684330284595
1789221433209139700,12.1171396484375,3.3124978238135574,9.220373375600575,0.4271397727472707
1789221433219219700,12.1272197265625,3.3043229929253455,9.223020090717077,0.4332781293718144
1789221433229299700,12.1372998046875,3.3086449477776885,9.22113266953528,0.4403982270427048
1789221433239378700,12.147378662109375,3.319490459179878,9.21655878574848,0.4543393663726747
1789221433249458400,12.15745849609375,3.3240824631452557,9.214152309128641,0.46930842397827655
1789221433259538700,12.16753857421875,3.323681481128931,9.213604612118004,0.4827265988800674
1789221433269618700,12.17761865234375,3.3159292595669627,9.21656229287982,0.47955775958560404
1789221433279698700,12.18769873046875,3.3062700353398915,9.219924462789297,0.48162108532357956
1789221433289778700,12.19777880859375,3.3033085551857946,9.220447609880566,0.4918205539071932
1789221433299858700,12.207858642578126,3.302808204448223,9.219332926636934,0.5155208341747523
1789221433309938700,12.217938720703126,3.320703049840033,9.21169439458251,0.5366610181633382
1789221433320017700,12.228017578125,3.320732275934517,9.211009334927796,0.548119254636392
1789221433330097700,12.23809765625,3.3153155115827917,9.212687497273087,0.5526952207824215
1789221433340177700,12.248177734375,3.310348244564235,9.214066968932748,0.5594274516468868
1789221433350257700,12.258257568359374,3.3165707723408935,9.21102394797504,0.5725193902689963
1789221433360337700,12.268337646484374,3.3227260801002383,9.207630798405408,0.591100683555007
1789221433370417700,12.278417724609374,3.3216289325132964,9.2069001460433,0.6084076825888827
1789221433380497700,12.28849755859375,3.317075799253583,9.20766236258745,0.6215625303793698
1789221433390576600,12.29857666015625,3.3065161190554497,9.21102336345315,0.6280207666080445
1789221433400656600,12.30865673828125,3.297453691677749,9.213687614226341,0.6365170845355839
1789221433410736600,12.318736572265625,3.297196209785342,9.21320421462357,0.644795010472089
1789221433420816600,12.328816650390625,3.307218422105908,9.208879337161779,0.6551621637728064
1789221433430896600,12.338896728515625,3.320314635044336,9.20330241381228,0.6671652477122842
1789221433440976600,12.3489765625,3.3217721403762694,9.202380622792244,0.6726253397490829
1789221433451056600,12.359056640625,3.317726079855859,9.203390092095733,0.6787312554087489
1789221433461135600,12.369135498046875,3.2990365769550203,9.20956731942594,0.6860122061971574
1789221433471215600,12.379215576171875,3.2810017385706303,9.215195096179842,0.6968335330061615
1789221433481295600,12.389295654296875,3.2948046384736895,9.209845551845431,0.7024262384466826
1789221433491375600,12.399375732421875,3.328145474800467,9.197509217363596,0.7068700661130249
1789221433501456000,12.409455810546875,3.3399878882855174,9.19158801062107,0.7277254418108612
1789221433511535600,12.41953564453125,3.3418642035514114,9.191305102026462,0.7226616556152701
1789221433521615600,12.42961572265625,3.34035555255413,9.192281838104128,0.7172022942308336
1789221433531694600,12.439694580078125,3.3412223985165355,9.192256119140982,0.7134799857720733
1789221433541774800,12.44977490234375,3.350466612201929,9.188540898010134,0.7179673603191972
1789221433551854600,12.4598544921875,3.3523160394608973,9.186387519368528,0.7366426154989749
1789221433561934600,12.4699345703125,3.347045990103483,9.188467832773924,0.7346680274903774
1789221433572014600,12.4800146484375,3.33394100933671,9.193234024262427,0.7346320063289254
1789221433582094600,12.490094482421876,3.3248344505563376,9.19637992107272,0.736528268404305
1789221433592174800,12.5001748046875,3.327010041029751,9.194995188716053,0.7439554957956075
1789221433602253600,12.510253662109376,3.3443332240134476,9.187613261771201,0.7573510570067912
1789221433612333800,12.520333740234374,3.342408101169765,9.18769041866064,0.7648767032712698
1789221433622413600,12.53041357421875,3.336118937897682,9.18985431869626,0.7663279249928892
1789221433632493800,12.540493896484374,3.3282287691697476,9.19290961461365,0.7640081768084317
1789221433642573600,12.550573486328124,3.3067201171949505,9.20056042162776,0.7653085918825119
1789221433652653600,12.560653564453125,3.2950694268897176,9.204210176306962,0.7716326803375035
1789221433662733600,12.570733642578125,3.313742563177645,9.196838770756125,0.7795074323005974
1789221433672812800,12.580812744140625,3.350323112078011,9.182438489481806,0.7928148768369108
1789221433682892500,12.590892578125,3.3582129885450005,9.177385882267355,0.8175456326633691
1789221433692972500,12.60097265625,3.3520305005177855,9.180382725995779,0.8092317586306482
1789221433703052800,12.611052734375,3.3228032369896767,9.191562876179814,0.8028350433308631
1789221433713132500,12.621132568359375,3.285343859428167,9.204533416911959,0.80837981797643
1789221433723212800,12.631212890625,3.2766441278830167,9.206500333070755,0.8211749290764331
1789221433733292500,12.64129248046875,3.3059979404002426,9.194736830040812,0.8352103225611149
1789221433743372800,12.651372802734375,3.3673417591571804,9.171340172362328,0.8472974315222352
1789221433753451500,12.661451416015625,3.380858535595238,9.16459888140857,0.8662102217849343
1789221433763531800,12.67153173828125,3.381117771053314,9.166266522359848,0.8473387133806943
1789221433773611800,12.68161181640625,3.382174878890812,9.164996940815449,0.8567970082081854
1789221433783691500,12.69169140625,3.396058442814648,9.158961167782545,0.8663641702376306
1789221433793771800,12.701771728515626,3.3962931283533573,9.156734723904728,0.8886926872279495
1789221433803851500,12.7118515625,3.3906416784629223,9.158104843214154,0.8961375233411788
1789221433813931800,12.721931884765626,3.3714600081309674,9.165746882399915,0.8903591591354459
1789221433824010500,12.732010498046876,3.3340508994519706,9.178225840222835,0.9025891106333583
1789221433834090800,12.7420908203125,3.314816329888999,9.183151021665335,0.9231012989167123
1789221433844170500,12.75217041015625,3.3353649046599863,9.174043586102128,0.9395011565104127
1789221433854250800,12.762250732421874,3.379146763241291,9.15732859814465,0.9460824345968664
1789221433864330800,12.772330810546874,3.3839290290817616,9.155359928420186,0.9480513235170394
1789221433874410800,12.78241064453125,3.369636884357035,9.162125184771417,0.9334818962208926
1789221433884490800,12.79249072265625,3.3330651032850143,9.176084152019023,0.9276511442407965
1789221433894569700,12.80256982421875,3.301733853214979,9.187036338666081,0.9312902313955128
1789221433904649700,12.812649658203124,3.313791078494489,9.182336782673001,0.9348043769963085
1789221433914729500,12.8227294921875,3.371722166198492,9.161434279897808,0.9327398456819355
1789221433924810500,12.832810546875,3.382509517672658,9.15501506050527,0.9563988806236535
1789221433934890200,12.84289013671875,3.3689275670439005,9.161651722040771,0.9406639166794717
1789221433944970500,12.852970458984375,3.3427240352511403,9.172831287702918,0.9250692379888147
1789221433955050200,12.86305029296875,3.3146728297650814,9.183701641285419,0.9181202956337481
1789221433965129500,12.87312939453125,3.303400909644365,9.18968597639203,0.8986672610145061
1789221433975209200,12.883209228515625,3.3006749918118117,9.192686327251792,0.8777574517156929
1789221433985289200,12.893289306640625,3.3037712042614817,9.193478938934206,0.857573545538634
1789221433995369500,12.903369384765625,3.3121263601526616,9.191851045471429,0.8426549394786358
1789221434005449200,12.91344921875,3.3330925758138297,9.184638629874586,0.8386298486810178
1789221434015529500,12.923529541015625,3.3613106622993945,9.173504656919837,0.8478181674607098
1789221434025609200,12.933609130859375,3.363954454806447,9.172316323918103,0.8501768594160676
1789221434035688400,12.9436884765625,3.3603283732637763,9.174500682219863,0.8408969168301671
1789221434045768200,12.953768310546875,3.348324631737172,9.180461636450886,0.8235580248206853
1789221434055848400,12.963848388671876,3.3154192642182108,9.194355137246847,0.8013846253268421
1789221434065928200,12.97392822265625,3.2842838289812204,9.206433113053441,0.7908619161382318
1789221434076008200,12.98400830078125,3.2829768380358813,9.207426215744018,0.7846968907024711
1789221434086088400,12.99408837890625,3.2904125409945846,9.20492387753427,0.7829096419595182
1789221434096168200,13.004168212890624,3.3196982567116615,9.195120860922335,0.7744402120389043
1789221434106247400,13.014247314453126,3.349558265185356,9.184853149408102,0.7676780244275927
1789221434116327200,13.0243271484375,3.3493598200038073,9.184840874448419,0.7686793104246258
1789221434126407400,13.034407470703124,3.352045990347862,9.183599349954724,0.7718083291653544
1789221434136487200,13.044487060546874,3.3441447157040236,9.1848022960037,0.7915070091087371
1789221434146567400,13.0545673828125,3.336215676270425,9.187685157963633,0.7915181150246411
1789221434156647400,13.0646474609375,3.318845147013664,9.194656166020035,0.7835515931248664
1789221434166727400,13.0747275390625,3.2976568130344153,9.203049315834045,0.7744280832096934
1789221434176806400,13.084806396484375,3.2806361201286314,9.210887169852853,0.7532293009016663
1789221434186886400,13.094886474609375,3.2625530586883422,9.219107301187515,0.7308912123654038
