time,seconds_elapsed,z,y,x
1789221421173799400,0.08179931640625,-0.01241347286850214,-0.00848569069057703,0.004237799439579248
1789221421183879700,0.091879638671875,-0.014296594075858593,-0.005593764595687389,0.0014425457920879126
1789221421193959400,0.10195947265625,-0.012130784802138805,0.001030652318149805,0.002998566720634699
1789221421204038700,0.11203857421875,-0.010021028108894825,0.002717498689889908,0.006069990340620279
1789221421214118400,0.122118408203125,-0.008553097024559975,0.00907097291201353,0.0070019494742155075
1789221421224198700,0.13219873046875,-0.0075011481530964375,0.016969643533229828,0.007255216129124165
1789221421234278400,0.1422783203125,-0.004170728847384453,0.01565767079591751,0.0028859516605734825
1789221421244358700,0.152358642578125,-0.0036791092716157436,0.015610532835125923,0.002777827437967062
1789221421254438700,0.162438720703125,-0.0024786810390651226,0.018984436988830566,-0.0016721774591132998
1789221421264517600,0.172517578125,0.000775435590185225,0.021636677905917168,0.0036560087464749813
1789221421274597600,0.18259765625,0.0009649186977185309,0.029157038778066635,0.004013368394225836
1789221421284677600,0.192677734375,0.0011856947094202042,0.030245739966630936,0.003451441414654255
1789221421294757600,0.202757568359375,0.002424989826977253,0.033374227583408356,0.0021682665683329105
1789221421304837400,0.21283740234375,0.003966427408158779,0.03449062258005142,0.0011450800811871886
1789221421314917600,0.222917724609375,0.0030074201058596373,0.0367332398891449,0.002617661142721772
1789221421324996400,0.232996337890625,0.004339267034083605,0.03470231592655182,-0.0007136871572583914
1789221421335076600,0.24307666015625,0.003416085848584771,0.037439413368701935,-0.00128235446754843
1789221421345156400,0.25315625,-0.0019427267834544182,0.03490621596574783,-0.001969982637092471
1789221421355236600,0.263236572265625,-0.003723982721567154,0.03574284166097641,-0.0033772336319088936
1789221421365316600,0.273316650390625,-0.006234811153262854,0.03659398853778839,-0.00112952571362257
1789221421375396600,0.283396728515625,-0.009419291280210018,0.03745506703853607,0.0012457561679184437
1789221421385475600,0.2934755859375,-0.00846641231328249,0.037302203476428986,0.00235869106836617
1789221421395555600,0.3035556640625,-0.010381089523434639,0.039729829877614975,0.0016903483774513006
1789221421405635600,0.313635498046875,-0.01086525246500969,0.04121267795562744,0.002083430765196681
1789221421415715600,0.323715576171875,-0.011475907638669014,0.044248756021261215,0.0019298676634207368
1789221421425795600,0.333795654296875,-0.012355283834040165,0.04507513344287872,0.004442560486495495
1789221421435875600,0.34387548828125,-0.012620276771485806,0.04582099989056587,0.0030657972674816847
1789221421445954600,0.35395458984375,-0.011910011060535908,0.04550568014383316,0.002751277992501855
1789221421456034600,0.36403466796875,-0.010530882515013218,0.044444117695093155,0.0011270344257354736
1789221421466114600,0.374114501953125,-0.014023617841303349,0.04256578907370567,0.00263917725533247
1789221421476194600,0.384194580078125,-0.013714300468564034,0.03762861341238022,0.00030850767507217824
1789221421486274600,0.394274658203125,-0.012351027689874172,0.03219229727983475,-0.0013501091161742806
1789221421496354600,0.4043544921875,-0.012627455405890942,0.022299006581306458,-0.004845334216952324
1789221421506433500,0.41443359375,-0.012398956343531609,0.029145993292331696,-0.0016063974471762776
1789221421516513500,0.424513427734375,-0.0192338265478611,0.02528000995516777,-0.0022706263698637486
1789221421526593500,0.434593505859375,-0.022937750443816185,0.023181172087788582,-0.0054741427302360535
1789221421536673500,0.444673583984375,-0.024059748277068138,0.025926021859049797,-0.0018680570647120476
1789221421546753500,0.45475341796875,-0.024983065202832222,0.020333116874098778,-0.0008571211365051568
1789221421556833500,0.46483349609375,-0.026015978306531906,0.0162870604544878,-0.0027484898455441
1789221421566912800,0.474912841796875,-0.033117298036813736,0.00911862961947918,-0.002386832609772682
1789221421576992500,0.484992431640625,-0.03799406439065933,-0.003240720834583044,0.0005711960839107633
1789221421587072500,0.495072509765625,-0.04290253669023514,-0.006528926081955433,-0.00009459414286538959
1789221421597152500,0.505152587890625,-0.045692328363657,-0.010391967371106148,-0.0008357152109965682
1789221421607232500,0.515232421875,-0.04938293993473053,-0.02117031253874302,-0.0009076206479221582
1789221421617312500,0.5253125,-0.0491001158952713,-0.029158493503928185,0.00010157088399864733
1789221421627391500,0.5353916015625,-0.05036591365933418,-0.03255721926689148,0.00022354366956278682
1789221421637471500,0.545471435546875,-0.054968804121017456,-0.040601860731840134,-0.0034993384033441544
1789221421647551500,0.555551513671875,-0.05729028210043907,-0.03438630700111389,0.000012305739801377058
1789221421657631700,0.5656318359375,-0.06103534251451492,-0.039632733911275864,0.0014641635352745652
1789221421667711500,0.57571142578125,-0.06265720725059509,-0.049027834087610245,0.0013621645048260689
1789221421677791500,0.58579150390625,-0.06448599696159363,-0.05897417664527893,0.006321649998426437
1789221421687870500,0.595870361328125,-0.07073990255594254,-0.0625193789601326,0.003999373409897089
1789221421697950700,0.60595068359375,-0.07826412469148636,-0.06673834472894669,0.007064744830131531
1789221421708030500,0.616030517578125,-0.0821150541305542,-0.06103678047657013,0.004300117492675781
1789221421718110500,0.6261103515625,-0.07822776585817337,-0.071110300719738,-0.0049329521134495735
1789221421728190700,0.636190673828125,-0.0729813426733017,-0.07140644639730453,-0.01249606255441904
1789221421738270500,0.6462705078125,-0.07157626748085022,-0.06428682059049606,-0.015320711769163609
1789221421748349400,0.656349365234375,-0.079558826982975,-0.05203867703676224,-0.008479850366711617
1789221421758429400,0.666429443359375,-0.07434435188770294,-0.04246646165847778,-0.006081334315240383
1789221421768509700,0.676509765625,-0.06278836727142334,-0.03203965723514557,0.0003070568200200796
1789221421778589400,0.68658935546875,-0.05346345156431198,-0.027141023427248,0.003961884416639805
1789221421788669700,0.696669677734375,-0.04307179898023605,-0.02768031507730484,0.0073068151250481606
1789221421798749400,0.70674951171875,-0.03780205920338631,-0.02498152107000351,0.005795611068606377
1789221421808828700,0.71682861328125,-0.03373008593916893,-0.017598707228899002,0.002887172857299447
1789221421818908400,0.726908447265625,-0.02952123060822487,-0.0031044664792716503,-0.0037564225494861603
1789221421828988700,0.73698876953125,-0.025157375261187553,0.012455585412681103,-0.0055932048708200455
1789221421839068700,0.747068603515625,-0.01951652020215988,0.024542186409235,-0.008639538660645485
1789221421849148400,0.7571484375,-0.008817270398139954,0.03538737818598747,-0.0065486920066177845
1789221421859227600,0.7672275390625,-0.0008008988224901259,0.042610056698322296,-0.0020609067287296057
1789221421869307400,0.777307373046875,0.007254364434629679,0.05381637066602707,-0.002657188568264246
1789221421879387600,0.7873876953125,0.008270222693681717,0.060057301074266434,-0.00040068390080705285
1789221421889467400,0.79746728515625,0.008718965575098991,0.05996781960129738,-0.0016188137233257294
1789221421899547600,0.807547607421875,0.00916052795946598,0.060158342123031616,0.00024138684966601431
1789221421909627400,0.81762744140625,0.009470252320170403,0.05990108102560043,-0.0035858419723808765
1789221421919708200,0.827708251953125,0.008484745398163795,0.06013764441013336,-0.006808257661759853
1789221421929787100,0.837787109375,0.009151866659522057,0.060162149369716644,-0.005480405408889055
1789221421939867100,0.8478671875,0.011794785037636757,0.06135042756795883,-0.0023974115028977394
1789221421949947100,0.857947021484375,0.011081856675446033,0.059004977345466614,-0.0010722223669290543
1789221421960027100,0.868027099609375,0.011154300533235073,0.057572249323129654,-0.0007773824036121368
1789221421970107400,0.878107421875,0.009481036104261875,0.05375035107135773,0.0010082671651616693
1789221421980187100,0.888187255859375,0.005477637052536011,0.04719962179660797,-0.0018198539037257433
1789221421990266400,0.898266357421875,-0.0020260850433260202,0.041062094271183014,-0.003537859069183469
1789221422000346000,0.90834619140625,-0.004208541475236416,0.027103712782263756,-0.005087065510451794
1789221422010426400,0.91842626953125,-0.0077745141461491585,0.014237983152270317,-0.0035903691314160824
1789221422020506000,0.928506103515625,-0.010552197694778442,-0.00038923323154449463,-0.0005949470214545727
1789221422030586400,0.93858642578125,-0.014684358611702919,-0.010153179988265038,0.0017041598912328482
1789221422040666000,0.948666015625,-0.021812571212649345,-0.017000658437609673,0.0005986362230032682
1789221422050745300,0.958745361328125,-0.023080501705408096,-0.022737372666597366,0.004183783661574125
1789221422060825000,0.9688251953125,-0.0246159415692091,-0.02974315546452999,0.001454107346944511
1789221422070905000,0.978905029296875,-0.024057742208242416,-0.031328000128269196,0.004364409483969212
1789221422080985300,0.9889853515625,-0.024311158806085587,-0.0326543003320694,0.0007426556549035013
1789221422091065000,0.999065185546875,-0.02645074389874935,-0.03885653614997864,-0.0002826613490469754
1789221422101145300,1.009145263671875,-0.03046225942671299,-0.04082110896706581,-0.0018744771368801594
1789221422111224000,1.01922412109375,-0.031953632831573486,-0.045288559049367905,0.0005849520675837994
1789221422121304300,1.02930419921875,-0.029463037848472595,-0.048202816396951675,0.00027757821953855455
1789221422131384000,1.039384033203125,-0.02907101996243,-0.04854503273963928,0.004333572927862406
1789221422141464300,1.04946435546875,-0.0270941611379385,-0.03926743194460869,0.005023568868637085
1789221422151544000,1.0595439453125,-0.023998236283659935,-0.03515045344829559,0.0006432014051824808
1789221422161624300,1.069624267578125,-0.018301060423254967,-0.02379424124956131,-0.0009307805448770523
1789221422171703000,1.079703125,-0.016546836122870445,-0.012081925757229328,-0.0040602609515190125
1789221422181783300,1.089783203125,-0.012448769062757492,0.004147054627537727,-0.0011712919222190976
1789221422191863300,1.09986328125,-0.010627965442836285,0.015633534640073776,-0.004034989047795534
1789221422201943000,1.109943115234375,-0.004711220506578684,0.029049474745988846,-0.00401315139606595
1789221422212023300,1.120023193359375,-0.0032888264395296574,0.040787626057863235,-0.0028440235182642937
1789221422222103000,1.13010302734375,0.000924296909943223,0.04991563409566879,-0.00007259068661369383
1789221422232182300,1.140182373046875,0.004273754544556141,0.05679165571928024,0.001430231030099094
1789221422242262000,1.150261962890625,0.004525155760347843,0.06767117977142334,-0.004979538731276989
1789221422252342300,1.16034228515625,0.004952060524374247,0.0808466374874115,-0.004279926419258118
1789221422262422300,1.17042236328125,0.0026383011136204004,0.08601471036672592,-0.005033363588154316
1789221422272502300,1.180502197265625,0.0056974743492901325,0.09386251121759415,-0.009922927245497704
1789221422282582300,1.190582275390625,0.008777551352977753,0.11923962086439133,-0.010223442688584328
1789221422292661200,1.2006611328125,0.011282254941761494,0.1724967211484909,-0.0041237385012209415
1789221422302741200,1.2107412109375,0.015742653980851173,0.22130118310451508,0.0005471720942296088
1789221422312821200,1.2208212890625,0.054816555231809616,0.22126683592796326,-0.009120369330048561
1789221422322901200,1.2309013671875,0.09917137771844864,0.18516816198825836,-0.014861472882330418
1789221422332981000,1.24098095703125,0.08028743416070938,0.13059014081954956,-0.008402508683502674
1789221422343061200,1.251061279296875,-0.023555481806397438,0.13298547267913818,-0.008724208921194077
1789221422353140200,1.26114013671875,-0.1117687001824379,0.15393230319023132,-0.00462666992098093
1789221422363220200,1.27122021484375,-0.08098562061786652,0.2023252546787262,-0.004912730306386948
1789221422373300200,1.28130029296875,0.026598365977406502,0.17763057351112366,-0.011585013940930367
1789221422383380200,1.291380126953125,0.06602500379085541,0.15419889986515045,-0.011401411145925522
1789221422393460200,1.301460205078125,0.005294544156640768,0.1352635622024536,-0.002357050310820341
1789221422403540200,1.311540283203125,-0.08363626152276993,0.10795135796070099,-0.001310005784034729
1789221422413619200,1.321619140625,-0.10545501112937927,0.06467099487781525,-0.003768902737647295
1789221422423699200,1.33169921875,-0.0849372148513794,0.012903403490781784,0.0021837952081114054
1789221422433779200,1.341779296875,-0.09998621046543121,-0.06027866527438164,-0.009016129188239574
1789221422443859200,1.351859130859375,-0.1576237976551056,-0.11356388032436371,-0.002867532894015312
1789221422453939200,1.361939208984375,-0.18270918726921082,-0.17108124494552612,-0.0019993423484265804
1789221422464019200,1.372019287109375,-0.16993732750415802,-0.20849502086639404,0.003311451291665435
1789221422474098200,1.38209814453125,-0.17321568727493286,-0.23724837601184845,0.0029599140398204327
1789221422484178400,1.392178466796875,-0.18266670405864716,-0.26044315099716187,0.007346746511757374
1789221422494258200,1.402258056640625,-0.1962171345949173,-0.284983366727829,0.009531071409583092
1789221422504338200,1.412338134765625,-0.21143297851085663,-0.3128199577331543,0.014013594016432762
1789221422514418200,1.422418212890625,-0.22464358806610107,-0.33639854192733765,0.015079124830663204
1789221422524498200,1.432498291015625,-0.22431029379367828,-0.3579502999782562,0.010410106740891933
1789221422534577200,1.4425771484375,-0.21689684689044952,-0.3807099163532257,0.007502468302845955
1789221422544657200,1.4526572265625,-0.21463236212730408,-0.396267831325531,0.010750265792012215
1789221422554737400,1.4627373046875,-0.21514715254306793,-0.40048468112945557,0.013395584188401699
1789221422564817200,1.472817138671875,-0.21639762818813324,-0.3961191475391388,0.01568005234003067
1789221422574897400,1.4828974609375,-0.20161868631839752,-0.3713224530220032,0.01760897971689701
1789221422584977200,1.49297705078125,-0.17777781188488007,-0.34030142426490784,0.02248363010585308
1789221422595056400,1.503056396484375,-0.15452627837657928,-0.3042054772377014,0.020442849025130272
1789221422605136100,1.51313623046875,-0.12850452959537506,-0.27204594016075134,0.01747574843466282
1789221422615216000,1.523216064453125,-0.10039886832237244,-0.23420989513397217,0.011632239446043968
1789221422625296100,1.533296142578125,-0.07439563423395157,-0.2107955813407898,0.007438227068632841
1789221422635376000,1.543376220703125,-0.05039043352007866,-0.1805838793516159,0.009471017867326736
1789221422645456400,1.553456298828125,-0.017892014235258102,-0.15566006302833557,0.011499021202325821
1789221422655535000,1.56353515625,0.00869059469550848,-0.1240595281124115,0.014675106853246689
1789221422665615400,1.573615478515625,0.03376559913158417,-0.0921858623623848,0.014263664372265339
1789221422675695000,1.583695068359375,0.05306126922369003,-0.06427007168531418,0.014576585963368416
1789221422685775400,1.593775390625,0.08108624070882797,-0.04322630539536476,0.015072200447320938
1789221422695855000,1.603855224609375,0.10058590769767761,-0.013327528722584248,0.009143204428255558
1789221422705935400,1.613935302734375,0.1189112439751625,0.017320463433861732,0.009662987664341927
1789221422716015000,1.62401513671875,0.1493876576423645,0.0399906262755394,0.007436052430421114
1789221422726094300,1.63409423828125,0.1747545301914215,0.06254120171070099,0.011746378615498543
1789221422736174000,1.644174072265625,0.18244148790836334,0.0633673146367073,0.013367710635066032
1789221422746254000,1.654254150390625,0.20125752687454224,0.05790255218744278,0.010308492928743362
1789221422756334300,1.664334228515625,0.20724378526210785,0.04281947761774063,0.009695167653262615
1789221422766414000,1.6744140625,0.2078365981578827,0.03232823312282562,0.017979003489017487
1789221422776494300,1.684494384765625,0.21862106025218964,0.020842285826802254,0.021464549005031586
1789221422786573000,1.694572998046875,0.22653092443943024,0.010188015177845955,0.02070832997560501
1789221422796653300,1.7046533203125,0.23706026375293732,0.0030800383538007736,0.02287347987294197
1789221422806733000,1.714733154296875,0.24338886141777039,-0.010447952896356583,0.023387936875224113
1789221422816813300,1.724813232421875,0.24510739743709564,-0.027135051786899567,0.023775693029165268
1789221422826893300,1.734893310546875,0.2442808896303177,-0.04676631838083267,0.025178860872983932
1789221422836973300,1.744973388671875,0.2440342754125595,-0.06793712079524994,0.028734181076288223
1789221422847052000,1.755052001953125,0.24126246571540833,-0.08800192177295685,0.031264375895261765
1789221422857132300,1.76513232421875,0.24964822828769684,-0.10909735411405563,0.03020736575126648
1789221422867212300,1.77521240234375,0.2564217150211334,-0.13038025796413422,0.03574548289179802
1789221422877292000,1.7852919921875,0.2660261392593384,-0.14870573580265045,0.04068511724472046
1789221422887372300,1.795372314453125,0.27023857831954956,-0.1535637080669403,0.041772060096263885
1789221422897452000,1.8054521484375,0.2751843333244324,-0.15050773322582245,0.0415978878736496
1789221422907531300,1.81553125,0.28559598326683044,-0.14114059507846832,0.04425359144806862
1789221422917612000,1.825612060546875,0.29799991846084595,-0.12913134694099426,0.04211267828941345
1789221422927692300,1.8356923828125,0.31253063678741455,-0.1194416731595993,0.04168539121747017
1789221422937772300,1.845772216796875,0.32780227065086365,-0.10395033657550812,0.038890402764081955
1789221422947852000,1.85585205078125,0.34359508752822876,-0.08340317755937576,0.037402790039777756
1789221422957932300,1.865932373046875,0.3690442442893982,-0.07023730874061584,0.03532925248146057
1789221422968011300,1.87601123046875,0.39123985171318054,-0.06225675344467163,0.034654274582862854
1789221422978091300,1.88609130859375,0.4034839868545532,-0.05446966737508774,0.032551445066928864
1789221422988171000,1.8961708984375,0.38416436314582825,-0.05272633209824562,0.03368956223130226
1789221422998251300,1.906251220703125,0.35590875148773193,-0.02600976824760437,0.0338650643825531
1789221423008331000,1.9163310546875,0.35968419909477234,0.01250797975808382,0.02841862291097641
1789221423018411300,1.926411376953125,0.38749292492866516,0.03925437107682228,0.023297898471355438
1789221423028490000,1.936489990234375,0.40879884362220764,0.10391644388437271,0.011001573875546455
1789221423038570200,1.9465703125,0.42497143149375916,0.14239831268787384,0.0026011646259576082
1789221423048650200,1.956650146484375,0.43611717224121094,0.1931609958410263,0.008169678971171379
1789221423058730200,1.966730224609375,0.45775002241134644,0.20325224101543427,0.007290037348866463
1789221423068810200,1.976810302734375,0.48725783824920654,0.19811448454856873,0.007866951636970043
1789221423078890000,1.986889892578125,0.49875950813293457,0.20158937573432922,0.0201470535248518
1789221423088969200,1.99696923828125,0.4512706995010376,0.18150581419467926,0.024144230410456657
1789221423099049200,2.00704931640625,0.3754504919052124,0.22364714741706848,0.012922467663884163
1789221423109129200,2.017129150390625,0.3602788746356964,0.2591908872127533,0.005353386513888836
1789221423119209000,2.027208984375,0.40509718656539917,0.2801733911037445,-0.0018075874540954828
1789221423129289200,2.037289306640625,0.43596482276916504,0.28539085388183594,-0.005158879794180393
1789221423139369200,2.047369140625,0.4413055181503296,0.3270986080169678,-0.0022230111062526703
1789221423149449200,2.05744921875,0.41774269938468933,0.28009071946144104,0.006050153635442257
1789221423159528200,2.067528076171875,0.34230226278305054,0.26205313205718994,0.005493553355336189
1789221423169608200,2.077608154296875,0.26275578141212463,0.23436763882637024,0.0019322738517075777
1789221423179688200,2.087688232421875,0.2109397053718567,0.19062122702598572,0.00783596932888031
1789221423189768200,2.097768310546875,0.18369530141353607,0.1349632292985916,0.009584764018654823
1789221423199848200,2.10784814453125,0.13857628405094147,0.0970270186662674,0.008038266561925411
1789221423209928200,2.11792822265625,0.09587423503398895,0.07847552746534348,0.003944995813071728
1789221423220007200,2.128007080078125,0.07752372324466705,0.06678212434053421,-0.004996301606297493
1789221423230087200,2.138087158203125,0.07394523173570633,0.042606476694345474,-0.003696944797411561
1789221423240167200,2.148167236328125,0.056119900196790695,0.014013181440532207,-0.0019182198448106647
1789221423250247200,2.1582470703125,0.02254609577357769,-0.021310817450284958,0.00442162062972784
1789221423260327200,2.1683271484375,-0.008820349350571632,-0.05964542180299759,0.004021080676466227
1789221423270407200,2.1784072265625,-0.03305976837873459,-0.09588498622179031,0.0019273696234449744
1789221423280486100,2.188486083984375,-0.05449714884161949,-0.1273728758096695,0.003068534191697836
1789221423290566100,2.198566162109375,-0.07073164731264114,-0.15322299301624298,0.0014253269182518125
1789221423300646100,2.208646240234375,-0.08469007909297943,-0.1867481917142868,0.002024804474785924
1789221423310726100,2.21872607421875,-0.09611251205205917,-0.2148023545742035,0.0030659898184239864
1789221423320806100,2.22880615234375,-0.10834228247404099,-0.22679004073143005,0.005335269495844841
1789221423330886100,2.23888623046875,-0.10903629660606384,-0.22321799397468567,0.008887630887329578
1789221423340965400,2.24896533203125,-0.10216294974088669,-0.22043339908123016,-0.003476627403870225
1789221423351045000,2.259045166015625,-0.09859830886125565,-0.16989506781101227,0.00031867288635112345
1789221423361125000,2.269125,-0.1054956242442131,-0.17118564248085022,-0.0020065330900251865
1789221423371205000,2.279205078125,-0.13268104195594788,-0.13919830322265625,0.0086906673386693
1789221423381285000,2.28928515625,-0.15840904414653778,-0.08277364820241928,0.011071800254285336
1789221423391365000,2.299365234375,-0.16157419979572296,-0.06493344157934189,-0.005926314275711775
1789221423401444000,2.309444091796875,-0.12105768173933029,-0.12151442468166351,0.004570269025862217
1789221423411524000,2.319524169921875,-0.06699616461992264,-0.10320866852998734,0.007759233471006155
1789221423421604000,2.32960400390625,-0.04837081581354141,-0.06551508605480194,0.006489704828709364
1789221423431684400,2.339684326171875,-0.04787253960967064,-0.07312162965536118,-0.018061058595776558
1789221423441764000,2.34976416015625,-0.04764057695865631,-0.0352964922785759,-0.0012799488613381982
1789221423451844000,2.359843994140625,-0.050283368676900864,-0.009653881192207336,-0.008382251486182213
1789221423461924000,2.369924072265625,0.0026434948667883873,0.017850447446107864,-0.02027086913585663
1789221423472003300,2.38000341796875,0.050187982618808746,0.041043318808078766,0.0012664466630667448
1789221423482083000,2.3900830078125,0.05230892449617386,0.030813315883278847,-0.004105148836970329
1789221423492163000,2.4001630859375,0.026604214683175087,0.06950609385967255,-0.01036914810538292
1789221423502243300,2.410243408203125,0.015758492052555084,0.07149787247180939,-0.017304552718997
1789221423512323000,2.420322998046875,0.019057622179389,0.08485636115074158,-0.017663441598415375
1789221423522403300,2.4304033203125,0.025514455512166023,0.06284373998641968,-0.011124049313366413
1789221423532482000,2.44048193359375,0.02197951078414917,0.05743023753166199,-0.007593045476824045
1789221423542562300,2.450562255859375,-0.0045082890428602695,0.041535958647727966,-0.013859198428690434
1789221423552642000,2.46064208984375,-0.02988900989294052,0.042410850524902344,-0.017372218891978264
1789221423562722300,2.470722412109375,-0.04090704023838043,0.04117567837238312,-0.025639468804001808
1789221423572802000,2.480802001953125,-0.04046163335442543,0.03921697288751602,-0.01608072593808174
1789221423582882000,2.490882080078125,-0.036092184484004974,0.031285278499126434,-0.007443028502166271
1789221423592961000,2.5009609375,-0.02965744584798813,0.004639375023543835,-0.008277220651507378
1789221423603041300,2.511041259765625,-0.04609820619225502,-0.018209747970104218,-0.00006403174484148622
1789221423613121300,2.521121337890625,-0.06038633733987808,-0.0269311536103487,-0.008173800073564053
1789221423623201000,2.531200927734375,-0.07516129314899445,-0.05441471189260483,-0.011519262567162514
1789221423633281300,2.54128125,-0.08494707942008972,-0.0642874538898468,-0.007854164578020573
1789221423643361000,2.551361083984375,-0.09056688100099564,-0.09363815188407898,-0.01081559993326664
1789221423653440300,2.561440185546875,-0.09416347742080688,-0.10793227702379227,-0.0004445815575309098
1789221423663520000,2.57152001953125,-0.1013641357421875,-0.1039428636431694,-0.00200146553106606
1789221423673600300,2.581600341796875,-0.0971149206161499,-0.10312773287296295,-0.001148655079305172
1789221423683680000,2.591679931640625,-0.08173489570617676,-0.11199872195720673,0.0013512541772797704
1789221423693760300,2.60176025390625,-0.08542737364768982,-0.09293155372142792,-0.007884055376052856
1789221423703840300,2.61184033203125,-0.08965620398521423,-0.04994254559278488,-0.011193299666047096
1789221423713919200,2.621919189453125,-0.09048538655042648,-0.06425881385803223,-0.01378188468515873
1789221423723999200,2.631999267578125,-0.09401993453502655,-0.04399508982896805,-0.010786361061036587
1789221423734079200,2.642079345703125,-0.0906158834695816,-0.0476263090968132,-0.008949578739702702
1789221423744159200,2.6521591796875,-0.08127856999635696,-0.05443068593740463,-0.006745546590536833
1789221423754239000,2.662239013671875,-0.0724954679608345,-0.045368485152721405,0.004755847156047821
1789221423764319200,2.6723193359375,-0.06312193721532822,-0.028561007231473923,-0.0024962069001048803
1789221423774399200,2.682399169921875,-0.05305012688040733,-0.042719677090644836,-0.0030944712925702333
1789221423784478200,2.692478271484375,-0.03909330070018768,-0.028970573097467422,-0.0018989781383424997
1789221423794558200,2.70255810546875,-0.0292020533233881,-0.0037730883341282606,0.004502388183027506
1789221423804638200,2.71263818359375,-0.009192392230033875,0.015123637393116951,0.015026135370135307
1789221423814718200,2.72271826171875,0.02194688469171524,0.028920408338308334,0.023481406271457672
1789221423824798200,2.732798095703125,0.022704554721713066,0.04492520913481712,0.0059106675907969475
1789221423834878200,2.742878173828125,0.018404483795166016,0.06192032992839813,0.005831416230648756
1789221423844957200,2.752957275390625,0.016279282048344612,0.06912923604249954,-0.0022877627052366734
1789221423855037200,2.763037109375,0.022648226469755173,0.057804353535175323,-0.01255321316421032
1789221423865117200,2.7731171875,0.03665006160736084,0.06018228828907013,-0.018703518435359
1789221423875197200,2.783197265625,0.05366818979382515,0.055435679852962494,-0.03526175022125244
1789221423885277200,2.793277099609375,0.06582444906234741,0.04036778211593628,-0.042145755141973495
1789221423895357200,2.803357177734375,0.07556469738483429,0.04209834709763527,-0.04928413778543472
1789221423905437200,2.813437255859375,0.08264737576246262,0.06345370411872864,-0.05294758081436157
1789221423915515600,2.823515625,0.08942725509405136,0.06268614530563354,-0.06578949093818665
1789221423925595600,2.833595703125,0.07609254121780396,0.05437309294939041,-0.0881110429763794
1789221423935675600,2.843675537109375,0.05096855387091637,0.05137021094560623,-0.09490930289030075
1789221423945755600,2.853755615234375,0.05519818514585495,0.010594287887215614,-0.0405760295689106
1789221423955835600,2.863835693359375,0.058165211230516434,0.04418659955263138,-0.0704074278473854
1789221423965915600,2.87391552734375,0.05760221928358078,0.025581492111086845,-0.035612162202596664
1789221423975994600,2.88399462890625,0.06875380128622055,0.002391315530985594,-0.026518985629081726
1789221423986074600,2.89407470703125,0.049423784017562866,0.021778594702482224,-0.0696728453040123
1789221423996155000,2.90415478515625,0.05669594556093216,-0.01663786545395851,0.004870281554758549
1789221424006234600,2.914234619140625,0.03841201588511467,-0.02626599185168743,-0.0038614245131611824
1789221424016314600,2.924314697265625,0.016604719683527946,-0.037368178367614746,0.002880900166928768
1789221424026394600,2.93439453125,0.00976545549929142,-0.04724637418985367,0.0004057582700625062
1789221424036473900,2.944473876953125,0.008022013120353222,-0.07267255336046219,-0.008782671764492989
1789221424046553600,2.9545537109375,-0.0011616317788138986,-0.09046939760446548,-0.01798895373940468
1789221424056633600,2.964633544921875,-0.015733784064650536,-0.07292836159467697,-0.014543126337230206
1789221424066713600,2.974713623046875,-0.024688396602869034,-0.069452665746212,-0.015518375672399998
1789221424076793600,2.984793701171875,-0.017448194324970245,-0.07075056433677673,-0.005449001677334309
1789221424086873900,2.994873779296875,-0.013626291416585445,-0.07423744350671768,0.002247001277282834
1789221424096952600,3.00495263671875,-0.01194597128778696,-0.07859424501657486,0.0060757906176149845
1789221424107032800,3.01503271484375,-0.013110571540892124,-0.07643388956785202,0.007339194416999817
1789221424117112600,3.025112548828125,-0.0047322665341198444,-0.07808025926351547,0.002639780519530177
1789221424127192800,3.03519287109375,0.006214390974491835,-0.08031091839075089,0.0028254028875380754
1789221424137272600,3.0452724609375,0.00687831686809659,-0.06880740076303482,0.008551998063921928
1789221424147352600,3.0553525390625,0.012424616143107414,-0.06755437701940536,0.01280506607145071
1789221424157432600,3.0654326171875,0.017064908519387245,-0.05364708602428436,0.008820710703730583
1789221424167511800,3.07551171875,0.022479115054011345,-0.029465053230524063,0.005321849603205919
1789221424177591600,3.085591552734375,0.04504847154021263,-0.012311507016420364,0.0036962192971259356
1789221424187671600,3.095671630859375,0.06007589027285576,0.005870958790183067,0.000743572658393532
1789221424197751800,3.105751708984375,0.07125531136989594,0.024485643953084946,0.004014126490801573
1789221424207831600,3.11583154296875,0.07773451507091522,0.045445516705513,0.0029547209851443768
1789221424217911800,3.125911865234375,0.08522611856460571,0.06118093058466911,0.0014891463797539473
1789221424227990500,3.135990478515625,0.0882386863231659,0.07624483108520508,0.0005698231980204582
1789221424238070800,3.14607080078125,0.09764404594898224,0.08594616502523422,0.004948008805513382
1789221424248150500,3.156150634765625,0.10807431489229202,0.08548463881015778,0.0013269087066873908
1789221424258230800,3.166230712890625,0.10465321689844131,0.09036301076412201,-0.0008803192176856101
1789221424268310800,3.176310791015625,0.10421725362539291,0.09171509742736816,0.0020848442800343037
1789221424278390500,3.186390625,0.10208646208047867,0.09707071632146835,0.0030640887562185526
1789221424288470800,3.196470703125,0.10029495507478714,0.09941057115793228,0.002446235390380025
1789221424298549800,3.2065498046875,0.0997249037027359,0.09842319786548615,0.0030723074451088905
1789221424308629800,3.216629638671875,0.09897655248641968,0.08826030790805817,0.0015404573641717434
1789221424318709500,3.22670947265625,0.08957225829362869,0.07623054087162018,0.002541367197409272
1789221424328789800,3.236789794921875,0.07977395504713058,0.0612739622592926,0.001386354211717844
1789221424338869500,3.246869384765625,0.07404524087905884,0.04686497151851654,0.0006155924056656659
1789221424348949800,3.25694970703125,0.06566426903009415,0.03312279284000397,-0.0023660827428102493
1789221424359028500,3.267028564453125,0.06043408811092377,0.016149193048477173,0.0013495900202542543
1789221424369108700,3.277108642578125,0.05802339315414429,0.0006810198538005352,0.0007114966865628958
1789221424379188700,3.287188720703125,0.05860183387994766,-0.0006183367222547531,0.006302004214376211
1789221424389268700,3.297268798828125,0.044827163219451904,-0.05349140614271164,0.003704889677464962
1789221424399348700,3.3073486328125,0.0365535207092762,-0.06422770023345947,0.0036488149780780077
1789221424409428500,3.317428466796875,0.030346224084496498,-0.09135226160287857,0.007363924756646156
1789221424419507700,3.3275078125,0.0025877035222947598,-0.15857955813407898,0.001347984652966261
1789221424429587700,3.337587646484375,-0.03284432366490364,-0.17074541747570038,0.0035999538376927376
1789221424439667700,3.347667724609375,-0.07196217030286789,-0.16665613651275635,0.00836275052279234
1789221424449747500,3.35774755859375,-0.07359149307012558,-0.13740983605384827,0.0013141625095158815
1789221424459827700,3.36782763671875,-0.02866489812731743,-0.14427541196346283,0.00483784219250083
1789221424469907700,3.37790771484375,0.0026464194525033236,-0.12954360246658325,0.010237134993076324
1789221424479987700,3.38798779296875,-0.006418315228074789,-0.15801292657852173,-0.0012379304971545935
1789221424490066700,3.398066650390625,0.0013679686235263944,-0.16286174952983856,0.0006467885104939342
1789221424500146700,3.408146728515625,0.0067365048453211784,-0.19595400989055634,0.007524395361542702
1789221424510226700,3.418226806640625,0.004907179623842239,-0.19496916234493256,0.006376572884619236
1789221424520306700,3.428306640625,-0.005226152017712593,-0.167401522397995,0.010535867884755135
1789221424530386700,3.43838671875,0.007561814971268177,-0.12012748420238495,0.015826236456632614
1789221424540466700,3.448466796875,0.02218630351126194,-0.03760721907019615,0.0172077976167202
1789221424550545700,3.458545654296875,-0.005615766625851393,0.11451999843120575,0.009718721732497215
1789221424560625700,3.468625732421875,-0.0724315494298935,0.277182400226593,0.022594956681132317
1789221424570705700,3.47870556640625,-0.061993557959795,0.46981069445610046,-0.035589516162872314
1789221424580785700,3.48878564453125,0.17533576488494873,0.5036576390266418,-0.0456605963408947
1789221424590865700,3.49886572265625,0.5892144441604614,0.3657008707523346,-0.011230184696614742
1789221424600945700,3.508945556640625,0.853739857673645,0.3072863817214966,0.015570182353258133
1789221424611025700,3.519025634765625,0.8785714507102966,0.2844462990760803,0.009877942502498627
1789221424621104600,3.529104736328125,0.7139906287193298,0.22655250132083893,0.01660524122416973
1789221424631184600,3.5391845703125,0.39152970910072327,0.23273396492004395,-0.00225792801938951
1789221424641264600,3.5492646484375,0.1455480456352234,0.31618401408195496,0.016946962103247643
1789221424651345000,3.559344970703125,0.13397234678268433,0.35886141657829285,0.02518545091152191
1789221424661424600,3.569424560546875,0.22921419143676758,0.2835988402366638,0.008211912587285042
1789221424671504600,3.579504638671875,0.23488005995750427,0.22882188856601715,-0.03080046735703945
1789221424681583600,3.58958349609375,0.12499070167541504,0.1854476034641266,-0.0034708362072706223
1789221424691663600,3.59966357421875,-0.01005233358591795,0.18177109956741333,0.015288736671209335
1789221424701743600,3.60974365234375,-0.06326907873153687,0.13388600945472717,0.010963459499180317
1789221424711823600,3.61982373046875,-0.034276314079761505,0.06484674662351608,-0.0073111518286168575
1789221424721903600,3.629903564453125,0.0274825282394886,-0.010548213496804237,-0.018566668033599854
1789221424731983600,3.639983642578125,0.03415241464972496,-0.0298159159719944,0.0029231777880340815
1789221424742063900,3.65006396484375,0.004705313127487898,-0.06445402652025223,0.014199948869645596
1789221424752142600,3.660142578125,-0.020193377509713173,-0.07888303697109222,0.011243573389947414
1789221424762222800,3.670222900390625,-0.049374837428331375,-0.07949121296405792,-0.00900949351489544
1789221424772302600,3.680302490234375,-0.06527310609817505,-0.07604827731847763,-0.007016915827989578
1789221424782382800,3.6903828125,-0.07989399880170822,-0.0705430805683136,-0.002173165325075388
1789221424792462600,3.700462646484375,-0.09090137481689453,-0.06691931188106537,0.0001411215926054865
1789221424802542600,3.71054248046875,-0.0942552238702774,-0.07549963891506195,-0.006209829356521368
1789221424812621600,3.72062158203125,-0.09221097826957703,-0.09325839579105377,-0.011917250230908394
1789221424822701600,3.73070166015625,-0.09920936822891235,-0.10717573016881943,-0.007588274776935577
1789221424832781600,3.740781494140625,-0.11373371630907059,-0.11313189566135406,-0.0008110630442388356
1789221424842861600,3.750861572265625,-0.1190326064825058,-0.1152927577495575,0.005266877356916666
1789221424852941800,3.76094189453125,-0.10353860259056091,-0.12579867243766785,0.0022055739536881447
1789221424863021600,3.771021484375,-0.09319328516721725,-0.13179045915603638,0.0011887351283803582
1789221424873101800,3.781101806640625,-0.08337021619081497,-0.12762555480003357,0.005280415993183851
1789221424883180500,3.7911806640625,-0.0730237066745758,-0.10509170591831207,0.01128110010176897
1789221424893260800,3.8012607421875,-0.07498752325773239,-0.08346124738454819,0.01025897916406393
1789221424903340500,3.811340576171875,-0.08690903335809708,-0.05885561555624008,0.006570079829543829
1789221424913420800,3.8214208984375,-0.09518799930810928,-0.06589648127555847,0.0005915496149100363
1789221424923500800,3.831500732421875,-0.10738421231508255,-0.05768410488963127,0.002874070545658469
1789221424933580500,3.84158056640625,-0.1369226574897766,-0.0866909921169281,-0.003899679519236088
1789221424943659800,3.85165966796875,-0.14327336847782135,-0.12461710721254349,-0.009386640973389149
1789221424953739500,3.861739501953125,-0.16127553582191467,-0.12485732138156891,-0.007987415418028831
1789221424963819800,3.87181982421875,-0.17773772776126862,-0.09376260638237,-0.0030382047407329082
1789221424973899500,3.8818994140625,-0.17451050877571106,-0.056016288697719574,0.0003578582254704088
1789221424983979800,3.891979736328125,-0.12396305799484253,-0.02348892018198967,0.0020602766890078783
1789221424994059500,3.9020595703125,-0.06524434685707092,-0.0318634957075119,0.0077186948619782925
1789221425004139800,3.912139892578125,-0.04037041589617729,-0.03694954514503479,0.0071067302487790585
1789221425014218500,3.922218505859375,-0.051167938858270645,-0.06480354070663452,-0.00011150146019645035
1789221425024298800,3.932298828125,-0.07925789803266525,-0.07357843965291977,-0.0030854090582579374
1789221425034378800,3.942378662109375,-0.090662881731987,-0.09048391878604889,-0.005211942829191685
1789221425044458800,3.952458740234375,-0.10360798239707947,-0.09351097792387009,-0.004182959906756878
1789221425054538800,3.962538818359375,-0.11275594681501389,-0.09386571496725082,-0.009358281269669533
1789221425064618500,3.972618408203125,-0.11961358785629272,-0.12255300581455231,-0.004200462251901627
1789221425074697700,3.98269775390625,-0.13009418547153473,-0.1719471961259842,-0.0034952573478221893
1789221425084777500,3.992777587890625,-0.135376438498497,-0.2179904580116272,-0.0007890650304034352
1789221425094857700,4.002857666015625,-0.14417579770088196,-0.2716960310935974,-0.003287376370280981
1789221425104937500,4.0129375,-0.15432243049144745,-0.30295246839523315,0.007027195766568184
1789221425115017700,4.023017822265625,-0.16343629360198975,-0.32151976227760315,0.010225119069218636
1789221425125097700,4.03309765625,-0.17463114857673645,-0.3304542005062103,0.005812426097691059
1789221425135177700,4.043177734375,-0.18115723133087158,-0.3373155891895294,0.006034533493220806
1789221425145256700,4.053256591796875,-0.1782689094543457,-0.34287577867507935,0.0010631582699716091
1789221425155336700,4.063336669921875,-0.17759592831134796,-0.3498135805130005,0.0020120423287153244
1789221425165416700,4.073416748046875,-0.17388319969177246,-0.35653480887413025,0.0050294348038733006
1789221425175496700,4.08349658203125,-0.16916169226169586,-0.3669978380203247,0.004078952595591545
1789221425185576700,4.09357666015625,-0.16910415887832642,-0.3607814908027649,0.006906623020768166
1789221425195656700,4.10365673828125,-0.17058514058589935,-0.3527211546897888,0.00798014272004366
1789221425205735700,4.113735595703125,-0.1564984917640686,-0.338692843914032,0.007960974238812923
1789221425215815700,4.123815673828125,-0.12539836764335632,-0.3211114704608917,0.014724072068929672
1789221425225895700,4.133895751953125,-0.10138624906539917,-0.31373026967048645,0.022749166935682297
1789221425235975700,4.1439755859375,-0.08310551196336746,-0.3049876391887665,0.019018877297639847
1789221425246055700,4.1540556640625,-0.06295176595449448,-0.27179473638534546,0.019816333428025246
1789221425256135700,4.1641357421875,-0.049532365053892136,-0.24329492449760437,0.02290932834148407
1789221425266215700,4.174215576171875,-0.03466326743364334,-0.20019285380840302,0.017683180049061775
1789221425276294700,4.184294677734375,-0.02249555103480816,-0.15819746255874634,0.011914238333702087
1789221425286374700,4.194374755859375,-0.008059489540755749,-0.12423621863126755,0.008633230812847614
1789221425296454700,4.20445458984375,0.005744473077356815,-0.09850316494703293,0.01180079486221075
1789221425306534700,4.21453466796875,0.019585588946938515,-0.08840376138687134,0.017628435045480728
1789221425316614700,4.22461474609375,0.02647651731967926,-0.07649330794811249,0.014639569446444511
1789221425326694700,4.234694580078125,0.022733712568879128,-0.060071416199207306,0.010951047763228416
1789221425336774700,4.244774658203125,0.029100265353918076,-0.03899222984910011,0.012003795243799686
1789221425346853600,4.254853515625,0.037182558327913284,-0.01827780157327652,0.013626273721456528
1789221425356933600,4.26493359375,0.03981243073940277,0.0015382487326860428,0.012203080579638481
1789221425367013600,4.275013671875,0.04842456430196762,0.02411045879125595,0.015478000044822693
1789221425377093600,4.28509375,0.05487260967493057,0.043691352009773254,0.00488234730437398
1789221425387173600,4.295173583984375,0.05963593348860741,0.06694014370441437,0.0014736629091203213
1789221425397253600,4.305253662109375,0.04875931888818741,0.09245216101408005,-0.0007327660568989813
1789221425407332600,4.31533251953125,0.04799792915582657,0.10979261994361877,0.00421103835105896
1789221425417412900,4.325412841796875,0.04930820316076279,0.1258363127708435,0.003675743006169796
1789221425427492600,4.33549267578125,0.05785001814365387,0.13110394775867462,-0.004095805808901787
1789221425437572600,4.345572509765625,0.0546070896089077,0.14408685266971588,-0.007447127252817154
1789221425447652600,4.355652587890625,0.04688192531466484,0.16251982748508453,-0.00559364864602685
1789221425457732600,4.365732666015625,0.04382328689098358,0.1712757796049118,-0.004159536212682724
1789221425467812900,4.375812744140625,0.04040231928229332,0.170229971408844,-0.007072260603308678
1789221425477891600,4.3858916015625,0.03798682987689972,0.1628303825855255,-0.011644908227026463
1789221425487971800,4.395971923828125,0.035604897886514664,0.1497281789779663,-0.01213379018008709
1789221425498051600,4.406051513671875,0.035730067640542984,0.13958926498889923,-0.01190076395869255
1789221425508131800,4.4161318359375,0.025853339582681656,0.13943235576152802,-0.010773763060569763
1789221425518211600,4.426211669921875,0.01176894549280405,0.14719466865062714,-0.008609944954514503
1789221425528291600,4.43629150390625,0.0009731530444696546,0.14295285940170288,-0.006508512422442436
1789221425538370600,4.44637060546875,-0.009330617263913155,0.11187616735696793,-0.007398540619760752
1789221425548450800,4.456450927734375,-0.013101114891469479,0.07112057507038116,-0.008743450045585632
1789221425558530600,4.466530517578125,-0.011745565570890903,0.01917801797389984,-0.010834564454853535
1789221425568610600,4.476610595703125,-0.016346316784620285,-0.021551556885242462,-0.005728850606828928
1789221425578690800,4.48669091796875,-0.028986478224396706,-0.044614795595407486,-0.0017223909962922335
1789221425588770600,4.4967705078125,-0.03573811799287796,-0.048193953931331635,0.002315895864740014
1789221425598850800,4.506850830078125,-0.03826838731765747,-0.040195949375629425,0.004873862024396658
1789221425608929500,4.516929443359375,-0.030487433075904846,-0.02008013054728508,0.0038195298984646797
1789221425619009800,4.527009765625,-0.0235323216766119,-0.0074631390161812305,-0.00028786342591047287
1789221425629089500,4.537089599609375,-0.014170381240546703,-0.00948677770793438,0.0037828583735972643
1789221425639169800,4.547169677734375,-0.012633204460144043,-0.013222393579781055,0.0049378713592886925
1789221425649249500,4.55724951171875,-0.014996093697845936,-0.009399285539984703,0.0058969128876924515
1789221425659329500,4.56732958984375,-0.015632323920726776,0.005194838158786297,0.00633873138576746
1789221425669408500,4.577408447265625,-0.014732703566551208,0.04512954130768776,0.0053444127552211285
1789221425679488800,4.58748876953125,-0.02635207585990429,0.09711737930774689,0.003930540289729834
1789221425689568800,4.59756884765625,-0.0076525588519871235,0.13055798411369324,-0.0005232496187090874
1789221425699648500,4.6076484375,0.02583695948123932,0.15188723802566528,-0.0042058685794472694
1789221425709728800,4.617728759765625,0.048018425703048706,0.1904200315475464,0.009318152442574501
1789221425719808500,4.62780859375,0.07706791907548904,0.21940240263938904,0.005131130572408438
1789221425729888800,4.637888671875,0.0753946527838707,0.23878858983516693,-0.014390861615538597
1789221425739967500,4.647967529296875,0.05977947637438774,0.2672401964664459,-0.017561888322234154
1789221425750047700,4.6580478515625,0.044264305382966995,0.30158209800720215,-0.0007996921194717288
1789221425760127700,4.668127685546875,0.04045518487691879,0.3071925938129425,0.003068549558520317
1789221425770207700,4.678207763671875,0.05546276271343231,0.26812148094177246,-0.00159141281619668
1789221425780287700,4.688287841796875,0.07764822989702225,0.1980888843536377,-0.022531848400831223
1789221425790367500,4.698367431640625,0.07724049687385559,0.17311693727970123,0.019401147961616516
1789221425800447700,4.70844775390625,0.05630139261484146,0.16972672939300537,0.05590882524847984
1789221425810526700,4.718526611328125,0.03224199265241623,0.10110510885715485,0.044732119888067245
1789221425820606700,4.728606689453125,-0.005495267454534769,0.02144516631960869,-0.028751686215400696
1789221425830686500,4.7386865234375,-0.023050952702760696,0.06234941631555557,0.03644751012325287
1789221425840766700,4.7487666015625,0.023574871942400932,0.11338303983211517,0.04734409973025322
1789221425850846700,4.7588466796875,0.08647114783525467,-0.006156282965093851,-0.0038003497757017612
1789221425860926700,4.7689267578125,0.11794544756412506,0.008606950752437115,-0.08558069914579391
1789221425871006700,4.7790068359375,0.03183839097619057,0.00999400857836008,0.0015036077238619328
1789221425881085700,4.789085693359375,-0.024918366223573685,0.02837461233139038,0.03486209735274315
1789221425891165700,4.799165771484375,-0.04985726624727249,0.07614275068044662,-0.00028239504899829626
1789221425901245700,4.80924560546875,-0.008428599685430527,0.05323876813054085,-0.020950922742486
1789221425911325700,4.81932568359375,0.028167232871055603,0.04113687574863434,0.0016121333464980125
1789221425921405400,4.829405517578125,0.05570724606513977,0.011255676858127117,0.017858214676380157
1789221425931485700,4.839485595703125,0.06380312144756317,0.02198372781276703,0.017720047384500504
1789221425941564700,4.849564697265625,0.05636810138821602,0.017428390681743622,0.018397290259599686
1789221425951644700,4.859644775390625,0.043614890426397324,0.010529051534831524,0.015204580500721931
1789221425961724400,4.869724365234375,0.039236120879650116,0.017117979004979134,0.012365651316940784
1789221425971804700,4.8798046875,0.04971139878034592,0.011358373798429966,0.007325959391891956
1789221425981884400,4.889884521484375,0.06139282137155533,-0.014491066336631775,-0.0015937660355120897
1789221425991964700,4.899964599609375,0.06848281621932983,-0.03226731717586517,-0.005443626083433628
1789221426002044400,4.91004443359375,0.06660448759794235,-0.029339969158172607,0.001033714390359819
1789221426012123600,4.92012353515625,0.06261733919382095,-0.02441694773733616,0.011845801956951618
1789221426022203400,4.930203369140625,0.059808507561683655,-0.012150960974395275,0.01675853505730629
1789221426032283600,4.94028369140625,0.06603244692087173,-0.0009719072841107845,0.011844655498862267
1789221426042363600,4.95036376953125,0.08262820541858673,0.004102746024727821,0.008907188661396503
1789221426052443400,4.960443359375,0.09419936686754227,0.010485459119081497,0.005458215717226267
1789221426062523600,4.970523681640625,0.10236036032438278,0.023659583181142807,0.0071892705745995045
1789221426072603400,4.980603271484375,0.10783474892377853,0.04383353143930435,0.007477541454136372
1789221426082682600,4.9906826171875,0.10628478974103928,0.06701555103063583,-0.002550858072936535
1789221426092762400,5.000762451171875,0.10339393466711044,0.08341328054666519,-0.005217683967202902
1789221426102842600,5.010842529296875,0.1099141538143158,0.08609135448932648,-0.006579358596354723
1789221426112922400,5.02092236328125,0.11862548440694809,0.07384325563907623,-0.0022415530402213335
1789221426123002600,5.031002685546875,0.12288707494735718,0.05956897512078285,0.006453668233007193
1789221426133082600,5.04108251953125,0.1225481852889061,0.04308072850108147,0.009433207102119923
1789221426143161600,5.05116162109375,0.12307176738977432,0.040289733558893204,0.005596124567091465
1789221426153241600,5.06124169921875,0.12025294452905655,0.036650918424129486,0.004275692161172628
1789221426163321600,5.071321533203125,0.1184779480099678,0.033501997590065,0.0006814899970777333
1789221426173401600,5.081401611328125,0.12856081128120422,0.02725600078701973,0.003161952132359147
1789221426183481300,5.0914814453125,0.13737960159778595,0.017546381801366806,0.00236779754050076
1789221426193561600,5.1015615234375,0.14960643649101257,0.023156849667429924,0.004786405712366104
1789221426203641600,5.1116416015625,0.15272340178489685,0.02681257203221321,0.006919597741216421
1789221426213720600,5.121720458984375,0.15839099884033203,0.037434183061122894,0.009311079978942871
1789221426223800600,5.131800537109375,0.1662084460258484,0.054644063115119934,0.011576631106436253
1789221426233880600,5.141880615234375,0.17046938836574554,0.08352860808372498,0.013470057398080826
1789221426243960600,5.151960693359375,0.1850762814283371,0.10498303920030594,0.013245020061731339
1789221426254040600,5.16204052734375,0.19962526857852936,0.1244124323129654,-0.0014654331607744098
1789221426264120600,5.17212060546875,0.21907246112823486,0.15501855313777924,-0.0031096688471734524
1789221426274200300,5.182200439453125,0.22839899361133575,0.17715178430080414,-0.007717178203165531
1789221426284279600,5.192279541015625,0.23359374701976776,0.2017924189567566,-0.0036233675200492144
1789221426294359600,5.202359619140625,0.23750872910022736,0.23047827184200287,-0.006051068194210529
1789221426304439600,5.212439453125,0.24301108717918396,0.25143468379974365,-0.0059823584742844105
1789221426314519600,5.22251953125,0.24993237853050232,0.26733869314193726,-0.005710245575755835
1789221426324599600,5.232599609375,0.26140499114990234,0.2858588397502899,-0.008645848371088505
1789221426334679600,5.242679443359375,0.27016186714172363,0.30354592204093933,-0.007191086653620005
1789221426344758500,5.252758544921875,0.284105122089386,0.31533971428871155,-0.005287459120154381
1789221426354838500,5.262838623046875,0.3001498878002167,0.318471223115921,-0.004332704469561577
1789221426364918500,5.27291845703125,0.30741897225379944,0.32055434584617615,-0.006336466874927282
1789221426374998500,5.28299853515625,0.28990083932876587,0.3288295269012451,-0.0017504342831671238
1789221426385078500,5.29307861328125,0.2591554522514343,0.3363795876502991,0.0001350837992504239
1789221426395158500,5.303158447265625,0.25507429242134094,0.33782872557640076,0.008689428679645061
1789221426405238500,5.313238525390625,0.2580935060977936,0.35502395033836365,0.00907452218234539
1789221426415317500,5.3233173828125,0.2714170217514038,0.36795684695243835,0.005218370817601681
1789221426425397800,5.333397705078125,0.2728463411331177,0.374341756105423,0.009065574035048485
1789221426435477500,5.3434775390625,0.27475184202194214,0.3718532621860504,0.005288838874548674
1789221426445557500,5.3535576171875,0.2742607593536377,0.3584788739681244,-0.0012183291837573051
1789221426455637500,5.363637451171875,0.2504267990589142,0.3508497178554535,0.000611795112490654
1789221426465717500,5.373717529296875,0.2290477305650711,0.35420289635658264,-0.0019339205464348197
1789221426475797800,5.3837978515625,0.22306959331035614,0.35755813121795654,0.0009868370834738016
1789221426485876500,5.39387646484375,0.21990017592906952,0.34446150064468384,0.01074359379708767
1789221426495956700,5.403956787109375,0.2272692769765854,0.3332976698875427,0.008897143416106701
1789221426506036500,5.414036376953125,0.2324078530073166,0.3219664692878723,0.008016170002520084
1789221426516116700,5.42411669921875,0.22667592763900757,0.3069009780883789,0.01117220800369978
1789221426526196500,5.434196533203125,0.20250800251960754,0.3149240016937256,0.018809355795383453
1789221426536276500,5.4442763671875,0.191467747092247,0.3163425624370575,0.01536067295819521
1789221426546355500,5.45435546875,0.1787053346633911,0.3197180926799774,0.00740660959854722
1789221426556435700,5.464435791015625,0.15684238076210022,0.3419423997402191,0.0036623661871999502
1789221426566515500,5.474515380859375,0.14432018995285034,0.3425951302051544,-0.005249902606010437
1789221426576595500,5.484595458984375,0.14606615900993347,0.33965370059013367,-0.004338878206908703
1789221426586675700,5.49467578125,0.14167647063732147,0.3398689031600952,0.019446613267064095
1789221426596755500,5.50475537109375,0.1277512013912201,0.35425540804862976,0.035121142864227295
1789221426606835700,5.514835693359375,0.12240011990070343,0.3654361665248871,0.039575278759002686
1789221426616914400,5.52491455078125,0.11165972799062729,0.3906381130218506,0.04167570918798447
1789221426626994700,5.53499462890625,0.11451436579227448,0.3976808488368988,0.033239081501960754
1789221426637074400,5.545074462890625,0.10793741792440414,0.39285778999328613,0.027807457372546196
1789221426647154700,5.55515478515625,0.08274205029010773,0.3933917284011841,0.029682856053113937
1789221426657234400,5.565234375,0.06927484273910522,0.3946070671081543,0.037395332008600235
1789221426667314400,5.575314453125,0.053153667598962784,0.38883307576179504,0.042324844747781754
1789221426677394700,5.585394775390625,0.049069710075855255,0.36926522850990295,0.04627857357263565
1789221426687473400,5.595473388671875,0.040877558290958405,0.3459439277648926,0.038606803864240646
1789221426697553700,5.6055537109375,0.024505378678441048,0.32768917083740234,0.04294566437602043
1789221426707633400,5.61563330078125,0.010156531818211079,0.32673123478889465,0.043379493057727814
1789221426717713700,5.625713623046875,-0.006236290093511343,0.32529976963996887,0.06833244115114212
1789221426727793400,5.63579345703125,-0.02050257846713066,0.3214437961578369,0.08492979407310486
1789221426737873700,5.645873779296875,-0.0322769470512867,0.30555111169815063,0.08903432637453079
1789221426747953700,5.65595361328125,-0.029730429872870445,0.3031681180000305,0.08807133138179779
1789221426758032600,5.66603271484375,-0.03104322962462902,0.2897854149341583,0.09528651088476181
1789221426768112600,5.676112548828125,-0.046717267483472824,0.26455116271972656,0.09014501422643661
1789221426778192600,5.686192626953125,-0.04529527574777603,0.26296019554138184,0.059266433119773865
1789221426788272600,5.696272705078125,-0.04277272894978523,0.26222383975982666,0.01958080381155014
1789221426798352400,5.706352294921875,-0.0742907002568245,0.23975536227226257,0.02916277013719082
1789221426808432600,5.7164326171875,-0.10274124890565872,0.24619728326797485,0.031187038868665695
1789221426818511400,5.726511474609375,-0.12063517421483994,0.2511463463306427,0.07339894771575928
1789221426828591600,5.736591552734375,-0.12473563849925995,0.1894344985485077,0.08753713965415955
1789221426838671400,5.74667138671875,-0.12753914296627045,0.14346490800380707,0.036817651242017746
1789221426848751600,5.756751708984375,-0.1631980687379837,0.14569583535194397,-0.012874539010226727
1789221426858831600,5.76683154296875,-0.1904873549938202,0.09531323611736298,0.05034928396344185
1789221426868911600,5.77691162109375,-0.20316798985004425,0.13611258566379547,0.09219899773597717
1789221426878991600,5.78699169921875,-0.2001040279865265,0.11616235226392746,0.09747380018234253
1789221426889070600,5.797070556640625,-0.19383014738559723,0.09548131376504898,0.09088674187660217
1789221426899150600,5.807150634765625,-0.18521136045455933,0.06372858583927155,0.03370107710361481
1789221426909230600,5.817230712890625,-0.20807726681232452,0.023096200078725815,0.006710471119731665
1789221426919309800,5.827309814453125,-0.2601163685321808,-0.04198087379336357,0.04695196822285652
1789221426929389800,5.837389892578125,-0.30393707752227783,-0.08687697350978851,0.054129455238580704
1789221426939469800,5.8474697265625,-0.34246155619621277,-0.1413501352071762,0.053935013711452484
1789221426949549600,5.857549560546875,-0.37908056378364563,-0.17861920595169067,-0.00479541253298521
1789221426959628800,5.86762890625,-0.3959491550922394,-0.2128201127052307,0.034972649067640305
1789221426969708800,5.877708740234375,-0.39246493577957153,-0.22431431710720062,-0.0031795299146324396
1789221426979788800,5.887788818359375,-0.4021244943141937,-0.266132116317749,0.020293882116675377
1789221426989868800,5.897868896484375,-0.41352468729019165,-0.3226510286331177,0.052292559295892715
1789221426999948800,5.90794873046875,-0.4256243407726288,-0.4102381765842438,0.019798291847109795
1789221427010028800,5.91802880859375,-0.4638553559780121,-0.4526098668575287,-0.026467740535736084
1789221427020107800,5.928107666015625,-0.5157744884490967,-0.5336214303970337,-0.001386151066981256
1789221427030187800,5.938187744140625,-0.5358408689498901,-0.5575885772705078,-0.012949063442647457
1789221427040267800,5.948267822265625,-0.550372302532196,-0.6571863293647766,0.014879055321216583
1789221427050347800,5.95834765625,-0.5474998354911804,-0.6932620406150818,0.026935983449220657
1789221427060428000,5.968427978515625,-0.5607175230979919,-0.726481556892395,0.0045278239995241165
1789221427070507800,5.9785078125,-0.6044088006019592,-0.7420764565467834,0.008152386173605919
1789221427080587800,5.988587890625,-0.5994771718978882,-0.7676670551300049,-0.021954650059342384
1789221427090666800,5.998666748046875,-0.5837759375572205,-0.8570254445075989,-0.03096092864871025
1789221427100746800,6.008746826171875,-0.598048746585846,-0.8697195053100586,-0.024615151807665825
1789221427110826800,6.01882666015625,-0.66365647315979,-0.888684093952179,-0.027920402586460114
1789221427120906800,6.02890673828125,-0.7036905884742737,-0.8601521253585815,-0.042680222541093826
1789221427130986800,6.03898681640625,-0.6993768215179443,-0.8199186325073242,-0.023195471614599228
1789221427141066800,6.049066650390625,-0.648668110370636,-0.7676674127578735,-0.01646273396909237
1789221427151147000,6.05914697265625,-0.5863258838653564,-0.7460407018661499,-0.00837684329599142
1789221427161225700,6.069225830078125,-0.5530441999435425,-0.6617268919944763,-0.01767978072166443
1789221427171306000,6.079305908203125,-0.5461583733558655,-0.6411888599395752,-0.04680570587515831
1789221427181385700,6.0893857421875,-0.545698881149292,-0.5155527591705322,-0.010885721072554588
1789221427191465700,6.0994658203125,-0.5290482640266418,-0.4778250753879547,0.03556566685438156
1789221427201545700,6.109545654296875,-0.5137344002723694,-0.4486233592033386,0.03181197866797447
1789221427211625700,6.119625732421875,-0.5002966523170471,-0.38605958223342896,-0.04722265154123306
1789221427221705700,6.129705810546875,-0.47062593698501587,-0.355843722820282,-0.06665536016225815
1789221427231784700,6.13978466796875,-0.5229013562202454,-0.4152841567993164,-0.05131661891937256
1789221427241864700,6.14986474609375,-0.55843186378479,-0.4072857201099396,0.2444334626197815
1789221427251944700,6.15994482421875,-0.6298439502716064,0.04977104067802429,0.06197870150208473
1789221427262025000,6.17002490234375,-0.6485210061073303,-0.1981181800365448,-0.07705165445804596
1789221427272104700,6.180104736328125,-0.4188779294490814,-0.22823187708854675,-0.3512592613697052
1789221427282185000,6.19018505859375,-0.1912536770105362,-0.6286883354187012,0.14150620996952057
1789221427292263700,6.200263671875,-0.13382287323474884,0.11788544803857803,0.08193422853946686
1789221427302344000,6.210343994140625,-0.16449463367462158,0.15857000648975372,0.13982045650482178
1789221427312423700,6.220423583984375,-0.15458501875400543,-0.07409413903951645,0.3038099408149719
1789221427322503700,6.230503662109375,-0.08339099586009979,-0.06412965059280396,0.10574717819690704
1789221427332584000,6.240583984375,0.02494746819138527,0.12008626013994217,-0.3422231376171112
1789221427342663700,6.25066357421875,0.18667709827423096,0.2694222629070282,-0.5662779211997986
1789221427352744000,6.260743896484375,0.36157193779945374,0.042305510491132736,-0.049834493547677994
1789221427362822700,6.27082275390625,0.4344598650932312,0.2838050425052643,0.005272438749670982
1789221427372903000,6.28090283203125,0.38831260800361633,0.09343695640563965,-0.01652074046432972
1789221427382982700,6.290982666015625,0.24799306690692902,0.2445542961359024,-0.04574999958276749
1789221427393063000,6.30106298828125,0.14920416474342346,0.23618771135807037,-0.0395677350461483
1789221427403142700,6.311142578125,0.18658563494682312,0.26616930961608887,-0.014420838095247746
1789221427413223000,6.321222900390625,0.3100883662700653,0.25296881794929504,-0.0007843883358873427
1789221427423303000,6.331302978515625,0.4130133092403412,0.22139428555965424,-0.04244517162442207
1789221427433382000,6.3413818359375,0.4608740508556366,0.2483910173177719,-0.055264297872781754
1789221427443462000,6.3514619140625,0.47595125436782837,0.3031714856624603,-0.03723439946770668
1789221427453541600,6.361541748046875,0.43490633368492126,0.27897879481315613,-0.028933323919773102
1789221427463622000,6.371621826171875,0.3879895806312561,0.3369133770465851,-0.017800593748688698
1789221427473701600,6.38170166015625,0.37269771099090576,0.3565177023410797,-0.013225549831986427
1789221427483782000,6.391781982421875,0.3855401277542114,0.3371890187263489,-0.054571833461523056
1789221427493861600,6.401861572265625,0.4040485918521881,0.3054087162017822,-0.07126718759536743
1789221427503940900,6.41194091796875,0.4057018458843231,0.3431188762187958,-0.08803313225507736
1789221427514020600,6.4220205078125,0.38744375109672546,0.38390839099884033,-0.04581776633858681
1789221427524100900,6.432100830078125,0.3901035785675049,0.4543604850769043,0.013994600623846054
1789221427534180900,6.442180908203125,0.44986864924430847,0.5074335932731628,-0.011086784303188324
1789221427544260900,6.4522607421875,0.5086590051651001,0.4528241753578186,-0.06986397504806519
1789221427554340900,6.4623408203125,0.5233897566795349,0.49792030453681946,-0.032668668776750565
1789221427564420600,6.472420654296875,0.4986102283000946,0.5240433812141418,0.029942093417048454
1789221427574499800,6.482499755859375,0.48660415410995483,0.5665335655212402,0.0462704673409462
1789221427584579600,6.49257958984375,0.4880748987197876,0.5827663540840149,0.025247687473893166
1789221427594659800,6.502659912109375,0.5301717519760132,0.6608693599700928,-0.028630724176764488
1789221427604739800,6.51273974609375,0.5896583795547485,0.7496886849403381,-0.014349843375384808
1789221427614819800,6.52281982421875,0.6735700368881226,0.824424684047699,-0.012581504881381989
1789221427624899800,6.53289990234375,0.8035587072372437,0.812367856502533,-0.08873201906681061
1789221427634978800,6.542978759765625,0.8995931148529053,0.8271803855895996,-0.1313636302947998
1789221427645058800,6.553058837890625,0.8785926103591919,0.8447890281677246,-0.13066832721233368
1789221427655138800,6.563138916015625,0.7926132082939148,0.9076777100563049,-0.033746834844350815
1789221427665218800,6.57321875,0.7632303237915039,0.9701439142227173,-0.01642196998000145
1789221427675298800,6.583298828125,0.8344208598136902,0.9969087243080139,-0.042695652693510056
1789221427685378800,6.59337890625,0.9504009485244751,0.9872282147407532,-0.009748364798724651
1789221427695458800,6.603458740234375,1.0309584140777588,1.076071858406067,-0.011863447725772858
1789221427705537800,6.613537841796875,1.0194897651672363,1.0935194492340088,0.0003782304120250046
1789221427715617800,6.62361767578125,1.0056650638580322,1.208329677581787,0.042361631989479065
1789221427725697800,6.63369775390625,1.0086439847946167,1.1547083854675293,0.00038485106779262424
1789221427735777800,6.64377783203125,1.05099356174469,1.190893530845642,-0.09585007280111313
1789221427745857800,6.65385791015625,1.1340686082839966,1.1277588605880737,-0.021572640165686607
1789221427755937800,6.663937744140625,1.184791922569275,1.1984151601791382,-0.014420454390347004
1789221427766017800,6.674017822265625,1.2067464590072632,1.1347131729125977,0.0032463001552969217
1789221427776096800,6.6840966796875,1.1576579809188843,1.1492478847503662,0.04268718138337135
1789221427786176800,6.6941767578125,1.0550873279571533,1.1830778121948242,-0.005784020759165287
1789221427796256800,6.7042568359375,1.0264629125595093,1.2127240896224976,-0.02040131203830242
1789221427806336800,6.714336669921875,1.0574926137924194,1.242233395576477,-0.010706756263971329
1789221427816416800,6.724416748046875,1.1125340461730957,1.2394773960113525,-0.012418902479112148
1789221427826496800,6.734496826171875,1.150464415550232,1.2416507005691528,0.0024311807937920094
1789221427836576800,6.74457666015625,1.1726675033569336,1.2678916454315186,0.008379350416362286
1789221427846655700,6.75465576171875,1.1627452373504639,1.1723812818527222,0.04210326448082924
1789221427856735700,6.76473583984375,1.1374590396881104,1.2389371395111084,0.026141874492168427
1789221427866815700,6.774815673828125,1.081911325454712,1.128069519996643,0.017348574474453926
1789221427876896000,6.78489599609375,0.9823911786079407,1.1173937320709229,0.03103802166879177
1789221427886975700,6.794975830078125,0.8693385124206543,1.1955443620681763,0.06669433414936066
1789221427897055700,6.8050556640625,0.8345789313316345,1.2213456630706787,0.11022450029850006
1789221427907134700,6.815134765625,0.8769749402999878,1.1776918172836304,0.08596952259540558
1789221427917215000,6.825215087890625,0.9253936409950256,1.1446337699890137,0.03475799784064293
1789221427927294700,6.835294677734375,0.9868333339691162,1.0793229341506958,0.02897190861403942
1789221427937374500,6.84537451171875,1.0334012508392334,1.0788558721542358,0.09672538936138153
1789221427947454700,6.855454833984375,1.0470809936523438,0.9755182266235352,0.19478556513786316
1789221427957534700,6.86553466796875,0.9707291722297668,0.9927698969841003,0.16246172785758972
1789221427967614700,6.87561474609375,0.8496136665344238,1.0539536476135254,0.14700941741466522
1789221427977693700,6.885693603515625,0.735724925994873,0.9331636428833008,0.10359641909599304
1789221427987773700,6.895773681640625,0.6840969920158386,0.9658652544021606,0.09620287269353867
1789221427997853700,6.905853759765625,0.6753072142601013,0.9128845930099487,0.17014659941196442
1789221428007933700,6.91593359375,0.6370742321014404,0.8726606369018555,0.18248513340950012
1789221428018013700,6.926013671875,0.6040454506874084,0.7566086053848267,0.15449051558971405
1789221428028093700,6.93609375,0.5784025192260742,0.6922237873077393,0.17825502157211304
1789221428038173700,6.946173583984375,0.6554291248321533,0.6814526319503784,0.11482811719179153
1789221428048253000,6.9562529296875,0.717716634273529,0.5354058742523193,0.16433414816856384
1789221428058332700,6.966332763671875,0.7772766351699829,0.5381899476051331,0.22484809160232544
1789221428068412700,6.97641259765625,0.753350019454956,0.5353896617889404,0.28033533692359924
1789221428078492700,6.98649267578125,0.6960054636001587,0.7280941009521484,0.27274850010871887
1789221428088572700,6.99657275390625,0.6709759831428528,0.477037250995636,0.43352800607681274
1789221428098652700,7.006652587890625,0.7269335389137268,0.23234601318836212,0.29581010341644287
1789221428108731600,7.016731689453125,0.6382465362548828,0.2793453633785248,0.0840417742729187
1789221428118811600,7.026811767578125,0.4493275284767151,0.2435564547777176,0.07444267719984055
1789221428128891600,7.0368916015625,0.23235324025154114,0.12991924583911896,0.0016219638055190444
1789221428138972000,7.046971923828125,-0.07261065393686295,-0.12764306366443634,0.07327298074960709
1789221428149051600,7.0570517578125,-0.3621002435684204,-0.2188960164785385,0.09012352675199509
1789221428159131600,7.067131591796875,-0.587093710899353,-0.3907136023044586,0.15696780383586884
1789221428169211600,7.077211669921875,-0.771947979927063,-0.17773842811584473,0.2602381408214569
1789221428179291600,7.087291748046875,-0.8777942657470703,-0.33086276054382324,0.08677714318037033
1789221428189370600,7.09737060546875,-0.8831316232681274,-0.37279391288757324,-0.001850942149758339
1789221428199450600,7.10745068359375,-0.7583937048912048,-0.5774437189102173,0.018253261223435402
1789221428209530600,7.117530517578125,-0.6791192293167114,-0.586148738861084,0.143721342086792
1789221428219610600,7.127610595703125,-0.7847529649734497,-0.4897588789463043,0.24171875417232513
1789221428229691000,7.13769091796875,-0.9341068863868713,-0.5599488019943237,0.30151066184043884
1789221428239770600,7.1477705078125,-1.0755442380905151,-0.7132821679115295,0.46704769134521484
1789221428249849900,7.157849853515625,-1.0936386585235596,-0.6577814221382141,0.5445399880409241
1789221428259929600,7.1679296875,-0.8400553464889526,-0.6522740125656128,0.24112474918365479
1789221428270009900,7.178009765625,-0.6286371350288391,-0.6007840037345886,-0.1474038064479828
1789221428280089600,7.188089599609375,-0.5517783164978027,-0.46251747012138367,-0.4449063539505005
1789221428290169600,7.198169677734375,-0.6618093252182007,-0.3197619915008545,-0.591174304485321
1789221428300249900,7.208249755859375,-0.8470396399497986,-0.2645789086818695,-0.46195846796035767
1789221428310329600,7.21832958984375,-0.9233924746513367,-0.5176125168800354,-0.09196878969669342
1789221428320408800,7.228408935546875,-0.9177047610282898,-0.5114067792892456,-0.026525065302848816
1789221428330488600,7.238488525390625,-0.8666186928749084,-0.5639565587043762,0.040338918566703796
1789221428340568800,7.24856884765625,-0.9012094140052795,-0.6676738858222961,0.1395547091960907
1789221428350648600,7.258648681640625,-0.9715518951416016,-0.7300578355789185,0.2377374768257141
1789221428360728800,7.268728759765625,-1.0091581344604492,-0.6433506011962891,0.08453701436519623
1789221428370808600,7.27880859375,-1.012528896331787,-0.4720669984817505,-0.2593138813972473
1789221428380888600,7.288888671875,-0.9160752892494202,-0.8350231051445007,-0.09371665865182877
1789221428390967600,7.298967529296875,-0.725848376750946,-0.17685024440288544,-0.004208538215607405
1789221428401047800,7.3090478515625,-0.6177179217338562,-0.5975356698036194,0.09603603929281235
1789221428411127800,7.3191279296875,-0.61695396900177,-0.4660526514053345,0.02771146595478058
1789221428421207600,7.32920751953125,-0.7023471593856812,-0.5127722024917603,0.11184605211019516
1789221428431287800,7.339287841796875,-0.7478228807449341,-0.358095645904541,-0.035034287720918655
1789221428441367600,7.349367431640625,-0.6697664260864258,-0.24860058724880219,-0.1852930337190628
1789221428451447800,7.35944775390625,-0.47857466340065,-0.2712574899196625,0.012617889791727066
1789221428461526500,7.369526611328125,-0.422234445810318,-0.43113502860069275,0.09604381024837494
1789221428471606800,7.379606689453125,-0.4619303047657013,-0.3557506501674652,0.00441645598039031
1789221428481686500,7.3896865234375,-0.5332173109054565,-0.2507352828979492,-0.008952878415584564
1789221428491766800,7.399766845703125,-0.4911462664604187,-0.3039029836654663,-0.06580960750579834
1789221428501846800,7.4098466796875,-0.3669265806674957,-0.4164787828922272,-0.009382818825542927
1789221428511926500,7.419926513671875,-0.36257895827293396,-0.16118043661117554,0.003215796547010541
1789221428522006800,7.4300068359375,-0.43347471952438354,-0.29309746623039246,0.011194095015525818
1789221428532085800,7.440085693359375,-0.46245309710502625,-0.16847550868988037,0.046171389520168304
1789221428542165800,7.450165771484375,-0.41634976863861084,-0.3740214705467224,0.047496046870946884
1789221428552245500,7.46024560546875,-0.3847142159938812,-0.17870619893074036,0.06349141150712967
1789221428562325800,7.47032568359375,-0.4039113521575928,-0.2924428880214691,0.14614315330982208
1789221428572405800,7.48040576171875,-0.4299117922782898,-0.29262274503707886,0.21662718057632446
1789221428582485800,7.49048583984375,-0.4084954559803009,-0.23282067477703094,0.2782370150089264
1789221428592565800,7.500565673828125,-0.3962142765522003,-0.3965253531932831,0.30494922399520874
1789221428602644700,7.510644775390625,-0.3500635623931885,-0.23433032631874084,-0.23346629738807678
1789221428612724700,7.520724853515625,-0.3257787227630615,0.14239536225795746,-0.7877951264381409
1789221428622804700,7.5308046875,-0.2750164866447449,-0.9919256567955017,0.07992110401391983
1789221428632884700,7.540884765625,-0.28680604696273804,0.00443959329277277,0.11004023998975754
1789221428642964500,7.550964599609375,-0.38823333382606506,-0.44083136320114136,-0.03566955775022507
1789221428653044700,7.561044677734375,-0.48496267199516296,-0.25543951988220215,-0.15799283981323242
1789221428663123700,7.571123779296875,-0.5175520181655884,-0.7601258754730225,0.013388230465352535
1789221428673203700,7.58120361328125,-0.49928635358810425,-0.27165958285331726,0.15677520632743835
1789221428683283700,7.59128369140625,-0.5127357840538025,0.08328651636838913,0.2912302315235138
1789221428693363700,7.60136376953125,-0.4965406358242035,-0.4992600381374359,0.5676397681236267
1789221428703443700,7.611443603515625,-0.4709865152835846,-0.621758759021759,0.5335749983787537
1789221428713523700,7.621523681640625,-0.4452659785747528,-0.45640307664871216,0.2347499132156372
1789221428723603700,7.631603759765625,-0.4830988645553589,-0.3743867576122284,-0.28882887959480286
1789221428733682700,7.6416826171875,-0.5023022294044495,-0.1211329996585846,-0.5355419516563416
1789221428743762700,7.6517626953125,-0.532837986946106,-0.24643579125404358,-0.5357041358947754
1789221428753842700,7.6618427734375,-0.5359212756156921,-0.9875608682632446,-0.18987230956554413
1789221428763922700,7.671922607421875,-0.5869386792182922,-0.1347125768661499,-0.0986047089099884
1789221428774002700,7.682002685546875,-0.6642342805862427,-0.5792667269706726,0.18965764343738556
1789221428784082700,7.692082763671875,-0.6973692774772644,-0.5944257378578186,0.10744666308164597
1789221428794162700,7.70216259765625,-0.5958073139190674,-0.363301157951355,-0.2256051003932953
1789221428804241700,7.71224169921875,-0.47677144408226013,-0.5552413463592529,-0.31265076994895935
1789221428814321700,7.72232177734375,-0.45802584290504456,-0.30732452869415283,-0.053783997893333435
1789221428824401700,7.732401611328125,-0.5230879783630371,-0.5043571591377258,-0.009381381794810295
1789221428834481700,7.742481689453125,-0.5654687881469727,-0.713426411151886,0.010636923834681511
1789221428844562000,7.75256201171875,-0.5923475623130798,-0.41875967383384705,0.03507169336080551
1789221428854641700,7.7626416015625,-0.6616668701171875,-0.6362012624740601,0.1198587492108345
1789221428864721700,7.7727216796875,-0.6719328165054321,-0.5173835158348083,0.08519424498081207
1789221428874800600,7.782800537109375,-0.5748408436775208,-0.6307986974716187,0.13932758569717407
1789221428884881000,7.792880859375,-0.5045675039291382,-0.7658193707466125,0.19276976585388184
1789221428894960600,7.802960693359375,-0.5181145668029785,-0.7966525554656982,-0.04274044185876846
1789221428905040600,7.81304052734375,-0.5893610715866089,-0.4703860282897949,-0.5216338038444519
1789221428915120600,7.82312060546875,-0.5484441518783569,-1.5259711742401123,0.014609107747673988
1789221428925201000,7.833200927734375,-0.6188805103302002,-0.44391366839408875,-0.0035643032751977444
1789221428935281200,7.84328125,-0.5903452634811401,-0.7365161180496216,0.013170458376407623
1789221428945360000,7.85335986328125,-0.5734243392944336,-0.5821550488471985,0.045907098799943924
1789221428955440000,7.863440185546875,-0.610149085521698,-0.6463838815689087,0.09330828487873077
1789221428965520000,7.873519775390625,-0.6406659483909607,-0.6678681373596191,0.12406939268112183
1789221428975600000,7.88360009765625,-0.5888264179229736,-0.7340481281280518,0.21786564588546753
1789221428985680000,7.893679931640625,-0.4940866529941559,-0.8725942969322205,0.02935139648616314
1789221428995759900,7.903759765625,-0.4373794198036194,-0.6427043080329895,-0.4377546012401581
1789221429005840100,7.913840087890625,-0.48748308420181274,-1.5202112197875977,0.00965112168341875
1789221429015918800,7.9239189453125,-0.5854125618934631,-0.3554457426071167,0.1448032557964325
1789221429025999000,7.9339990234375,-0.6116926670074463,-0.7248948812484741,0.07314636558294296
1789221429036078800,7.944078857421875,-0.5112483501434326,-0.5587708950042725,0.005915134213864803
1789221429046159000,7.9541591796875,-0.48191896080970764,-0.6382920742034912,0.1343173235654831
1789221429056238800,7.96423876953125,-0.5422043800354004,-0.7967613339424133,0.29044458270072937
1789221429066319000,7.974319091796875,-0.566445529460907,-0.7012798190116882,0.07036363333463669
1789221429076397800,7.984397705078125,-0.49362194538116455,-0.6524676084518433,-0.0393403023481369
1789221429086478000,7.99447802734375,-0.3970421254634857,-0.6493346691131592,-0.2370445877313614
1789221429096557800,8.004557861328125,-0.3151797354221344,-1.2682207822799683,0.007933085784316063
1789221429106638000,8.01463818359375,-0.3670855462551117,-0.5287615656852722,0.11046452075242996
1789221429116718000,8.024718017578126,-0.3459493815898895,-0.5518509745597839,0.0964667946100235
1789221429126797800,8.0347978515625,-0.31389158964157104,-0.5034568309783936,0.13611647486686707
1789221429136878000,8.044878173828126,-0.32613080739974976,-0.5632171630859375,0.19872204959392548
1789221429146956800,8.054956787109376,-0.3681943714618683,-0.5974938869476318,0.11716248095035553
1789221429157037000,8.065037109375,-0.3621078431606293,-0.5222312211990356,0.0013036354212090373
1789221429167116800,8.07511669921875,-0.3043752908706665,-0.5758267641067505,-0.09635927528142929
1789221429177197000,8.085197021484374,-0.21191728115081787,-1.0155389308929443,0.04895535483956337
1789221429187277000,8.095277099609374,-0.1938466727733612,-0.3458695411682129,0.09812689572572708
1789221429197357000,8.105357177734374,-0.20721080899238586,-0.418405681848526,0.24945850670337677
1789221429207437000,8.11543701171875,-0.21025720238685608,-0.5821482539176941,0.06686047464609146
1789221429217516000,8.12551611328125,-0.17121578752994537,-0.4190772771835327,-0.30809199810028076
1789221429227596000,8.135595947265625,-0.25564491748809814,-0.10286523401737213,-0.025956708937883377
1789221429237676000,8.145676025390625,-0.2796618342399597,-0.8485239744186401,0.09833880513906479
1789221429247756000,8.155756103515625,-0.23678946495056152,-0.21287404000759125,0.07411522418260574
1789221429257835800,8.165835693359375,-0.18580113351345062,-0.02929101139307022,0.1755262017250061
1789221429267916000,8.175916015625,-0.1746579259634018,-0.387383371591568,0.32779696583747864
1789221429277996000,8.18599609375,-0.2793353497982025,-0.3959448039531708,0.2656911015510559
1789221429288075000,8.196074951171875,-0.31793466210365295,-0.18476435542106628,0.18914121389389038
1789221429298155000,8.206155029296875,-0.25599685311317444,-0.2573700249195099,0.25856226682662964
1789221429308235000,8.216235107421875,-0.08389672636985779,-0.28263330459594727,-0.017784113064408302
1789221429318315000,8.22631494140625,0.11164507269859314,-0.09563063085079193,-0.030391443520784378
1789221429328395000,8.23639501953125,0.26007556915283203,-0.19174331426620483,-0.2265377938747406
1789221429338475000,8.24647509765625,0.34234288334846497,-0.4345806837081909,-0.35037678480148315
1789221429348554800,8.2565546875,0.22466790676116943,-0.43077608942985535,0.10322106629610062
1789221429358634000,8.266634033203125,0.18236969411373138,0.29763761162757874,0.1711164265871048
1789221429368713700,8.276713623046875,0.14860135316848755,0.3002086281776428,0.26015573740005493
1789221429378794000,8.2867939453125,0.15091098845005035,0.0634293407201767,0.3727259933948517
1789221429388874000,8.2968740234375,0.1906813085079193,0.02475331723690033,0.4694482982158661
1789221429398954000,8.3069541015625,0.20135991275310516,-0.02084975503385067,0.3823981285095215
1789221429409034000,8.317033935546876,0.24910053610801697,0.09966148436069489,-0.14913365244865417
1789221429419114000,8.327114013671874,0.3263610899448395,0.35004767775535583,-0.5406064987182617
1789221429429193000,8.33719287109375,0.39909628033638,0.1294175684452057,-0.5436302423477173
1789221429439273000,8.34727294921875,0.4383556842803955,0.568067193031311,-0.054752543568611145
1789221429449353000,8.35735302734375,0.35249003767967224,0.44032976031303406,0.13210655748844147
1789221429459433000,8.367432861328124,0.38389721512794495,-0.06816492229700089,-0.001359434681944549
1789221429469513000,8.377512939453124,0.37189194560050964,0.26998409628868103,0.055537670850753784
1789221429479593000,8.387593017578125,0.2723599076271057,0.10294684022665024,0.13609623908996582
1789221429489673000,8.3976728515625,0.28090599179267883,0.08591725677251816,0.21770481765270233
1789221429499752000,8.407751953125,0.37302276492118835,0.2875141501426697,0.1894369125366211
1789221429509832000,8.41783203125,0.47078099846839905,0.2335454523563385,0.239485964179039
1789221429519912000,8.427911865234375,0.5483053922653198,0.10668028146028519,0.2631406784057617
1789221429529992000,8.437991943359375,0.5332923531532288,0.14930205047130585,0.21048413217067719
1789221429540072000,8.448072021484375,0.44570279121398926,0.17282837629318237,0.1444740742444992
1789221429550152000,8.45815185546875,0.3782300055027008,0.21339711546897888,0.14761340618133545
1789221429560232000,8.46823193359375,0.3413866460323334,0.24231566488742828,0.18138016760349274
1789221429570311200,8.478311279296875,0.3720625340938568,0.15820558369159698,-0.15576164424419403
1789221429580391000,8.488390869140625,0.47463884949684143,0.34765928983688354,-0.7278351187705994
1789221429590471000,8.498470947265625,0.5177828669548035,-0.7597352862358093,0.01165816094726324
1789221429600551000,8.508551025390625,0.4374600648880005,0.42022910714149475,0.0500662699341774
1789221429610631000,8.518630859375,0.39309659600257874,0.8269121646881104,0.07575006037950516
1789221429620711000,8.5287109375,0.3443390429019928,0.5595285892486572,0.24594560265541077
1789221429630790000,8.538789794921875,0.3273478150367737,0.31696733832359314,0.35611072182655334
1789221429640870000,8.548869873046876,0.40899738669395447,0.3327351212501526,0.2109707146883011
1789221429650950000,8.558949951171876,0.45078906416893005,0.2512304186820984,-0.05921495333313942
1789221429661030100,8.569030029296876,0.5192739367485046,0.3842598795890808,-0.42586976289749146
1789221429671110000,8.57910986328125,0.5077195763587952,-0.7883362770080566,-0.016381079331040382
1789221429681190000,8.58918994140625,0.3687768578529358,0.4215790927410126,0.0961395651102066
1789221429691270000,8.599269775390624,0.2760589122772217,0.7608575224876404,0.05784836784005165
1789221429701349000,8.60934912109375,0.24684737622737885,0.3679349422454834,0.22290940582752228
1789221429711428900,8.619428955078124,0.243138387799263,0.3513389229774475,0.20475304126739502
1789221429721508900,8.6295087890625,0.3206390142440796,0.3625730872154236,-0.039970673620700836
1789221429731589000,8.639589111328124,0.43829694390296936,0.3667590320110321,-0.06361927837133408
1789221429741668900,8.6496689453125,0.5447450876235962,0.25686511397361755,-0.288485050201416
1789221429751749000,8.6597490234375,0.641890287399292,-0.343334436416626,-0.335076242685318
1789221429761828900,8.669828857421875,0.5326052308082581,0.1115034744143486,0.002873116871342063
1789221429771908000,8.679908203125,0.37519481778144836,0.42759647965431213,0.10542692244052887
1789221429781987800,8.68998779296875,0.28819695115089417,0.7155098915100098,0.1900879293680191
1789221429792068000,8.700068115234375,0.24391523003578186,0.6043956279754639,0.4865744411945343
1789221429802147800,8.71014794921875,0.2980310618877411,0.30293625593185425,0.7296265363693237
1789221429812227800,8.720227783203125,0.5065928101539612,0.04821370542049408,0.5342490673065186
1789221429822308000,8.73030810546875,0.6198393106460571,0.010083195753395557,-0.01670936681330204
1789221429832387800,8.740387939453125,0.6885299682617188,0.28267475962638855,-0.739368200302124
1789221429842467000,8.750467041015625,0.6191399693489075,0.6841654777526855,-1.649512529373169
1789221429852546800,8.760546875,0.44347864389419556,-0.538180410861969,-0.015578247606754303
1789221429862627000,8.770626953125,0.2765434980392456,1.2973171472549438,0.06843608617782593
1789221429872706800,8.780706787109375,0.23903711140155792,0.4798857271671295,0.440746545791626
1789221429882787000,8.790787109375,0.2683236300945282,0.21504248678684235,0.38052064180374146
1789221429892866800,8.80086669921875,0.4192521572113037,0.21363447606563568,-0.11850755661725998
1789221429902947000,8.810947021484376,0.5124099850654602,0.327490895986557,-0.40476229786872864
1789221429913025800,8.82102587890625,0.44385430216789246,0.4545905292034149,-0.5593510866165161
1789221429923106000,8.83110595703125,0.32527145743370056,0.5117523074150085,-0.08901765942573547
1789221429933186000,8.84118603515625,0.22314296662807465,0.5499899983406067,0.1826583296060562
1789221429943266000,8.85126611328125,0.20672884583473206,0.08583057671785355,0.3629800081253052
1789221429953346000,8.861345947265624,0.19111579656600952,0.1318281590938568,0.5148712992668152
1789221429963426000,8.871426025390624,0.20685161650180817,0.10657022148370743,0.24059559404850006
1789221429973506000,8.881506103515624,0.19391557574272156,0.35219621658325195,-0.3405522108078003
1789221429983585000,8.8915849609375,0.22896797955036163,0.35823729634284973,-0.6504992246627808
1789221429993665000,8.9016650390625,0.27815282344818115,0.4172995388507843,-0.9439302682876587
1789221430003745000,8.9117451171875,0.3497295677661896,0.1341782808303833,-0.24093851447105408
1789221430013825000,8.921824951171875,0.2769179344177246,0.9326587319374084,0.17983639240264893
1789221430023905000,8.931905029296875,0.1679384410381317,0.1507119983434677,0.4327166676521301
1789221430033985000,8.941985107421875,0.0757608488202095,-0.26864317059516907,0.47094500064849854
1789221430044065000,8.95206494140625,0.00033479853300377727,0.08629445731639862,0.06332561373710632
1789221430054144300,8.962144287109375,0.004784141667187214,0.2706206440925598,-0.3821195065975189
1789221430064224000,8.97222412109375,0.07567428797483444,0.306769460439682,-0.7221019864082336
1789221430074304000,8.982303955078125,0.17292973399162292,-0.8895981907844543,0.05105868726968765
1789221430084384000,8.992384033203125,0.10227367281913757,0.4505569636821747,0.14874938130378723
1789221430094464000,9.002464111328125,0.009740544483065605,0.1031247228384018,0.29306766390800476
1789221430104544300,9.012544189453125,-0.07287895679473877,0.03998877480626106,0.5828762650489807
1789221430114624000,9.0226240234375,-0.02642836980521679,-0.0778273493051529,0.5650296211242676
1789221430124703000,9.032702880859375,0.02306460589170456,-0.04216080531477928,0.06269638985395432
1789221430134783000,9.042782958984375,0.11516790091991425,0.18501029908657074,-0.49495038390159607
1789221430144863200,9.05286328125,0.1583942025899887,0.4160270094871521,-0.8948156833648682
1789221430154943000,9.06294287109375,0.12144124507904053,-1.2834380865097046,0.05549394711852074
1789221430165023000,9.07302294921875,0.16977055370807648,0.7242467403411865,-0.03857935592532158
1789221430175103000,9.08310302734375,0.05023031309247017,0.18455177545547485,0.4593776762485504
1789221430185183000,9.093182861328126,-0.024086790159344673,-0.24992741644382477,0.5236846804618835
1789221430195262000,9.103261962890626,-0.052631083875894547,-0.08694195747375488,0.1680954396724701
1789221430205342000,9.113342041015626,-0.029720311984419823,0.021794475615024567,-0.12988397479057312
1789221430215422200,9.123422119140624,0.03220697492361069,0.16672183573246002,-0.5327137112617493
1789221430225502000,9.133501953125,0.028269357979297638,-0.790023684501648,0.08264471590518951
1789221430235582200,9.143582275390624,0.05131928250193596,0.5775753259658813,0.10470607876777649
1789221430245662000,9.153661865234374,-0.03994405269622803,-0.1464972347021103,0.5363441705703735
1789221430255741200,9.1637412109375,-0.05391393229365349,-0.48006001114845276,0.6986015439033508
1789221430265821000,9.173821044921874,-0.08873902261257172,-0.28063344955444336,0.3242003321647644
1789221430275901200,9.183901123046875,-0.14821192622184753,0.12110520154237747,-0.40774714946746826
1789221430285981000,9.19398095703125,-0.1259552240371704,0.31095683574676514,-0.9987328052520752
1789221430296061000,9.20406103515625,0.024385537952184677,-1.579005241394043,0.09693162143230438
1789221430306141200,9.21414111328125,0.03238033875823021,0.386501282453537,0.11497759819030762
1789221430316221000,9.224220947265625,-0.00410523172467947,0.16059303283691406,0.18880601227283478
1789221430326300200,9.234300048828125,-0.09750055521726608,-0.11041988432407379,0.25550025701522827
1789221430336380000,9.2443798828125,-0.11815763264894485,-0.21130786836147308,0.26304471492767334
1789221430346460200,9.254460205078125,-0.0758381336927414,-0.042331334203481674,-0.11551995575428009
1789221430356540000,9.264539794921875,-0.027664214372634888,0.12234017252922058,-0.24272798001766205
1789221430366620200,9.2746201171875,-0.050164200365543365,-0.1836639940738678,0.03873943164944649
1789221430376700200,9.2847001953125,-0.11145072430372238,-0.04883081838488579,0.24086803197860718
1789221430386780000,9.29477978515625,-0.14891819655895233,-0.1411183476448059,0.48495715856552124
1789221430396859000,9.30485888671875,-0.17030924558639526,-0.2647700011730194,0.5928040146827698
1789221430406939100,9.314939208984375,-0.09629534184932709,-0.09368838369846344,0.027984248474240303
1789221430417019100,9.32501904296875,-0.10562919080257416,0.18820720911026,-0.6759161353111267
1789221430427099000,9.335098876953126,-0.06881298124790192,0.3038100600242615,-1.2096877098083496
1789221430437179100,9.34517919921875,0.15233324468135834,0.4513513147830963,-0.3313034176826477
1789221430447259000,9.3552587890625,0.2008630931377411,0.9208617210388184,0.1747879981994629
1789221430457339100,9.365339111328124,0.13678717613220215,0.2810990512371063,0.41794392466545105
1789221430467417900,9.37541796875,0.1252201348543167,-0.349172443151474,0.4203282296657562
1789221430477498000,9.385498046875,0.08333767205476761,0.10725686699151993,0.0919375866651535
1789221430487578000,9.395578125,0.11097768694162369,0.2039208710193634,-0.14519155025482178
1789221430497658000,9.405658203125,0.16862793266773224,0.2185690551996231,-0.1871105134487152
1789221430507738000,9.415738037109374,0.17234623432159424,0.3015851378440857,-0.17575764656066895
1789221430517817900,9.42581787109375,0.15779125690460205,0.19266024231910706,0.1715680956840515
1789221430527898000,9.435898193359375,0.10365387052297592,0.013735723681747913,0.5557622909545898
1789221430537977000,9.44597705078125,0.0830303505063057,-0.07004866003990173,0.4831605553627014
1789221430548057000,9.45605712890625,0.04689057543873787,0.23219139873981476,-0.21063199639320374
1789221430558136800,9.46613671875,0.11133161932229996,0.46241554617881775,-0.9130071997642517
1789221430568217000,9.476217041015625,0.2871381938457489,-1.1594765186309814,0.16300685703754425
1789221430578297000,9.486297119140625,0.4233325123786926,0.4729889929294586,0.21304047107696533
1789221430588377000,9.496377197265625,0.4478779435157776,0.36271634697914124,0.23227614164352417
1789221430598457000,9.50645703125,0.27859997749328613,-0.11175563186407089,0.3711562752723694
1789221430608536000,9.5165361328125,0.09072301536798477,-0.13155484199523926,0.3527512550354004
1789221430618616000,9.526615966796875,-0.03136294707655907,0.292294442653656,-0.1306321769952774
1789221430628696000,9.536696044921875,-0.05386573076248169,0.39063382148742676,-0.30895107984542847
1789221430638776000,9.546776123046875,-0.0016240976983681321,0.20951063930988312,-0.10881718248128891
1789221430648855800,9.556855712890625,0.05127560347318649,0.2068384438753128,0.16750749945640564
1789221430658936000,9.56693603515625,0.13710421323776245,0.19976988434791565,-0.0760180726647377
1789221430669016000,9.57701611328125,0.1753312349319458,0.3218654990196228,-0.2715064585208893
1789221430679095000,9.587094970703125,0.20730674266815186,-0.03430803865194321,-0.28067997097969055
1789221430689175000,9.597175048828126,0.19349919259548187,0.04174794256687164,0.06278481334447861
1789221430699255000,9.607255126953126,0.11830005049705505,0.6214898824691772,0.07691820710897446
1789221430709335000,9.6173349609375,0.040317099541425705,0.42843520641326904,0.10773763805627823
1789221430719415000,9.6274150390625,-0.04352959990501404,0.34905409812927246,0.2938808798789978
1789221430729495000,9.6374951171875,-0.10317002981901169,0.11581414192914963,0.40602371096611023
1789221430739575000,9.647574951171874,-0.17022603750228882,0.17993266880512238,0.13658130168914795
1789221430749654000,9.657654052734374,-0.13351768255233765,0.3993532955646515,-0.19486109912395477
1789221430759734300,9.667734375,-0.05965970456600189,0.4085681140422821,-0.46131572127342224
1789221430769814000,9.67781396484375,0.01031019538640976,-0.3287952244281769,0.11104954034090042
1789221430779894000,9.68789404296875,-0.03030460886657238,0.37544283270835876,0.12829937040805817
1789221430789974000,9.69797412109375,-0.1846499741077423,0.05549624562263489,0.12819524109363556
1789221430800054000,9.708053955078125,-0.3171134889125824,0.0471578873693943,-0.07173305749893188
1789221430810134000,9.718134033203125,-0.2771347463130951,-0.5876541137695312,0.07268419861793518
1789221430820213000,9.728212890625,-0.2832200825214386,0.19934698939323425,0.13733670115470886
1789221430830293000,9.73829296875,-0.32596543431282043,0.016036078333854675,0.16250059008598328
1789221430840373000,9.748373046875,-0.3274781107902527,-0.12786489725112915,0.10043935477733612
1789221430850453200,9.758453369140625,-0.2996511459350586,-0.13289125263690948,0.20352454483509064
1789221430860533000,9.768532958984375,-0.27491143345832825,-0.30915868282318115,0.09305289387702942
1789221430870613000,9.778613037109375,-0.2921089231967926,-0.10177236050367355,-0.3521302342414856
1789221430880693000,9.78869287109375,-0.2999327480792999,-0.7229088544845581,-0.3084362745285034
1789221430890772200,9.798772216796875,-0.3393487334251404,-0.2724834382534027,0.010904981754720211
1789221430900852000,9.80885205078125,-0.3822067081928253,0.21333783864974976,0.10339150577783585
1789221430910932000,9.818931884765625,-0.4045330584049225,-0.35480019450187683,0.12672579288482666
1789221430921012500,9.829012451171875,-0.415893018245697,-0.3231264054775238,0.06979245692491531
1789221430931092500,9.839092529296876,-0.4077777564525604,-0.3196282982826233,-0.099973164498806
1789221430941172500,9.84917236328125,-0.3725164234638214,-0.16757194697856903,-0.33780568838119507
1789221430951252500,9.85925244140625,-0.2935633957386017,-0.33537665009498596,0.0070564476773142815
1789221430961331500,9.86933154296875,-0.3291807770729065,-0.46013352274894714,0.01657724753022194
1789221430971411500,9.879411376953126,-0.3611333966255188,-0.339082807302475,0.009683623909950256
1789221430981491200,9.8894912109375,-0.4196092188358307,-0.45603257417678833,0.21216854453086853
1789221430991571500,9.899571533203124,-0.43344351649284363,-0.4977753162384033,0.07173836976289749
1789221431001651500,9.9096513671875,-0.3959645926952362,-0.31942635774612427,-0.27124160528182983
1789221431011731500,9.9197314453125,-0.33076828718185425,-0.4034145772457123,-0.3692641854286194
1789221431021811500,9.9298115234375,-0.27679747343063354,-0.4752882122993469,-0.16745305061340332
1789221431031890400,9.939890380859374,-0.315169095993042,-0.10103747993707657,0.049204062670469284
1789221431041970400,9.949970458984374,-0.3485478460788727,-0.4318915605545044,-0.007796640507876873
1789221431052050400,9.960050537109375,-0.30818015336990356,-0.31470710039138794,-0.029235588386654854
1789221431062130400,9.97013037109375,-0.2555510401725769,-0.43684712052345276,-0.16623419523239136
1789221431072210400,9.98021044921875,-0.18600419163703918,-0.5936495065689087,-0.05925633758306503
1789221431082290400,9.99029052734375,-0.24233829975128174,0.10694293677806854,0.08933446556329727
1789221431092370400,10.000370361328125,-0.284201979637146,-0.2595049738883972,0.10966333001852036
1789221431102449400,10.010449462890625,-0.2704438269138336,-0.03689028322696686,0.19554947316646576
1789221431112529400,10.020529296875,-0.3350723683834076,-0.180170476436615,0.36902084946632385
1789221431122609400,10.030609375,-0.2520746886730194,-0.060892023146152496,-0.08468963950872421
1789221431132689400,10.040689453125,-0.13036023080348969,0.08804026246070862,-0.2519473135471344
1789221431142769400,10.050769287109375,0.026564935222268105,-0.007261761464178562,-0.43325239419937134
1789221431152849400,10.060849365234375,0.10732315480709076,-0.1850302815437317,-0.0814661756157875
1789221431162929400,10.070929443359375,0.03647641837596893,0.5168362259864807,0.186533585190773
1789221431173008400,10.08100830078125,0.02002633921802044,-0.02900649979710579,0.19388355314731598
1789221431183088400,10.09108837890625,0.12959997355937958,0.06402410566806793,0.03622308373451233
1789221431193168400,10.10116845703125,0.21673408150672913,0.10264284163713455,-0.26993298530578613
1789221431203248400,10.111248291015626,0.21248634159564972,-0.3310004770755768,0.03753960132598877
1789221431213328400,10.121328369140626,0.11795250326395035,0.3668312430381775,0.17727205157279968
1789221431223408400,10.131408447265626,0.0636671632528305,0.10454156249761581,0.12092994153499603
1789221431233488400,10.14148828125,0.1098272055387497,0.24804869294166565,0.21781562268733978
1789221431243567400,10.1515673828125,0.21128962934017181,0.05038541555404663,0.31493446230888367
1789221431253647400,10.1616474609375,0.28628358244895935,-0.027521561831235886,0.07137312740087509
1789221431263727400,10.171727294921874,0.26330238580703735,0.07479016482830048,-0.22995130717754364
1789221431273807600,10.1818076171875,0.1333065629005432,0.15200191736221313,-0.578281044960022
1789221431283887400,10.191887451171874,0.05365540459752083,0.669499397277832,-0.05473417788743973
1789221431293967400,10.20196728515625,-0.05192921310663223,0.27429136633872986,0.20244626700878143
1789221431304047400,10.21204736328125,0.04045690968632698,0.12775494158267975,0.09004808962345123
1789221431314126600,10.222126708984375,0.23748596012592316,0.12059523910284042,0.07089318335056305
1789221431324206300,10.232206298828125,0.3404568135738373,0.19010375440120697,-0.3151157796382904
1789221431334286300,10.242286376953125,0.288962721824646,-0.24404850602149963,0.009327213279902935
1789221431344366300,10.252366455078125,0.19018182158470154,0.4600369334220886,0.10802049934864044
1789221431354446300,10.2624462890625,0.16795015335083008,0.3349132239818573,0.17428170144557953
1789221431364526600,10.272526611328125,0.20536305010318756,0.24726992845535278,0.4200456738471985
1789221431374606300,10.2826064453125,0.2818020284175873,0.028442904353141785,0.1139293760061264
1789221431384685600,10.292685546875,0.2734133303165436,0.3343200087547302,-0.32322001457214355
1789221431394765300,10.302765380859375,0.1792275756597519,0.2028936743736267,-0.42162880301475525
1789221431404845600,10.312845458984375,0.1640624701976776,0.12511073052883148,-0.09286850690841675
1789221431414925300,10.32292529296875,0.10127831995487213,0.5575799345970154,0.19359110295772552
1789221431425005300,10.33300537109375,0.10355185717344284,0.08071807771921158,0.164824441075325
1789221431435085600,10.34308544921875,0.19959090650081635,0.18453696370124817,0.07305110991001129
1789221431445165300,10.353165283203126,0.22537270188331604,0.13103485107421875,-0.25845465064048767
1789221431455244300,10.363244384765625,0.1519802361726761,-0.6012014746665955,0.04139631241559982
1789221431465324300,10.37332421875,0.09748877584934235,0.3312290608882904,0.1184799075126648
1789221431475404500,10.383404541015626,0.053060322999954224,0.0836876928806305,0.057041849941015244
1789221431485484300,10.393484375,0.02957150898873806,0.04651742801070213,0.1713939905166626
1789221431495564500,10.403564453125,0.03717842698097229,-0.012567970901727676,0.18515372276306152
1789221431505644300,10.413644287109374,0.023232782259583473,0.019870661199092865,-0.08433021605014801
1789221431515724500,10.423724609375,0.017109377309679985,0.02399996481835842,-0.24305877089500427
1789221431525803300,10.43380322265625,0.04964548349380493,-0.6000452637672424,-0.05024324730038643
1789221431535883500,10.443883544921874,-0.00004883381916442886,0.3588922321796417,0.05760640278458595
1789221431545963500,10.453963623046874,-0.06544222682714462,-0.06280281394720078,0.1471586525440216
1789221431556043300,10.464043212890624,-0.08738094568252563,0.04461190477013588,-0.016862349584698677
1789221431566123500,10.47412353515625,-0.041105058044195175,-0.09124846011400223,-0.03801264241337776
1789221431576203300,10.484203369140625,-0.0010753510287031531,0.060738928616046906,-0.256333589553833
1789221431586283500,10.494283447265625,0.02306513860821724,-0.04718860238790512,-0.06848380714654922
1789221431596362200,10.5043623046875,-0.03208932653069496,0.04297982528805733,0.03637602552771568
1789221431606442500,10.5144423828125,-0.06859247386455536,0.002591654658317566,0.15297959744930267
1789221431616522200,10.524522216796875,-0.09756486862897873,-0.18417657911777496,0.18272429704666138
1789221431626602500,10.5346025390625,-0.07181955873966217,0.03258955478668213,-0.26320362091064453
1789221431636682500,10.5446826171875,-0.02752906270325184,-0.18821094930171967,-0.22879190742969513
1789221431646762500,10.554762451171875,0.018289025872945786,-0.32340604066848755,0.04916806519031525
1789221431656842500,10.564842529296875,-0.03700099140405655,0.22889560461044312,0.03345784917473793
1789221431666921500,10.57492138671875,-0.10368787497282028,-0.15580199658870697,0.11143547296524048
1789221431677001500,10.58500146484375,-0.12889163196086884,-0.0648447573184967,-0.026995113119482994
1789221431687081200,10.595081298828125,-0.09235652536153793,-0.22175288200378418,-0.0759916827082634
1789221431697161500,10.605161376953125,-0.07583080977201462,-0.5084611177444458,-0.15657855570316315
1789221431707241500,10.615241455078126,-0.1184011697769165,0.020546812564134598,0.025019468739628792
1789221431717321500,10.625321533203126,-0.17423275113105774,-0.11926355212926865,0.054109711199998856
1789221431727401500,10.6354013671875,-0.1479199230670929,-0.12074267119169235,0.04096833989024162
1789221431737480400,10.64548046875,-0.11366035789251328,-0.18439005315303802,0.19999904930591583
1789221431747560400,10.655560546875,-0.09744197130203247,-0.3144353926181793,0.11812575906515121
1789221431757640400,10.665640380859376,-0.09138394147157669,-0.07654199004173279,-0.30240723490715027
1789221431767720400,10.675720458984374,-0.07266031950712204,-0.14216147363185883,-0.48218977451324463
1789221431777800400,10.685800537109374,-0.03778329864144325,-0.570898175239563,-0.006633222568780184
1789221431787880400,10.69588037109375,-0.12344840168952942,0.290251225233078,0.09983223676681519
1789221431797960400,10.70596044921875,-0.17197372019290924,-0.20459407567977905,0.15690673887729645
1789221431808039400,10.716039306640624,-0.15211452543735504,-0.2198885977268219,0.17486336827278137
1789221431818119400,10.726119384765624,-0.09285986423492432,-0.21579810976982117,0.017554745078086853
1789221431828199400,10.736199462890625,-0.04985673725605011,-0.0883283019065857,-0.21417167782783508
1789221431838279400,10.746279541015625,-0.03247015178203583,-0.09018963575363159,-0.1852986216545105
1789221431848359400,10.756359375,0.008967301808297634,-0.4491078555583954,-0.0032646397594362497
1789221431858439400,10.766439453125,-0.0026845657266676426,0.0517335906624794,0.06231898441910744
1789221431868519400,10.77651953125,-0.0427161380648613,-0.17526119947433472,0.12262413650751114
1789221431878598400,10.786598388671875,-0.029104724526405334,-0.008713312447071075,-0.217812642455101
1789221431888678400,10.796678466796875,0.04482835531234741,-0.21104644238948822,-0.01230502687394619
1789221431898758400,10.80675830078125,0.059993330389261246,-0.3008176386356354,0.005885040387511253
1789221431908838400,10.81683837890625,0.030510006472468376,0.12482418119907379,0.04556667432188988
1789221431918918400,10.82691845703125,-0.032901592552661896,-0.05397052317857742,0.1897040754556656
1789221431928998100,10.836998046875,-0.0021647191606462,-0.05076141655445099,0.059584151953458786
1789221431939078100,10.847078125,0.07402046769857407,-0.04540267214179039,-0.040620408952236176
1789221431949157000,10.8571572265625,0.12079835683107376,-0.008006563410162926,-0.4059155583381653
1789221431959237000,10.867237060546875,0.18198753893375397,-0.3865242302417755,-0.12740349769592285
1789221431969317000,10.877317138671875,0.08306656032800674,0.6038806438446045,0.07315143197774887
1789221431979397000,10.887397216796876,0.01884469948709011,0.08808927237987518,0.14799697697162628
1789221431989477000,10.89747705078125,0.005816780962049961,0.054709479212760925,0.3917856514453888
1789221431999557400,10.907557373046876,0.034395959228277206,-0.12521742284297943,0.44437238574028015
1789221432009637000,10.91763720703125,0.05059223994612694,-0.010723870247602463,-0.09927307814359665
1789221432019716400,10.92771630859375,0.07177875190973282,0.1514226496219635,-0.39015787839889526
1789221432029796000,10.937796142578126,0.08494462072849274,0.17007464170455933,-0.6511217951774597
1789221432039876000,10.9478759765625,0.14283056557178497,0.11509344726800919,0.013297942467033863
1789221432049956000,10.9579560546875,0.055988337844610214,0.44467055797576904,0.1775694489479065
1789221432060036000,10.9680361328125,0.10177606344223022,-0.16408468782901764,0.15639902651309967
1789221432070116400,10.978116455078125,0.17687001824378967,0.00643271766602993,0.059194713830947876
1789221432080196000,10.988196044921875,0.22174201905727386,0.018582183867692947,-0.4569733440876007
1789221432090275300,10.998275390625,0.1554412841796875,-0.39310523867607117,-0.07753920555114746
1789221432100355000,11.00835498046875,0.03559837490320206,0.4475269913673401,0.05903831124305725
1789221432110435300,11.018435302734375,-0.06999596208333969,0.2704651355743408,0.17477449774742126
1789221432120515000,11.02851513671875,-0.10837011784315109,0.0006239279173314571,0.29173189401626587
1789221432130595300,11.03859521484375,-0.07994113862514496,0.048397310078144073,0.19552893936634064
1789221432140675000,11.048675048828125,0.04898222163319588,0.015373298898339272,-0.0230301134288311
1789221432150755000,11.058755126953125,0.19439668953418732,0.09041985124349594,-0.3131016194820404
1789221432160834000,11.068833984375,0.21653541922569275,0.17569953203201294,-0.2805837392807007
1789221432170914000,11.0789140625,0.13313479721546173,0.047687508165836334,0.015520883724093437
1789221432180994300,11.088994384765625,0.05873484909534454,0.04736915975809097,-0.023105060681700706
1789221432191074000,11.099073974609375,0.07588987052440643,-0.004906294401735067,-0.1665375828742981
1789221432201154300,11.109154296875,0.068317711353302,-0.503710925579071,0.09128880500793457
1789221432211234000,11.119234130859375,0.12240225076675415,-0.48398280143737793,0.14132055640220642
1789221432221314300,11.129314208984376,0.020178407430648804,0.6211683750152588,0.13045865297317505
1789221432231393000,11.13939306640625,-0.03790673241019249,0.352928102016449,0.2502843737602234
1789221432241473300,11.149473388671876,-0.07745187729597092,0.05846317112445831,0.4189770221710205
1789221432251553000,11.159552978515626,-0.010412396863102913,0.03509100526571274,0.47763580083847046
1789221432261633300,11.16963330078125,0.0855460986495018,-0.06605172902345657,0.38404208421707153
1789221432271713300,11.17971337890625,0.22503606975078583,0.08241736888885498,-0.04276570305228233
1789221432281793000,11.18979296875,0.24550393223762512,0.12712611258029938,-0.25370141863822937
1789221432291873300,11.199873291015624,0.15441983938217163,0.07358592003583908,-0.24244236946105957
1789221432301952000,11.209951904296876,0.00956331193447113,0.24711695313453674,-0.5035228133201599
1789221432312032300,11.2200322265625,-0.008997322991490364,0.39302462339401245,-0.6280370354652405
1789221432322112000,11.230112060546874,0.11594847589731216,-0.3640330731868744,-0.06373143941164017
1789221432332192300,11.240192138671874,0.11977890133857727,0.25859534740448,0.03420151397585869
1789221432342272300,11.250272216796875,0.06079334393143654,0.2571958303451538,0.09508602321147919
1789221432352352300,11.260352294921875,0.06220375373959541,0.18189066648483276,0.09764479100704193
1789221432362432300,11.270432373046875,0.10302708297967911,0.1683489829301834,0.15566444396972656
1789221432372512000,11.280511962890625,0.15477070212364197,0.15250638127326965,-0.04668997600674629
1789221432382591200,11.29059130859375,0.1643505096435547,0.12631842494010925,-0.11122953146696091
1789221432392671200,11.300671142578125,0.11309130489826202,0.14115382730960846,0.03984467312693596
1789221432402751200,11.310751220703125,0.06371895968914032,0.12545524537563324,0.016897855326533318
1789221432412831000,11.3208310546875,0.03514803573489189,0.1728041172027588,0.15997911989688873
1789221432422911200,11.3309111328125,0.02084113284945488,0.09254986047744751,0.26461267471313477
1789221432432991200,11.3409912109375,0.06158430129289627,0.12280122935771942,-0.00348083907738328
1789221432443071200,11.3510712890625,0.11315495520830154,0.09146907925605774,-0.1722727119922638
1789221432453150200,11.361150146484375,0.14038604497909546,-0.03496316447854042,-0.5406816601753235
1789221432463230200,11.371230224609375,0.08826664835214615,0.24843356013298035,-0.04243907704949379
1789221432473310200,11.381310302734375,0.030170584097504616,0.5088100433349609,0.05288531258702278
1789221432483390200,11.39139013671875,-0.0018930750666186213,0.21108540892601013,0.14298152923583984
1789221432493470200,11.40147021484375,0.05891408398747444,0.1990220844745636,0.028494367375969887
1789221432503550000,11.411550048828126,0.1534312665462494,0.1320178210735321,-0.05124863237142563
1789221432513630200,11.421630126953126,0.17148323357105255,0.121507927775383,0.005373100284487009
1789221432523709200,11.431709228515626,0.07381074130535126,0.18427853286266327,0.04605936259031296
1789221432533789200,11.4417890625,-0.0075693377293646336,0.23947308957576752,0.1701565384864807
1789221432543869200,11.451869140625,-0.0562930628657341,0.1775825023651123,0.4429842233657837
1789221432553949200,11.46194921875,-0.012922687456011772,0.02783988043665886,0.2063269317150116
1789221432564029200,11.472029296875,-0.012875285930931568,0.14994895458221436,-0.08375418186187744
1789221432574109200,11.482109130859374,0.03995596989989281,0.14942723512649536,-0.5150006413459778
1789221432584189200,11.492189208984374,0.11646885424852371,-1.0841470956802368,-0.12699255347251892
1789221432594268200,11.50226806640625,0.04632012918591499,0.4147600829601288,0.047811493277549744
1789221432604348200,11.51234814453125,0.01510575134307146,0.3386358618736267,0.07888749241828918
1789221432614428200,11.52242822265625,-0.013069161213934422,0.30131644010543823,0.12044478952884674
1789221432624508200,11.532508056640625,-0.028313757851719856,0.27117013931274414,0.12962515652179718
1789221432634588200,11.542588134765625,0.05270812287926674,0.21012915670871735,-0.005768351722508669
1789221432644668200,11.552668212890625,0.09374037384986877,0.09262630343437195,0.11482563614845276
1789221432654748200,11.562748046875,0.07101162523031235,-0.03782864287495613,0.13649578392505646
1789221432664827100,11.5728271484375,-0.028531476855278015,0.028095245361328125,0.17660459876060486
1789221432674907100,11.5829072265625,-0.13677458465099335,0.08406370878219604,0.17983633279800415
1789221432684987100,11.592987060546875,-0.06505846232175827,0.17380408942699432,-0.3614504933357239
1789221432695067100,11.603067138671875,0.036251649260520935,-0.5937474370002747,-0.37836819887161255
1789221432705147400,11.6131474609375,0.06290243566036224,-0.2960425019264221,0.02705378830432892
1789221432715227100,11.62322705078125,0.07014463096857071,0.35921841859817505,0.06389170140028
1789221432725307100,11.63330712890625,-0.07324528694152832,0.12615852057933807,0.07779819518327713
1789221432735386000,11.64338623046875,-0.18948668241500854,0.14032307267189026,0.15494996309280396
1789221432745466000,11.653466064453125,-0.23164305090904236,-0.05719885975122452,0.10679708421230316
1789221432755546000,11.663546142578125,-0.1804397851228714,-0.057713381946086884,0.1383717954158783
1789221432765626000,11.673626220703126,-0.07950824499130249,-0.1314905881881714,-0.1131078451871872
1789221432775706000,11.6837060546875,-0.06837330013513565,0.09202159941196442,-0.3355047106742859
1789221432785786000,11.6937861328125,-0.13797873258590698,-0.18447521328926086,0.09605324268341064
1789221432795866400,11.703866455078124,-0.20359955728054047,-0.16413453221321106,0.03935534507036209
1789221432805945000,11.713945068359376,-0.1708352118730545,-0.055243119597435,-0.17579254508018494
1789221432816025300,11.724025390625,-0.11123155057430267,-0.6341277956962585,-0.04626144841313362
1789221432826105000,11.73410498046875,-0.11604668200016022,-0.03330635651946068,-0.02206897921860218
1789221432836185300,11.744185302734374,-0.20854385197162628,-0.026738202199339867,0.05736912041902542
1789221432846265000,11.75426513671875,-0.27012839913368225,-0.1208745688199997,0.06525439769029617
1789221432856345000,11.764344970703124,-0.26237645745277405,-0.06765715032815933,0.21204756200313568
1789221432866425300,11.77442529296875,-0.24818207323551178,-0.2467632293701172,0.3439314663410187
1789221432876505000,11.784505126953125,-0.17126545310020447,-0.1707070767879486,-0.040983472019433975
1789221432886584300,11.794584228515625,-0.11006348580121994,-0.1078374981880188,-0.29460063576698303
1789221432896664000,11.8046640625,-0.07024656981229782,-0.25676119327545166,-0.58087158203125
1789221432906744300,11.814744384765625,-0.10290197283029556,0.010650379583239555,0.03494803607463837
1789221432916824000,11.824823974609375,-0.15876498818397522,0.17175590991973877,0.10392683744430542
1789221432926903800,11.83490380859375,-0.18934951722621918,-0.13660041987895966,0.10307490080595016
1789221432936983600,11.844983642578125,-0.18696226179599762,-0.11226392537355423,0.10298169404268265
1789221432947063800,11.855063720703125,-0.14629432559013367,-0.07080070674419403,-0.09967174381017685
1789221432957142500,11.865142578125,-0.07313276082277298,-0.03708508610725403,-0.1419305056333542
1789221432967222800,11.875222900390625,-0.023000357672572136,-0.17355483770370483,0.04489259421825409
1789221432977302500,11.885302490234375,-0.02941218577325344,-0.15226925909519196,0.14741043746471405
1789221432987382500,11.895382568359375,-0.06914961338043213,-0.0725434273481369,-0.1308862715959549
1789221432997462800,11.905462890625,-0.050531186163425446,-0.28126442432403564,-0.013430478982627392
1789221433007542500,11.91554248046875,-0.09682810306549072,-0.06317142397165298,-0.02659810520708561
1789221433017622800,11.925622802734376,-0.06543982028961182,-0.026830991730093956,-0.005996157415211201
1789221433027701500,11.935701416015625,-0.07106775045394897,0.10584117472171783,0.1405150294303894
1789221433037781800,11.94578173828125,-0.06578163802623749,-0.05425634980201721,0.1693813055753708
1789221433047861500,11.955861572265626,0.003753758268430829,-0.033237114548683167,0.03421986103057861
1789221433057941800,11.965941650390626,0.06103941798210144,-0.02079828828573227,-0.1895943284034729
1789221433068021800,11.976021728515626,0.05845881626009941,-0.3908470869064331,0.07075834274291992
1789221433078101800,11.986101806640624,0.0002895227517001331,0.08379878103733063,0.1568245142698288
1789221433088181800,11.996181640625,-0.035652633756399155,-0.0151947857812047,0.11369378864765167
1789221433098260700,12.0062607421875,-0.0013615043135359883,0.04920657351613045,0.12616883218288422
1789221433108340700,12.0163408203125,0.024974361062049866,-0.028014332056045532,0.16166704893112183
1789221433118420500,12.02642041015625,0.042236704379320145,-0.0053220693953335285,-0.007698263972997665
1789221433128500700,12.036500732421874,0.06482110917568207,0.059231553226709366,-0.23108220100402832
1789221433138580500,12.04658056640625,0.14005912840366364,-0.4970087707042694,0.030442357063293457
1789221433148660700,12.05666064453125,0.08832910656929016,0.23760832846164703,0.1670825481414795
1789221433158740700,12.06674072265625,0.04493581876158714,0.05646916851401329,0.0421169213950634
1789221433168819700,12.07681982421875,0.08831790834665298,0.11805091053247452,0.04397646710276604
1789221433178899700,12.086899658203125,0.1007535383105278,0.027431532740592957,0.06536830961704254
1789221433188979700,12.096979736328125,0.08435805886983871,0.15610675513744354,-0.21195188164710999
1789221433199059700,12.107059814453125,0.07933187484741211,-0.0840832069516182,-0.007807527668774128
1789221433209139700,12.1171396484375,0.08918730169534683,0.11449500173330307,0.06617406010627747
1789221433219219700,12.1272197265625,0.09051249176263809,0.03543321043252945,0.07330973446369171
1789221433229299700,12.1372998046875,0.11531198769807816,0.1538527011871338,-0.18100671470165253
1789221433239378700,12.147378662109375,0.17912611365318298,0.12532173097133636,-0.08352889120578766
1789221433249458400,12.15745849609375,0.17677587270736694,-0.18640747666358948,-0.0025117145851254463
1789221433259538700,12.16753857421875,0.1443665325641632,0.4289017617702484,0.02222052961587906
1789221433269618700,12.17761865234375,0.08831484615802765,0.30596429109573364,0.1675027310848236
1789221433279698700,12.18769873046875,0.13148602843284607,0.20228023827075958,0.03308873623609543
1789221433289778700,12.19777880859375,0.24767576158046722,0.14958404004573822,0.08567547053098679
1789221433299858700,12.207858642578126,0.28725963830947876,0.08376535028219223,-0.13178014755249023
1789221433309938700,12.217938720703126,0.21218539774417877,-0.3333946466445923,0.014867578633129597
1789221433320017700,12.228017578125,0.13209322094917297,0.3372092843055725,0.0793062224984169
1789221433330097700,12.23809765625,0.12834669649600983,0.24569620192050934,0.05295887961983681
1789221433340177700,12.248177734375,0.17932066321372986,0.1650351881980896,0.06191881746053696
1789221433350257700,12.258257568359374,0.22969768941402435,0.22667577862739563,-0.17069602012634277
1789221433360337700,12.268337646484374,0.2471778690814972,0.29358983039855957,-0.03631503880023956
1789221433370417700,12.278417724609374,0.21953240036964417,-0.022135447710752487,0.05502428114414215
1789221433380497700,12.28849755859375,0.18481142818927765,0.35391515493392944,0.08675131946802139
1789221433390576600,12.29857666015625,0.1408546268939972,0.14193710684776306,0.14540958404541016
1789221433400656600,12.30865673828125,0.13752754032611847,0.17293071746826172,0.045609474182128906
1789221433410736600,12.318736572265625,0.16458231210708618,0.13474103808403015,0.004214928951114416
1789221433420816600,12.328816650390625,0.15726928412914276,0.20396564900875092,-0.2246861755847931
