time,seconds_elapsed,z,y,x
1789225031313525800,0.04452587890625,3.5816038107797503,9.066146690484882,-1.0712063593469558
1789225031323564800,0.054564697265625,3.578625964012742,9.06909326533079,-1.0561113007415086
1789225031333604900,0.06460498046875,3.5799969601050017,9.070386812272668,-1.0402402893275022
1789225031343643600,0.0746435546875,3.585720598448813,9.070088706108928,-1.0229746817499399
1789225031353682700,0.0846826171875,3.5958442253172396,9.068249215722084,-1.0035703816432506
1789225031363721700,0.0947216796875,3.607136603704095,9.066101097777485,-0.9822285376027226
1789225031373760800,0.1047607421875,3.6189673267513514,9.06383549093306,-0.9593470629047602
1789225031383800800,0.11480078125,3.635998541051149,9.059860742083192,-0.9321097310848534
1789225031393839900,0.12483984375,3.658772682917118,9.053993311354517,-0.8994232670135796
1789225031403878700,0.134878662109375,3.6795442527890203,9.048698712077737,-0.8674074687454849
1789225031413917700,0.144917724609375,3.6900276528805493,9.04666106877029,-0.8438030135352164
1789225031423956700,0.154956787109375,3.696147597065568,9.045062985923886,-0.8340944702737033
1789225031433996800,0.164996826171875,3.701831780181825,9.042505702656507,-0.8366097410302609
1789225031444035800,0.175035888671875,3.7072152267858383,9.03917860406041,-0.8486335024315863
1789225031454075000,0.185074951171875,3.7157252809777854,9.034269204708933,-0.8635656986255198
1789225031464113700,0.19511376953125,3.726397189378738,9.027443158081173,-0.888615603403747
1789225031474152700,0.205152587890625,3.7200089496463535,9.0258263705343,-0.9307985754210502
1789225031484192800,0.21519287109375,3.700780517563224,9.027090106859802,-0.9930979413371532
1789225031494231800,0.225231689453125,3.6746617414444684,9.028353258663415,-1.0752134760964662
1789225031504270800,0.235270751953125,3.646161330886185,9.02739464276433,-1.175607229541987
1789225031514309600,0.2453095703125,3.6169860898062587,9.024237640038132,-1.2848898804292082
1789225031524348700,0.2553486328125,3.59128349327296,9.01879574124515,-1.39082351314947
1789225031534388700,0.265388671875,3.574184474433958,9.00904123995006,-1.4942423865698278
1789225031544427500,0.275427490234375,3.5668560312420126,8.995338293290137,-1.5911729208841918
1789225031554466800,0.285466796875,3.568366435804963,8.979450988328457,-1.6752901508547364
1789225031564505900,0.295505859375,3.5789214398279783,8.962329757657647,-1.7430834380120037
1789225031574544600,0.305544677734375,3.589983516590297,8.949196719840169,-1.787255026563257
1789225031584584700,0.315584716796875,3.600211772876978,8.94425049560964,-1.791433042900264
1789225031594623700,0.325623779296875,3.606490999276936,8.943930177614092,-1.7803734503559767
1789225031604662800,0.335662841796875,3.601979659332335,8.944871842378378,-1.784770516271144
1789225031614701800,0.345701904296875,3.5883562076494098,8.948014816579223,-1.7964171149231491
1789225031624740900,0.355740966796875,3.574983808118105,8.950496112000941,-1.8106608904615042
1789225031634780700,0.36578076171875,3.5676880981519816,8.951012829351425,-1.8224620951533317
1789225031644819700,0.37581982421875,3.564052664259076,8.950635812732576,-1.8313979735419152
1789225031654858800,0.385858642578125,3.5590114552214738,8.950617108032107,-1.8412708405196665
1789225031664897800,0.395897705078125,3.5460286395296454,8.953052810746431,-1.8544355886496602
1789225031674936800,0.405936767578125,3.5186227462098,8.959144113358855,-1.8770777746990321
1789225031684977000,0.415976806640625,3.472708551774919,8.96957666004598,-1.912430096978694
1789225031695015700,0.426015625,3.4113892829373476,8.983223492604493,-1.9581892469823359
1789225031705054700,0.4360546875,3.3408915591269728,8.998495296016335,-2.0089603799290954
1789225031715093800,0.44609375,3.2712069052651525,9.012626697221398,-2.059652894681692
1789225031725132800,0.4561328125,3.208632960191369,9.024396045470237,-2.1060256465390323
1789225031735172900,0.4661728515625,3.1551544679820536,9.033890434524416,-2.14574054794237
1789225031745212000,0.4762119140625,3.1151053661882875,9.039234133639932,-2.181457758011669
1789225031755250700,0.486250732421875,3.0861361690744755,9.043100745940208,-2.206463312191516
1789225031765289700,0.496289794921875,3.0789614551395177,9.04401026200056,-2.212743853765726
1789225031775328500,0.50632861328125,3.1350989374250173,9.032995531511306,-2.1786587749429045
1789225031785368600,0.51636865234375,3.2310350538745523,9.014725130805372,-2.113179171555489
1789225031795408000,0.526407958984375,3.31580358736068,8.997660014235972,-2.053764713425934
1789225031805446700,0.53644677734375,3.379019337469339,8.981913579049706,-2.0193647234350443
1789225031815485700,0.546485595703125,3.4229835668802258,8.969768383225798,-1.9992088012434541
1789225031825524700,0.556524658203125,3.4436166050642725,8.963464899167418,-1.9920301417857407
1789225031835564800,0.566564697265625,3.4515190487518903,8.958110678657889,-2.002408912459016
1789225031845603600,0.576603515625,3.4573473165139554,8.951406797105074,-2.022242909219861
1789225031855643000,0.586642822265625,3.467049795360863,8.942940582054852,-2.0429836455620825
1789225031865681700,0.596681640625,3.476736199855804,8.935689588013291,-2.058192174479365
1789225031875721700,0.6067216796875,3.4885789056017993,8.926212734615802,-2.0791692037954927
1789225031885760800,0.6167607421875,3.5166035153418775,8.909752598202228,-2.102422945871949
1789225031895799600,0.626799560546875,3.5494665050238368,8.892079578867554,-2.1219319484621284
1789225031905838800,0.6368388671875,3.5749545820236204,8.87808261769712,-2.13769255830422
1789225031915878000,0.6468779296875,3.6004429512843488,8.865129028099775,-2.148648690474033
1789225031925917700,0.656917724609375,3.619243513344228,8.85445156674087,-2.161056190495938
1789225031935956700,0.666956787109375,3.630565994608402,8.84458425272107,-2.182360698200762
1789225031945995800,0.676995849609375,3.635769408470392,8.835117920717597,-2.2118436900556087
1789225031956034600,0.68703466796875,3.6279783162027597,8.829374993151426,-2.247288074532896
1789225031966073900,0.697073974609375,3.616076866006851,8.824581913655996,-2.2849774614579976
1789225031976114000,0.707114013671875,3.606710487246513,8.819085654327273,-2.320721705664694
1789225031986152700,0.717152587890625,3.5939959671020505,8.813817358535527,-2.3601303175978363
1789225031996191700,0.727191650390625,3.5808275657102464,8.808427482190728,-2.399929828544706
1789225032006230800,0.737230712890625,3.571751109807193,8.802787430477142,-2.4339120315149425
1789225032016270600,0.7472705078125,3.5694451709523793,8.798375459253787,-2.4531682283878324
1789225032026309600,0.7573095703125,3.568985444486141,8.794702323698997,-2.4669734663784504
1789225032036349000,0.767348876953125,3.581635374961793,8.782672278687357,-2.4913763784900307
1789225032046387700,0.7773876953125,3.5926144496157764,8.769173330166936,-2.5229133802652357
1789225032056426800,0.7874267578125,3.59562882900089,8.761614877611398,-2.544789696508646
1789225032066466800,0.797466796875,3.5833044772177933,8.762833021229506,-2.557945822940767
1789225032076505600,0.807505615234375,3.570673251442611,8.764753175637125,-2.5690070229202506
1789225032086544600,0.817544677734375,3.556877365802228,8.76785932495892,-2.577529644332826
1789225032096584000,0.827583984375,3.5383383772879835,8.772831852674484,-2.5861118869781494
1789225032106622700,0.837622802734375,3.5296532587900757,8.769301924982667,-2.6098431834384797
1789225032116662800,0.847662841796875,3.532655070954561,8.757367741560936,-2.6456124159559606
1789225032126701800,0.857701904296875,3.5277336889043447,8.751082962203025,-2.6728300932273266
1789225032136740600,0.86774072265625,3.5127249203428623,8.754013754957914,-2.682984699755907
1789225032146779600,0.877779541015625,3.500161206845939,8.760480320623516,-2.6782930348083376
1789225032156819700,0.88781982421875,3.4840561674803494,8.77113849276006,-2.664372061483562
1789225032166858500,0.8978583984375,3.4635917638614773,8.786992479974032,-2.638690215477347
1789225032176897500,0.9078974609375,3.4338840233400463,8.807176605346799,-2.610072608280182
1789225032186936300,0.917936279296875,3.395298856619,8.829633936348557,-2.5845503367498517
1789225032196975400,0.927975341796875,3.3537592240065335,8.851248971307276,-2.564775961221754
1789225032207015400,0.938015380859375,3.2996924105152488,8.876448294493555,-2.547757898664474
1789225032217054700,0.9480546875,3.2054236427560445,8.914607637017966,-2.534842010729015
1789225032227093500,0.958093505859375,3.0637600866153836,8.96956087795496,-2.5160937633782625
1789225032237132500,0.968132568359375,2.869453320045769,9.037946431916952,-2.5004274076908826
1789225032247172600,0.978172607421875,2.608012753140926,9.12241802828312,-2.4799495600685475
1789225032257211400,0.98821142578125,2.266272176466137,9.21739757466018,-2.464545362448692
1789225032267250400,0.99825048828125,1.8570427024081348,9.30662308755517,-2.4715493959918615
1789225032277289500,1.00828955078125,1.4103848304487765,9.379962464532255,-2.489480481740832
1789225032287328500,1.01832861328125,1.194969444072619,9.406553534337878,-2.5018378590106964
1789225032297368600,1.02836865234375,1.2976279275797307,9.358942472857237,-2.6261680030345915
1789225032307407400,1.038407470703125,1.3335346688717602,9.313141091147065,-2.767216057625413
1789225032317446400,1.0484462890625,1.4175373325519263,9.28135128365457,-2.8315216487973927
1789225032327485400,1.0584853515625,1.412902512358129,9.26689956445396,-2.8807430680841204
1789225032337525500,1.068525390625,1.4425871642649173,9.257004777905344,-2.8977929870843884
1789225032347564500,1.078564453125,1.5398574519276618,9.236631851962208,-2.9127079398825764
1789225032357603600,1.088603515625,1.6476995486177504,9.217951116889715,-2.9128768667086957
1789225032367642400,1.098642333984375,1.7798006189040838,9.206735310870409,-2.8703189969643947
1789225032377682400,1.108682373046875,1.8966133730351924,9.204700005650519,-2.8012065900325775
1789225032387721500,1.118721435546875,2.005144182641804,9.208642021274565,-2.711215061201155
1789225032397760500,1.128760498046875,2.1081427848234773,9.215247118628024,-2.608706872884929
1789225032407799600,1.138799560546875,2.2115438303261996,9.221573983561992,-2.498407300040126
1789225032417838600,1.148838623046875,2.2655003153108058,9.231395120352506,-2.412309417646378
1789225032427878400,1.15887841796875,2.1883814197950064,9.247614433747529,-2.4213683378927406
1789225032437917400,1.16891748046875,2.147531230751425,9.252959886428712,-2.4374668013870715
1789225032447956500,1.17895654296875,2.131032077501714,9.256603795889019,-2.4381096293352544
1789225032457995500,1.18899560546875,2.14127333940044,9.255851516216993,-2.4319831092789768
1789225032468035600,1.19903564453125,2.1708730895027517,9.252048616802693,-2.4201820507176217
1789225032478074600,1.20907470703125,2.204955391846597,9.248906227123737,-2.4013110537700353
1789225032488113400,1.219113525390625,2.2431717252552508,9.246210996690392,-2.376165068206191
1789225032498152400,1.22915234375,2.278090186162293,9.243410552316904,-2.3537319948628546
1789225032508191500,1.23919140625,2.309804298070073,9.23888693741262,-2.3405488342933354
1789225032518231300,1.249231201171875,2.3372614831857383,9.23382906950116,-2.333240264845639
1789225032528270600,1.2592705078125,2.3567564572505653,9.23067849651575,-2.3260854246549307
1789225032538309600,1.2693095703125,2.378822158586234,9.228787568202614,-2.311077240615338
1789225032548348400,1.279348388671875,2.4042953302778303,9.228637930598854,-2.285166846550256
1789225032558388500,1.289388427734375,2.426777649590373,9.232651842415333,-2.244838781684637
1789225032568427500,1.299427490234375,2.4523624649628997,9.239304870563744,-2.188961850031465
1789225032578466300,1.30946630859375,2.4747066909790036,9.248698137331008,-2.1231581292562187
1789225032588505600,1.319505615234375,2.497416535437107,9.257810249069333,-2.055783359771967
1789225032598545700,1.329545654296875,2.5212878248900172,9.265095145380496,-1.9928663003489373
1789225032608584400,1.33958447265625,2.5531644338831305,9.267155000519752,-1.9420501592166721
1789225032618623500,1.34962353515625,2.57719617459476,9.26327962039113,-1.928754916574806
1789225032628662500,1.35966259765625,2.6008137815475463,9.253407045674324,-1.944381232512742
1789225032638701300,1.369701416015625,2.6333985388100145,9.232354320773482,-1.9998066210061312
1789225032648741400,1.379741455078125,2.675110020858049,9.20192001954317,-2.0829900772579015
1789225032658780700,1.38978076171875,2.7074662300616503,9.166013424381614,-2.1964076359927653
1789225032668819500,1.3998193359375,2.746091144271195,9.124552117702365,-2.3177358217217026
1789225032678858500,1.4098583984375,2.7941154627278446,9.07709478547871,-2.443285278407484
1789225032688898600,1.419898681640625,2.848364062526822,9.026506169492006,-2.5650351966798306
1789225032698937300,1.429937255859375,2.9075869436070323,8.970741027650236,-2.6911200754165647
1789225032708976400,1.439976318359375,2.974948999740183,8.913156853687763,-2.8063664570137856
1789225032719015700,1.450015625,3.0406600737959146,8.858023580008744,-2.9086387907475233
1789225032729055500,1.460055419921875,3.089931177443266,8.81015942054987,-3.000632014790177
1789225032739094500,1.470094482421875,3.142990275196731,8.767157898691297,-3.070655983608961
1789225032749133600,1.480133544921875,3.1777246117085216,8.73837136466801,-3.1166178165778518
1789225032759172400,1.49017236328125,3.1975834506496783,8.724698813146352,-3.1345623463302847
1789225032769211600,1.500211669921875,3.2116105146974325,8.717972719761729,-3.138931939716637
1789225032779251500,1.51025146484375,3.224936152477562,8.713511064177752,-3.1376588510408996
1789225032789290500,1.52029052734375,3.2336233168020843,8.711728272414208,-3.133666858795285
1789225032799329500,1.53032958984375,3.2425562725812194,8.710969563001393,-3.1265362762629985
1789225032809368600,1.54036865234375,3.2478619777739044,8.711894861152768,-3.1184400635689493
1789225032819408400,1.550408447265625,3.2527506265982984,8.714030119615792,-3.1073581130623817
1789225032829447400,1.560447509765625,3.25582462721616,8.716929348188637,-3.0959833170890807
1789225032839486700,1.57048681640625,3.259496885988116,8.718874637037516,-3.0866330126807093
1789225032849525500,1.580525390625,3.265492911532521,8.719215997821092,-3.0793180134922262
1789225032859565600,1.590565673828125,3.2758892178624865,8.716717166742683,-3.0753511556878683
1789225032869604600,1.6006044921875,3.2888270253688097,8.712321562132239,-3.0739947726428505
1789225032879643400,1.610643310546875,3.30132234980464,8.707572906300426,-3.074054978397488
1789225032889682400,1.620682373046875,3.3159576088786125,8.702606808325648,-3.0723657101362942
1789225032899722500,1.630722412109375,3.326139103414118,8.699211905190348,-3.070973086734116
1789225032909761500,1.640761474609375,3.3293180257111787,8.698924320420621,-3.068343322752416
1789225032919800600,1.650800537109375,3.3254426455825565,8.702017610260844,-3.0637709002703426
1789225032929839400,1.66083935546875,3.3163936622083185,8.707388197383285,-3.0583216949537393
1789225032939879400,1.67087939453125,3.304779212260246,8.714162221562862,-3.0515906331330536
1789225032949918500,1.68091845703125,3.2924317718625065,8.72190596755743,-3.042800300695002
1789225032959957500,1.69095751953125,3.282583454804122,8.730254109185934,-3.0294691099569198
1789225032969996500,1.70099658203125,3.2748809176027773,8.739049994581936,-3.0123975636467337
1789225032980035600,1.71103564453125,3.2660552215903995,8.749889368504284,-2.9904356149464846
1789225032990075600,1.72107568359375,3.2522596282109615,8.763311744657159,-2.9660704044967887
1789225033000114400,1.731114501953125,3.2395167587548492,8.776712493500114,-2.940276914809644
1789225033010153500,1.741153564453125,3.230691939525306,8.789912751334905,-2.910402877810597
1789225033020192500,1.751192626953125,3.238127934744954,8.799129492491483,-2.8740634441897273
1789225033030232300,1.761232421875,3.257081349278986,8.80407571672201,-2.837262822797894
1789225033040271600,1.771271728515625,3.278519858627021,8.807388202270864,-2.8020710979074237
1789225033050310400,1.781310302734375,3.295917275890708,8.810008029380441,-2.773277257360518
1789225033060349400,1.791349365234375,3.307080474939942,8.812181866288185,-2.7530072072699663
1789225033070389500,1.801389404296875,3.3155110341548917,8.812886799687147,-2.740581440939009
1789225033080428500,1.811428466796875,3.3563647303298114,8.803449109256267,-2.721122414970398
1789225033090467300,1.82146728515625,3.4388279094830154,8.782954018238186,-2.684133577530086
1789225033100506600,1.831506591796875,3.5306805560111996,8.757885043433308,-2.646532745671272
1789225033110546700,1.841546630859375,3.6418554503858087,8.724898135110735,-2.604503283715248
1789225033120585500,1.85158544921875,3.7550843546807764,8.69378228135705,-2.547128076328337
1789225033130624500,1.86162451171875,3.791982591228187,8.692050342997907,-2.4979025653883813
1789225033140663300,1.871663330078125,3.721147306026518,8.720158831629156,-2.506449152198434
1789225033150703400,1.881703369140625,3.6696427442386743,8.750323668268322,-2.4770871563747523
1789225033160742400,1.891742431640625,3.681777418668568,8.771313264805078,-2.3830603806778785
1789225033170782000,1.901781982421875,3.7048973052322864,8.787077235648036,-2.2872255326457323
1789225033180821000,1.911821044921875,3.7379067176476117,8.798587056177855,-2.1870744288496673
1789225033190860800,1.92186083984375,3.783472244775295,8.810608917883037,-2.0564247264154254
1789225033200899800,1.93189990234375,3.806937291514873,8.828682919234037,-1.9318251178003847
1789225033210939000,1.94193896484375,3.8048087550535796,8.851979039147496,-1.8265449805527925
1789225033220977700,1.951977783203125,3.820392108632624,8.875556314089893,-1.6731695054389535
1789225033231017700,1.962017822265625,3.842224293473363,8.897768730419873,-1.4957929770126939
1789225033241057000,1.97205712890625,3.8687805842265486,8.914795853066444,-1.3150444879353045
1789225033251095800,1.982095703125,3.900329568700492,8.92509571328461,-1.1403878129269927
1789225033261134800,1.992134765625,3.930428062105179,8.931869737464188,-0.9715000767089426
1789225033271174000,2.002173828125,3.954543973968923,8.935344720098376,-0.8316158782657236
1789225033281213700,2.012213623046875,3.973389251953363,8.93707139776051,-0.7150691546596586
1789225033291252700,2.022252685546875,3.983600264844298,8.938131135946511,-0.6411898986522108
1789225033301292000,2.0322919921875,3.983376100699603,8.939670766603946,-0.620784531744197
1789225033311330800,2.042330810546875,3.9720176713392137,8.94348886358738,-0.6383276410888881
1789225033321371000,2.052370849609375,3.956028951829672,8.947693329539895,-0.6774956491991877
1789225033331410000,2.062409912109375,3.934970966231823,8.95169204378724,-0.7440375480558723
1789225033341448700,2.07244873046875,3.917693083694577,8.951907732364536,-0.8278932775460183
1789225033351488000,2.082488037109375,3.922025559940934,8.942897327435016,-0.9014843642618506
1789225033361527800,2.09252783203125,3.9352284481242297,8.929755521789193,-0.9715028531879186
1789225033371566800,2.10256689453125,3.95015684492588,8.917201160642504,-1.0247742054525761
1789225033381606000,2.11260595703125,3.95576153306514,8.908786968040467,-1.0751064355254172
1789225033391645000,2.12264501953125,3.9373771505907174,8.900825779902934,-1.2011420682929455
1789225033401684700,2.132684814453125,3.9041453275963662,8.89136003242135,-1.3681171758227049
1789225033411723800,2.142723876953125,3.872882466587424,8.882043338021635,-1.5101244308345019
1789225033421762800,2.1527626953125,3.848593243983388,8.86398453423977,-1.6698777704171834
1789225033431801900,2.1628017578125,3.8212937336474653,8.838389489734173,-1.8576755934841929
1789225033441842000,2.172842041015625,3.7972988178148865,8.80866538259983,-2.0391938978902995
1789225033451881000,2.182880859375,3.777610367004573,8.77371389620602,-2.218553855218738
1789225033461919700,2.192919677734375,3.756422033025324,8.73803643362522,-2.388803162113577
1789225033471958800,2.202958740234375,3.7391140476107596,8.700097455853223,-2.5490599211737512
1789225033481998800,2.212998779296875,3.726760469733178,8.657186534887552,-2.708277546444535
1789225033492038000,2.223037841796875,3.7206297118932006,8.61118115503788,-2.859168072874844
1789225033502077000,2.233076904296875,3.723140817931294,8.573644912847875,-2.9666879518732427
1789225033512116000,2.243115966796875,3.7251772921949624,8.540690153229237,-3.0577839348152276
1789225033522155800,2.25315576171875,3.7294048467621206,8.50698194489479,-3.1453444371074437
1789225033532194800,2.26319482421875,3.735726450999081,8.479328214293718,-3.2118101289227603
1789225033542233900,2.27323388671875,3.739595985908806,8.463876378139853,-3.2478596396863457
1789225033552273000,2.28327294921875,3.728206869149208,8.451773852413892,-3.2921693215340375
1789225033562313000,2.29331298828125,3.7254739370539784,8.440007426774502,-3.325282778845727
1789225033572352000,2.30335205078125,3.725032623027265,8.42988233860135,-3.3513603461712598
1789225033582390800,2.313390869140625,3.7288401986166835,8.42350520478487,-3.3631361241608855
1789225033592429800,2.323429931640625,3.727646897178888,8.421997138309479,-3.3682328627780076
1789225033602470000,2.333469970703125,3.7179777360796926,8.423899172538519,-3.37415933021754
1789225033612508700,2.3435087890625,3.7125448973760005,8.424938452458381,-3.377544296480715
1789225033622548000,2.3535478515625,3.7106089608773587,8.424559682273864,-3.3806153744891283
1789225033632587000,2.3635869140625,3.7119185821712013,8.423040509882568,-3.3829610608324407
1789225033642626800,2.373626708984375,3.7109155426084994,8.42167682031393,-3.387456910946965
1789225033652665900,2.383665771484375,3.712921037212014,8.419504152449965,-3.39065541472733
1789225033662705000,2.393704833984375,3.7198446989953515,8.415980069977044,-3.3918145216345783
1789225033672743700,2.40374365234375,3.7281086694717405,8.412606794151664,-3.391112510845065
1789225033682783700,2.41378369140625,3.726203420372307,8.41199889138639,-3.394714042468369
1789225033692823000,2.423822998046875,3.7204198685348033,8.41265180233717,-3.3994334722056982
1789225033702861800,2.43386181640625,3.7199665718093513,8.410906419974564,-3.404247594489157
1789225033712900900,2.44390087890625,3.726599141691625,8.408568332415818,-3.4027658314988014
1789225033722941000,2.45394091796875,3.73017057043761,8.406161271274089,-3.404799967674911
1789225033732979700,2.463979736328125,3.726678928929567,8.405221360075473,-3.4109400778651238
1789225033743018800,2.474018798828125,3.721458856193721,8.409249884939193,-3.4067081393837926
1789225033753058000,2.48405810546875,3.7072631575807926,8.411987785470485,-3.4154157619744536
1789225033763097900,2.494097900390625,3.7081788111209866,8.410218437710403,-3.418772086665034
1789225033773137000,2.504136962890625,3.7181177290722727,8.407009412536025,-3.41586993548274
1789225033783176000,2.514176025390625,3.7266409350067375,8.40436912716031,-3.4130773821547624
1789225033793215700,2.5242158203125,3.730354987093806,8.404189678940176,-3.4094624065279957
1789225033803254800,2.5342548828125,3.728622464212775,8.408437399512529,-3.4008746109247205
1789225033813293800,2.5442939453125,3.7233135441496965,8.416450025576353,-3.3868419939190146
1789225033823332900,2.554332763671875,3.7249548816159366,8.426103404584527,-3.36093627602905
1789225033833373000,2.564373046875,3.723976684233546,8.434528703102469,-3.3408252158924934
1789225033843412000,2.574411865234375,3.71356284224689,8.44142898401022,-3.3349837963879105
1789225033853450800,2.58445068359375,3.7024478662535545,8.447597443512082,-3.3317201184168455
1789225033863489800,2.59448974609375,3.709240887394547,8.449925594198703,-3.318234029377997
1789225033873529900,2.60452978515625,3.7268423027977344,8.449178575223684,-3.300366364254057
1789225033883568600,2.614568603515625,3.7457249901831147,8.447707918149232,-3.2827094192713497
1789225033893608000,2.62460791015625,3.761399821437895,8.445407824513316,-3.270681712347269
1789225033903647000,2.63464697265625,3.790710087074339,8.43751151830554,-3.2571929929599164
1789225033913686800,2.644686767578125,3.8867707066863773,8.414278526756167,-3.203643189080059
1789225033923725800,2.654725830078125,3.9901778896689413,8.390932137960196,-3.137055624450743
1789225033933764900,2.664764892578125,4.059621720512211,8.377020516985654,-3.0847023368790745
1789225033943804000,2.674803955078125,4.119271887093782,8.36255593830347,-3.0446079346388575
1789225033953843700,2.68484375,4.166298718945682,8.349830896764994,-3.0154058055520054
1789225033963883000,2.694883056640625,4.193476356467604,8.342198794451356,-2.998806552928686
1789225033973921800,2.704921875,4.200454963308572,8.338113570964335,-3.000404635775089
1789225033983960800,2.7149609375,4.191239391195774,8.334128885242343,-3.024267741921544
1789225033994001000,2.7250009765625,4.166000905042886,8.329681842705607,-3.07103066214025
1789225034004039700,2.735039794921875,4.127092789977788,8.325622338181734,-3.133930478167534
1789225034014079000,2.745078857421875,4.073557599145174,8.323133443975449,-3.209668148458004
1789225034024118000,2.755117919921875,4.012732835826277,8.32044464328289,-3.2921967940628525
1789225034034157800,2.76515771484375,3.963242244209349,8.305474453166127,-3.38853856870383
1789225034044196900,2.77519677734375,3.922178704676032,8.278797458642721,-3.4997722075283524
1789225034054236000,2.78523583984375,3.864920986188948,8.264678332397342,-3.59553530549854
1789225034064274700,2.795274658203125,3.7878482679024335,8.25792652004957,-3.691782679854333
1789225034074314800,2.805314697265625,3.703338677613437,8.250700660449265,-3.7923075853988526
1789225034084354000,2.81535400390625,3.611936405201256,8.249806341958045,-3.881364463728666
1789225034094392800,2.825392822265625,3.5263434035897254,8.255798275849223,-3.946778016142547
1789225034104433000,2.835432861328125,3.4374083980739116,8.270564467826485,-3.994042748403549
1789225034114472000,2.845471923828125,3.3272985025823116,8.29927676756978,-4.027589336435496
1789225034124510700,2.8555107421875,3.200654236397147,8.338854160198569,-4.048422573366761
1789225034134549800,2.8655498046875,3.095907621504366,8.386284019893408,-4.0318727128431195
1789225034144589800,2.87558984375,2.973765342913568,8.442669923982024,-4.006050873844325
1789225034154628900,2.88562890625,2.8480072119131683,8.506040280130506,-3.9631428754881024
1789225034164668000,2.89566796875,2.7158392138704657,8.574223589518665,-3.9086175045743583
1789225034174706400,2.90570654296875,2.5756603433296084,8.64359406286478,-3.850278420591354
1789225034184746500,2.91574658203125,2.4472151652023193,8.708721491813659,-3.786778885105252
1789225034194785500,2.92578564453125,2.3872718608930708,8.74879923518002,-3.732266373673081
1789225034204824300,2.93582421875,2.3439108580723405,8.767923622366785,-3.7148333005741234
1789225034214863600,2.945863525390625,2.321719046138972,8.775403164467216,-3.7111058044835925
1789225034224903700,2.955903564453125,2.3240834371827543,8.773848336240649,-3.7133024377450345
1789225034234942500,2.9659423828125,2.3368207536809145,8.768411698144673,-3.7181469551667568
1789225034244981500,2.9759814453125,2.3544644007906315,8.761513170802592,-3.7232743811830877
1789225034255020300,2.986020263671875,2.3672483329094947,8.755442910978198,-3.7294440097287294
1789225034265060400,2.996060302734375,2.3772337203510103,8.747174264326691,-3.74247037230134
1789225034275099400,3.006099365234375,2.383844809053838,8.736831149488687,-3.7623704200357198
1789225034285138700,3.016138671875,2.3817316162921487,8.726471668037771,-3.7876711577698585
1789225034295178500,3.026178466796875,2.378319323630631,8.715706528395414,-3.8145033428549766
1789225034305217500,3.036217529296875,2.3764134900093077,8.705305545890331,-3.8393598439529537
1789225034315256600,3.046256591796875,2.35243917857334,8.702167247864603,-3.8611771234855055
1789225034325295400,3.05629541015625,2.313734769386798,8.706166546633838,-3.8755230442240833
1789225034335335400,3.06633544921875,2.2694506603717803,8.714696474570035,-3.8825294158548114
1789225034345374500,3.07637451171875,2.222446478743106,8.723420463773607,-3.8901200171142816
1789225034355413500,3.08641357421875,2.1788184955492613,8.730142465505004,-3.8997085141927004
1789225034365452500,3.09645263671875,2.129309929884225,8.738365519449115,-3.908628610490262
1789225034375492600,3.10649267578125,2.06788120932281,8.749663158532977,-3.916329978647828
1789225034385531400,3.116531494140625,2.001871444581449,8.759739731389283,-3.9280870519369837
1789225034395570400,3.1265703125,1.910942196508497,8.755975410419701,-3.9814027548000213
1789225034405609700,3.136609619140625,1.8292207756333052,8.73141672322452,-4.072675555613637
1789225034415649500,3.1466494140625,1.7700832347489892,8.692564137738943,-4.180492663992941
1789225034425688600,3.1566884765625,1.680582119783014,8.658410523724555,-4.286954266110063
1789225034435727600,3.1667275390625,1.5456215684123336,8.642243817299605,-4.36956123764813
1789225034445767400,3.176767333984375,1.4583805073328315,8.644316531920433,-4.39537138620913
1789225034455806500,3.186806396484375,1.38583914886564,8.65567905293405,-4.396483439104259
1789225034465845500,3.196845458984375,1.32750693301484,8.669228270336985,-4.38778078494966
1789225034475884500,3.206884521484375,1.2628214026145637,8.680157660630345,-4.385264125953614
1789225034485924600,3.216924560546875,1.2014483577631414,8.68309371408224,-4.396679838459193
1789225034495963600,3.226963623046875,1.165485940761119,8.666329626286029,-4.439229817157983
1789225034506002400,3.23700244140625,1.1272318326253443,8.640064719694852,-4.499888576260209
1789225034516041500,3.24704150390625,1.0937324447359889,8.612719032129645,-4.560175579440593
1789225034526081500,3.25708154296875,1.0610977839171887,8.589590669998525,-4.611224214154482
1789225034536120300,3.267120361328125,1.040788497794792,8.571108087846635,-4.6500811835542315
1789225034546159600,3.27715966796875,1.0375091838631778,8.55386703018844,-4.682445283803344
1789225034556199400,3.287199462890625,1.0616889547433703,8.540641637912392,-4.701132156355679
1789225034566238500,3.297238525390625,1.1043898131549357,8.545192725345492,-4.682987720116973
1789225034576277500,3.307277587890625,1.1526810389194637,8.57430776067078,-4.617678212599456
1789225034586316500,3.317316650390625,1.1997762598324566,8.62205384670794,-4.515651670320332
1789225034596356400,3.3273564453125,1.2258247471939772,8.673203603708744,-4.409454856619239
1789225034606395400,3.3373955078125,1.2523746812716126,8.715398485359549,-4.317845371197164
1789225034616434700,3.3474345703125,1.2474329870857297,8.762295261090994,-4.223327597112953
1789225034626473500,3.357473388671875,1.243890346042812,8.814936133432388,-4.113395688536763
1789225034636513500,3.367513427734375,1.225950492465496,8.879860733285545,-3.9768724178940054
1789225034646552600,3.377552490234375,1.2118394033960997,8.951048485186696,-3.818448573349416
1789225034656591400,3.38759130859375,1.1980398644939065,9.009819238585234,-3.682150928156078
1789225034666631400,3.39763134765625,1.1529532799895852,9.049677201721071,-3.59783919852674
1789225034676670500,3.40767041015625,1.1269021622795612,9.087695674470066,-3.509169273687899
1789225034686709500,3.41770947265625,1.1143019892297685,9.117464205268025,-3.4351930601119993
1789225034696748500,3.42774853515625,1.129461929764971,9.132380034849048,-3.3903272056862708
1789225034706788600,3.43778857421875,1.15484924980402,9.134441059032081,-3.3761940509155393
1789225034716827400,3.447827392578125,1.1814581475272774,9.126029789039492,-3.389711996397376
1789225034726866400,3.457866455078125,1.2043648297317326,9.109932640719412,-3.424764605078101
1789225034736905500,3.467905517578125,1.2286505452044307,9.088146925368905,-3.4736697980225086
1789225034746945300,3.4779453125,1.2477486289061606,9.062354312464594,-3.533730883492529
1789225034756984600,3.487984619140625,1.2613954614646732,9.033030018302798,-3.6032846044510602
1789225034767023600,3.498023681640625,1.270018766772747,9.00047857878804,-3.6808755013927814
1789225034777063700,3.508063720703125,1.2750938780799508,8.964675444000958,-3.765516316846013
1789225034787102500,3.5181025390625,1.277864073445648,8.926975535681843,-3.853122704106569
1789225034797141500,3.5281416015625,1.276840721747279,8.88897284502387,-3.940334246830642
1789225034807180300,3.53818017578125,1.275075904031843,8.846901297491788,-4.034464190641045
1789225034817220400,3.548220458984375,1.2855861921302973,8.799239382606745,-4.13413014126867
1789225034827259600,3.558259765625,1.3050816045865417,8.748310574880241,-4.2348795032188296
1789225034837298400,3.56829833984375,1.3204573067642749,8.696367621675133,-4.335892484541237
1789225034847337500,3.57833740234375,1.3302186761915682,8.641423733088374,-4.441472627648711
1789225034857377500,3.58837744140625,1.3302018711872399,8.587240307480096,-4.54535502692759
1789225034867416300,3.598416259765625,1.3158711480177938,8.541990129911898,-4.633924414001405
1789225034877455400,3.608455322265625,1.2825949013598263,8.513926064944267,-4.694509231084585
1789225034887495400,3.618495361328125,1.2262054901398718,8.499320616486669,-4.735858601821959
1789225034897534700,3.62853466796875,1.159107272574678,8.491369365221262,-4.766918633735179
1789225034907573500,3.638573486328125,1.0948885559685528,8.48523656155467,-4.792949731570482
1789225034917612500,3.648612548828125,1.0356257082041351,8.481250706788897,-4.813133564682304
1789225034927652600,3.658652587890625,0.9925452758904546,8.48262608679533,-4.81978074761182
1789225034937691400,3.66869140625,0.962050915035978,8.494090899139643,-4.805751053215563
1789225034947730400,3.67873046875,0.9357410002592951,8.517924779191613,-4.768619007912278
1789225034957770500,3.6887705078125,0.9096709586530923,8.55314222304523,-4.710267356708646
1789225034967809500,3.6988095703125,0.8778679994180798,8.59980402097702,-4.630667458032072
1789225034977848600,3.7088486328125,0.8334672782860696,8.661354175961018,-4.522902956622839
1789225034987887400,3.718887451171875,0.7546421633742749,8.742409241881965,-4.378493608905375
1789225034997927400,3.728927490234375,0.6655848466530442,8.845566249495745,-4.181311286899447
1789225035007966500,3.738966552734375,0.6606680677127093,8.93123377764821,-3.995870256091654
1789225035018005500,3.749005615234375,0.6229821148537099,8.994555033957958,-3.8574914207100868
1789225035028044500,3.75904443359375,0.5904173409333452,9.04552300465107,-3.7416955885365604
1789225035038084600,3.769084716796875,0.5530239778127521,9.09054229607284,-3.6368408370941876
1789225035048123600,3.77912353515625,0.5192220998454838,9.133377229192853,-3.533016890004277
1789225035058162400,3.789162353515625,0.49497814115528016,9.171545924067496,-3.436300144571066
1789225035068202500,3.799202392578125,0.47925819211713966,9.200619458338618,-3.3599545715153214
1789225035078241500,3.809241455078125,0.46326381005179135,9.219582517483829,-3.309842633129656
1789225035088280300,3.8192802734375,0.46069461715091015,9.23097777172327,-3.278290433785319
1789225035098319600,3.829319580078125,0.4689820415681228,9.233423995831608,-3.270217017444968
1789225035108359700,3.839359619140625,0.4929003119679168,9.227893834233283,-3.2822841795966027
1789225035118398500,3.8493984375,0.5303333129791542,9.216942232108115,-3.307128697995841
1789225035128437500,3.8594375,0.5743538026219234,9.202392313230037,-3.3401299271047113
1789225035138477600,3.8694775390625,0.624527517664805,9.18597776952386,-3.3761168940261004
1789225035148516400,3.879516357421875,0.6848217543035745,9.168582398086786,-3.4115216771453616
1789225035158555400,3.889555419921875,0.7450952404152602,9.15292714831531,-3.440807392862439
1789225035168594700,3.8995947265625,0.8029430337499827,9.141201639208196,-3.458918219092488
1789225035178634500,3.909634521484375,0.8722077086340636,9.13030205953121,-3.4709129005298016
1789225035188673500,3.919673583984375,0.9570053220842033,9.122778678289055,-3.4683524023920294
1789225035198712600,3.929712646484375,1.0284409843318163,9.118763597428797,-3.4584476789712904
1789225035208752400,3.93975244140625,1.1105978009495883,9.116253075912594,-3.4396056158572432
1789225035218791400,3.94979150390625,1.2002145051192492,9.116834675192832,-3.4078131780162453
1789225035228830500,3.95983056640625,1.2790082750447094,9.12295812650919,-3.362462462683022
1789225035238869500,3.969869384765625,1.3586040820680558,9.13166516457796,-3.3071526633933184
1789225035248909600,3.97990966796875,1.4322960718750952,9.14474091925025,-3.239230050767958
1789225035258948600,3.989948486328125,1.4998567193202674,9.158269093865156,-3.169685682159662
1789225035268987400,3.9999873046875,1.5496268585309385,9.173433929771184,-3.101152536420524
1789225035279027500,4.01002734375,1.6015296258561311,9.18935162987113,-3.0267659884780644
1789225035289066500,4.02006640625,1.6404998463720082,9.207954623532295,-2.948345070452988
1789225035299105300,4.030105224609375,1.6962040518067776,9.22629633590877,-2.8581019049480556
1789225035309144600,4.04014453125,1.7324145983509718,9.248381910988687,-2.763431862911582
1789225035319184600,4.0501845703125,1.7570616944819688,9.271838774421811,-2.667609143708646
1789225035329223400,4.060223388671875,1.7811697153002022,9.286290493622422,-2.600504569467902
1789225035339262500,4.070262451171875,1.8053021399073301,9.300027927073836,-2.533922557796538
1789225035349301500,4.080301513671875,1.848199616869539,9.306763957330585,-2.4776424521699547
1789225035359341300,4.09034130859375,1.8931201240919528,9.308088483932615,-2.43843886128962
1789225035369380400,4.10038037109375,1.9605882709480822,9.301168913802504,-2.411378128145635
1789225035379419600,4.110419677734375,2.0434217447184024,9.286551190385222,-2.398913637239486
1789225035389459700,4.120459716796875,2.140689255902171,9.264020209625363,-2.4012054014384745
1789225035399498500,4.13049853515625,2.245082819573581,9.236583336645364,-2.4115352184034884
1789225035409537500,4.14053759765625,2.346998302693665,9.207354319551586,-2.426237259103358
1789225035419577600,4.15057763671875,2.440643385596573,9.179729815044999,-2.4384886917807163
1789225035429616400,4.160616455078125,2.5222163379117846,9.156481625926494,-2.4428809353902934
1789225035439655400,4.170655517578125,2.5928008632227777,9.137955789154768,-2.4383470913529393
1789225035449694500,4.180694580078125,2.6548364636361597,9.123204794746636,-2.4268038069449362
1789225035459734500,4.190734619140625,2.7142279792815445,9.110464555639028,-2.4089007782466707
1789225035469773600,4.200773681640625,2.770483534988761,9.099411246705055,-2.3865279106579718
1789225035479812400,4.210812255859375,2.8251526982873676,9.08910671031177,-2.3615701411426064
1789225035489851400,4.220851318359375,2.88043648635298,9.07920490950048,-2.3327060118384657
1789225035499891500,4.230891357421875,2.937082502682507,9.069417090457677,-2.2999188638716936
1789225035509930500,4.240930419921875,2.999158727367222,9.058777038499713,-2.2614092466048894
1789225035519969500,4.250969482421875,3.070979808735847,9.045474489334225,-2.2178483372978866
1789225035530009600,4.261009521484375,3.150874014183879,9.028821460697054,-2.1731886729687453
1789225035540048600,4.271048583984375,3.234142079979181,9.01086787085533,-2.1248428674727675
1789225035550087400,4.28108740234375,3.311156053815782,8.994733313134311,-2.073981864285469
1789225035560126500,4.29112646484375,3.3712621474713087,8.98445917187929,-2.0210069376841187
1789225035570166500,4.30116650390625,3.415220823924243,8.979713438656926,-1.967585874750465
1789225035580205600,4.31120556640625,3.4444147697046397,8.978573036450147,-1.9213588149741292
1789225035590244600,4.32124462890625,3.4675650514066216,8.97705620214641,-1.8864903306886553
1789225035600284700,4.33128466796875,3.4869673787519333,8.974773059645294,-1.8614260320588945
1789225035610323500,4.341323486328125,3.499587790872156,8.97385009958148,-1.8420891711652279
1789225035620362500,4.351362548828125,3.5075784973651167,8.973201864805818,-1.830008857271075
1789225035630402600,4.361402587890625,3.51526583699733,8.971110445484518,-1.8255083309814333
1789225035640441300,4.37144140625,3.5240880258783696,8.96739697791934,-1.8267377266459166
1789225035650480400,4.38148046875,3.5281945844143627,8.965991202774644,-1.8257139365561306
1789225035660519700,4.391519775390625,3.5203473780453205,8.970726999124883,-1.8175792915478348
1789225035670559500,4.4015595703125,3.506540678749978,8.978467822510003,-1.806013941438496
1789225035680598500,4.4115986328125,3.4943881764024494,8.985589637213945,-1.794109860894084
1789225035690637600,4.421637451171875,3.48527577240318,8.991240210321545,-1.783490267202258
1789225035700677400,4.431677490234375,3.4792926063403486,8.995515403422713,-1.773582182780653
1789225035710716400,4.44171630859375,3.4746515025362372,8.998717998856305,-1.7664286577641963
1789225035720755500,4.45175537109375,3.4674835106030106,9.00161956551671,-1.7657300079755485
1789225035730794500,4.46179443359375,3.458507884725928,9.004518209567665,-1.7685504722237586
1789225035740834600,4.47183447265625,3.4509374494716525,9.006786739021539,-1.771782001490891
1789225035750873600,4.48187353515625,3.448054879772663,9.007481735548376,-1.7738634839400649
1789225035760912400,4.491912353515625,3.4460341876000165,9.008316432806849,-1.773548865032941
1789225035770952400,4.501952392578125,3.444397234047949,9.008019495686888,-1.7782251862809062
1789225035780991500,4.511991455078125,3.452099478988349,9.00439604449272,-1.7816418628565966
1789225035791030500,4.522030517578125,3.469842348688841,8.996966771274804,-1.784706364993751
1789225035801069600,4.532069580078125,3.502298218874633,8.983774696746469,-1.7877588844321668
1789225035811109600,4.542109619140625,3.552200898423791,8.963696369835734,-1.7900883502930403
1789225035821148400,4.5521484375,3.6168984115228056,8.938617458158731,-1.7859278696127234
1789225035831187500,4.5621875,3.687320147487521,8.911658724084496,-1.7766269573040305
1789225035841227500,4.5722275390625,3.7598786032199856,8.884098516985773,-1.7625208366706966
1789225035851266300,4.582266357421875,3.788389827433228,8.87349178277552,-1.7548875653132796
1789225035861305600,4.5923056640625,3.780254744033515,8.878476000928877,-1.7472031482905148
1789225035871344600,4.6023447265625,3.783880533315241,8.879289655399322,-1.7351745645835994
1789225035881384400,4.612384521484375,3.801763103747368,8.8741446937263,-1.7223590682826935
1789225035891423500,4.622423583984375,3.8190328029781577,8.869666671529412,-1.707159014932811
1789225035901462500,4.632462646484375,3.8328216743558645,8.8674513335675,-1.6876526426911354
1789225035911502600,4.642502685546875,3.8437031338542695,8.86644420235157,-1.668086503086239
1789225035921541400,4.652541259765625,3.855451731576025,8.863657786503433,-1.6557301487296818
1789225035931580400,4.662580322265625,3.8690304673343894,8.859261012849212,-1.6475699308887124
1789225035941620500,4.672620361328125,3.877526493000984,8.857024047577381,-1.63960625853315
1789225035951659500,4.682659423828125,3.8825218170702454,8.856507914748788,-1.630545584721118
1789225035961698600,4.692698486328125,3.8850732551187273,8.856918249115347,-1.6222171707063913
1789225035971737300,4.7027373046875,3.882968684054911,8.859382008880376,-1.6137791588373482
1789225035981777400,4.71277734375,3.877900879271328,8.863205951082707,-1.6049490789107976
1789225035991816400,4.72281640625,3.8706455013155936,8.867540180894732,-1.5985069170340895
1789225036001855500,4.73285546875,3.8590173151031135,8.873506395822764,-1.5935044325716792
1789225036011895300,4.742895263671875,3.8448350604936476,8.880527088239788,-1.5886664910212158
1789225036021934600,4.7529345703125,3.830362883026898,8.88750043438375,-1.5846270063720642
1789225036031973600,4.7629736328125,3.81655764503628,8.894235295596719,-1.5801396318249403
1789225036042012400,4.773012451171875,3.798487735338509,8.902795034149289,-1.5754665254473685
1789225036052052500,4.783052490234375,3.7824788498237725,8.910302633300423,-1.5715456987418233
1789225036062091500,4.793091552734375,3.7709143764972683,8.915354655992985,-1.5706838212154806
1789225036072130600,4.803130615234375,3.7659368803456426,8.916869152209163,-1.574024656075984
1789225036082170400,4.81317041015625,3.7736163289323446,8.912797372725606,-1.578683880058676
1789225036092209700,4.823209716796875,3.776215405514836,8.911313856169581,-1.5808507027037442
1789225036102248400,4.83324853515625,3.770630006597936,8.91357244875133,-1.5814420927256345
1789225036112287500,4.84328759765625,3.7701667730003594,8.913466065767407,-1.583150942470133
1789225036122327600,4.85332763671875,3.774626967279613,8.911047314187885,-1.5861312734551727
1789225036132366300,4.863366455078125,3.7783608931109307,8.909017854186892,-1.58864018753618
1789225036142405600,4.873405517578125,3.777330088758468,8.908689937406777,-1.5929234178133307
1789225036152445400,4.883445556640625,3.773481304375827,8.909312453219295,-1.5985574781775473
1789225036162484500,4.893484375,3.7696293051227925,8.909859565708041,-1.6045850679039955
1789225036172523300,4.903523193359375,3.7669928191393613,8.909967702257633,-1.6101679826028643
1789225036182563300,4.913563232421875,3.7633220216721295,8.910491433870792,-1.6158444208040832
1789225036192602400,4.923602294921875,3.7566657786533235,8.9121742723912,-1.6220286623969673
1789225036202641200,4.93364111328125,3.7491143403604625,8.914136512374878,-1.6287101859875022
1789225036212680400,4.943680419921875,3.743165661089122,8.915413692703842,-1.635384403054416
1789225036222720500,4.953720458984375,3.7399925840109582,8.915664452594518,-1.6412686387874185
1789225036232759600,4.963759521484375,3.7381504632756113,8.915531766125559,-1.6461764307036995
1789225036242798300,4.97379833984375,3.73598042576015,8.915537611344456,-1.6510652256585656
1789225036252838400,4.98383837890625,3.734714059086144,8.914995175030827,-1.6568496542789042
1789225036262877400,4.99387744140625,3.7360777486547825,8.91319952378571,-1.6634291787996887
1789225036272916200,5.003916259765625,3.7390807298630473,8.91090585989058,-1.6689584636151789
1789225036282956300,5.013956298828125,3.7408290348351,8.909475534826516,-1.6726663782224058
1789225036292995300,5.023995361328125,3.7411321094349024,8.908813856047392,-1.6755194295659661
1789225036303034400,5.034034423828125,3.7419720673903822,8.90792012207806,-1.6783888475224376
1789225036313073400,5.044073486328125,3.743182027702033,8.906800178137422,-1.6816294368788598
1789225036323113500,5.054113525390625,3.742818455086648,8.906364709329605,-1.6847471305079758
1789225036333152300,5.06415234375,3.7406843656674025,8.906654047664999,-1.6879507488548755
1789225036343191300,5.07419140625,3.738132635357976,8.90715615196824,-1.6909508074536919
1789225036353231400,5.0842314453125,3.73571914447546,8.907715539416671,-1.69333667967692
1789225036363270400,5.0942705078125,3.7324870306864377,8.908707473063469,-1.6952441207334399
1789225036373309400,5.104309326171875,3.7278058871328827,8.91045636255741,-1.6963494516268371
1789225036383348500,5.114348388671875,3.7229897190228103,8.912290007725357,-1.697297984523326
1789225036393388300,5.12438818359375,3.71918565056473,8.913710395917295,-1.698180320315808
1789225036403427300,5.13442724609375,3.7157515844628213,8.915091621142626,-1.6984407248176634
1789225036413466400,5.14446630859375,3.712775199000537,8.91635009677112,-1.6983441325753925
1789225036423506200,5.154506103515625,3.7111990357249973,8.917028726685047,-1.6982301508069038
1789225036433545500,5.16454541015625,3.711067810560763,8.916981380411983,-1.6987651344664394
1789225036443584500,5.17458447265625,3.711463239619136,8.916625406581163,-1.6997709505081176
1789225036453624300,5.184624267578125,3.711861883547902,8.916342497986555,-1.700380022317171
1789225036463663400,5.194663330078125,3.711330260889232,8.916628329190612,-1.7000439222306012
1789225036473702400,5.204702392578125,3.7104280513525008,8.917050938516855,-1.6998038298644125
1789225036483741200,5.2147412109375,3.708529231993854,8.917699173292517,-1.7005436884462832
1789225036493781200,5.22478125,3.705404670232534,8.918640838056803,-1.702412697188556
1789225036503820500,5.234820556640625,3.7020734799832105,8.91956029098928,-1.7048437237277625
1789225036513859300,5.244859375,3.698824999581277,8.920343550321459,-1.7077850378766655
1789225036523899400,5.2548994140625,3.6947342231363054,8.921492135834693,-1.7106446650914846
1789225036533938400,5.2649384765625,3.6901591703057286,8.922949348905682,-1.7129180168509481
1789225036543977200,5.274977294921875,3.686360070283711,8.92403363701105,-1.715445197241008
1789225036554017300,5.285017333984375,3.6845606196463105,8.924101441550254,-1.7189549589276312
1789225036564056300,5.295056396484375,3.68209978249073,8.923800412777066,-1.7257786674678324
1789225036574095400,5.305095458984375,3.6838913420826196,8.922100038599968,-1.7307405276589094
1789225036584134400,5.315134521484375,3.691372930009663,8.917851148983836,-1.7366896453216671
1789225036594174500,5.325174560546875,3.703379594145715,8.911453556901217,-1.743954083366692
1789225036604213500,5.335213623046875,3.714664958269894,8.905940346437692,-1.748103896522522
1789225036614252300,5.345252197265625,3.722518302118778,8.900331274384259,-1.7599254133500157
1789225036624292400,5.355292236328125,3.7319019242748617,8.893688767629861,-1.7735792601712046
1789225036634331400,5.365331298828125,3.737487030930817,8.88971635686755,-1.7817194581374525
1789225036644370400,5.375370361328125,3.7351343303248283,8.890087528267502,-1.784796527495235
1789225036654410200,5.38541015625,3.7293922795414924,8.892133939403294,-1.786611175701767
1789225036664449500,5.395449462890625,3.7272289640277623,8.892464778792858,-1.7894708029165862
1789225036674488300,5.40548828125,3.727602181254327,8.89169671702981,-1.7925068096116183
1789225036684527400,5.41552734375,3.723433955658972,8.891776796528697,-1.8007617199987171
1789225036694567400,5.4255673828125,3.719720488093793,8.891015164506435,-1.8121558051943778
1789225036704606200,5.435606201171875,3.7155388184949754,8.890496109068394,-1.8232479848340153
1789225036714645500,5.4456455078125,3.7074662789374586,8.892333845889567,-1.8307060457549988
1789225036724685300,5.455685302734375,3.698702249984443,8.895901182982325,-1.83110015963912
1789225036734724400,5.465724365234375,3.6954783195018766,8.89831467386484,-1.8258736571624874
1789225036744763400,5.475763427734375,3.6964632388859986,8.899228281578422,-1.819414105759561
1789225036754803500,5.485803466796875,3.7007559676438566,8.8984076128453,-1.814694529891759
1789225036764842200,5.49584228515625,3.708950380015373,8.895424213120341,-1.8125991650477051
1789225036774881300,5.50588134765625,3.7185245563074942,8.891212148383259,-1.8136397601418197
1789225036784920600,5.515920654296875,3.7273853236332535,8.88710822019577,-1.8155724817700682
1789225036794960400,5.52596044921875,3.7334035610094665,8.884765456461906,-1.8146704183638094
1789225036804999400,5.53599951171875,3.7352830911457535,8.885241841802001,-1.8084632342867553
1789225036815038500,5.54603857421875,3.7336192495867606,8.887540181872248,-1.80058387921378
1789225036825078300,5.556078369140625,3.732734867967665,8.889434032794833,-1.7930533375784754
1789225036835117300,5.566117431640625,3.7334365864962336,8.890262884834408,-1.787477583272755
1789225036845156400,5.57615625,3.7316762988254424,8.891762768003344,-1.7836811135992408
1789225036855196400,5.586196533203125,3.72620721976459,8.894575487336516,-1.7810941658459603
1789225036865235500,5.5962353515625,3.7208383862078187,8.897619092816115,-1.7771118182115255
1789225036875274500,5.6062744140625,3.715265262250602,8.901372307869792,-1.7699641384139655
1789225036885314600,5.616314453125,3.70680196980983,8.90685512319505,-1.7600987240903079
1789225036895353300,5.626353271484375,3.6989208611711857,8.912156152212619,-1.7498147920936344
1789225036905392400,5.636392333984375,3.6941561309874054,8.915972495630383,-1.7404115884542464
1789225036915431200,5.64643115234375,3.6898391445711254,8.919262769347428,-1.732695022727549
1789225036925471200,5.65647119140625,3.6865704981639977,8.922199991843105,-1.7245030945740638
1789225036935510300,5.66651025390625,3.6865424411132928,8.923898612454533,-1.7157574780605733
1789225036945549300,5.67654931640625,3.686775373086333,8.925681988739967,-1.7059551921010017
1789225036955589400,5.68658935546875,3.6851372504904862,8.928655451592803,-1.6938909525588153
1789225036965628400,5.69662841796875,3.6835496890380974,8.931852786329388,-1.680430290222168
1789225036975667500,5.70666748046875,3.6833684872522947,8.934541002500056,-1.666483305673301
1789225036985707300,5.716707275390625,3.682463355106115,8.937452506032585,-1.6528145535439251
1789225036995746300,5.726746337890625,3.679457451288402,8.94113440941572,-1.6395381617330014
1789225037005785300,5.736785400390625,3.676091189725697,8.944999852672218,-1.6259462742321191
1789225037015825200,5.7468251953125,3.671555299861729,8.949383766844868,-1.6120146333828567
1789225037025864400,5.756864501953125,3.6649408501580356,8.954778319364786,-1.5970383057862518
1789225037035903500,5.766903564453125,3.655380117869377,8.961538899540901,-1.5809512404687702
1789225037045942300,5.7769423828125,3.6455072508916255,8.968023585385083,-1.5669157008536159
1789225037055982300,5.786982421875,3.6445512653410432,8.971198123767971,-1.5508834344632922
1789225037066021400,5.797021484375,3.6468574964568017,8.972757043647766,-1.5363691714204848
1789225037076060400,5.807060302734375,3.6460558246850967,8.975739274328946,-1.520778072926402
1789225037086100200,5.817100341796875,3.6440114593759176,8.979711685091257,-1.5021106357268987
1789225037096139500,5.827139404296875,3.6439261191800236,8.983158610674739,-1.4815687829576432
1789225037106178300,5.83717822265625,3.6441266101881857,8.9866803550601,-1.4595581728100775
1789225037116218400,5.84721826171875,3.6427190814778205,8.990840397349,-1.4372756138533354
1789225037126257400,5.85725732421875,3.6409254760593175,8.995075842961668,-1.4151488299801944
1789225037136296200,5.867296142578125,3.63978332028687,8.998870559069514,-1.3938007753945887
1789225037146335500,5.87733544921875,3.6377883470773695,9.002977409866451,-1.3723219340361654
1789225037156375300,5.887375244140625,3.6336873414993285,9.008166795203088,-1.348935797751695
1789225037166414300,5.897414306640625,3.630137247802317,9.013377807849645,-1.323444505881518
1789225037176453400,5.907453369140625,3.629758769878745,9.017652416428923,-1.295058223222196
1789225037186493400,5.917493408203125,3.6290026908144353,9.021732963740826,-1.2684795745067297
1789225037196532200,5.9275322265625,3.628269115842879,9.02560366769433,-1.242785891932249
1789225037206571300,5.9375712890625,3.6277968221560117,9.029102615725993,-1.2185192464862018
1789225037216611300,5.947611328125,3.628445349192619,9.032033408480881,-1.1946330517251045
1789225037226650400,5.957650390625,3.631946050789952,9.03401493768692,-1.1687309140317141
1789225037236689400,5.967689453125,3.6327515219539404,9.037170771369338,-1.141512140781805
1789225037246729500,5.9777294921875,3.6283921577006577,9.042450173076986,-1.1132234002128243
1789225037256768500,5.9877685546875,3.623745793199539,9.047589874053001,-1.086269415378943
1789225037266807300,5.997807373046875,3.621905133768916,9.051278791698813,-1.0613939903847873
1789225037276847400,6.007847412109375,3.6210143224090334,9.054273881861567,-1.0386450560253113
1789225037286886400,6.017886474609375,3.6192835530936716,9.057367756223679,-1.0174825871396809
1789225037296925200,6.02792529296875,3.6163726340830324,9.06083163294196,-0.9967775796979665
1789225037306964500,6.037964599609375,3.6115465291008353,9.065271076694131,-0.973639280694723
1789225037317004500,6.048004638671875,3.605582067738473,9.070444679939746,-0.947202086276561
1789225037327043300,6.058043212890625,3.601878244784474,9.074862496381998,-0.918548604048416
1789225037337082400,6.068082275390625,3.600321078470349,9.078184918802975,-0.8914174360167234
1789225037347122400,6.078122314453125,3.5986531452581283,9.081189945837854,-0.8672185220446437
1789225037357161200,6.0881611328125,3.597287117601931,9.083780546852946,-0.8454838792942464
1789225037367200300,6.0982001953125,3.5991140407681463,9.084977647683024,-0.8245846644546836
1789225037377240300,6.108240234375,3.6030554718703027,9.08530147280991,-0.803531647292897
1789225037387279400,6.118279296875,3.6062077984213827,9.085976595592498,-0.7814666035443544
1789225037397318400,6.128318359375,3.6095702605918047,9.086613724452256,-0.7581902112446725
1789225037407358500,6.1383583984375,3.6137460849717256,9.08681187737286,-0.7355874073576182
1789225037417397200,6.148397216796875,3.616129180715978,9.087582277223467,-0.7140452184394002
1789225037427436300,6.158436279296875,3.6159827579826116,9.08925576339364,-0.6931535293191671
1789225037437476400,6.168476318359375,3.6152477217063304,9.091106359696388,-0.6724363199830055
1789225037447515100,6.17851513671875,3.6145819512739776,9.092805564829707,-0.6527372016482055
1789225037457554400,6.188554443359375,3.613106033502519,9.094705260971187,-0.6341857189785689
1789225037467593500,6.198593505859375,3.609006489229202,9.097532593351602,-0.6167337219834327
1789225037477633500,6.208633544921875,3.602687515340745,9.10113558627963,-0.6003008389029652
1789225037487672300,6.21867236328125,3.5969296824663877,9.104480805054306,-0.583871243758127
1789225037497711400,6.22871142578125,3.5908036008015274,9.107969816213846,-0.5669123275095597
1789225037507751400,6.23875146484375,3.5830575167194008,9.11213745728731,-0.5486694358650595
1789225037517790200,6.248790283203125,3.5763013204574583,9.11587021407485,-0.5304487925849855
1789225037527829500,6.25882958984375,3.572261689677834,9.11846373769939,-0.5127986061366274
1789225037537869600,6.26886962890625,3.569535187323391,9.120475077521801,-0.4957378734814003
1789225037547908400,6.278908447265625,3.5677819139152764,9.122033997401594,-0.47940187490414826
1789225037557947400,6.288947509765625,3.569329143357277,9.122212861099838,-0.46424423592388625
1789225037567987500,6.298987548828125,3.573106616069376,9.121458827862144,-0.44975320762619375
1789225037578026200,6.309026123046875,3.575317277856171,9.121280548685789,-0.43558852520603686
1789225037588065300,6.319065185546875,3.576081540226936,9.121659903392196,-0.4211353812333196
1789225037598105300,6.329105224609375,3.5780987252682444,9.121512019354105,-0.40696821459513155
1789225037608144400,6.339144287109375,3.5766289449766275,9.122588708674908,-0.39557522537801415
1789225037618183400,6.349183349609375,3.568769463647902,9.125992964160442,-0.3879659559506923
1789225037628223500,6.359223388671875,3.563845743510127,9.128171477243304,-0.38195699785947795
1789225037638262300,6.36926220703125,3.564813711759448,9.128069770434498,-0.37526418568994846
1789225037648301300,6.37930126953125,3.563705750517547,9.128872318989037,-0.3661652622267604
1789225037658340400,6.38934033203125,3.5586806158319115,9.131170074537396,-0.35764625754337753
1789225037668380200,6.399380126953125,3.555962004522979,9.132460698869824,-0.3517113510690629
1789225037678419500,6.40941943359375,3.5578429959639903,9.131837598535418,-0.348829986946471
1789225037688458500,6.41945849609375,3.561083000798523,9.130610102567076,-0.3479099129594862
1789225037698498300,6.429498291015625,3.563873216038942,9.129557378643751,-0.34693770692646503
1789225037708537300,6.439537353515625,3.5664497885286806,9.12862448170781,-0.345039179828763
1789225037718576400,6.449576416015625,3.5667686452195047,9.12858824135065,-0.3426830816892907
1789225037728616400,6.459616455078125,3.564255785615742,9.12965148666799,-0.34049970976822075
1789225037738655200,6.4696552734375,3.5619530616313217,9.130596658563613,-0.33927173887584355
1789225037748694500,6.479694580078125,3.5603687150493264,9.131195208978653,-0.3397378950828686
1789225037758734600,6.489734619140625,3.558281971903145,9.131948073172568,-0.3413732411997393
1789225037768773400,6.4997734375,3.556143498569727,9.13271028971672,-0.34327984200604256
1789225037778812400,6.5098125,3.5549390912160277,9.133106595557928,-0.34521585156992074
1789225037788852500,6.5198525390625,3.555525951193273,9.132806151306628,-0.3470990349680185
1789225037798891300,6.529891357421875,3.5578090936943885,9.131827661663293,-0.34944658447485416
1789225037808930300,6.539930419921875,3.560616844591498,9.130627638223766,-0.35217253884002564
1789225037818970400,6.549970458984375,3.563244855007529,9.12950184906423,-0.354779579533264
1789225037829009400,6.560009521484375,3.566055528514087,9.128327544587851,-0.35675303503070027
1789225037839048400,6.57004833984375,3.5698867772400376,9.126789667496084,-0.3577682034226134
1789225037849088500,6.580088623046875,3.57468424064964,9.124882372570037,-0.35851226325556634
1789225037859127300,6.590127197265625,3.579244680432975,9.123042297661303,-0.3598382511623204
1789225037869166300,6.600166259765625,3.583148117612302,9.121434277942775,-0.3617558117540553
1789225037879206400,6.610206298828125,3.58708779514879,9.119810476133226,-0.36365656734146173
1789225037889245200,6.6202451171875,3.590261749009788,9.118513422060012,-0.3648705097084865
1789225037899284500,6.630284423828125,3.5916476504102346,9.117967478615045,-0.36488797229994085
1789225037909323500,6.640323486328125,3.5912396541312335,9.11816387796998,-0.36395306607000527
1789225037919363300,6.65036328125,3.5895775661379097,9.118846599537134,-0.3632646454144269
1789225037929402400,6.66040234375,3.588166822557151,9.119403648898006,-0.3632200390877202
1789225037939441400,6.67044140625,3.5875621346622704,9.119639795741438,-0.36327545906938613
1789225037949481200,6.680481201171875,3.586916822496056,9.119909844854474,-0.3628544206457212
1789225037959520300,6.690520263671875,3.5861762332618237,9.120256466335057,-0.36144407892376185
1789225037969559600,6.7005595703125,3.586709901747107,9.120153590482472,-0.3587751519754529
1789225037979599400,6.710599365234375,3.5887706336691974,9.119493665269017,-0.3548676962081343
1789225037989638400,6.720638427734375,3.5907197219103573,9.118896868419647,-0.35049832201749087
1789225037999677400,6.730677490234375,3.5946380643978713,9.117525580066442,-0.3459591807505116
1789225038009717500,6.740717529296875,3.5973052377805113,9.1166154794842,-0.34217918728776275
1789225038019756300,6.75075634765625,3.601049977266788,9.115278093400597,-0.33839725759625433
1789225038029795300,6.76079541015625,3.6070094701930877,9.11301424012184,-0.3358878320585936
1789225038039835400,6.77083544921875,3.613186113001406,9.11055398748815,-0.3362744567560032
1789225038049874400,6.78087451171875,3.622238603506982,9.10699132657051,-0.33540863370690494
1789225038059913500,6.79091357421875,3.6336043393909927,9.10261033500731,-0.3313599793706089
1789225038069953500,6.80095361328125,3.642349371382594,9.099422352620959,-0.32277309708278623
1789225038079992300,6.810992431640625,3.6485283522784706,9.097335024952889,-0.3116773372465744
1789225038090031400,6.82103125,3.6521491731241342,9.096161304998397,-0.3034209472884424
1789225038100071400,6.831071533203125,3.6533123716846108,9.095854431006313,-0.29854886600635944
1789225038110110200,6.841110107421875,3.6516321635127067,9.096571054843068,-0.2972845999578945
1789225038120149200,6.851149169921875,3.646666650059819,9.098592916059493,-0.2963543881693855
1789225038130189300,6.861189208984375,3.6383962498426436,9.101986650151014,-0.2937942005588673
1789225038140228400,6.871228271484375,3.62786550347805,9.106305097872019,-0.29016413696082305
1789225038150267400,6.881267333984375,3.616863924731314,9.110821698513627,-0.28565551869627087
1789225038160307500,6.891307373046875,3.606576631733775,9.115033763250707,-0.2813211610200815
1789225038170346200,6.90134619140625,3.599993161690235,9.117720810377596,-0.2785556418295018
1789225038180385300,6.91138525390625,3.600445581632852,9.117506290844082,-0.27973833054173736
1789225038190425300,6.92142529296875,3.605163257804513,9.115565093648433,-0.2822617298058234
1789225038200464100,6.931464111328125,3.6131422738596797,9.112298200806976,-0.28565599362030625
1789225038210503400,6.94150341796875,3.619646248926222,9.109760791283845,-0.28424188903868197
1789225038220542200,6.951542236328125,3.6240634808465835,9.108338065004348,-0.2733851438564248
1789225038230582300,6.961582275390625,3.6282223540917036,9.107162006962298,-0.25687866581678387
1789225038240621300,6.971621337890625,3.6301673506796357,9.106573393419385,-0.2501773415472358
1789225038250660000,6.98166015625,3.6286332729801534,9.10714271773994,-0.25173564037252216
1789225038260700200,6.9917001953125,3.630501404939592,9.106029203540086,-0.264736174384132
1789225038270739200,7.0017392578125,3.636278527036309,9.103108932179213,-0.2850756181827746
1789225038280778200,7.0117783203125,3.6455534281209108,9.098792238023877,-0.30382589309383184
1789225038290818300,7.021818359375,3.667415423578024,9.090230745905638,-0.29693520199833434
1789225038300857300,7.031857421875,3.683161274242401,9.084344610476494,-0.28177487787064165
1789225038310896400,7.041896484375,3.6814988939881323,9.085367523783445,-0.27030016518682237
1789225038320936200,7.051936279296875,3.6856615666255355,9.08405118048787,-0.25750872561493887
1789225038330975200,7.061975341796875,3.69407312887907,9.080987116742133,-0.24473063871497286
1789225038341014300,7.07201416015625,3.700901221333444,9.078713326591252,-0.225116129923705
1789225038351054000,7.08205419921875,3.704568219408393,9.07799261110127,-0.19133458235841244
1789225038361093400,7.09209326171875,3.7040041557848453,9.078957072219252,-0.15263512334162369
1789225038371132400,7.10213232421875,3.7047958906844256,9.079300186568497,-0.10577454230156727
1789225038381172200,7.112172119140625,3.7056881633490324,9.079456838434934,-0.04145945721545722
1789225038391211300,7.122211181640625,3.709759650571644,9.07775061903894,0.04996754777918104
1789225038401250300,7.132250244140625,3.700048696157336,9.080476244610548,0.15805270967725663
1789225038411290000,7.1422900390625,3.6943203816384074,9.079490740704536,0.29196786191454155
1789225038421329200,7.1523291015625,3.6962656704872843,9.071505002647637,0.4645562975477427
1789225038431368400,7.162368408203125,3.6994568677440283,9.056769205808639,0.6777383719138801
1789225038441408500,7.172408447265625,3.68753671284765,9.037602148523927,0.9456179588902741
1789225038451447300,7.182447265625,3.6539363488018513,9.012853491714596,1.2599953854084014
1789225038461486300,7.192486328125,3.609743863593042,8.97782251034379,1.593373353537917
1789225038471526400,7.2025263671875,3.5795126837193965,8.932655919405818,1.8881524186819791
1789225038481565200,7.212565185546875,3.5703868357166644,8.880416029080749,2.1356294882945717
1789225038491604200,7.222604248046875,3.5868531096100806,8.81752614992559,2.35713873456642
1789225038501644300,7.232644287109375,3.5836487606108185,8.775335944449902,2.5142262159407136
1789225038511683300,7.242683349609375,3.5674677333995697,8.752438468465208,2.6150284771218892
1789225038521722400,7.252722412109375,3.5547245716825127,8.750220792415737,2.639690040169656
1789225038531762400,7.262762451171875,3.5617037630453705,8.752097107681632,2.624012578566372
1789225038541801200,7.27280126953125,3.5918852585583925,8.747690981677174,2.597432906937599
1789225038551840300,7.28284033203125,3.6216657720550893,8.744905734872818,2.5652608221292494
1789225038561880300,7.29288037109375,3.6355358919754623,8.748344477149844,2.533720605483651
1789225038571919000,7.302919189453125,3.6365664040669796,8.758226404216884,2.497847035808861
1789225038581958400,7.31295849609375,3.634308688268065,8.7723718339473,2.45105605853945
1789225038591998500,7.32299853515625,3.637132513517141,8.786661640584468,2.395040010676533
1789225038602037200,7.333037353515625,3.649114627733826,8.797569403567909,2.3360483080036936
1789225038612076300,7.343076171875,3.6650565854921933,8.803902698242664,2.2867082307733595
1789225038622115300,7.353115234375,3.673746672426164,8.808547893700004,2.2546496893420813
1789225038632155100,7.363155029296875,3.6711613321080803,8.813510484543443,2.239418071810156
1789225038642194200,7.373194091796875,3.661802552132308,8.819324723780154,2.23183433868289
1789225038652234200,7.383234130859375,3.65226900011152,8.824995170632004,2.2250335726268586
1789225038662273300,7.393273193359375,3.645669163455069,8.82950008083582,2.2179722559385002
1789225038672312300,7.403312255859375,3.640206221874058,8.833634404161572,2.210470648136735
1789225038682351400,7.413351318359375,3.632410745692253,8.838499379849434,2.203836763080209
1789225038692391400,7.423391357421875,3.6227094358891248,8.84383898731172,2.1983755750648677
1789225038702430200,7.43343017578125,3.615467209675908,8.847966880896687,2.193689316944778
1789225038712469200,7.44346923828125,3.6133293208643793,8.850016214641927,2.1889405149824914
1789225038722509300,7.45350927734375,3.614075755317509,8.850980675759912,2.183798622049391
1789225038732548400,7.46354833984375,3.6136095991104837,8.852402817517518,2.178800229240209
1789225038742587400,7.47358740234375,3.6092128254562614,8.855119675260783,2.1750470141865312
1789225038752627500,7.48362744140625,3.602853811818361,8.858512824830413,2.1717682847768067
1789225038762666200,7.493666259765625,3.598222937147319,8.861326128685475,2.167967577319592
1789225038772705300,7.503705322265625,3.5957471946835518,8.863286030581593,2.1640563952252267
1789225038782745300,7.513745361328125,3.592296177446842,8.865568004038929,2.1604411273375153
1789225038792784100,7.5237841796875,3.5878415361255405,8.868056898245214,2.1576225627854466
1789225038802823400,7.533823486328125,3.583089080901444,8.870388556063174,2.1559403087869287
1789225038812863200,7.54386328125,3.5782238129526376,8.872520307394861,2.155246627434343
1789225038822902300,7.55390234375,3.575348842038214,8.873678245258331,2.1552482348695396
1789225038832941300,7.56394140625,3.57507587031573,8.873945371761918,2.1546073066174984
1789225038842981400,7.5739814453125,3.5767522790953516,8.873466648334265,2.1537936521470544
1789225038853020200,7.584020263671875,3.57837724994868,8.872836533737182,2.153685661727935
1789225038863059200,7.59405908203125,3.5786309324488044,8.872536089485884,2.154505307547748
1789225038873099300,7.604099365234375,3.5782714514866467,8.872177193045616,2.156579191212356
1789225038883138300,7.61413818359375,3.57857335704267,8.871540648707747,2.158696475627273
1789225038893177300,7.62417724609375,3.579229775124788,8.871057249104975,2.1595948857717215
1789225038903217400,7.634217529296875,3.5808614679798483,8.870207938799261,2.1603760992772876
1789225038913256200,7.644256103515625,3.5834123215064406,8.868783458954095,2.1619953710421917
1789225038923295200,7.654295166015625,3.5853801144480704,8.8673946349442,2.1644278588861225
1789225038933335300,7.664335205078125,3.5859114448457956,8.866545324638485,2.1670244512505827
1789225038943374300,7.674374267578125,3.5862954757273195,8.866092320173978,2.168244494564831
1789225038953413400,7.684413330078125,3.5878085106387734,8.86562294909656,2.16765909589231
1789225038963453200,7.694453125,3.589823649853468,8.865170529153943,2.1661730951182543
1789225038973492500,7.704492431640625,3.590843640550971,8.864870669424533,2.1657070850417015
1789225038983531300,7.71453125,3.5904961422875523,8.864740321043133,2.166815923066437
1789225038993571300,7.7245712890625,3.5893516484275456,8.864674854591488,2.168980992145836
1789225039003610400,7.7346103515625,3.588338964253664,8.8646175714463,2.170887264158577
1789225039013649200,7.744649169921875,3.5894320201873775,8.863992717546225,2.171633552481234
1789225039023689200,7.754689208984375,3.609092413946986,8.857357809576392,2.166116250364482
1789225039033728300,7.764728271484375,3.6326910239383574,8.849780652320385,2.157622708915919
1789225039043767300,7.774767333984375,3.641141749158501,8.846803097814322,2.155589741783589
1789225039053807400,7.784807373046875,3.644605918137729,8.845613011246918,2.154612713444978
1789225039063846400,7.794846435546875,3.655072659355402,8.843162695485352,2.1469244970299304
1789225039073885200,7.80488525390625,3.6691765880316494,8.840815840098262,2.132482422440499
1789225039083925200,7.81492529296875,3.675601068121195,8.841917079338431,2.1167975081831214
1789225039093964300,7.82496435546875,3.6701866418570277,8.8489126373142,2.096868672745675
1789225039104003000,7.835003173828125,3.6586695148035884,8.861059586703776,2.0654658187441526
1789225039114043100,7.845043212890625,3.647901452551782,8.877824259021878,2.011824391058087
1789225039124082400,7.85508251953125,3.6396427427724003,8.898481847125291,1.9340134216248988
1789225039134121200,7.865121337890625,3.633574528774619,8.921491551312803,1.8369852721549569
1789225039144161300,7.875161376953125,3.6235099386170506,8.947004178231953,1.7296502482041716
1789225039154200300,7.885200439453125,3.6118870131015774,8.971208645161985,1.6254447544507682
1789225039164239000,7.895239013671875,3.603602292098105,8.991064853754638,1.5313991279229522
1789225039174279200,7.905279052734375,3.6005236153051254,9.006058424746989,1.4482852297760545
1789225039184318200,7.915318115234375,3.6040412680372595,9.017546033445,1.3657025158964096
1789225039194357500,7.925357421875,3.616357728774845,9.02750453287959,1.2635298431448638
1789225039204397300,7.935397216796875,3.635523032493889,9.035517158943414,1.1457693598348646
1789225039214436400,7.945436279296875,3.649973290389776,9.046236121356486,1.0068243419378995
1789225039224475400,7.955475341796875,3.66007382864356,9.059519965821504,0.8362766366183757
1789225039234514200,7.96551416015625,3.6761554871335624,9.068904464760422,0.6412763348266481
1789225039244554200,7.97555419921875,3.700715927894413,9.071231446403264,0.43341735517941415
1789225039254593300,7.98559326171875,3.7231247435793278,9.06941358332634,0.23338547069495544
1789225039264632300,7.99563232421875,3.7266672384917734,9.070469814381003,0.0944385531018488
1789225039274672400,8.00567236328125,3.725800392529368,9.071286975982785,0.023585047256899996
1789225039284711400,8.01571142578125,3.7367251066476106,9.06681947517991,-0.0068016576802416235
1789225039294750200,8.025750244140625,3.749612937532365,9.061493896242975,-0.01000142982744146
1789225039304790300,8.035790283203125,3.7528164097487924,9.060172292250394,-0.004061884566860681
1789225039314829300,8.045829345703124,3.75285849532485,9.060155341115593,0.003020767455882742
1789225039324868000,8.0558681640625,3.750090199655294,9.061291067147254,0.014521383478405186
1789225039334908200,8.065908203125,3.7433719973161814,9.064035981941222,0.028549572045810052
1789225039344947500,8.075947509765625,3.7395240897163746,9.065547555547953,0.046921741209342144
1789225039354986200,8.085986328125,3.736501527024805,9.06667042209804,0.06661504629128612
1789225039365026300,8.0960263671875,3.7333649825647472,9.06775120307207,0.09088129901168868
1789225039375065300,8.1060654296875,3.730035838142037,9.068781130641698,0.12008853353192098
1789225039385104100,8.116104248046875,3.725590549170971,9.07021437831521,0.1468701483404264
1789225039395144200,8.126144287109375,3.7194337801069017,9.07226605014801,0.17375578064583241
1789225039405183200,8.136183349609375,3.711779758222401,9.07474617652595,0.20510387225281446
1789225039415222300,8.14622216796875,3.703359720401466,9.077386461901664,0.23784891637722028
1789225039425262300,8.156262451171875,3.695967856584489,9.079548023849725,0.2683895640588365
1789225039435301400,8.16630126953125,3.6897453288078306,9.081332569178938,0.29248182105235754
1789225039445340400,8.17634033203125,3.6851767057180402,9.082740097889303,0.3060652147195302
1789225039455380200,8.186380126953125,3.6837919733613727,9.083186088091134,0.3094902755310759
1789225039465419300,8.196419189453126,3.6866122914791104,9.082023474052548,0.3100642029615119
1789225039475458300,8.206458251953125,3.692980365206301,9.079387280330062,0.3115015057556331
1789225039485498000,8.216498046875,3.701704646670818,9.075746293479204,0.3139751658601686
1789225039495537400,8.226537353515624,3.7122707566097377,9.071323800861835,0.31705939561109986
1789225039505576400,8.236576416015625,3.7243197985827923,9.066291651913524,0.3196593124438077
1789225039515616300,8.2466162109375,3.7383307882785797,9.060410777181387,0.3228558069301769
1789225039525655300,8.2566552734375,3.7538515980154274,9.05383899757564,0.3270795621050522
1789225039535694300,8.2666943359375,3.7689875000879165,9.047433806708455,0.3302269932853058
1789225039545734100,8.276734130859374,3.781473472173512,9.042149728825688,0.33222160116862504
1789225039555773200,8.286773193359375,3.7912770733073353,9.037849985805153,0.3374217270949855
1789225039565812200,8.296812255859376,3.798392166009545,9.034284402278065,0.35256822362672535
1789225039575852300,8.306852294921875,3.80240227843374,9.031734717795253,0.3740112630194053
1789225039585891300,8.316891357421875,3.8029362391799686,9.030333034303784,0.40142150372080504
1789225039595930400,8.326930419921876,3.799431445929408,9.030385056751966,0.4322560197824612
1789225039605970400,8.336970458984375,3.7920842980369924,9.031853375738859,0.4648923976343125
1789225039616009200,8.34700927734375,3.7833348821312187,9.03369637325704,0.4990950749548152
1789225039626048300,8.35704833984375,3.773229667702317,9.036098758223652,0.5310899035001173
1789225039636088300,8.36708837890625,3.762757958048582,9.038793988656996,0.5587852082205936
1789225039646127000,8.377127197265626,3.754068747897446,9.041461162039637,0.5738797553693875
1789225039656166400,8.38716650390625,3.7465909593626856,9.044120152115822,0.5808197837656364
1789225039666206500,8.39720654296875,3.741024265146255,9.046281714063882,0.5830133848197758
1789225039676245200,8.407245361328124,3.736869775815308,9.048060414174198,0.5820697838267311
1789225039686284300,8.4172841796875,3.7351302386716005,9.048958239796757,0.5792689010618254
1789225039696324400,8.427324462890626,3.734892630523443,9.049342270678281,0.5747801017425954
1789225039706363100,8.437363037109375,3.735391812217235,9.049516458201408,0.5687491875478997
1789225039716402200,8.447402099609375,3.7364988966763018,9.049535162901877,0.5611272047694772
1789225039726442200,8.457442138671874,3.7374414382234216,9.04968070885241,0.5524523519372567
1789225039736481300,8.467481201171875,3.7359044379144906,9.05081877297163,0.5441304772611707
1789225039746520300,8.477520263671876,3.7295337338387964,9.053806264349818,0.5380883110200986
1789225039756559400,8.487559326171874,3.7167791739448903,9.05932064385712,0.5335170210491865
1789225039766599200,8.49759912109375,3.6972774778783317,9.067641312956809,0.5276458639934659
1789225039776638200,8.50763818359375,3.670727324604988,9.078731446769833,0.5222924837341532
1789225039786677200,8.51767724609375,3.6377430466309186,9.092175450232624,0.5191863709449768
1789225039796717000,8.527717041015626,3.6036695121154185,9.105871382629871,0.5167833649238571
1789225039806756400,8.53775634765625,3.5772502917453646,9.116535984507202,0.5122762992955744
1789225039816795400,8.54779541015625,3.567102114957571,9.12095964616835,0.5042548688707873
1789225039826835500,8.55783544921875,3.5673321243211626,9.121253660678862,0.4972514563821256
1789225039836874200,8.567874267578125,3.56332698033303,9.12295695746541,0.4947138641959056
1789225039846913300,8.577913330078125,3.5565731221586465,9.12556860126853,0.4951554704835638
1789225039856953300,8.587953369140624,3.560850653347373,9.123871734222769,0.4956776311941445
1789225039866992000,8.5979921875,3.5803590714156623,9.116217420077323,0.4959744221836328
1789225039877031400,8.608031494140626,3.606117782050371,9.105995885792375,0.4971178931303322
1789225039887071500,8.618071533203125,3.6282241076573727,9.097167267170548,0.4979179209342226
1789225039897110300,8.6281103515625,3.6439348870083688,9.09083864867091,0.49878188081979746
1789225039907149300,8.6381494140625,3.6554075903981924,9.086206312695145,0.49921950505208224
1789225039917189400,8.648189453125,3.6640047383517023,9.082694505181909,0.500110827868618
1789225039927228200,8.658228271484376,3.6684167095750566,9.080813513740896,0.5019412216335535
1789225039937267200,8.66826708984375,3.6650548319265246,9.082050946581363,0.5041071309631691
1789225039947307300,8.678307373046875,3.6528985301867127,9.08683116659522,0.506179297594726
1789225039957346300,8.68834619140625,3.635472763611376,9.093739046287537,0.5075604132222011
1789225039967385300,8.69838525390625,3.618952421443164,9.100290952149033,0.5082181099459528
1789225039977425400,8.70842529296875,3.6070065475836395,9.105036100849508,0.5081624342359602
1789225039987464200,8.718464111328124,3.5982410573258994,9.108487702608109,0.5084398994704709
1789225039997503200,8.728503173828125,3.590431844879687,9.111489807033538,0.5098373086456209
1789225040007543300,8.738543212890624,3.5853178628668187,9.113378981781006,0.5120756621569394
1789225040017582000,8.74858203125,3.5866029342412946,9.112742437443137,0.5143835007078945
1789225040027621400,8.758621337890625,3.595345920406282,9.109196143138409,0.5161552230881526
1789225040037661400,8.768661376953125,3.6081966341510414,9.104034230330585,0.5175595369281247
1789225040047700200,8.7787001953125,3.6209345351710915,9.098873486566543,0.5193393695496022
1789225040057739300,8.7887392578125,3.6314869088456034,9.094524059185385,0.5218285194842145
1789225040067779300,8.798779296875,3.6405806081444023,9.090736941862106,0.5244741386221722
1789225040077818400,8.808818359375,3.647942076823115,9.08763488419354,0.5270752244986593
1789225040087857200,8.818857177734374,3.6511356121674177,9.086222094786166,0.5293019241048023
1789225040097897200,8.828897216796875,3.648098728689551,9.087316904285549,0.531443320047669
1789225040107936300,8.838936279296876,3.6395731846675274,9.090629389834403,0.5332627540271729
1789225040117975300,8.848975341796875,3.627397301444411,9.095411363413929,0.5346745570538565
1789225040128015400,8.859015380859375,3.6139126737102862,9.100703040081262,0.5359486686429008
1789225040138054400,8.869054443359374,3.6010105220392346,9.105733435463906,0.5373458951549605
1789225040148093200,8.87909326171875,3.588894844570756,9.110413117712735,0.5390703808600082
1789225040158133200,8.88913330078125,3.577973053061962,9.114587773048877,0.5410918767502532
1789225040168172300,8.89917236328125,3.5705952177703377,9.117341455671191,0.543422182861343
1789225040178211800,8.9092119140625,3.5686288861334323,9.117972739312052,0.5457482511887326
1789225040188252000,8.919251953125,3.571365033099055,9.116758102825283,0.5481333196943625
1789225040198291000,8.929291015625,3.576497719812393,9.114566145738959,0.5511276426721364
1789225040208330000,8.939330078125,3.582780745604634,9.111941057932377,0.5537075030975044
1789225040218369000,8.949369140625,3.592467734621465,9.108034698143602,0.5552019429063424
1789225040228409000,8.9594091796875,3.606794366137683,9.102090695047378,0.5597927047627046
1789225040238447900,8.96944775390625,3.616320903895795,9.098205962568521,0.5614865761337802
1789225040248487000,8.97948681640625,3.619301381011307,9.096729460275172,0.5661878491599113
1789225040258527000,8.98952685546875,3.6170600318253037,9.0973513915658,0.570493912323378
1789225040268566000,8.99956591796875,3.613926994496584,9.09839300957322,0.5737170025557279
1789225040278605000,9.00960498046875,3.6110379950568077,9.099397218179702,0.5759928750658407
1789225040288645000,9.01964501953125,3.601042963004112,9.103241034126281,0.5778082173921167
1789225040298684000,9.029683837890625,3.579660567757487,9.11141089657843,0.581911341862008
1789225040308723000,9.039722900390625,3.5536373609676954,9.121236709544062,0.5874470198856666
1789225040318763000,9.049762939453124,3.534555643878877,9.128168554633856,0.594849916553311
1789225040328802000,9.059802001953125,3.525769695354998,9.131177673321961,0.6007743746988475
1789225040338841000,9.069841064453126,3.5202816193327306,9.1328587582767,0.6073635072981939
1789225040348881000,9.079880859375,3.512464515841007,9.135367526227235,0.6148456432145089
1789225040358920200,9.089920166015625,3.507434120458364,9.136838767823576,0.6216556885555387
1789225040368959000,9.099958984375,3.5116762880727648,9.134954269251226,0.6253971401061862
1789225040378999000,9.1099990234375,3.5247803920567033,9.129822167059778,0.6266244168788194
1789225040389038000,9.1200380859375,3.540743977124989,9.123351509740948,0.6308407193996012
1789225040399076900,9.130076904296875,3.5522763017475603,9.118146342313288,0.6411738973654806
1789225040409117000,9.140116943359375,3.5570267111450433,9.115269910094142,0.6555860152080655
1789225040419156000,9.150156005859374,3.557513325618207,9.114109049621224,0.6689522041942924
1789225040429195000,9.160195068359375,3.560441780285537,9.112370681521297,0.6770212366204709
1789225040439235000,9.170235107421876,3.566493919931352,9.109849638611077,0.6790802149768919
1789225040449274000,9.180274169921875,3.568198970283568,9.109186206266283,0.67902760800682
1789225040459313000,9.19031298828125,3.561697625565529,9.111496821296214,0.6821535580076277
1789225040469353000,9.20035302734375,3.5510958597913382,9.115054806038737,0.6898548530999571
1789225040479392000,9.21039208984375,3.542077271555364,9.117803812485933,0.699796255269274
1789225040489430800,9.2204306640625,3.5351305211573836,9.119837364140153,0.7083753561094402
1789225040499470800,9.230470947265625,3.527772559610009,9.122336195218562,0.7128778551604599
1789225040509510100,9.24051025390625,3.5203184442117808,9.125198014390469,0.7131083029154688
1789225040519549000,9.250548828125,3.514887066812813,9.127336195462942,0.7125225389167666
1789225040529589000,9.260589111328125,3.5125530709072947,9.128072693043947,0.7145956188637763
1789225040539628000,9.2706279296875,3.512589895786345,9.127644238498807,0.7198649375688284
1789225040549666800,9.280666748046874,3.5136066716134544,9.126679192858933,0.727101903085038
1789225040559705900,9.290705810546875,3.5162872889995573,9.125183401343225,0.7328947342075407
1789225040569746000,9.300745849609376,3.523016597254574,9.122473557862639,0.7343165837042033
1789225040579785200,9.31078515625,3.5322497050240633,9.119066964289546,0.7322704648293554
1789225040589824000,9.320823974609375,3.537556579260528,9.117226304858923,0.7295761842440813
1789225040599864000,9.330864013671874,3.5367218820020554,9.117596307215093,0.7289887397449463
1789225040609903000,9.340903076171875,3.5326389966025946,9.119142952135205,0.7294386754695326
1789225040619942000,9.35094189453125,3.5284006283804774,9.120788965776562,0.7293810269981622
1789225040629982000,9.36098193359375,3.5240862723127004,9.122552468317746,0.7281799806453287
1789225040640021000,9.37102099609375,3.5166236813470717,9.125670892599224,0.7251775108937174
1789225040650060000,9.38106005859375,3.5072830215498803,9.129556209599972,0.7215020372513681
1789225040660100000,9.39110009765625,3.4995392755553123,9.132809658437967,0.7179179682195186
1789225040670139100,9.40113916015625,3.493533020877838,9.13522665645182,0.7164063946127891
1789225040680178000,9.411177978515624,3.4936791513502596,9.1351541757375,0.7166157265145331
1789225040690218000,9.421218017578125,3.500955864354968,9.133013656577468,0.7083493448853493
1789225040700257000,9.431257080078124,3.5052030004054306,9.132141549918055,0.6985226551368832
1789225040710295800,9.4412958984375,3.495888059571385,9.136170659303664,0.6924869551692158
1789225040720336000,9.4513359375,3.4836209909334777,9.141035634991526,0.6900885887905955
1789225040730375200,9.461375244140624,3.4825916478857395,9.141416743263601,0.6902534239634871
1789225040740414000,9.4714140625,3.48486602255851,9.140447605970502,0.6916115605741738
1789225040750454000,9.4814541015625,3.482311369639635,9.14139862308502,0.6918865050580352
1789225040760493000,9.4914931640625,3.4769615330442782,9.143898038685322,0.6857496097382157
1789225040770531800,9.50153173828125,3.477017939406633,9.144688896802068,0.6748199271839112
1789225040780572000,9.511572021484374,3.4830788468807934,9.143190767198801,0.6637807929057628
1789225040790611000,9.52161083984375,3.4889588448300954,9.14142025039494,0.6572626431833952
1789225040800650000,9.53164990234375,3.4900071848392487,9.141098763355613,0.6561581890728324
1789225040810690000,9.54168994140625,3.4846453655451533,9.143086137780546,0.6569792961973696
1789225040820729000,9.55172900390625,3.4769571491301057,9.146066614896059,0.6562270895905792
1789225040830768000,9.56176806640625,3.471917693658173,9.148274938595295,0.6521043105721473
1789225040840808000,9.571807861328125,3.4689793021187185,9.149780082461238,0.6466017676331103
1789225040850847000,9.581846923828126,3.4665286940962075,9.151033881914616,0.6419859444007278
1789225040860886000,9.591885986328125,3.4617800382643935,9.15300196711719,0.639547903598845
1789225040870925000,9.601925048828125,3.4553684176564214,9.15546163522899,0.6390067824594676
1789225040880965000,9.611965087890624,3.451701127320528,9.156854550892113,0.6388688352935016
1789225040891004200,9.622004150390625,3.4509707672193644,9.15725319482088,0.6371143928416073
1789225040901043000,9.63204296875,3.449785649088025,9.157889154636859,0.6343770037669688
1789225040911083000,9.6420830078125,3.4476568203657862,9.158847770535946,0.632118484250456
1789225040921122000,9.6521220703125,3.4470319664657114,9.159200237235426,0.6304095614407211
1789225040931160800,9.662160888671876,3.448205101898312,9.15883958722949,0.629220790047571
1789225040941201000,9.672200927734375,3.4506183005198836,9.157890323680638,0.6297987360659987
1789225040951240000,9.682239990234375,3.4549633439868686,9.156184688806533,0.6308002412587403
1789225040961279000,9.692279052734374,3.4614205573022363,9.153764768183231,0.630508637901023
1789225040971319000,9.702319091796875,3.4666368306457995,9.151871501782535,0.6293195742469281
1789225040981358000,9.712358154296876,3.4670378126621246,9.151761611667276,0.6287159092653543
1789225040991396900,9.72239697265625,3.4660584462359547,9.152152072289585,0.6284332198664546
1789225041001437000,9.73243701171875,3.467654483255744,9.151631847807764,0.6272072582680731
1789225041011476000,9.74247607421875,3.4690295710012315,9.151149032726883,0.6266595612574368
1789225041021515000,9.752514892578125,3.46612332816571,9.152203510215879,0.6273452784992755
1789225041031554800,9.762554931640626,3.4623309501454234,9.153631497192382,0.6274472775690257
1789225041041594000,9.772593994140625,3.4611090071350334,9.154159320458769,0.6264779941454529
1789225041051633000,9.7826328125,3.460675584153831,9.154431707659363,0.6248985429342836
1789225041061673000,9.7926728515625,3.458768873749673,9.155290370315313,0.6228685714766383
1789225041071712000,9.8027119140625,3.4580946277499196,9.15578136870265,0.6193883281454443
1789225041081751000,9.8127509765625,3.4589559207543727,9.155740452170372,0.6151641345791519
1789225041091790000,9.8227900390625,3.458616313536465,9.156187026894091,0.6104249772280455
1789225041101830000,9.832829833984375,3.457019691994786,9.157119923830031,0.6054334525510668
1789225041111869200,9.842869140625,3.456478716985881,9.157678726756572,0.6000513211213052
1789225041121908000,9.852907958984375,3.4559070545777675,9.15826149508059,0.5944325313914567
1789225041131948000,9.862947998046875,3.4538746719673274,9.159410080593824,0.5885124206274748
1789225041141987000,9.872987060546874,3.45223830293715,9.160451698601245,0.5818757590919733
1789225041152025900,9.88302587890625,3.451977313913405,9.16104089666605,0.5740879182273522
1789225041162066000,9.89306591796875,3.4519089248523116,9.161633601862192,0.5649507816456258
1789225041172105000,9.90310498046875,3.452034597058594,9.162190651223064,0.5550825177777559
1789225041182144000,9.91314404296875,3.45274216080606,9.162484665733576,0.545763996747136
1789225041192184000,9.92318408203125,3.4523709894061088,9.163124717202782,0.5372617605354637
1789225041202222800,9.933222900390625,3.4496351347014307,9.16462050871849,0.529254358636029
1789225041212262000,9.943261962890626,3.4464868998035785,9.166278797319531,0.5210243634944781
1789225041222302000,9.953302001953125,3.4446877414271233,9.167479989802837,0.5116816578706727
1789225041232340700,9.9633408203125,3.4440383376076817,9.168298904970287,0.5012799081806093
1789225041242379800,9.9733798828125,3.442975969073176,9.169271549394725,0.4906720049265772
1789225041252419800,9.983419921875,3.4406571707367894,9.17064283774793,0.481227884754911
1789225041262459000,9.993458984375,3.4379099178552623,9.172078423509001,0.47343273736666885
1789225041272498000,10.003497802734374,3.435976611705124,9.173148683089018,0.4666714630708098
1789225041282538000,10.0135380859375,3.4350302707657216,9.173841926050185,0.4599649877021089
1789225041292576800,10.02357666015625,3.432830422633886,9.174999863913655,0.45324225531835105
1789225041302615800,10.03361572265625,3.4283161600798366,9.1770036049515,0.44680539067126807
1789225041312654800,10.04365478515625,3.4230481565490365,9.179398975655436,0.43790388947632164
1789225041322694700,10.053694580078124,3.4156887336969373,9.182532597506047,0.4295941070968285
1789225041332734000,10.06373388671875,3.413555521060526,9.183435099303722,0.4272564213968813
1789225041342773000,10.07377294921875,3.4203099637567993,9.180999396589398,0.425582021911256
1789225041352812800,10.083812744140625,3.4319644534543157,9.176878517267108,0.4205897300492972
1789225041362851800,10.093851806640625,3.432940897271037,9.17722806135714,0.4046860584747046
1789225041372891000,10.103890869140624,3.4328500041171908,9.177761145320535,0.39322804119735955
1789225041382930700,10.1139306640625,3.429837670558691,9.179266289186478,0.3842645076168701
1789225041392969700,10.1239697265625,3.4280776751488444,9.18004487234354,0.38136140658650547
1789225041403009000,10.134009033203125,3.442684000389278,9.174294930514693,0.3881028802033514
1789225041413049000,10.144049072265625,3.4743235857561228,9.161917094978689,0.39841150824986393
1789225041423087900,10.154087890625,3.4972158010438084,9.153198366472125,0.398518950679712
1789225041433127000,10.164126953125,3.4979312558367845,9.153314686328173,0.3894770546333864
1789225041443167000,10.1741669921875,3.4894606568723914,9.157052703812719,0.37742454206161197
1789225041453205800,10.184205810546874,3.482367483741045,9.160352329879998,0.36256022347211836
1789225041463244800,10.194244873046875,3.4786934714034197,9.162171362000704,0.3517327957158908
1789225041473284900,10.204284912109374,3.473690840810537,9.16430545141995,0.34547446597348896
1789225041483324000,10.214323974609375,3.459130985060334,9.169965961399674,0.3413538789121434
1789225041493363000,10.224363037109375,3.4411586905181406,9.176918849277495,0.3361072469629347
1789225041503401700,10.234401611328124,3.433584455871582,9.18011676853597,0.32610454306043685
1789225041513441800,10.24444189453125,3.437510104882717,9.17905469226241,0.3144192928984761
1789225041523480800,10.254480712890626,3.447636946621537,9.17557094179988,0.305080898123607
1789225041533520000,10.264519775390625,3.457470942893624,9.172028154626489,0.3003177571087144
1789225041543559700,10.2745595703125,3.464209018976986,9.169586606693267,0.2971876606557518
1789225041553599000,10.284598876953124,3.474307803665101,9.165894766438006,0.2931827723959461
1789225041563638000,10.294637939453125,3.4904601893037555,9.16005130110681,0.28379668428814037
1789225041573677800,10.304677734375,3.505523610661924,9.154739750695228,0.26911365881599486
1789225041583716900,10.314716796875,3.514129818704724,9.151866825607419,0.2542142323805019
1789225041593756000,10.324755859375,3.514579608298838,9.152004772773385,0.24275236091194674
1789225041603795700,10.334795654296874,3.5102205363065004,9.153884010648726,0.23484697634857146
1789225041613834800,10.344834716796875,3.507856145262718,9.15497765110433,0.22743741247812285
1789225041623874000,10.3548740234375,3.5042645505115386,9.156594438651204,0.2175032802998088
1789225041633913900,10.364913818359375,3.492833640436828,9.161239049586653,0.20542742338506503
1789225041643953000,10.374952880859375,3.48224590318799,9.165557497307658,0.19210227879527955
1789225041653992000,10.384991943359376,3.484626076322794,9.164936735060811,0.17805744162881745
1789225041664032000,10.395031982421875,3.4963390182092784,9.160711810842155,0.16541202293150126
1789225041674070800,10.40507080078125,3.502309909312427,9.158604024907946,0.15552943827733395
1789225041684109800,10.41510986328125,3.498076509526372,9.160372203624249,0.14642081540403887
1789225041694148900,10.42514892578125,3.4944083424076435,9.161952166292071,0.134662216878077
1789225041704189000,10.43518896484375,3.499942887920141,9.160061237978935,0.11857080417904071
1789225041714228000,10.44522802734375,3.512919273871183,9.155311413103341,0.10026536869234405
1789225041724266800,10.455266845703125,3.5286627864480016,9.149423524108528,0.08343627110221423
1789225041734306800,10.465306884765624,3.5367233433067797,9.146442462471127,0.0676392930387985
1789225041744345900,10.475345947265625,3.530189849884808,9.149054690796136,0.0544175631577149
1789225041754384600,10.485384521484375,3.5209535272449255,9.152673465815186,0.04287286767733749
1789225041764424700,10.4954248046875,3.5222976353302595,9.15221812326312,0.026692370189051143
1789225041774464000,10.505464111328125,3.530294187042117,9.149173348739742,0.005904701990651665
1789225041784503000,10.5155029296875,3.530179913012683,9.149207251009345,-0.015249717160908038
1789225041794542800,10.52554296875,3.5167025918021797,9.154352212682365,-0.032103264205704904
1789225041804582000,10.535581787109376,3.504985266001522,9.158779965996741,-0.04687899804615881
1789225041814621000,10.545620849609374,3.508259465366602,9.157434981128572,-0.06230340277040377
1789225041824660700,10.55566064453125,3.526467029969394,9.150319596165419,-0.07783974800310098
1789225041834699800,10.56569970703125,3.5524396756157275,9.140098061880469,-0.09566379318102262
1789225041844739000,10.575739013671875,3.575827857726812,9.130742789036034,-0.11564919937760569
1789225041854777900,10.58577783203125,3.5873344633862376,9.125983027288317,-0.13367109608203173
1789225041864818000,10.59581787109375,3.591555295951664,9.124068133577705,-0.14999453657181
1789225041874857000,10.60585693359375,3.6006393506392835,9.12023425450325,-0.16465064663756637
1789225041884895700,10.615895751953126,3.615365795128047,9.114141198325157,-0.1787004157074727
1789225041894935800,10.625935791015625,3.620048692247271,9.111922937753796,-0.1961962701106444
1789225041904974800,10.635974853515625,3.6048785956442355,9.117570003730059,-0.2125010698320344
1789225041915014000,10.646013916015624,3.5840102873995896,9.125440590974687,-0.22714272211417555
1789225041925054000,10.656053955078125,3.5758608832135796,9.128236359173059,-0.24271778278890996
1789225041935093000,10.666093017578126,3.580729658293724,9.1259386036247,-0.2569231077467091
1789225041945131800,10.6761318359375,3.5784415473565456,9.126559950393437,-0.26652890301980076
1789225041955171800,10.686171875,3.56533159815371,9.131519034105539,-0.27232270225668326
1789225041965211000,10.6962109375,3.5592473098039625,9.13367884248793,-0.2793787217154167
1789225041975249700,10.706249755859375,3.5713793538853524,9.12855317003727,-0.2918166351418942
1789225041985289700,10.716289794921876,3.5962434537678956,9.118364953500032,-0.30466130273835734
1789225041995329000,10.7263291015625,3.6186163213565945,9.109114310073853,-0.3162897629454732
1789225042005367800,10.736367919921875,3.6218475583627816,9.107529671230912,-0.3248461770297959
1789225042015406800,10.74640673828125,3.609389351066947,9.112247931924461,-0.331101474564895
1789225042025447000,10.756447021484375,3.595093699210882,9.11754603833258,-0.34063780306465924
1789225042035486000,10.76648583984375,3.5934494391351937,9.117868694415687,-0.3492639213843271
1789225042045524700,10.776524658203124,3.6203652108505366,9.1070316585809,-0.3540137097273022
1789225042055564800,10.786564697265625,3.6577260964736342,9.091757517081499,-0.36245679963026195
1789225042065604000,10.79660400390625,3.6725793822124597,9.085561000528932,-0.36758543122299014
1789225042075643000,10.806642822265625,3.6593998749047514,9.090988870796561,-0.3648470923002809
1789225042085683000,10.816682861328125,3.6430364768639203,9.097714964181185,-0.3608984277397394
1789225042095722000,10.826721923828124,3.6382866519883272,9.099631026935576,-0.3605107070637867
1789225042105760800,10.8367607421875,3.6479327244728803,9.095942109289766,-0.35611462752930817
1789225042115800800,10.84680078125,3.6516876930922266,9.094707599058747,-0.34909561561271546
1789225042125840000,10.85683984375,3.625895664709806,9.105245359686016,-0.3431857705144211
1789225042135879000,10.86687890625,3.5844808275207876,9.121692052096128,-0.34149325085021554
1789225042145918000,10.87691796875,3.5475168322607873,9.135748634499311,-0.35158717670012263
1789225042155958000,10.8869580078125,3.516725972677767,9.14733035122156,-0.3596936550598591
1789225042165996800,10.896996826171875,3.4936852888301013,9.156208654204011,-0.3583067672787234
1789225042176035000,10.90703515625,3.4888968855097886,9.158566615507006,-0.3444587861249223
1789225042186075100,10.9170751953125,3.5035730611160396,9.153604609185457,-0.32696119642239063
1789225042196114200,10.9271142578125,3.519244092978537,9.14832111582458,-0.3058103814419359
1789225042206153200,10.9371533203125,3.5241362489342687,9.147088943681121,-0.28568193177916107
1789225042216193300,10.947193359375,3.514541614376008,9.151264768061042,-0.26969682899881153
1789225042226232000,10.957232177734374,3.5058205477818847,9.155008630764485,-0.25577452223347497
1789225042236271000,10.96727099609375,3.5030934609055517,9.156352446588873,-0.24482326716817915
1789225042246311200,10.977311279296876,3.5030756329879162,9.15661840404868,-0.23496515936814247
1789225042256350000,10.987349853515624,3.495101877629757,9.160011553618311,-0.22097216198677197
1789225042266389200,10.99738916015625,3.474153489886224,9.16842399265468,-0.20163462523967027
1789225042276428300,11.00742822265625,3.452138934215903,9.177154411599039,-0.18154404163556173
1789225042286468000,11.017468017578125,3.4365964971691367,9.183228178554772,-0.1688232744134031
1789225042296507100,11.027507080078125,3.4282644298925993,9.186495071396232,-0.16034975283956154
1789225042306546200,11.037546142578124,3.4302503430128097,9.185856773492693,-0.15429958595512433
1789225042316586000,11.0475859375,3.4366289381340143,9.183543235853314,-0.15002386313099414
1789225042326625000,11.057625,3.4408977014943956,9.182034584856034,-0.1444370211756788
1789225042336664300,11.067664306640625,3.437321596573293,9.183446789741515,-0.13975904682674445
1789225042346704100,11.0777041015625,3.430070310270786,9.186302179172635,-0.12979704026081598
1789225042356743200,11.0877431640625,3.433326389457285,9.185268744471669,-0.11618849388607777
1789225042366782200,11.0977822265625,3.4566628413811324,9.176633018073439,-0.10618026442509144
1789225042376822300,11.107822265625,3.489449258695543,9.164276809847355,-0.100772560162656
1789225042386861000,11.117861083984375,3.518106321120262,9.153378983736038,-0.09477015967639163
1789225042396900000,11.127900146484375,3.5352041709154842,9.146784407776593,-0.09512922051344067
1789225042406939100,11.137939208984376,3.5420825322523712,9.144027802544832,-0.10382941784947179
1789225042416979200,11.147979248046875,3.538216504473984,9.14533771609962,-0.11926485999096184
1789225042427018200,11.158018310546876,3.515810319137573,9.153706900516152,-0.13823149933274834
1789225042437057000,11.16805712890625,3.488937509781122,9.163883426615595,-0.14475175881381147
1789225042447097000,11.17809716796875,3.476893143983185,9.168562524342537,-0.13810990051338448
1789225042457136000,11.18813623046875,3.4883930276408788,9.164351628649234,-0.1272074986916501
1789225042467175000,11.1981748046875,3.51078956836611,9.15593217535019,-0.1167917113430798
1789225042477215000,11.208215087890625,3.5074279829785224,9.157377113461495,-0.10375982321198098
1789225042487254000,11.21825390625,3.4832238083094356,9.166724202999472,-0.09324165320117025
1789225042497293300,11.228293212890625,3.4657311139777303,9.173158035439252,-0.1108336614551954
1789225042507333000,11.2383330078125,3.454531674571335,9.176745246276258,-0.15476201583510263
1789225042517372200,11.2483720703125,3.4413808088362217,9.181017516767978,-0.1902531985961832
1789225042527411200,11.2584111328125,3.4384938552230593,9.18198314692974,-0.195757367236726
1789225042537450000,11.268449951171876,3.4576714339017864,9.175200354921817,-0.17489581752642988
1789225042547490000,11.278489990234375,3.479886772841215,9.167149150413275,-0.15542647109320387
1789225042557529000,11.288529052734376,3.4657457270249723,9.172839471009373,-0.13423512317296116
1789225042567568100,11.298568115234374,3.4184649204120037,9.190874893915653,-0.11093748715585097
1789225042577608200,11.308608154296875,3.381985493798554,9.204546860915421,-0.09415684095048345
1789225042587647200,11.318647216796874,3.3871032752037045,9.202697433656454,-0.09104226172706112
1789225042597686000,11.32868603515625,3.40961292091459,9.194397807344794,-0.08928244898030534
1789225042607726000,11.33872607421875,3.4199373310521244,9.19063757802844,-0.08106970636765472
1789225042617765000,11.34876513671875,3.4189144177451727,9.19117650721073,-0.0607690556428628
1789225042627804200,11.35880419921875,3.4208263888463377,9.19059899958372,-0.0350145736587001
1789225042637844000,11.368843994140626,3.4254441117748615,9.18893778837323,-0.012196569818118586
1789225042647883300,11.37888330078125,3.4165333678275345,9.1922607953161,0.0033417173515597823
1789225042657922000,11.388922119140625,3.3890222605675455,9.20242387741208,0.017622636287729254
1789225042667961000,11.398961181640624,3.3625305594831705,9.212108236080407,0.02901368014293257
1789225042678001200,11.409001220703125,3.3473139933899043,9.217619692978262,0.03677579976111883
1789225042688040000,11.4190400390625,3.346809550999105,9.217743611618875,0.04929785922353621
1789225042698079200,11.429079345703125,3.3542586979612707,9.2149764849931,0.05959701618880499
1789225042708119000,11.439119140625,3.344544820937514,9.218461404499411,0.06617359526725486
1789225042718158000,11.449157958984374,3.3211917101398107,9.226884364929795,0.06833042167469393
1789225042728197000,11.459197021484375,3.298725611309707,9.234954274138808,0.06640710262903012
1789225042738237200,11.4692373046875,3.269796161684394,9.245261148619651,0.06292199589305092
1789225042748276200,11.479276123046875,3.2394393096044656,9.255951469460129,0.061400604145205574
1789225042758315000,11.48931494140625,3.22350407384783,9.261504427412152,0.06293777798407245
1789225042768354300,11.499354248046876,3.2258345626220106,9.26068901937604,0.06333816177877598
1789225042778394000,11.50939404296875,3.231668675602972,9.2586735879004,0.060573227110086
1789225042788433200,11.51943310546875,3.227797971649468,9.26010800461769,0.045684518431429746
1789225042798472200,11.52947216796875,3.242564455887675,9.255040199834108,0.019709157954913098
1789225042808512300,11.53951220703125,3.273230812308192,9.244244080531596,-0.01733052489829133
1789225042818551000,11.549551025390626,3.291744958642125,9.23756065724492,-0.04765873198069166
1789225042828590000,11.559590087890625,3.2965681410148737,9.235745132255554,-0.06355596468134317
1789225042838630100,11.569630126953125,3.307222513759136,9.231828835594653,-0.07745490427082403
1789225042848669000,11.5796689453125,3.3313822647646067,9.22288389711678,-0.10343507563648745
1789225042858708200,11.589708251953125,3.338116541455686,9.21988120816946,-0.14546271096160635
1789225042868747300,11.599747314453126,3.305513956275582,9.230775527149438,-0.19174232290908694
1789225042878787000,11.609787109375,3.2602760536670683,9.24599180098176,-0.22942590114790945
1789225042888826000,11.619826171875,3.2431898943096398,9.251161312574148,-0.26097260233322156
1789225042898865200,11.629865234375,3.2619974706321955,9.243497646078467,-0.2957991289068013
1789225042908905000,11.639905029296875,3.2817785681620237,9.235278683787584,-0.3315963454097509
1789225042918944000,11.649944091796876,3.3003242786779996,9.227494605782628,-0.36277675229962913
1789225042928983300,11.6599833984375,3.3427187745541334,9.210492617577314,-0.40427060954160987
1789225042939023000,11.670023193359375,3.4008997453659773,9.186714851626753,-0.45664464764036233
1789225042949062100,11.680062255859376,3.443813296680152,9.168224670690298,-0.5041630989341065
1789225042959101200,11.69010107421875,3.4635549389824267,9.158629159349202,-0.5419286929005757
1789225042969140000,11.700139892578125,3.473916758520901,9.152751207226514,-0.5739520534206182
1789225042979180000,11.710179931640624,3.487863743069768,9.145525932148098,-0.6037924073457718
1789225042989219000,11.720218994140625,3.498357372294366,9.139038323694468,-0.6402032257024198
1789225042999258000,11.730258056640626,3.5039103302463888,9.133745477983355,-0.6838700796019286
1789225043009298200,11.740298095703125,3.49371539170742,9.133715667366982,-0.734561133049801
1789225043019337200,11.750337158203125,3.4630192246705294,9.141704912555218,-0.7791733780406415
1789225043029376000,11.7603759765625,3.4311233264550562,9.150232502403854,-0.8191624932754784
1789225043039416000,11.770416015625,3.420063295519352,9.15052300978303,-0.8610830149643123
1789225043049455000,11.780455078125,3.4256703217461704,9.145275172257422,-0.8939301494900137
1789225043059494100,11.790494140625,3.427632853990793,9.142435564917326,-0.9152061617527156
1789225043069533200,11.800533203125,3.4363691181540488,9.137344379258156,-0.9331040028192102
1789225043079573200,11.8105732421875,3.468209779050946,9.123173815086483,-0.9537389406993985
1789225043089612000,11.820612060546875,3.506433418983221,9.105417209121585,-0.9832100959859787
1789225043099651000,11.830651123046875,3.524431724749505,9.095998223391176,-1.0057773171029984
1789225043109691100,11.840691162109374,3.5224934501633047,9.09499869095981,-1.0214867082145065
1789225043119730200,11.850730224609375,3.529760518556833,9.090159434235096,-1.0393067348044365
1789225043129769000,11.86076904296875,3.5554634073510765,9.077743604776263,-1.06001349581182
1789225043139809000,11.87080908203125,3.582528524409234,9.064700583329797,-1.080324681630358
1789225043149848300,11.880848388671875,3.5926436757102604,9.058881667917966,-1.0954335495654492
1789225043159887000,11.89088720703125,3.5874107434928417,9.059834438598156,-1.1046535055924207
1789225043169926100,11.900926025390625,3.5773055290639397,9.062915453478693,-1.1121353127151727
1789225043179966500,11.910966552734376,3.5648902841269967,9.067425039857625,-1.1152391239494084
1789225043190005500,11.921005615234375,3.5382097824722525,9.078184334281087,-1.1126619669377804
1789225043200044500,11.93104443359375,3.505515135094523,9.091891372594237,-1.104209707347676
1789225043210084400,11.94108447265625,3.4804131348028777,9.102661772933601,-1.0948313458885996
1789225043220123600,11.95112353515625,3.460024134507775,9.11167042429745,-1.084476905938983
1789225043230162700,11.96116259765625,3.4408833807080983,9.12107421245873,-1.0661680729188023
1789225043240202500,11.971202392578125,3.426259519810974,9.129116649138927,-1.044197064129263
1789225043250241500,11.981241455078125,3.4198096130192277,9.133917327418922,-1.0231605597108602
1789225043260280600,11.991280517578126,3.419268053488433,9.136486301124096,-1.0018003762960432
1789225043270319400,12.0013193359375,3.431142615677416,9.134752609199285,-0.97669428435117
1789225043280359400,12.011359375,3.4515941598147153,9.129810476621985,-0.9504906794931739
1789225043290398700,12.021398681640624,3.4603353924140334,9.129348704329132,-0.9227474439777433
1789225043300437500,12.0314375,3.456803418895602,9.134097360160947,-0.8883419740941375
1789225043310477600,12.0414775390625,3.4682372515797613,9.133705730494857,-0.8468412852525711
1789225043320516600,12.0515166015625,3.4971216930195688,9.125946786931157,-0.8109358591347933
1789225043330555400,12.061555419921875,3.521970303072035,9.119232968506216,-0.7782563362609595
1789225043340594400,12.071594482421874,3.5357898618489503,9.116723031511903,-0.74427033389844
1789225043350634500,12.081634521484375,3.540690785633027,9.117244425037503,-0.7139832591190933
1789225043360673500,12.091673583984376,3.5368878862187265,9.120845664399862,-0.6862926305737346
1789225043370712600,12.101712646484375,3.5208465597391125,9.129435213568806,-0.6537789657860994
1789225043380752600,12.111752685546875,3.48522082734555,9.14591580824852,-0.6130665777780115
1789225043390791400,12.12179150390625,3.4471529624968764,9.1632936440289,-0.5670610517978668
1789225043400830500,12.13183056640625,3.4181671065092085,9.176433696109056,-0.5287709590332582
1789225043410870500,12.14187060546875,3.3857571212917565,9.190161192688345,-0.4979733409158885
1789225043420909600,12.15190966796875,3.3458179096132517,9.206364723992348,-0.46769200175758446
1789225043430948600,12.161948486328125,3.307890330018103,9.221607885831594,-0.43611927108187226
1789225043440987600,12.171987548828126,3.2954613488167523,9.227758809676766,-0.39846612451393154
1789225043451027700,12.18202783203125,3.3205607187598942,9.220316676977276,-0.36056809980683024
1789225043461066500,12.19206640625,3.3771462370738385,9.20078195542395,-0.33300497009865937
1789225043471105500,12.20210546875,3.436251336993277,9.179718124607206,-0.3087763185754418
1789225043481145600,12.2121455078125,3.474201420681178,9.166291072279215,-0.281826297530625
1789225043491184400,12.222184326171876,3.4991847630292177,9.157513891583681,-0.2569838980232365
1789225043501223700,12.2322236328125,3.5278891717270016,9.14710881742537,-0.23406905077863482
1789225043511262500,12.242262451171875,3.55953138744235,9.135431239113212,-0.20984602527860552
1789225043521302500,12.252302490234374,3.5760935229256745,9.129496003845334,-0.18505740178506822
1789225043531341600,12.262341552734375,3.567838320277631,9.133224084457755,-0.15855947188930586
1789225043541380600,12.272380615234376,3.534783022893965,9.146571641808748,-0.1261862293525133
1789225043551420400,12.28242041015625,3.4957463130131363,9.161969701948761,-0.09198137834123335
1789225043561459500,12.29245947265625,3.467066746495664,9.173092568987608,-0.064912557788915
1789225043571498800,12.302498779296876,3.4546816044360398,9.177882725873589,-0.04504164025089703
1789225043581538600,12.31253857421875,3.4586513848498464,9.176443632981181,-0.03140168724103132
1789225043591577600,12.32257763671875,3.4592028812527653,9.176270614501833,-0.018923723790311486
1789225043601616600,12.33261669921875,3.453310316082835,9.178509333339333,-0.001652752910459094
1789225043611655400,12.342655517578125,3.458446802188456,9.176557614749669,0.017717134754324796
1789225043621695500,12.352695556640626,3.474076917518675,9.170596660518646,0.03672470661140978
1789225043631734500,12.362734619140625,3.48873584972918,9.16491861488223,0.05812470601338427
1789225043641773600,12.372773681640625,3.499793542577326,9.160550482800602,0.07832958647981286
1789225043651813600,12.382813720703124,3.5100913569688794,9.156446554613114,0.09546749429078773
1789225043661852700,12.392852783203125,3.534275657893717,9.146920016855,0.1146799159540329
1789225043671891500,12.402891357421876,3.58242506403476,9.12787746273279,0.13590232573281974
1789225043681930500,12.412930419921874,3.6289778486341238,9.109149381387233,0.15588740313583985
1789225043691970600,12.422970458984375,3.652202072355151,9.099542179608344,0.17358988602701572
1789225043702009300,12.43300927734375,3.675803604955971,9.089813397276401,0.18477544303853063
1789225043712048600,12.443048583984375,3.705947691068053,9.077532592374085,0.18636965342741457
1789225043722088400,12.45308837890625,3.71764689669013,9.072792119848728,0.18418967903982847
1789225043732127500,12.46312744140625,3.7040605621472,9.078304161268472,0.18629423183733596
1789225043742166500,12.47316650390625,3.6714755126237866,9.091300420963764,0.19725261076316236
1789225043752205600,12.48320556640625,3.6349230207741257,9.105580290728806,0.21474793544337153
1789225043762245400,12.493245361328125,3.5973540453583,9.120281016254424,0.22343544682776553
1789225043772284400,12.503284423828125,3.5597327552333473,9.135048961797356,0.22261174588734284
1789225043782323700,12.51332373046875,3.5342543228447436,9.145061821767687,0.21744711139947176
1789225043792363500,12.523363525390625,3.5227480094462633,9.149773068198561,0.205625649370905
1789225043802402600,12.533402587890626,3.52344359049499,9.149968298509716,0.18393044358175248
1789225043812441600,12.543441650390625,3.522124032329023,9.150977183291316,0.15704280198235063
1789225043822480400,12.55348046875,3.504237954765558,9.15824103681445,0.13163018310526386
1789225043832520400,12.5635205078125,3.4670006955221293,9.172610922950506,0.11625629842528142
1789225043842559500,12.5735595703125,3.4369697143957016,9.18377412199974,0.12613744917418807
1789225043852598500,12.5835986328125,3.4390359992757435,9.182706200507283,0.14604452943755314
1789225043862638600,12.593638671875,3.4910996562510728,9.162858759742974,0.1569873454680666
1789225043872677600,12.603677734375,3.5882793430209157,9.12556509413719,0.13679305489431134
1789225043882716400,12.61371630859375,3.6470012888416647,9.102782184442876,0.09550134176146238
1789225043892755500,12.62375537109375,3.613813012728095,9.11618585589528,0.07676480311481282
1789225043902795500,12.63379541015625,3.5451667620033023,9.1432305146873,0.059221794234821566
1789225043912834600,12.64383447265625,3.476071013945341,9.169911600863934,0.006955571312786196
1789225043922873600,12.65387353515625,3.424415645509958,9.18929200863838,-0.025961621928820386
1789225043932913700,12.66391357421875,3.39558848721534,9.199984083044528,-0.025920849243726115
1789225043942952700,12.67395263671875,3.4065631779551504,9.195949712961912,-0.014659888908441642
1789225043952991500,12.683991455078125,3.4723215982839464,9.17133257357776,-0.0038600007526329136
1789225043963030500,12.694030517578126,3.516408869552612,9.154508280026912,-0.014786136503459418
1789225043973070600,12.704070556640625,3.491572826720774,9.164016697606444,-0.009832569216692354
1789225043983109400,12.714109375,3.445080540136993,9.181600869613886,0.0005729365545226755
1789225043993148700,12.724148681640624,3.4240991269066927,9.189440477198362,-0.010128620420664083
1789225044003188700,12.734188720703125,3.4398362097427246,9.183555510812997,-0.015163880349736427
1789225044013227500,12.7442275390625,3.4871892048090696,9.165685507601498,-0.009284505738230654
1789225044023266600,12.7542666015625,3.536933186665177,9.146609635731577,-0.0027513961941600428
1789225044033306600,12.764306640625,3.554454814830422,9.139812815198301,0.007909455667005386
1789225044043345400,12.774345458984374,3.5567683524698017,9.138890439656377,0.021214160256960893
1789225044053384400,12.784384521484375,3.5689456969976425,9.134121910080314,0.028803071882843503
1789225044063423700,12.794423828125,3.590500526201725,9.125674399730563,0.027498866549634838
1789225044073463600,12.804463623046875,3.5918797056004403,9.125145991942286,0.022072500969213434
1789225044083502600,12.814502685546875,3.564825109936297,9.135739866670965,0.02546501121802721
1789225044093541600,12.824541748046874,3.5399785457104445,9.145357005321978,0.03725165537825087
1789225044103580400,12.834580322265625,3.539535185857117,9.145445268127322,0.054012644751789046
1789225044113620500,12.844620361328126,3.5454128457188605,9.143080292561649,0.06728987681292928
1789225044123659500,12.854659423828124,3.5296906681910154,9.149042415836453,0.08189747156184166
1789225044133698600,12.864698486328125,3.4951121067628264,9.162144473993777,0.09845027296124026
1789225044143738600,12.874738525390624,3.4663641511842607,9.172954621821642,0.10777542466204613
1789225044153777700,12.884777587890625,3.450454926651716,9.178919667705893,0.11038591768769547
1789225044163816400,12.89481640625,3.4509093924209475,9.17862565319538,0.12017167263757436
1789225044173856500,12.9048564453125,3.4823251059040423,9.166528388166427,0.13622546587311662
1789225044183895300,12.914895263671875,3.5292744886055587,9.148327545565365,0.15070307756680995
1789225044193934300,12.924934326171876,3.554909865121543,9.138110687455534,0.16711913737663997
1789225044203973400,12.934973388671875,3.560928102497756,9.135418964153528,0.18517542040785773
1789225044214013400,12.945013427734375,3.569858135667443,9.131709588241577,0.19591774543020873
1789225044224052500,12.955052490234374,3.5843966563686727,9.125905870398878,0.20079516047453508
