time,seconds_elapsed,z,y,x
1789225031304743000,0.035742919921875,0.08690746873617172,-0.20035360753536224,0.0920412465929985
1789225031314781700,0.04578173828125,0.09556487202644348,-0.18286621570587158,0.07052982598543167
1789225031324820700,0.05582080078125,0.09874681383371353,-0.17240558564662933,0.0189055148512125
1789225031334859800,0.06585986328125,0.10305421054363251,-0.20788821578025818,-0.01860164664685726
1789225031344898800,0.07589892578125,0.10466249287128448,-0.247351735830307,-0.07224490493535995
1789225031354938600,0.085938720703125,0.11789041757583618,-0.27783453464508057,-0.09498989582061768
1789225031364978000,0.09597802734375,0.12968449294567108,-0.28616970777511597,-0.09176533669233322
1789225031375016700,0.1060166015625,0.12987783551216125,-0.36155712604522705,-0.11983559280633926
1789225031385055700,0.1160556640625,0.13205310702323914,-0.5263615250587463,-0.18295170366764069
1789225031395094500,0.126094482421875,0.13734906911849976,-0.588096559047699,-0.20248839259147644
1789225031405134600,0.136134521484375,0.13909611105918884,-0.3913504481315613,-0.1183607280254364
1789225031415174000,0.146173828125,0.04813317582011223,-0.278133362531662,-0.054076552391052246
1789225031425213000,0.156212890625,-0.06359335780143738,-0.21493227779865265,-0.04813690111041069
1789225031435251700,0.166251708984375,-0.1728958785533905,-0.1872258186340332,-0.034621093422174454
1789225031445290800,0.176290771484375,-0.25115394592285156,-0.18276529014110565,-0.06940996646881104
1789225031455330800,0.186330810546875,-0.2663864195346832,-0.21593070030212402,-0.10380043089389801
1789225031465369600,0.19636962890625,-0.36994102597236633,0.09404899924993515,-0.020547352731227875
1789225031475409000,0.206408935546875,-0.39989760518074036,0.4909156560897827,0.11075900495052338
1789225031485447700,0.21644775390625,-0.5554954409599304,0.6610460877418518,0.1987019032239914
1789225031495486700,0.22648681640625,-0.7192857265472412,0.7664351463317871,0.22201068699359894
1789225031505526800,0.23652685546875,-0.8893855214118958,0.7748339176177979,0.21725349128246307
1789225031515565600,0.246565673828125,-0.9206257462501526,0.6687048077583313,0.21641965210437775
1789225031525604600,0.2566044921875,-0.9477686882019043,0.5096235871315002,0.1477378010749817
1789225031535644000,0.266643798828125,-0.9724575281143188,0.35507819056510925,0.056885652244091034
1789225031545682700,0.2766826171875,-0.8935259580612183,0.2548733055591583,-0.023683758452534676
1789225031555722800,0.28672265625,-0.746285080909729,0.25611594319343567,-0.1523543894290924
1789225031565761800,0.29676171875,-0.5568632483482361,0.11643926054239273,-0.1390468329191208
1789225031575800600,0.306800537109375,-0.2823757529258728,-0.06844110786914825,-0.11526214331388474
1789225031585839900,0.31683984375,0.01986558362841606,-0.32717573642730713,-0.05642519146203995
1789225031595879000,0.32687890625,-0.004223773255944252,-0.06694787740707397,0.017614413052797318
1789225031605918700,0.336918701171875,-0.03370895981788635,0.250112384557724,0.07628384977579117
1789225031615957800,0.346957763671875,-0.032113462686538696,0.2632524073123932,0.11783875524997711
1789225031625996800,0.356996826171875,-0.07080972194671631,0.21977843344211578,0.06441494077444077
1789225031636035600,0.36703564453125,-0.06401307135820389,0.08368424326181412,0.02527020312845707
1789225031646075000,0.377074951171875,-0.06113659217953682,0.10322199016809464,0.023485884070396423
1789225031656115000,0.387114990234375,-0.03813619911670685,0.21891556680202484,0.048038631677627563
1789225031666153700,0.39715380859375,-0.03742992877960205,0.4068915843963623,0.14866217970848083
1789225031676192800,0.40719287109375,-0.03948482498526573,0.7625964283943176,0.2726815938949585
1789225031686231800,0.417231689453125,-0.034936413168907166,1.1493656635284424,0.37908685207366943
1789225031696270600,0.4272705078125,-0.029144037514925003,1.3811850547790527,0.4646507799625397
1789225031706310700,0.437310546875,-0.029040971770882607,1.4552018642425537,0.4661701023578644
1789225031716350000,0.447349853515625,-0.022536201402544975,1.4118950366973877,0.4050939679145813
1789225031726388700,0.457388671875,-0.022760972380638123,1.250756025314331,0.3367553949356079
1789225031736427800,0.467427734375,-0.04103558510541916,1.0566712617874146,0.25378674268722534
1789225031746466600,0.477466552734375,-0.044738974422216415,0.8201140761375427,0.15559251606464386
1789225031756506600,0.487506591796875,0.031993087381124496,0.6283115744590759,0.09713613986968994
1789225031766545700,0.497545654296875,0.05278624966740608,-0.3778708577156067,-0.23946425318717957
1789225031776584700,0.507584716796875,0.13957759737968445,-1.5162204504013062,-0.6475726366043091
1789225031786623700,0.517623779296875,0.13643373548984528,-1.687864065170288,-0.6587448716163635
1789225031796662800,0.527662841796875,0.0742846205830574,-1.1017742156982422,-0.5116938948631287
1789225031806702800,0.537702880859375,0.03232038766145706,-0.6636887788772583,-0.4310797452926636
1789225031816741600,0.54774169921875,0.032938774675130844,-0.2678506076335907,-0.25998231768608093
1789225031826780700,0.55778076171875,-0.020791031420230865,0.09156986325979233,-0.13520629703998566
1789225031836819700,0.56781982421875,-0.07969988882541656,0.30119818449020386,-0.13313354551792145
1789225031846858800,0.577858642578125,-0.15607161819934845,0.3008434474468231,-0.15570729970932007
1789225031856898800,0.58789892578125,-0.07522924244403839,0.1517743468284607,-0.14851917326450348
1789225031866937600,0.5979375,-0.12861576676368713,0.24470242857933044,-0.1585848480463028
1789225031876976600,0.6079765625,-0.17798703908920288,0.17203408479690552,-0.273425430059433
1789225031887016000,0.618015869140625,-0.2840820550918579,-0.06441174447536469,-0.38972726464271545
1789225031897055700,0.6280556640625,-0.17010807991027832,0.015049257315695286,-0.2992125451564789
1789225031907094800,0.6380947265625,-0.1626371145248413,-0.05754745006561279,-0.2756028175354004
1789225031917133800,0.6481337890625,-0.15772971510887146,-0.09624157845973969,-0.23090778291225433
1789225031927172600,0.658172607421875,-0.16195668280124664,0.026574619114398956,-0.15230324864387512
1789225031937211600,0.668211669921875,-0.30165067315101624,0.04488971084356308,-0.11310525238513947
1789225031947251700,0.678251708984375,-0.2599436938762665,0.2482132762670517,-0.0326349101960659
1789225031957290800,0.688290771484375,-0.27093854546546936,0.42079517245292664,0.044919006526470184
1789225031967329800,0.698329833984375,-0.2617921829223633,0.31221169233322144,0.013671071268618107
1789225031977368800,0.708368896484375,-0.280527263879776,0.37040388584136963,0.0380411259829998
1789225031987407600,0.71840771484375,-0.2882930338382721,0.4083009362220764,0.03909999877214432
1789225031997447700,0.72844775390625,-0.25551512837409973,0.4396130442619324,0.01938195340335369
1789225032007486700,0.73848681640625,-0.17357152700424194,0.25311988592147827,-0.04430275037884712
1789225032017525800,0.74852587890625,-0.05481637641787529,0.18882957100868225,-0.0020455741323530674
1789225032027564800,0.758564697265625,-0.10704336315393448,0.24908332526683807,-0.19180113077163696
1789225032037604900,0.76860498046875,-0.19414417445659637,0.42163991928100586,-0.2534884512424469
1789225032047643600,0.7786435546875,-0.1656227856874466,0.3158849775791168,-0.1912650316953659
1789225032057682700,0.7886826171875,-0.04796246439218521,0.33349061012268066,-0.009612945839762688
1789225032067721700,0.7987216796875,-0.006932208314538002,0.2960796058177948,0.08042000979185104
1789225032077760800,0.8087607421875,-0.004354001954197884,0.23352833092212677,0.05589442327618599
1789225032087800800,0.81880078125,0.03647332265973091,0.3047519028186798,0.11840254068374634
1789225032097839900,0.82883984375,-0.04679733142256737,0.28721338510513306,0.0997401773929596
1789225032107878700,0.838878662109375,-0.26161137223243713,0.348823219537735,-0.13032950460910797
1789225032117917700,0.848917724609375,-0.25770077109336853,0.3057977259159088,-0.09478483349084854
1789225032127957800,0.858957763671875,-0.10106856375932693,0.24299773573875427,0.07304864376783371
1789225032137996800,0.868996826171875,0.05799219757318497,0.12946611642837524,0.12904933094978333
1789225032148035800,0.879035888671875,0.15780667960643768,0.13386645913124084,0.10633203387260437
1789225032158075000,0.889074951171875,0.2903924286365509,0.09427084028720856,0.18393468856811523
1789225032168113400,0.899113525390625,0.41622039675712585,0.2268453985452652,0.22505521774291992
1789225032178153500,0.909153564453125,0.4400772452354431,0.3052627146244049,0.29866713285446167
1789225032188192500,0.919192626953125,0.38257506489753723,0.41345176100730896,0.34310755133628845
1789225032198231600,0.9292314453125,0.2952002286911011,0.1953388750553131,0.45521280169487
1789225032208270600,0.9392705078125,0.2512756288051605,0.33709466457366943,0.740007758140564
1789225032218310700,0.949310546875,0.29953503608703613,0.2553388178348541,1.3219987154006958
1789225032228349400,0.959349365234375,0.1571773737668991,-0.07262440025806427,1.925606369972229
1789225032238388500,0.969388427734375,-0.022954318672418594,-0.5923738479614258,2.722849130630493
1789225032248427300,0.97942724609375,-0.1430162787437439,-1.5082775354385376,3.81671404838562
1789225032258466600,0.989466552734375,-0.4114525318145752,-1.6403796672821045,4.624372482299805
1789225032268506600,0.999506591796875,-0.5357539653778076,-1.952887773513794,5.211812496185303
1789225032278545400,1.00954541015625,-0.4927636384963989,-2.058704376220703,5.303843975067139
1789225032288584400,1.01958447265625,-1.2231155633926392,-4.590117931365967,-0.41695913672447205
1789225032298623500,1.02962353515625,-1.5226192474365234,2.8029367923736572,-0.8718022704124451
1789225032308663600,1.03966357421875,-0.7918491363525391,0.40234851837158203,-1.155727505683899
1789225032318702300,1.049702392578125,-0.5667145252227783,-0.029631661251187325,-0.3101474642753601
1789225032328741600,1.05974169921875,-0.41213321685791016,-0.2863207161426544,0.39505118131637573
1789225032338780400,1.069780517578125,-0.2348753660917282,-1.137352705001831,-0.8031265735626221
1789225032348819500,1.0798193359375,-0.033973414450883865,0.912082850933075,-1.2336933612823486
1789225032358859500,1.089859619140625,0.37238794565200806,0.28912076354026794,-1.5390820503234863
1789225032368898300,1.099898193359375,0.6966323256492615,0.20689353346824646,-1.3895186185836792
1789225032378937600,1.1099375,0.9424160122871399,0.15382231771945953,-1.2468174695968628
1789225032388976600,1.1199765625,1.0809768438339233,0.09225615859031677,-1.1493492126464844
1789225032399016400,1.130016357421875,1.229185700416565,0.23939208686351776,-1.1829016208648682
1789225032409055500,1.140055419921875,1.2484145164489746,0.3034978210926056,-1.1676304340362549
1789225032419094500,1.150094482421875,-0.25937962532043457,-1.8905279636383057,1.3297711610794067
1789225032429133300,1.16013330078125,-0.1638062447309494,0.32332614064216614,0.5462223291397095
1789225032439172600,1.170172607421875,-0.10204194486141205,-0.20337708294391632,0.27223870158195496
1789225032449212700,1.180212646484375,0.04596829041838646,-0.02370612882077694,0.041069138795137405
1789225032459251500,1.19025146484375,0.11421205848455429,0.10232077538967133,-0.3248915374279022
1789225032469290500,1.20029052734375,0.2292017638683319,0.24214552342891693,-0.4121539890766144
1789225032479329500,1.21032958984375,0.3186384439468384,0.2707361578941345,-0.47715404629707336
1789225032489369300,1.220369384765625,0.3481105864048004,0.27197718620300293,-0.4703238308429718
1789225032499408400,1.230408447265625,0.24194897711277008,0.2668692469596863,-0.41896235942840576
1789225032509447700,1.24044775390625,0.16301928460597992,0.27582547068595886,-0.39425861835479736
1789225032519486500,1.250486572265625,0.15031200647354126,0.33134517073631287,-0.3313012421131134
1789225032529526500,1.260526611328125,0.18987911939620972,0.30778124928474426,-0.2510111927986145
1789225032539565600,1.270565673828125,0.2860291004180908,0.17295420169830322,-0.3588942289352417
1789225032549604400,1.280604248046875,0.39840036630630493,0.15212588012218475,-0.26354214549064636
1789225032559643400,1.290643310546875,0.5300172567367554,-0.10060303658246994,-0.25542962551116943
1789225032569682700,1.3006826171875,0.6240662336349487,-0.2118174433708191,-0.20174483954906464
1789225032579722500,1.310722412109375,0.6583731174468994,-0.3053487241268158,-0.1728261113166809
1789225032589761500,1.320761474609375,0.6039606928825378,-0.35970252752304077,-0.1691456139087677
1789225032599800600,1.330800537109375,0.4880905747413635,-0.49949291348457336,-0.15145343542099
1789225032609839400,1.34083935546875,0.06481281667947769,-0.9052574634552002,-0.19912189245224
1789225032619879400,1.35087939453125,-0.297602117061615,-1.0580997467041016,-0.030556844547390938
1789225032629918500,1.36091845703125,-0.8085676431655884,-1.131516933441162,-0.04440847784280777
1789225032639957500,1.37095751953125,-0.9675130844116211,-0.9568676352500916,-0.3544369041919708
1789225032649996500,1.38099658203125,-1.2940118312835693,-0.12751375138759613,-0.2035169005393982
1789225032660036600,1.39103662109375,-1.3519669771194458,-0.32669901847839355,-0.3929116129875183
1789225032670075400,1.401075439453125,-1.4495207071304321,-0.17222076654434204,-0.4471428692340851
1789225032680114400,1.411114501953125,-1.3574057817459106,-0.3141251802444458,-0.5603330731391907
1789225032690153500,1.421153564453125,-1.4429150819778442,-0.03627491742372513,-0.5520319938659668
1789225032700192500,1.431192626953125,-1.3776696920394897,-0.13877838850021362,-0.6487926244735718
1789225032710232600,1.441232666015625,-1.3288371562957764,-0.24817384779453278,-0.6949867606163025
1789225032720271600,1.451271728515625,-1.1399000883102417,-0.32676878571510315,-0.5029742121696472
1789225032730310400,1.461310302734375,-1.0316537618637085,-0.19140911102294922,-0.4923982322216034
1789225032740349400,1.471349365234375,-0.7094296216964722,-0.2485980987548828,-0.43455225229263306
1789225032750389500,1.481389404296875,-0.34611931443214417,-0.08542435616254807,-0.21957629919052124
1789225032760428500,1.491428466796875,-0.08602330088615417,-0.04173945635557175,-0.15352164208889008
1789225032770467600,1.501467529296875,-0.013526194728910923,0.001534779672510922,-0.17280267179012299
1789225032780506600,1.511506591796875,0.05083388462662697,0.030880417674779892,-0.11920388787984848
1789225032790546400,1.52154638671875,0.07475892454385757,0.019405122846364975,-0.11944010853767395
1789225032800585500,1.53158544921875,0.09712494909763336,0.0184013769030571,-0.07239856570959091
1789225032810624500,1.54162451171875,0.11385413259267807,0.007239004597067833,-0.0661071166396141
1789225032820663600,1.55166357421875,0.14507916569709778,0.004972654394805431,-0.044378917664289474
1789225032830703600,1.56170361328125,0.12329743057489395,0.02839941717684269,-0.04704554006457329
1789225032840742700,1.57174267578125,0.09571294486522675,0.003522030543535948,-0.051060788333415985
1789225032850781400,1.581781494140625,0.05321448668837547,-0.021770542487502098,-0.09421305358409882
1789225032860820500,1.591820556640625,0.005021922755986452,-0.053092777729034424,-0.1276533007621765
1789225032870859300,1.601859375,-0.02225497178733349,-0.057677146047353745,-0.12472542375326157
1789225032880899300,1.6118994140625,-0.016270847991108894,-0.08294548094272614,-0.12602956593036652
1789225032890938600,1.621938720703125,-0.007892011664807796,-0.06579525768756866,-0.12634621560573578
1789225032900977400,1.631977294921875,0.0202243123203516,-0.004159324802458286,-0.06652522832155228
1789225032911016400,1.642016357421875,0.06101914495229721,0.042579419910907745,-0.0034163030795753
1789225032921056500,1.652056396484375,0.09864295274019241,0.10636691749095917,0.058039866387844086
1789225032931095600,1.662095458984375,0.11621049791574478,0.11103757470846176,0.07587026059627533
1789225032941134300,1.67213427734375,0.14823633432388306,0.1755204200744629,0.09679045528173447
1789225032951173600,1.682173583984375,0.18460500240325928,0.13806040585041046,0.063127301633358
1789225032961213700,1.692213623046875,0.25247299671173096,0.18172292411327362,0.03778093308210373
1789225032971252500,1.70225244140625,0.2805089056491852,0.1356332004070282,0.023206785321235657
1789225032981291500,1.71229150390625,0.3336317539215088,0.1668241322040558,0.09604956954717636
1789225032991330300,1.722330322265625,0.3502163290977478,0.1723448634147644,0.08816687762737274
1789225033001370400,1.732370361328125,0.37791985273361206,0.17179732024669647,0.07904847711324692
1789225033011409400,1.742409423828125,0.40186700224876404,0.017350228503346443,-0.016227172687649727
1789225033021448400,1.752448486328125,0.3928562104701996,-0.062069229781627655,-0.1592346578836441
1789225033031487500,1.762487548828125,0.3969803750514984,-0.051542554050683975,-0.23994068801403046
1789225033041526500,1.772526611328125,0.3598548471927643,-0.012167450040578842,-0.2214152067899704
1789225033051566600,1.782566650390625,0.25939908623695374,-0.016710003837943077,-0.15277355909347534
1789225033061605400,1.79260546875,0.18019214272499084,0.05374259129166603,-0.08271751552820206
1789225033071644700,1.802644775390625,0.19246691465377808,0.15795262157917023,-0.2700141668319702
1789225033081683500,1.812683349609375,0.30460357666015625,-0.22796951234340668,-0.791858434677124
1789225033091723500,1.8227236328125,0.4272802174091339,0.0127557422965765,-0.9994750022888184
1789225033101762600,1.832762451171875,0.4576767385005951,-0.00788775086402893,-1.1723285913467407
1789225033111801300,1.84280126953125,0.4095771312713623,-0.14820890128612518,-1.3305999040603638
1789225033121840400,1.85284033203125,0.38657647371292114,-1.1368345022201538,-0.615445613861084
1789225033131880400,1.86288037109375,0.13096147775650024,0.2293010950088501,0.4693829417228699
1789225033141919500,1.87291943359375,0.3457140028476715,1.1075890064239502,0.7137415409088135
1789225033151958500,1.88295849609375,0.8459067940711975,-0.37252163887023926,0.02184084989130497
1789225033161997600,1.89299755859375,1.067650318145752,-0.06162314862012863,-0.2038561850786209
1789225033172038000,1.903037841796875,1.091040849685669,0.021695975214242935,-0.3205801546573639
1789225033182077000,1.913076904296875,1.2338182926177979,-0.20435500144958496,-0.4642683267593384
1789225033192115700,1.92311572265625,1.3153538703918457,-0.5320876240730286,-0.3059743046760559
1789225033202154800,1.93315478515625,1.175516128540039,0.1175447404384613,-0.03934820368885994
1789225033212194800,1.94319482421875,1.5767385959625244,0.263458788394928,-0.07142571359872818
1789225033222233900,1.95323388671875,1.760624885559082,-0.4813711643218994,-0.2225121706724167
1789225033232273000,1.96327294921875,2.038037061691284,0.1069650650024414,-0.2361299693584442
1789225033242312000,1.97331201171875,1.9157975912094116,-0.11683980375528336,-0.351736456155777
1789225033252351700,1.983351806640625,1.833048939704895,-0.2019248604774475,-0.33076807856559753
1789225033262390800,1.993390869140625,1.5755995512008667,-0.3413304388523102,-0.2782808840274811
1789225033272429800,2.003429931640625,1.2591124773025513,-0.1862042248249054,-0.20809167623519897
1789225033282468900,2.01346875,0.9331908226013184,-0.3326767683029175,-0.13061685860157013
1789225033292509000,2.023509033203125,0.460785448551178,0.06544425338506699,-0.04344068467617035
1789225033302548000,2.0335478515625,-0.05836290866136551,0.08336599916219711,0.07344359159469604
1789225033312586800,2.043586669921875,-0.2809949219226837,0.17041727900505066,0.15103372931480408
1789225033322625800,2.053625732421875,-0.5318892002105713,0.15403643250465393,0.20406711101531982
1789225033332665900,2.063665771484375,-0.7699150443077087,0.4120943546295166,0.21118894219398499
1789225033342705000,2.073704833984375,-0.8439536094665527,0.028301145881414413,0.02057025581598282
1789225033352744000,2.083743896484375,-0.9073752164840698,-0.2255987673997879,-0.10481589287519455
1789225033362783000,2.093782958984375,-0.8932148814201355,-0.43640661239624023,-0.12363432347774506
1789225033372822800,2.10382275390625,-0.7375605702400208,-0.7504135370254517,-0.049368083477020264
1789225033382861800,2.11386181640625,-1.046339988708496,-0.023131685331463814,0.10154739767313004
1789225033392900900,2.12390087890625,-1.5039960145950317,1.0086264610290527,0.1973559409379959
1789225033402940000,2.13393994140625,-1.4207942485809326,0.23146730661392212,0.3810666501522064
1789225033412980000,2.14397998046875,-1.7406457662582397,-0.0767110213637352,0.31689512729644775
1789225033423019000,2.15401904296875,-1.8647613525390625,0.14984142780303955,0.22875036299228668
1789225033433057800,2.164057861328125,-2.1511778831481934,0.5112816691398621,0.2311040610074997
1789225033443096800,2.174096923828125,-1.97113037109375,-0.1703062206506729,0.23210860788822174
1789225033453137000,2.184136962890625,-2.096615791320801,0.2503856122493744,0.1917119175195694
1789225033463175700,2.19417578125,-1.814792513847351,-0.20285165309906006,0.23847462236881256
1789225033473215000,2.204215087890625,-1.865014910697937,0.13129064440727234,0.16754639148712158
1789225033483254000,2.21425390625,-1.7151111364364624,-0.006219812668859959,0.07808920741081238
1789225033493293800,2.2242939453125,-1.6341217756271362,-0.0016852483386173844,0.02912113443017006
1789225033503332900,2.234332763671875,-1.1238542795181274,-0.4362662732601166,0.05047089606523514
1789225033513372000,2.244371826171875,-1.0820386409759521,-0.039269909262657166,0.04154345020651817
1789225033523410700,2.25441064453125,-0.9778067469596863,0.04881174862384796,-0.09712521731853485
1789225033533450800,2.26445068359375,-0.5591202974319458,-0.3815726637840271,0.012290221638977528
1789225033543490000,2.274489990234375,-0.4714412987232208,0.172280952334404,0.10304196178913116
1789225033553528800,2.28452880859375,-0.4185360074043274,0.001121989800594747,0.02857039123773575
1789225033563567900,2.29456787109375,-0.3472597002983093,0.05657779052853584,0.021892515942454338
1789225033573608000,2.30460791015625,-0.222228541970253,-0.0934085100889206,-0.018191520124673843
1789225033583646700,2.314646728515625,-0.13118092715740204,-0.10611525177955627,0.024147680029273033
1789225033593685800,2.324685791015625,-0.06129451468586922,-0.02587740309536457,0.09413208812475204
1789225033603725000,2.33472509765625,-0.05524994060397148,0.040410272777080536,0.09313100576400757
1789225033613764900,2.344764892578125,-0.04958353191614151,-0.05958929285407066,0.051111120730638504
1789225033623804000,2.354803955078125,-0.056000951677560806,-0.047740623354911804,0.01076742634177208
1789225033633843000,2.364843017578125,-0.05758393555879593,-0.04608174040913582,0.01721067912876606
1789225033643881700,2.3748818359375,-0.0578790120780468,0.007917577400803566,0.00672341650351882
1789225033653921800,2.384921875,-0.04530622810125351,-0.0721927061676979,-0.047626376152038574
1789225033663960800,2.3949609375,-0.0331406444311142,-0.0849420577287674,-0.06631564348936081
1789225033674000000,2.404999755859375,-0.048294562846422195,-0.08923666924238205,-0.014639396220445633
1789225033684039000,2.415038818359375,-0.04748762398958206,0.046365100890398026,0.07056604325771332
1789225033694079000,2.425078857421875,-0.05874187499284744,-0.011693674139678478,0.04042891412973404
1789225033704117800,2.43511767578125,-0.07607399672269821,-0.09185056388378143,-0.02178865298628807
1789225033714156800,2.44515673828125,-0.015078552067279816,-0.16104747354984283,-0.03231159970164299
1789225033724195800,2.45519580078125,-0.08465523272752762,0.07866072654724121,0.02582360804080963
1789225033734235600,2.465235595703125,-0.03051263466477394,-0.1271643489599228,0.07273678481578827
1789225033744275000,2.47527490234375,0.0014958975370973349,0.07649797201156616,0.13612641394138336
1789225033754314000,2.48531396484375,-0.06308123469352722,0.10599993914365768,0.04200151190161705
1789225033764352800,2.495352783203125,-0.01076715998351574,-0.09847836941480637,-0.0842783972620964
1789225033774392800,2.505392822265625,0.002948119305074215,-0.0797203928232193,-0.07803647965192795
1789225033784431900,2.515431884765625,-0.012535233050584793,-0.0734127014875412,-0.04063664376735687
1789225033794471000,2.525470947265625,0.07888815551996231,-0.05287653207778931,0.006220878101885319
1789225033804510000,2.535510009765625,0.18441565334796906,0.16982844471931458,0.009576993063092232
1789225033814550000,2.545550048828125,0.2921391725540161,0.033964626491069794,-0.007113303057849407
1789225033824588800,2.5555888671875,0.2809102237224579,-0.07467956095933914,-0.0020804614759981632
1789225033834627800,2.5656279296875,0.16071325540542603,0.10832753777503967,0.04507746174931526
1789225033844667000,2.5756669921875,0.14530739188194275,0.32167017459869385,0.05762201547622681
1789225033854706700,2.585706787109375,0.1550961136817932,0.08253082633018494,-0.03362666815519333
1789225033864745700,2.595745849609375,0.201697438955307,-0.006115949247032404,-0.1833314746618271
1789225033874785000,2.605784912109375,0.2523145377635956,0.09209796786308289,-0.2631935477256775
1789225033884823800,2.61582373046875,0.22504936158657074,0.09374566376209259,-0.2471834272146225
1789225033894864000,2.62586376953125,0.16247999668121338,0.2297719419002533,-0.23040923476219177
1789225033904903000,2.63590283203125,0.14219655096530914,-0.7155508995056152,-0.6209927201271057
1789225033914941700,2.645941650390625,0.24630804359912872,-1.2166008949279785,-0.8886531591415405
1789225033924981000,2.65598095703125,0.3861983120441437,-0.6564462780952454,-0.7140339612960815
1789225033935020800,2.666020751953125,0.17853006720542908,-0.6470035314559937,-0.46331918239593506
1789225033945059800,2.676059814453125,0.20616169273853302,-0.4693826735019684,-0.47464293241500854
1789225033955099000,2.686098876953125,0.12069632112979889,-0.24167707562446594,-0.3360203504562378
1789225033965138000,2.696137939453125,0.08579772710800171,-0.00020905814017169178,-0.15778429806232452
1789225033975177700,2.706177734375,-0.03681846708059311,0.28075817227363586,-0.06327004730701447
1789225033985216800,2.716216796875,-0.15071547031402588,0.6740322113037109,-0.01593955233693123
1789225033995256000,2.726256103515625,-0.19019098579883575,0.9557248950004578,0.04980883374810219
1789225034005295900,2.7362958984375,-0.2761423587799072,1.1796610355377197,0.13525928556919098
1789225034015335000,2.7463349609375,-0.36509621143341064,1.2512305974960327,0.242924764752388
1789225034025374000,2.7563740234375,-0.5504767298698425,0.9812718033790588,0.30165544152259827
1789225034035412700,2.766412841796875,-0.7983089089393616,1.1194019317626953,-0.0014450311427935958
1789225034045452800,2.776452880859375,-0.6378752589225769,1.2778733968734741,0.03033393807709217
1789225034055491800,2.786491943359375,-0.4148203730583191,1.3971824645996094,0.2086634635925293
1789225034065531000,2.79653076171875,-0.5155876874923706,1.718221664428711,0.24633893370628357
1789225034075570000,2.80656982421875,-0.383079469203949,1.728669285774231,0.30668723583221436
1789225034085610000,2.81660986328125,-0.19469837844371796,1.4378411769866943,0.28367751836776733
1789225034095648800,2.826648681640625,-0.05001017078757286,1.4897866249084473,0.4151657819747925
1789225034105687800,2.836687744140625,0.18924608826637268,1.2936928272247314,0.4428815543651581
1789225034115726800,2.846726806640625,0.2466888725757599,1.6890430450439453,0.8250046968460083
1789225034125766700,2.8567666015625,0.42285218834877014,1.010767936706543,0.8061854839324951
1789225034135806000,2.866805908203125,0.8349622488021851,1.0909980535507202,0.7684822678565979
1789225034145845000,2.876844970703125,0.6950522661209106,1.2056140899658203,1.0446454286575317
1789225034155883800,2.8868837890625,1.0117844343185425,0.928210973739624,0.9249019622802734
1789225034165923800,2.896923828125,0.9846899509429932,1.2432866096496582,1.0983637571334839
1789225034175962400,2.90696240234375,0.9753366708755493,0.8119648098945618,1.1958152055740356
1789225034186001700,2.917001708984375,0.8130878210067749,0.30720680952072144,0.9437305331230164
1789225034196041500,2.92704150390625,0.5987827181816101,1.0175682306289673,0.0028575719334185123
1789225034206080500,2.93708056640625,0.2447088211774826,0.6041862964630127,0.14930027723312378
1789225034216119600,2.94711962890625,-0.015511315315961838,-0.023542344570159912,0.04794302582740784
1789225034226158300,2.957158447265625,-0.12838700413703918,-0.27211886644363403,0.006961769424378872
1789225034236198400,2.967198486328125,-0.14902463555335999,-0.382404625415802,-0.04069256782531738
1789225034246237400,2.977237548828125,-0.16815651953220367,-0.3904103636741638,-0.0001001348573481664
1789225034256276500,2.9872763671875,-0.20069634914398193,-0.3492136597633362,0.024283768609166145
1789225034266315500,2.9973154296875,-0.2843813896179199,-0.28380587697029114,0.029265476390719414
1789225034276355600,3.00735546875,-0.3372502028942108,-0.29507210850715637,0.08872853964567184
1789225034286394600,3.01739453125,-0.3669425845146179,-0.14755722880363464,0.19057580828666687
1789225034296433400,3.027433349609375,-0.3799518644809723,-0.3779701888561249,0.08611597865819931
1789225034306472400,3.037472412109375,-0.30056995153427124,-0.06775853782892227,0.2404932975769043
1789225034316512500,3.047512451171875,-0.1715557724237442,0.09464821219444275,0.33866673707962036
1789225034326551600,3.057551513671875,-0.017418138682842255,0.2817475199699402,0.3765118420124054
1789225034336590600,3.067590576171875,0.060022324323654175,0.49924468994140625,0.30359822511672974
1789225034346629400,3.07762939453125,0.033914823085069656,0.5543084740638733,0.2801640033721924
1789225034356669400,3.08766943359375,0.011264638975262642,0.5026487708091736,0.2634428143501282
1789225034366708500,3.09770849609375,0.035645611584186554,0.5954870581626892,0.36606186628341675
1789225034376747500,3.10774755859375,0.016266055405139923,0.3944801986217499,0.5977038741111755
1789225034386787300,3.117787353515625,-0.3133414089679718,0.013882526196539402,0.7691882848739624
1789225034396826600,3.12782666015625,-0.8696184754371643,0.6802259087562561,0.9819501042366028
1789225034406865700,3.13786572265625,-1.1655158996582031,-0.14304716885089874,0.5411838889122009
1789225034416904400,3.147904541015625,-1.1618186235427856,0.5719740390777588,0.7025211453437805
1789225034426944500,3.157944580078125,-1.093621015548706,0.32105952501296997,1.1674590110778809
1789225034436983600,3.167983642578125,-0.4541105031967163,-0.015590677969157696,1.2759824991226196
1789225034447022300,3.178022216796875,-0.054114099591970444,0.3325028419494629,0.7036747932434082
1789225034457061600,3.1880615234375,0.19407972693443298,0.3925803005695343,0.4554383456707001
1789225034467101700,3.198101806640625,0.08241737633943558,0.11746351420879364,0.6899989247322083
1789225034477140500,3.208140380859375,-0.08448159694671631,-0.4171309173107147,1.004881739616394
1789225034487179500,3.218179443359375,-0.4781801700592041,-0.8248371481895447,0.8658056259155273
1789225034497219600,3.228219482421875,-0.7205320596694946,-0.42963817715644836,0.6381743550300598
1789225034507258400,3.23825830078125,-0.7625280022621155,-0.3986065089702606,0.6336917281150818
1789225034517297400,3.24829736328125,-0.7215462327003479,-0.5551987886428833,0.6844131946563721
1789225034527336700,3.258336669921875,-0.564570426940918,-0.6010048985481262,0.6221943497657776
1789225034537376500,3.26837646484375,-0.4528103470802307,-0.4342843294143677,0.37609028816223145
1789225034547415600,3.27841552734375,-0.3684445917606354,-0.43994835019111633,0.09064947813749313
1789225034557454600,3.28845458984375,-0.06666851043701172,-0.4561915099620819,-0.27613145112991333
1789225034567493400,3.298493408203125,0.513764500617981,-0.521310567855835,-0.23888342082500458
1789225034577533400,3.308533447265625,0.976858913898468,-0.5749139189720154,-0.3097003400325775
1789225034587572500,3.318572509765625,1.3379430770874023,-0.013815414160490036,-0.29103076457977295
1789225034597611500,3.328611572265625,1.0662814378738403,-0.0324263833463192,-0.49087730050086975
1789225034607651600,3.338651611328125,1.1934431791305542,0.9927484393119812,-0.37868791818618774
1789225034617690600,3.348690673828125,1.304053544998169,1.027229905128479,-0.5841896533966064
1789225034627729400,3.3587294921875,1.62950599193573,1.5235211849212646,-0.46657809615135193
1789225034637768400,3.3687685546875,1.946232795715332,1.60248601436615,-0.5847460031509399
1789225034647808500,3.37880859375,1.9870023727416992,1.7367043495178223,-0.544318675994873
1789225034657847300,3.388847412109375,1.2515381574630737,1.3776633739471436,-0.3955811560153961
1789225034667886600,3.398886474609375,1.0248653888702393,0.5211793184280396,0.3979092836380005
1789225034677925600,3.408925537109375,0.919995903968811,0.019040269777178764,0.10917975008487701
1789225034687965400,3.41896533203125,0.6257128715515137,0.1532132476568222,-0.10320281982421875
1789225034698004500,3.42900439453125,0.28818732500076294,0.0700259581208229,-0.2840551435947418
1789225034708043500,3.43904345703125,-0.03632764890789986,0.019029883667826653,-0.31294724345207214
1789225034718083300,3.449083251953125,-0.29931026697158813,0.10400309413671494,-0.2966899871826172
1789225034728122400,3.459122314453125,-0.4633495509624481,0.1371496021747589,-0.31774014234542847
1789225034738161700,3.46916162109375,-0.6061913967132568,0.08572928607463837,-0.27473434805870056
1789225034748200400,3.479200439453125,-0.7243260145187378,0.04706258326768875,-0.19174440205097198
1789225034758240500,3.489240478515625,-0.8247516751289368,0.0030945930629968643,-0.11168339103460312
1789225034768279600,3.499279541015625,-0.9145095348358154,-0.04613287374377251,-0.05451011285185814
1789225034778318300,3.509318359375,-0.988885223865509,-0.073121078312397,-0.0003866909828502685
1789225034788357400,3.519357421875,-0.9821889996528625,-0.13888224959373474,0.034451983869075775
1789225034798397400,3.5293974609375,-1.0110981464385986,0.003409645054489374,0.050755590200424194
1789225034808436500,3.5394365234375,-1.1077282428741455,0.01569613814353943,-0.05802708491683006
1789225034818475500,3.5494755859375,-1.1955758333206177,-0.37414830923080444,-0.04152107611298561
1789225034828515600,3.559515625,-1.2481242418289185,-0.711161732673645,0.13791659474372864
1789225034838554400,3.569554443359375,-1.3106461763381958,-0.7862647771835327,0.260465145111084
1789225034848593400,3.579593505859375,-1.3424299955368042,-0.7543054819107056,0.3335673213005066
1789225034858632400,3.589632568359375,-1.2240945100784302,-0.5799456834793091,0.4128466844558716
1789225034868672500,3.599672607421875,-0.8649614453315735,-0.276790589094162,0.438925176858902
1789225034878711600,3.609711669921875,-0.5213342905044556,0.13112233579158783,0.49572986364364624
1789225034888750600,3.61975048828125,-0.3444937467575073,0.3236531615257263,0.6164876818656921
1789225034898789400,3.629789306640625,-0.28728023171424866,0.22106261551380157,0.6410742402076721
1789225034908829400,3.639829345703125,-0.25286900997161865,0.15470223128795624,0.6491881012916565
1789225034918868500,3.649868408203125,-0.15359275043010712,0.0052056810818612576,0.584224283695221
1789225034928907500,3.659907470703125,0.054361242800951004,-0.15129071474075317,0.47598305344581604
1789225034938947300,3.669947265625,0.31690338253974915,-0.13667050004005432,0.401602566242218
1789225034948986600,3.679986572265625,0.5827049612998962,-0.12431742250919342,0.3579117953777313
1789225034959025400,3.690025390625,0.8236116170883179,-0.05162591114640236,0.36852744221687317
1789225034969064400,3.700064453125,1.1180086135864258,-0.009863017126917839,0.4360302984714508
1789225034979104500,3.7101044921875,1.4743680953979492,0.13748009502887726,0.6284253001213074
1789225034989143600,3.7201435546875,2.0928761959075928,0.4689192771911621,1.0806050300598145
1789225034999182300,3.730182373046875,2.263895273208618,-0.7484713196754456,0.4035501182079315
1789225035009222400,3.740222412109375,1.7061283588409424,0.19459931552410126,0.2598446309566498
1789225035019261700,3.75026171875,1.3121485710144043,-0.4870159924030304,0.5480708479881287
1789225035029300500,3.760300537109375,1.1689828634262085,-0.2124725878238678,0.5151637196540833
1789225035039339500,3.770339599609375,1.1322282552719116,-0.07144009321928024,0.4118517339229584
1789225035049379600,3.780379638671875,1.1004756689071655,-0.21265900135040283,0.4237331748008728
1789225035059418400,3.79041845703125,0.9223788976669312,-0.3354603052139282,0.26182788610458374
1789225035069457400,3.80045751953125,0.6288719177246094,-0.07932838052511215,0.2484516203403473
1789225035079496400,3.810496337890625,0.41380035877227783,-0.17756439745426178,0.1266317069530487
1789225035089536500,3.82053662109375,0.17359896004199982,-0.3245874047279358,0.08054863661527634
1789225035099575600,3.830575439453125,-0.08758151531219482,-0.3771379590034485,-0.047021571546792984
1789225035109614600,3.840614501953125,-0.24308748543262482,-0.4787450134754181,-0.1971873641014099
1789225035119654400,3.850654296875,-0.36166098713874817,-0.409451961517334,-0.31465834379196167
1789225035129693400,3.860693359375,-0.4040800929069519,-0.30133533477783203,-0.3829156756401062
1789225035139732500,3.870732421875,-0.419869989156723,-0.4745262861251831,-0.4769851863384247
1789225035149771500,3.880771484375,-0.4057781398296356,-0.5784103274345398,-0.42753881216049194
1789225035159811600,3.8908115234375,-0.29818108677864075,-0.7349134087562561,-0.37490278482437134
1789225035169850600,3.9008505859375,-0.21512189507484436,-0.837734043598175,-0.38374313712120056
1789225035179889400,3.910889404296875,-0.12608256936073303,-1.1662025451660156,-0.5256483554840088
1789225035189929500,3.920929443359375,-0.043705668300390244,-1.242847204208374,-0.19314202666282654
1789225035199968500,3.930968505859375,0.025909626856446266,-1.1843769550323486,-0.5260001420974731
1789225035210007600,3.941007568359375,0.1061011329293251,-1.2982292175292969,-0.30887502431869507
1789225035220046600,3.951046630859375,0.2731226086616516,-1.5283098220825195,-0.5001123547554016
1789225035230086700,3.961086669921875,0.37777072191238403,-1.0728349685668945,-0.3338874280452728
1789225035240125400,3.97112548828125,0.566280722618103,-1.0035570859909058,-0.5483089089393616
1789225035250164500,3.98116455078125,0.6006717085838318,-1.0825576782226562,-0.39132168889045715
1789225035260204500,3.99120458984375,0.5724771022796631,-0.9770245552062988,-0.23665621876716614
1789225035270243300,4.001243408203125,0.5539417862892151,-1.2595659494400024,-0.12558722496032715
1789225035280282600,4.01128271484375,0.615894615650177,-1.4106298685073853,-0.022584671154618263
1789225035290321700,4.02132177734375,0.7045677304267883,-1.437510371208191,-0.2966409921646118
1789225035300361500,4.031361572265625,0.6936972737312317,-1.3692094087600708,0.1580045521259308
1789225035310400500,4.041400390625,0.7992641925811768,-1.6768755912780762,0.05657273158431053
1789225035320439600,4.051439453125,0.6957132816314697,-0.6437113285064697,0.0015752597246319056
1789225035330479400,4.061479248046875,0.5802450180053711,-0.554026186466217,-0.13241076469421387
1789225035340518400,4.071518310546875,0.5653049349784851,-0.6517990827560425,-0.2542053759098053
1789225035350557400,4.081557373046875,0.4602043628692627,-0.0519404299557209,-0.39555105566978455
1789225035360596500,4.091596435546875,0.31527194380760193,-0.13742390275001526,-0.6363996267318726
1789225035370636500,4.101636474609375,0.18493416905403137,-0.056285109370946884,-0.7968457341194153
1789225035380675600,4.111675537109375,0.019697271287441254,-0.03178536146879196,-1.0007352828979492
1789225035390714400,4.12171435546875,-0.08543740212917328,0.032575253397226334,-1.125626564025879
1789225035400754400,4.13175439453125,-0.1376958191394806,0.04457519203424454,-1.1334210634231567
1789225035410793500,4.14179345703125,-0.13632002472877502,0.08160458505153656,-1.0884144306182861
1789225035420832500,4.15183251953125,-0.049979276955127716,0.1141609251499176,-0.9638933539390564
1789225035430871600,4.16187158203125,0.04958566278219223,0.12054266035556793,-0.8541966676712036
1789225035440911600,4.17191162109375,0.14664962887763977,0.16171060502529144,-0.7403148412704468
1789225035450950400,4.181950439453125,0.2159392237663269,0.1723019927740097,-0.7038260698318481
1789225035460989400,4.191989501953125,0.27577298879623413,0.12580746412277222,-0.6651124954223633
1789225035471029500,4.202029541015625,0.31795212626457214,0.19251617789268494,-0.6503737568855286
1789225035481068300,4.212068359375,0.36175209283828735,0.19241365790367126,-0.6557919383049011
1789225035491107600,4.222107666015625,0.3911565840244293,0.14932796359062195,-0.65497225522995
1789225035501146600,4.232146728515625,0.41436654329299927,0.06240718439221382,-0.6635223031044006
1789225035511186700,4.242186767578125,0.4458741545677185,-0.05812482163310051,-0.7314773797988892
1789225035521225500,4.2522255859375,0.44450581073760986,-0.12677419185638428,-0.8185483813285828
1789225035531264500,4.262264404296875,0.4229182302951813,-0.24491015076637268,-0.8673742413520813
1789225035541304600,4.2723046875,0.46138226985931396,-0.300886869430542,-0.8385266065597534
1789225035551343400,4.28234326171875,0.5196325182914734,-0.13211488723754883,-0.6902860403060913
1789225035561382700,4.292382568359375,0.5856869220733643,-0.07320710271596909,-0.5638596415519714
1789225035571421400,4.30242138671875,0.5664242506027222,0.044202350080013275,-0.37468332052230835
1789225035581461500,4.31246142578125,0.466351717710495,0.061884138733148575,-0.28129664063453674
1789225035591500500,4.32250048828125,0.3400571644306183,0.10783032327890396,-0.2616449296474457
1789225035601539300,4.332539306640625,0.25677159428596497,0.03783340007066727,-0.18527372181415558
1789225035611579400,4.342579345703125,0.1893845796585083,0.0743730366230011,-0.11228978633880615
1789225035621618400,4.352618408203125,0.08813279122114182,0.01386814471334219,-0.08574286848306656
1789225035631657700,4.36265771484375,-0.01642797514796257,-0.04910203069448471,-0.08481927961111069
1789225035641696500,4.372696533203125,-0.05235534906387329,-0.08252789825201035,-0.07930973917245865
1789225035651736600,4.382736572265625,0.03063753806054592,-0.07852889597415924,0.060798633843660355
1789225035661775600,4.392775634765625,0.11067990958690643,-0.045885201543569565,0.14661474525928497
1789225035671814400,4.402814453125,0.12056902796030045,-0.036434441804885864,0.16131246089935303
1789225035681854500,4.4128544921875,0.09333687275648117,-0.06189825385808945,0.12576165795326233
1789225035691893500,4.4228935546875,0.08972881734371185,-0.07666255533695221,0.09096905589103699
1789225035701932500,4.4329326171875,0.06045854836702347,-0.11173638701438904,0.06356193125247955
1789225035711972400,4.442972412109375,-0.0051878378726542,-0.09469934552907944,0.0884941816329956
1789225035722011600,4.45301171875,-0.0680147334933281,-0.12303724139928818,0.11708880960941315
1789225035732050400,4.463050537109375,-0.08233775198459625,-0.11292415112257004,0.11822357773780823
1789225035742089500,4.47308935546875,-0.07460100203752518,-0.11880281567573547,0.08217236399650574
1789225035752129500,4.483129638671875,-0.05992911383509636,-0.22325146198272705,0.03644509240984917
1789225035762168300,4.493168212890625,-0.06994952261447906,-0.08808805048465729,0.06905310600996017
1789225035772207600,4.50320751953125,-0.09888157248497009,-0.13099876046180725,-0.034091126173734665
1789225035782247400,4.513247314453125,-0.06491295248270035,-0.036257874220609665,-0.1443561166524887
1789225035792286500,4.523286376953125,-0.06040315702557564,-0.08412499725818634,-0.28026121854782104
1789225035802325500,4.533325439453125,-0.06779342889785767,-0.07162891328334808,-0.4659695625305176
1789225035812364500,4.543364501953125,-0.04506601020693779,-0.15365959703922272,-0.6431949138641357
1789225035822404400,4.553404296875,0.03554760664701462,-0.12079086899757385,-0.7399536967277527
1789225035832443400,4.563443359375,0.08786540478467941,-0.11305491626262665,-0.7841824293136597
1789225035842482700,4.573482666015625,0.15776219964027405,0.15751345455646515,-0.6886129975318909
1789225035852522500,4.5835224609375,0.09728633612394333,-0.05537350848317146,-0.01666126772761345
1789225035862561500,4.5935615234375,0.1461164653301239,0.12556910514831543,0.07997232675552368
1789225035872600600,4.6036005859375,0.18787482380867004,0.15935982763767242,-0.20225323736667633
1789225035882639400,4.613639404296875,0.21447688341140747,0.12095145136117935,-0.2518271803855896
1789225035892679400,4.623679443359375,0.2757101356983185,0.16629177331924438,-0.19571490585803986
1789225035902718500,4.633718505859375,0.30858099460601807,0.16343766450881958,-0.16219396889209747
1789225035912757500,4.643757568359375,0.25530844926834106,0.19386614859104156,-0.1452421396970749
1789225035922797600,4.653797607421875,0.16327761113643646,0.14213263988494873,-0.1939934343099594
1789225035932836600,4.663836669921875,0.15481728315353394,0.13970516622066498,-0.16018007695674896
1789225035942875400,4.67387548828125,0.1640634983778,0.14958415925502777,-0.0908374935388565
1789225035952914400,4.68391455078125,0.16741269826889038,0.16433994472026825,-0.07298526167869568
1789225035962954500,4.69395458984375,0.16345897316932678,0.1710609644651413,-0.04152560606598854
1789225035972993300,4.7039931640625,0.16886171698570251,0.14798200130462646,0.03142290562391281
1789225035983032600,4.714032470703125,0.14994874596595764,0.15083132684230804,0.037331923842430115
1789225035993072400,4.724072265625,0.12397121638059616,0.16123495995998383,0.08646830916404724
1789225036003111700,4.734111572265625,0.11609411239624023,0.1253986656665802,0.12300129234790802
1789225036013150500,4.744150390625,0.10608142614364624,0.13143391907215118,0.14256274700164795
1789225036023190500,4.7541904296875,0.0920415073633194,0.12936757504940033,0.1297508031129837
1789225036033229600,4.7642294921875,0.090642549097538,0.09445593506097794,0.15755660831928253
1789225036043268400,4.774268310546875,0.06228707730770111,0.033236514776945114,0.19379504024982452
1789225036053307600,4.7843076171875,0.025834526866674423,0.0013512879377231002,0.14069080352783203
1789225036063347500,4.794347412109375,-0.0007273092633113265,-0.00016538229829166085,0.09939609467983246
1789225036073386500,4.804386474609375,-0.01495151873677969,0.1359940469264984,-0.06480935961008072
1789225036083425500,4.814425537109375,-0.017613613978028297,0.0680227279663086,-0.09746237099170685
1789225036093465600,4.824465576171875,-0.02954058162868023,-0.05083548277616501,0.06000661104917526
1789225036103504400,4.83450439453125,-0.04884743317961693,-0.10667238384485245,0.048114266246557236
1789225036113543400,4.84454345703125,-0.062184546142816544,-0.069319948554039,-0.028180770576000214
1789225036123582700,4.854582763671875,-0.07372455298900604,-0.10245580226182938,-0.03820224478840828
1789225036133622500,4.86462255859375,-0.09513130784034729,-0.13112924993038177,0.016211461275815964
1789225036143661600,4.87466162109375,-0.12060178071260452,-0.14775323867797852,0.059427373111248016
1789225036153700600,4.88470068359375,-0.12677818536758423,-0.14170227944850922,0.07118389755487442
1789225036163740400,4.894740478515625,-0.1290474683046341,-0.15590304136276245,0.06039782986044884
1789225036173779200,4.904779296875,-0.1230500265955925,-0.13647715747356415,0.05525713041424751
1789225036183818200,4.914818359375,-0.1254577934741974,-0.14335130155086517,0.08587176352739334
1789225036193857500,4.924857421875,-0.13113059103488922,-0.1371205747127533,0.11108763515949249
1789225036203897600,4.934897705078125,-0.1255107820034027,-0.1225791797041893,0.09882830828428268
1789225036213936400,4.944936279296875,-0.11374014616012573,-0.10546410828828812,0.06342211365699768
1789225036223975400,4.954975341796875,-0.1013423353433609,-0.1053575798869133,0.040719468146562576
1789225036234015500,4.965015380859375,-0.0972788855433464,-0.10495144873857498,0.04095941781997681
1789225036244054300,4.97505419921875,-0.1033351793885231,-0.10833898931741714,0.040583379566669464
1789225036254093300,4.98509326171875,-0.11351138353347778,-0.08861561864614487,0.014290256425738335
1789225036264133400,4.99513330078125,-0.10320255160331726,-0.07844394445419312,-0.01745568960905075
1789225036274172400,5.00517236328125,-0.08261711895465851,-0.08531329780817032,-0.0163629949092865
1789225036284211500,5.01521142578125,-0.07007496058940887,-0.08813971281051636,0.01094772294163704
1789225036294250200,5.025250244140625,-0.06501095741987228,-0.07654830068349838,0.007837682962417603
1789225036304290300,5.035290283203125,-0.062958724796772,-0.06509431451559067,-0.004043743945658207
1789225036314329300,5.045329345703125,-0.05571732297539711,-0.04924238100647926,0.0028663603588938713
1789225036324368400,5.055368408203125,-0.046133674681186676,-0.028384236618876457,0.022547919303178787
1789225036334408200,5.065408203125,-0.04036792740225792,-0.00960042979568243,0.028729116544127464
1789225036344447500,5.075447509765625,-0.02376711554825306,0.001448759576305747,0.029025793075561523
1789225036354486500,5.085486572265625,-0.014221013523638248,0.03134354203939438,0.017546502873301506
1789225036364526300,5.0955263671875,0.000570981705095619,0.03337899595499039,0.040296025574207306
1789225036374565400,5.1055654296875,0.005245628301054239,0.0388302206993103,0.050758253782987595
1789225036384604400,5.1156044921875,0.011002849787473679,0.04832199215888977,0.03298617899417877
1789225036394643200,5.125643310546875,0.020779846236109734,0.06336832046508789,0.025110412389039993
1789225036404683300,5.135683349609375,0.029092371463775635,0.07033754885196686,0.023963389918208122
1789225036414722600,5.14572265625,0.034267693758010864,0.07308273017406464,0.008522914722561836
1789225036424761300,5.15576123046875,0.030898528173565865,0.07343640178442001,-0.00914689339697361
1789225036434801400,5.165801513671875,0.0204544086009264,0.07728493213653564,-0.02081846259534359
1789225036444840400,5.17584033203125,0.0171494260430336,0.06714015454053879,-0.020080767571926117
1789225036454879200,5.185879150390625,0.023901071399450302,0.05073454976081848,-0.006743922829627991
1789225036464919300,5.195919189453125,0.024589233100414276,0.04020414501428604,-0.00041971419705078006
1789225036474958300,5.205958251953125,0.016592025756835938,0.043236155062913895,0.005891178734600544
1789225036484997400,5.215997314453125,0.0002985403698403388,0.041559427976608276,0.021433919668197632
1789225036495036400,5.226036376953125,-0.010143181309103966,0.03522110357880592,0.031387485563755035
1789225036505076500,5.236076416015625,-0.017967015504837036,0.031151527538895607,0.028144819661974907
1789225036515115300,5.246115234375,-0.025048628449440002,0.020541228353977203,0.036310337483882904
1789225036525154300,5.256154296875,-0.028507541865110397,-0.006372145377099514,0.05144162103533745
1789225036535194400,5.2661943359375,-0.03359284624457359,-0.04549211636185646,0.051891159266233444
1789225036545233200,5.276233154296875,-0.05796822905540466,-0.04874064028263092,0.04184332117438316
1789225036555272400,5.2862724609375,-0.09979689866304398,-0.13861113786697388,0.03906750679016113
1789225036565311500,5.2963115234375,-0.16480199992656708,-0.12620027363300323,0.048218660056591034
1789225036575351600,5.3063515625,-0.13758449256420135,-0.3410622477531433,-0.012284096330404282
1789225036585390300,5.316390380859375,-0.19771814346313477,-0.16440865397453308,-0.05807395651936531
1789225036595429400,5.326429443359375,-0.13054309785366058,-0.28330016136169434,-0.10852248221635818
1789225036605469400,5.336469482421875,-0.16288958489894867,-0.12377174198627472,-0.054733820259571075
1789225036615508200,5.34650830078125,-0.18353547155857086,-0.009811085648834705,-0.08838365972042084
1789225036625547500,5.356547607421875,-0.12667645514011383,-0.06472999602556229,-0.10326726734638214
1789225036635587300,5.36658740234375,-0.07397276163101196,-0.07146912068128586,0.009018528275191784
1789225036645626400,5.37662646484375,-0.06415314972400665,-0.07114554941654205,0.09186360985040665
1789225036655665400,5.38666552734375,-0.0700741559267044,-0.10234261304140091,0.06406234204769135
1789225036665705500,5.39670556640625,-0.06806506961584091,-0.10997923463582993,0.00046152580762282014
1789225036675744300,5.406744140625,-0.08048498630523682,-0.02997281216084957,0.04132959619164467
1789225036685783300,5.416783203125,-0.11020666360855103,0.02551201730966568,0.04092346504330635
1789225036695822600,5.426822509765625,-0.09449401497840881,0.08653329312801361,0.017005348578095436
1789225036705862400,5.4368623046875,-0.055210258811712265,0.13205790519714355,0.045998383313417435
1789225036715901400,5.4469013671875,0.021938322111964226,0.1360478550195694,0.08154386281967163
1789225036725940500,5.4569404296875,0.09038635343313217,0.11188419163227081,0.038655251264572144
1789225036735980300,5.466980224609375,0.12135066092014313,0.09966453909873962,-0.024444622918963432
1789225036746019300,5.477019287109375,0.11120987683534622,0.11755086481571198,-0.05419985577464104
1789225036756058400,5.487058349609375,0.08801507949829102,0.1233443021774292,-0.10459751635789871
1789225036766098200,5.49709814453125,0.059597283601760864,0.14496996998786926,-0.13780979812145233
1789225036776137500,5.507137451171875,0.051911935210227966,0.1770394891500473,-0.14625415205955505
1789225036786176500,5.517176513671875,0.08348610252141953,0.22531861066818237,-0.12784025073051453
1789225036796215300,5.52721533203125,0.1506291925907135,0.2310265600681305,-0.08995012938976288
1789225036806255400,5.53725537109375,0.1846872866153717,0.22632181644439697,-0.037273336201906204
1789225036816294400,5.54729443359375,0.17501921951770782,0.1973881721496582,-0.020794760435819626
1789225036826333200,5.557333251953125,0.1460631936788559,0.1830265372991562,-0.041194308549165726
1789225036836373200,5.567373291015625,0.12027581036090851,0.15946155786514282,-0.03502083569765091
1789225036846412500,5.57741259765625,0.10626731812953949,0.18561354279518127,0.013013802468776703
1789225036856451300,5.587451416015625,0.12569667398929596,0.2159930169582367,0.02183552458882332
1789225036866491400,5.597491455078125,0.16804467141628265,0.24587181210517883,0.00264824740588665
1789225036876530400,5.607530517578125,0.2107844054698944,0.25857508182525635,0.032306008040905
1789225036886569200,5.6175693359375,0.21966364979743958,0.24541722238063812,0.050043992698192596
1789225036896608300,5.627608154296875,0.21033726632595062,0.23273497819900513,0.017310546711087227
1789225036906648300,5.6376484375,0.18762874603271484,0.23635847866535187,-0.0027140274178236723
1789225036916687400,5.647687255859375,0.18513470888137817,0.22884489595890045,0.002159557305276394
1789225036926726400,5.657726318359375,0.20260876417160034,0.25504374504089355,-0.039268843829631805
1789225036936766500,5.667766357421875,0.22632049024105072,0.3004905879497528,-0.06785760819911957
1789225036946805500,5.677805419921875,0.26219940185546875,0.32633256912231445,-0.05367308109998703
1789225036956844300,5.68784423828125,0.29626601934432983,0.36220216751098633,-0.045708898454904556
1789225036966884400,5.69788427734375,0.31633612513542175,0.38819700479507446,-0.06791646778583527
1789225036976923400,5.70792333984375,0.3238052427768707,0.404890775680542,-0.07644683867692947
1789225036986962400,5.71796240234375,0.3185332417488098,0.41739484667778015,-0.04987328499555588
1789225036997002200,5.728002197265625,0.3195817172527313,0.4079435467720032,-0.03784005716443062
1789225037007041500,5.73804150390625,0.33156487345695496,0.39262664318084717,-0.03910745680332184
1789225037017080300,5.748080322265625,0.3401932716369629,0.43177059292793274,-0.006106628105044365
1789225037027119400,5.758119384765625,0.35373491048812866,0.5374647974967957,0.011824967339634895
1789225037037159400,5.768159423828125,0.3872033655643463,0.506804883480072,0.018626147881150246
1789225037047198200,5.7781982421875,0.4064873158931732,0.5306321978569031,-0.0631459429860115
1789225037057237500,5.788237548828125,0.42646369338035583,0.6611886024475098,-0.13144484162330627
1789225037067277300,5.79827734375,0.42268654704093933,0.6504789590835571,-0.10980213433504105
1789225037077316400,5.80831640625,0.4437580108642578,0.6047183871269226,-0.07839733362197876
1789225037087355400,5.81835546875,0.4681243300437927,0.6004341840744019,-0.0984160527586937
1789225037097395500,5.8283955078125,0.5050714015960693,0.6350530982017517,-0.115410216152668
1789225037107434200,5.838434326171875,0.5290164351463318,0.699271023273468,-0.10212237387895584
1789225037117473300,5.848473388671875,0.5453834533691406,0.735820472240448,-0.09585702419281006
1789225037127513300,5.858513427734375,0.5572494268417358,0.7826372385025024,-0.10949134081602097
1789225037137552400,5.868552490234375,0.5661608576774597,0.8071449995040894,-0.11284905672073364
1789225037147591400,5.87859130859375,0.5812042951583862,0.8348328471183777,-0.09441625326871872
1789225037157630500,5.88863037109375,0.6047040224075317,0.8183590173721313,-0.07130933552980423
1789225037167670300,5.898670166015625,0.6367884278297424,0.7941956520080566,-0.1079067587852478
1789225037177709300,5.908709228515625,0.6218190789222717,0.8089095950126648,-0.10345502197742462
1789225037187748400,5.918748291015625,0.6023186445236206,0.7691880464553833,-0.09837503731250763
1789225037197788400,5.928788330078125,0.582865297794342,0.7608086466789246,-0.10503560304641724
1789225037207827500,5.938827392578125,0.5705143213272095,0.7730749249458313,-0.10224407911300659
1789225037217866500,5.948866455078125,0.5890443325042725,0.7658519148826599,-0.1352209448814392
1789225037227906600,5.958906494140625,0.597148060798645,0.7547835111618042,-0.13137027621269226
1789225037237945300,5.9689453125,0.5950167775154114,0.7104935646057129,-0.055693622678518295
1789225037247984400,5.978984375,0.5781390070915222,0.667905867099762,-0.025251027196645737
1789225037258024400,5.9890244140625,0.5471251606941223,0.6571972966194153,-0.05000564455986023
1789225037268063200,5.999063232421875,0.5207856893539429,0.6542374491691589,-0.06845229119062424
1789225037278102300,6.009102294921875,0.4932217001914978,0.642499566078186,-0.05980900675058365
1789225037288142300,6.019142333984375,0.4757787883281708,0.6256319284439087,-0.04548679292201996
1789225037298181400,6.029181396484375,0.4814731478691101,0.5921485424041748,-0.027092870324850082
1789225037308220400,6.039220458984375,0.5023201107978821,0.570618212223053,0.006360960192978382
1789225037318259500,6.049259521484375,0.5263399481773376,0.5317118167877197,-0.0013725932221859694
1789225037328299300,6.05929931640625,0.520564615726471,0.5324345827102661,-0.03241599723696709
1789225037338338300,6.06933837890625,0.48793745040893555,0.524971604347229,-0.03947870060801506
1789225037348377300,6.07937744140625,0.4496515691280365,0.5055904984474182,-0.02810060977935791
1789225037358417200,6.089417236328125,0.42241063714027405,0.4872269034385681,-0.04912040755152702
1789225037368456400,6.09945654296875,0.411212295293808,0.4592461585998535,-0.08544538915157318
1789225037378495500,6.10949560546875,0.4083813726902008,0.43330803513526917,-0.07867217808961868
1789225037388535300,6.119535400390625,0.40816324949264526,0.385354608297348,-0.06723283231258392
1789225037398574300,6.12957421875,0.39386793971061707,0.3455163836479187,-0.07661115378141403
1789225037408613400,6.13961328125,0.36649811267852783,0.3151185214519501,-0.06333156675100327
1789225037418653200,6.149653076171875,0.3442673683166504,0.28910210728645325,-0.02780872769653797
1789225037428692200,6.159692138671875,0.3361806869506836,0.26612037420272827,-0.013204218819737434
1789225037438731500,6.1697314453125,0.3287794888019562,0.26538586616516113,-0.015874037519097328
1789225037448771600,6.179771484375,0.31460827589035034,0.2674335837364197,-0.010430802591145039
1789225037458810400,6.189810302734375,0.2981429994106293,0.25315022468566895,0.010960505343973637
1789225037468849400,6.199849365234375,0.2814801335334778,0.24806919693946838,0.050040263682603836
1789225037478888200,6.20988818359375,0.2732568383216858,0.23833826184272766,0.05028767138719559
1789225037488928300,6.21992822265625,0.2726954519748688,0.224807009100914,0.042631614953279495
1789225037498967300,6.22996728515625,0.27877169847488403,0.2088829129934311,0.06712044775485992
1789225037509006300,6.24000634765625,0.28225165605545044,0.2013016939163208,0.07122837007045746
1789225037519046400,6.25004638671875,0.27433061599731445,0.19661292433738708,0.040105875581502914
1789225037529085400,6.26008544921875,0.2640089988708496,0.18619437515735626,0.019146263599395752
1789225037539124200,6.270124267578125,0.24852965772151947,0.1739683300256729,0.01829245500266552
1789225037549164300,6.280164306640625,0.23260900378227234,0.14804644882678986,-0.01133787538856268
1789225037559203300,6.290203369140625,0.2138611525297165,0.13453491032123566,-0.04850335419178009
1789225037569242400,6.300242431640625,0.19089537858963013,0.118109330534935,-0.040762875229120255
1789225037579282200,6.3102822265625,0.18252001702785492,0.050212305039167404,-0.012582371011376381
1789225037589321500,6.320321533203125,0.16447442770004272,0.0057289921678602695,-0.018941467627882957
1789225037599360500,6.330360595703125,0.1319044977426529,-0.017906296998262405,-0.01635660231113434
1789225037609400300,6.340400390625,0.07876937836408615,-0.0554233118891716,0.07185368239879608
1789225037619439400,6.350439453125,0.04163692519068718,-0.062067631632089615,0.08700493723154068
1789225037629478400,6.360478515625,0.04104277491569519,-0.0618138313293457,0.0015307849971577525
1789225037639518200,6.370518310546875,0.06965844333171844,-0.06358456611633301,-0.008988435380160809
1789225037649557200,6.38055712890625,0.08405894786119461,-0.04449023678898811,0.051106326282024384
1789225037659596500,6.390596435546875,0.06821314245462418,-0.028296086937189102,0.05024585872888565
1789225037669635300,6.40063525390625,0.0368134081363678,-0.01560958568006754,-0.007093595806509256
1789225037679675400,6.41067529296875,-0.0009182579233311117,-0.03893115371465683,-0.03663604333996773
1789225037689714400,6.42071435546875,-0.019462114199995995,-0.07178790122270584,-0.03056909516453743
1789225037699753200,6.430753173828125,-0.016224509105086327,-0.08564139902591705,-0.028613802045583725
1789225037709793300,6.440793212890625,-0.004281297791749239,-0.0813707560300827,-0.01679202914237976
1789225037719832300,6.450832275390625,2.6631610694494157e-7,-0.06228814274072647,0.021250693127512932
1789225037729871400,6.460871337890625,0.0031308121979236603,-0.04501248151063919,0.03133795037865639
1789225037739911400,6.470911376953125,-0.0070525831542909145,-0.02382304146885872,0.01703384518623352
1789225037749950500,6.480950439453125,-0.017831461504101753,-0.006701578386127949,0.019025621935725212
1789225037759989200,6.4909892578125,-0.020321516320109367,0.0018607506062835455,0.024147946387529373
1789225037770029300,6.501029296875,-0.017549432814121246,0.010774617083370686,0.017375528812408447
1789225037780068400,6.511068359375,-0.016389358788728714,0.011141068302094936,0.0008263788768090308
1789225037790107100,6.521107177734375,-0.01696966215968132,0.014318219386041164,-0.02298307977616787
1789225037800147200,6.531147216796875,-0.019110577180981636,0.02383396029472351,-0.03311294689774513
1789225037810186500,6.5411865234375,-0.012536298483610153,0.04200630635023117,-0.033904705196619034
1789225037820225500,6.5512255859375,0.0028943235520273447,0.07504282146692276,-0.03320375829935074
1789225037830265300,6.561265380859375,0.025431856513023376,0.10125098377466202,-0.04199831560254097
1789225037840304400,6.571304443359375,0.03922809660434723,0.11857378482818604,-0.055870987474918365
1789225037850343400,6.581343505859375,0.04054076969623566,0.1297617256641388,-0.05963749811053276
1789225037860383200,6.59138330078125,0.035060249269008636,0.13654586672782898,-0.05149994418025017
1789225037870422300,6.60142236328125,0.03490844741463661,0.13929344713687897,-0.050157975405454636
1789225037880461600,6.611461669921875,0.038730885833501816,0.1420080065727234,-0.04779442027211189
1789225037890501400,6.62150146484375,0.05116358399391174,0.14331507682800293,-0.030556045472621918
1789225037900540400,6.63154052734375,0.06271424889564514,0.13700658082962036,-0.0111621068790555
1789225037910579500,6.641579345703125,0.06259173899888992,0.13320386409759521,0.008448079228401184
1789225037920618200,6.6516181640625,0.05661214515566826,0.1358499825000763,0.012408199720084667
1789225037930658300,6.661658203125,0.05156439170241356,0.13539457321166992,0.0019504991360008717
1789225037940697300,6.671697265625,0.05493568629026413,0.13657303154468536,-0.0014823154779151082
1789225037950736400,6.681736328125,0.06931515783071518,0.14572471380233765,0.002606435678899288
1789225037960776400,6.6917763671875,0.08888406306505203,0.16422569751739502,-0.007248325273394585
1789225037970815500,6.7018154296875,0.10854458808898926,0.1803354173898697,-0.027814587578177452
1789225037980854300,6.711854248046875,0.12466710060834885,0.18805165588855743,-0.034978222101926804
1789225037990894300,6.721894287109375,0.12220767140388489,0.1912437230348587,-0.03346128761768341
1789225038000933400,6.731933349609375,0.12023213505744934,0.19943055510520935,-0.04162067919969559
1789225038010972200,6.74197216796875,0.10997310280799866,0.17079144716262817,-0.037462953478097916
1789225038021012200,6.75201220703125,0.10672005265951157,0.17555052042007446,-0.06913699209690094
1789225038031051500,6.762051513671875,0.0851665586233139,0.1838127076625824,-0.07404093444347382
1789225038041090300,6.77209033203125,0.0739746242761612,0.201606884598732,-0.09186041355133057
1789225038051130400,6.78213037109375,0.11105647683143616,0.22238565981388092,-0.1312008947134018
1789225038061169400,6.79216943359375,0.15507826209068298,0.19236145913600922,-0.12291580438613892
1789225038071208400,6.80220849609375,0.19931070506572723,0.18938244879245758,-0.08512261509895325
1789225038081248300,6.812248291015625,0.1861131489276886,0.19767020642757416,-0.06314781308174133
1789225038091287300,6.822287353515625,0.14181679487228394,0.17796947062015533,-0.03496570512652397
1789225038101326600,6.83232666015625,0.07790971547365189,0.13697250187397003,0.0062738750129938126
1789225038111366100,6.8423662109375,0.03916631266474724,0.09276056289672852,0.032938241958618164
1789225038121405400,6.852405517578125,0.047621581703424454,0.053289588540792465,0.07421883940696716
1789225038131444500,6.862444580078125,0.06684587895870209,0.07264650613069534,0.10284515470266342
1789225038141484300,6.872484375,0.07553444057703018,0.07995501905679703,0.11941801011562347
1789225038151523300,6.8825234375,0.0711601972579956,0.02429841458797455,0.11344267427921295
1789225038161562400,6.892562255859375,0.05462569370865822,0.04584365338087082,0.10526569932699203
1789225038171602200,6.902602294921875,0.01613369584083557,0.07040093094110489,0.012232164852321148
1789225038181641200,6.91264111328125,-0.020747888833284378,-0.019755328074097633,-0.03678331524133682
1789225038191680300,6.92268017578125,-0.03422055393457413,0.0041643851436674595,-0.090110182762146
1789225038201720300,6.93272021484375,-0.05059739574790001,-0.046781886368989944,-0.08384349942207336
1789225038211759400,6.94275927734375,0.04691504314541817,-0.10967829078435898,-0.047624245285987854
1789225038221798100,6.952798095703125,0.14144261181354523,-0.09344472736120224,-0.05817515403032303
1789225038231837200,6.962837158203125,0.10559140890836716,0.15931189060211182,-0.05200913920998573
1789225038241877200,6.972877197265625,-0.014071078039705753,-0.09376031160354614,-0.009033176116645336
1789225038251916300,6.982916259765625,-0.13937173783779144,-0.13683082163333893,0.004923119675368071
1789225038261955300,6.992955322265625,-0.24627022445201874,-0.03743552416563034,-0.04819709062576294
1789225038271995400,7.002995361328125,-0.2155863493680954,0.02894642949104309,-0.06671404838562012
1789225038282034400,7.013034423828125,0.06891834735870361,0.4765588343143463,-0.2568086087703705
1789225038292073200,7.0230732421875,0.22430287301540375,0.5218416452407837,-0.26030534505844116
1789225038302113300,7.03311328125,0.20801152288913727,0.03471936285495758,-0.11249671876430511
1789225038312152300,7.04315234375,0.2061491757631302,0.13875415921211243,-0.02983699180185795
1789225038322191400,7.05319140625,0.20971247553825378,0.24985110759735107,-0.07996993511915207
1789225038332231200,7.063231201171875,0.2467791587114334,0.21001794934272766,-0.0794125348329544
1789225038342270500,7.0732705078125,0.41291379928588867,0.156907856464386,-0.08539000153541565
1789225038352309200,7.083309326171875,0.4861297011375427,0.21488407254219055,0.001642637769691646
1789225038362349300,7.093349365234375,0.546939492225647,0.16306322813034058,-0.007524229120463133
1789225038372388400,7.103388427734375,0.6610516905784607,0.18936726450920105,0.006179599091410637
1789225038382427100,7.11342724609375,1.010483741760254,0.2497887909412384,-0.061958443373441696
1789225038392467200,7.12346728515625,1.134810447692871,-0.0182248093187809,0.06049530208110809
1789225038402506200,7.13350634765625,1.3822474479675293,0.07030612230300903,0.13097958266735077
1789225038412545300,7.143545166015625,1.7546745538711548,0.05468401685357094,0.00014620754518546164
1789225038422585300,7.15358544921875,2.2145087718963623,0.23097462952136993,-0.03207697719335556
1789225038432624400,7.163624267578125,2.7355313301086426,0.05114521086215973,-0.01212590467184782
1789225038442663200,7.1736630859375,3.34177827835083,0.29547664523124695,0.39438992738723755
1789225038452703200,7.183703125,3.5094118118286133,-0.8408513069152832,0.3044011890888214
1789225038462742300,7.1937421875,3.3374247550964355,-0.21398073434829712,0.4426567852497101
1789225038472781000,7.203781005859375,3.0303046703338623,0.2368042916059494,0.36583125591278076
1789225038482821000,7.213821044921875,2.6671595573425293,-0.10109119862318039,-0.12958116829395294
1789225038492860400,7.2238603515625,2.047194004058838,0.11929203569889069,-0.10458020120859146
1789225038502899200,7.233899169921875,1.3342801332473755,-0.3804333508014679,0.035102859139442444
1789225038512939300,7.243939208984375,0.5067095160484314,-0.036001142114400864,0.1926746368408203
1789225038522978300,7.253978271484375,-0.1599760800600052,-0.2356918901205063,-0.07177431881427765
1789225038533017300,7.264017333984375,-0.33394762873649597,-0.04916062206029892,-0.29133597016334534
1789225038543057200,7.27405712890625,-0.3715977966785431,-0.04163825884461403,-0.40595683455467224
1789225038553096200,7.28409619140625,-0.40141934156417847,-0.10998748987913132,-0.27607500553131104
1789225038563135500,7.294135498046875,-0.4657173752784729,-0.2084951549768448,-0.1115741953253746
1789225038573175300,7.30417529296875,-0.5543287396430969,-0.16738739609718323,-0.02189464680850506
1789225038583214300,7.31421435546875,-0.6618266701698303,-0.16100512444972992,-0.031986430287361145
1789225038593253400,7.32425341796875,-0.70219886302948,-0.046673230826854706,-0.10818345844745636
1789225038603293200,7.334293212890625,-0.616270899772644,-0.0049649314023554325,-0.18529315292835236
1789225038613332200,7.344332275390625,-0.45019087195396423,-0.009513876400887966,-0.15158046782016754
1789225038623371300,7.354371337890625,-0.25832903385162354,-0.07878722250461578,-0.033181920647621155
1789225038633411000,7.3644111328125,-0.1426682025194168,-0.1034664735198021,0.06124258413910866
1789225038643450400,7.374450439453125,-0.1110125407576561,-0.08284241706132889,0.09398028999567032
1789225038653489400,7.384489501953125,-0.10132662206888199,-0.0538690909743309,0.06907893717288971
1789225038663528200,7.394528076171875,-0.0933067798614502,-0.020553478971123695,0.048950232565402985
1789225038673568300,7.404568359375,-0.09741417318582535,-0.037828072905540466,0.06113952025771141
1789225038683607300,7.414607177734375,-0.09605755656957626,-0.07314424961805344,0.0860227644443512
1789225038693646000,7.42464599609375,-0.09040020406246185,-0.08431088924407959,0.07666255533695221
1789225038703686100,7.43468603515625,-0.07954435795545578,-0.07043075561523438,0.02359134517610073
1789225038713725400,7.444725341796875,-0.07256314903497696,-0.04322310537099838,-0.019149992614984512
1789225038723764200,7.45476416015625,-0.06647010147571564,-0.016318518668413162,-0.015168832615017891
1789225038733804300,7.46480419921875,-0.06488925218582153,-0.03928082808852196,0.019516443833708763
1789225038743843300,7.47484326171875,-0.05414845794439316,-0.03766322135925293,0.05757328122854233
1789225038753882000,7.484882080078125,-0.03892263025045395,-0.006386526394635439,0.06268415600061417
1789225038763922200,7.494922119140625,-0.036605946719646454,0.020085027441382408,0.03429192677140236
1789225038773961200,7.504961181640625,-0.03803899511694908,0.016634104773402214,0.03051023930311203
1789225038784000500,7.51500048828125,-0.03231000155210495,0.008334362879395485,0.047798413783311844
1789225038794040300,7.525040283203125,-0.024810008704662323,-0.0010657970560714602,0.04760586842894554
1789225038804079400,7.535079345703125,-0.011198059655725956,0.0011851066956296563,0.05438121780753136
1789225038814118400,7.545118408203125,0.0005605954211205244,0.004956941585987806,0.04246969521045685
1789225038824158200,7.555158203125,0.007866444997489452,0.027815917506814003,0.01824212074279785
1789225038834197200,7.565197265625,0.007282147649675608,0.04375067725777626,-0.006164685357362032
1789225038844236300,7.575236328125,0.013350692577660084,0.048100683838129044,-0.014187990687787533
1789225038854276000,7.585276123046875,0.02377084270119667,0.04507187008857727,-0.002037051832303405
1789225038864315400,7.5953154296875,0.033421073108911514,0.037468813359737396,0.010031328536570072
1789225038874354400,7.6053544921875,0.03947630152106285,0.019747605547308922,0.00013608753215521574
1789225038884394200,7.615394287109375,0.02124856412410736,0.02474236488342285,-0.0009691243176348507
1789225038894433300,7.625433349609375,0.015154718421399593,0.016534501686692238,-0.010043312795460224
1789225038904472300,7.635472412109375,0.018612831830978394,0.002055960241705179,-0.03167324140667915
1789225038914512400,7.645512451171875,0.026547454297542572,0.004698348697274923,-0.030670827254652977
1789225038924551200,7.65555126953125,0.02953552082180977,-0.007723966147750616,-0.015965383499860764
1789225038934590500,7.665590576171875,0.019229087978601456,-0.00809068325906992,-0.003510312642902136
1789225038944630300,7.67563037109375,0.002558765234425664,0.00592659879475832,-0.012522716075181961
1789225038954669300,7.68566943359375,-0.007706655655056238,0.0246060099452734,-0.02015400491654873
1789225038964708400,7.695708251953125,-0.001817341079004109,0.030477214604616165,-0.013278255239129066
1789225038974748400,7.70574853515625,0.015312377363443375,0.027512850239872932,0.003195793367922306
1789225038984787200,7.715787109375,0.033911626785993576,0.024445421993732452,0.013745905831456184
1789225038994826200,7.725826171875,0.03519074246287346,0.025230521336197853,0.016005864366889
1789225039004866300,7.7358662109375,0.030916903167963028,0.03351827710866928,0.015058311633765697
1789225039014905000,7.745905029296875,-0.0032474587205797434,0.028475316241383553,-0.1270090788602829
1789225039024944400,7.7559443359375,0.008950351737439632,0.4015141427516937,-0.17433664202690125
1789225039034984400,7.765984375,0.01438000425696373,0.060089435428380966,-0.16880978643894196
1789225039045023200,7.776023193359375,0.008914398960769176,0.04482446238398552,-0.015615977346897125
1789225039055062300,7.786062255859375,-0.023065904155373573,0.0539761483669281,-0.06485116481781006
1789225039065102300,7.796102294921875,-0.09689591825008392,0.10600393265485764,-0.14550898969173431
1789225039075141000,7.80614111328125,-0.14404799044132233,0.09582879394292831,-0.1018504649400711
1789225039085180200,7.81618017578125,-0.20292115211486816,-0.034220822155475616,0.010961570776998997
1789225039095220200,7.82622021484375,-0.30531996488571167,-0.06661710888147354,0.10441109538078308
1789225039105259300,7.83625927734375,-0.5315179228782654,-0.0897916704416275,0.1152067482471466
1789225039115298300,7.84629833984375,-0.7988737225532532,-0.05149994418025017,0.0947376936674118
1789225039125338400,7.85633837890625,-1.0326361656188965,-0.0378003753721714,0.04838724061846733
1789225039135377200,7.866377197265625,-1.1597509384155273,0.07610568404197693,0.11018189787864685
1789225039145416200,7.876416259765625,-1.1593080759048462,0.053634464740753174,0.13951581716537476
1789225039155456300,7.886456298828125,-1.0786329507827759,0.057802844792604446,0.1249571144580841
1789225039165495300,7.896495361328125,-0.9490499496459961,-0.00008628641808172688,0.049315616488456726
1789225039175534300,7.906534423828125,-0.8863503336906433,-0.01619734615087509,-0.007789213676005602
1789225039185574400,7.916574462890625,-1.0553779602050781,-0.07332241535186768,-0.11599025130271912
1789225039195613400,7.926613525390625,-1.3341374397277832,-0.17063139379024506,-0.22325731813907623
1789225039205652200,7.93665234375,-1.5245630741119385,-0.3161047101020813,-0.24471014738082886
1789225039215691300,7.946691162109375,-1.7927061319351196,-0.08186370879411697,-0.1163705512881279
1789225039225731300,7.9567314453125,-2.0672824382781982,0.00950855016708374,-0.13235244154930115
1789225039235770000,7.96677001953125,-2.227015733718872,-0.006374276243150234,-0.2681494355201721
1789225039245809400,7.976809326171875,-2.2450051307678223,0.2651033103466034,-0.2422770857810974
1789225039255849500,7.986849365234375,-1.8989907503128052,-0.10278975963592529,-0.12687459588050842
1789225039265888300,7.99688818359375,-1.1111514568328857,-0.254417359828949,0.017117999494075775
1789225039275927300,8.00692724609375,-0.5091516375541687,-0.16392529010772705,-0.0698951929807663
1789225039285967400,8.01696728515625,-0.12390650063753128,0.04815154895186424,-0.16819673776626587
1789225039296006100,8.027006103515625,0.059960272163152695,-0.04483271762728691,-0.07834700495004654
1789225039306045200,8.037045166015625,0.0738140344619751,0.042821500450372696,0.0002993392990902066
1789225039316085200,8.047085205078124,0.13454848527908325,0.04360446706414223,0.0057191383093595505
1789225039326124300,8.057124267578125,0.15817765891551971,0.04755713418126106,0.07408328354358673
1789225039336163300,8.067163330078126,0.1933620125055313,0.016458867117762566,0.050749730318784714
1789225039346203400,8.077203369140625,0.22255663573741913,0.01667778007686138,0.031806930899620056
1789225039356242200,8.0872421875,0.2459983229637146,0.030364297330379486,0.035355061292648315
1789225039366281200,8.09728125,0.32686734199523926,0.019030682742595673,0.03416542708873749
1789225039376321300,8.1073212890625,0.3234049677848816,0.04614965245127678,0.0407884418964386
1789225039386360000,8.117360107421876,0.30999940633773804,0.053399041295051575,0.05672666057944298
1789225039396399400,8.1273994140625,0.370406836271286,0.14474919438362122,0.07959789037704468
1789225039406439400,8.137439453125,0.41309303045272827,0.1133611798286438,0.096059150993824
1789225039416478500,8.147478515625,0.3905797302722931,0.09004414081573486,0.08430875837802887
1789225039426517200,8.157517333984375,0.32209283113479614,0.046239934861660004,0.07453735172748566
1789225039436557300,8.167557373046876,0.21494612097740173,0.06178560480475426,0.06066014990210533
1789225039446596400,8.177596435546874,0.07979816198348999,0.020257601514458656,0.03271640092134476
1789225039456635100,8.18763525390625,0.01872122287750244,0.033729732036590576,-0.016087623313069344
1789225039466675200,8.19767529296875,0.03232864663004875,0.04266277328133583,-0.057674746960401535
1789225039476714500,8.207714599609375,0.040167126804590225,0.04550623148679733,-0.08681931346654892
1789225039486753300,8.217753173828125,0.04730173572897911,0.03488554432988167,-0.11102452129125595
1789225039496793300,8.22779345703125,0.03935939073562622,0.015208248049020767,-0.12656086683273315
1789225039506832400,8.237832275390625,0.0276193767786026,-0.00506906071677804,-0.14807574450969696
1789225039516871200,8.24787109375,0.03542483597993851,-0.025551166385412216,-0.16987238824367523
1789225039526911200,8.2579111328125,0.02623985894024372,-0.034139327704906464,-0.1757742166519165
1789225039536950300,8.2679501953125,0.012084625661373138,-0.023904800415039062,-0.15570276975631714
1789225039546989300,8.2779892578125,0.02382783405482769,-0.020838169381022453,-0.11886726319789886
1789225039557029000,8.288029052734375,0.10282385349273682,-0.015379754826426506,-0.0930657610297203
1789225039567068400,8.298068359375,0.2166588008403778,0.0010671286145225167,-0.06344582140445709
1789225039577107200,8.308107177734374,0.2777746319770813,-0.05572185292840004,-0.024295486509799957
1789225039587147300,8.318147216796875,0.3168434500694275,0.007653126027435064,0.01894439570605755
1789225039597186300,8.328186279296874,0.3436543047428131,-0.019292471930384636,0.06946136802434921
1789225039607225000,8.33822509765625,0.3645089864730835,-0.044320061802864075,0.08675966411828995
1789225039617265200,8.34826513671875,0.3636522591114044,0.0014554174849763513,0.09578751027584076
1789225039627304200,8.35830419921875,0.3348621428012848,-0.034201111644506454,0.11950136721134186
1789225039637343200,8.36834326171875,0.21605347096920013,-0.000532632227987051,0.10601538419723511
1789225039647383300,8.37838330078125,0.09795479476451874,-0.034684475511312485,0.08030309528112411
1789225039657422300,8.38842236328125,0.0231119766831398,-0.025233451277017593,0.06724534928798676
1789225039667461400,8.39846142578125,-0.019053852185606956,-0.039750609546899796,0.04987408220767975
1789225039677501200,8.408501220703124,-0.04511234909296036,-0.04998486861586571,0.02304726280272007
1789225039687540200,8.418540283203125,-0.0601741261780262,-0.049422942101955414,-0.00014221279707271606
1789225039697579300,8.428579345703126,-0.07870706170797348,-0.04499517008662224,-0.008170844055712223
1789225039707619000,8.438619140625,-0.091744564473629,-0.033662889152765274,-0.01709855906665325
1789225039717658400,8.448658447265625,-0.10519859194755554,-0.029043901711702347,-0.01549613568931818
1789225039727697400,8.458697509765624,-0.10787000507116318,-0.022336730733513832,-0.0015640745405107737
1789225039737737200,8.4687373046875,-0.08998661488294601,-0.03458727151155472,0.041377000510692596
1789225039747776300,8.4787763671875,-0.07021850347518921,-0.04532567039132118,0.10897441953420639
1789225039757815300,8.488815185546875,-0.08039870113134384,-0.05349757894873619,0.17849278450012207
1789225039767854300,8.498854248046875,-0.08926090598106384,-0.05900952219963074,0.25660914182662964
1789225039777894100,8.50889404296875,-0.07540740817785263,-0.07728759944438934,0.33289405703544617
1789225039787933400,8.518933349609375,-0.061533935368061066,-0.09736410528421402,0.3777616620063782
1789225039797972200,8.52897216796875,-0.06408364325761795,-0.07093382626771927,0.3264673352241516
1789225039808012300,8.53901220703125,-0.07177325338125229,0.005600627511739731,0.19227996468544006
1789225039818051300,8.54905126953125,-0.05895253270864487,0.10853872448205948,0.025251293554902077
1789225039828090000,8.559090087890626,-0.026640398427844048,0.031095601618289948,0.005939914379268885
1789225039838130200,8.569130126953125,-0.015593873336911201,-0.04324307665228844,0.08161763101816177
1789225039848169200,8.579169189453125,-0.00041571943438611925,-0.025113608688116074,0.019353989511728287
1789225039858208300,8.589208251953124,0.019821641966700554,0.0504852794110775,-0.15803730487823486
1789225039868248300,8.599248291015625,0.0502605065703392,0.09965761750936508,-0.27797701954841614
1789225039878287400,8.609287353515626,0.04753369837999344,0.08929765224456787,-0.2673962712287903
1789225039888326100,8.619326171875,0.034498587250709534,0.06193473935127258,-0.19411860406398773
1789225039898366200,8.6293662109375,0.025546105578541756,0.05414712429046631,-0.1379416286945343
1789225039908405200,8.6394052734375,0.028374116867780685,0.053942061960697174,-0.10356766730546951
1789225039918444300,8.6494443359375,0.03898867964744568,0.05379345640540123,-0.07302840054035187
1789225039928484000,8.659484130859376,0.04183080419898033,0.043953076004981995,-0.00196434766985476
1789225039938523400,8.6695234375,0.0360243134200573,0.028557077050209045,0.10013991594314575
1789225039948562400,8.6795625,0.023514647036790848,0.009906692430377007,0.1790086328983307
1789225039958602200,8.689602294921874,0.011962653137743473,0.005281847435981035,0.19393618404865265
1789225039968641300,8.699641357421875,0.008739429526031017,0.015906793996691704,0.14769944548606873
1789225039978680300,8.709680419921876,0.009763681329786777,0.02304433286190033,0.10074099153280258
1789225039988720000,8.71972021484375,0.01196984387934208,0.00358754419721663,0.08673116564750671
1789225039998759200,8.72975927734375,0.013951501809060574,-0.026315227150917053,0.07136659324169159
1789225040008798500,8.739798583984374,0.011238273233175278,-0.040717337280511856,0.013615677133202553
1789225040018838300,8.74983837890625,0.009238239377737045,-0.03200267255306244,-0.07225795090198517
1789225040028877300,8.759877197265626,0.007227818947285414,-0.02359827049076557,-0.13605983555316925
1789225040038916400,8.769916259765624,0.00637773796916008,-0.02461959235370159,-0.15139618515968323
1789225040048956400,8.779956298828125,0.011981029063463211,-0.03473054990172386,-0.12913614511489868
1789225040058995200,8.7899951171875,0.014371749013662338,-0.03556731343269348,-0.10858959704637527
1789225040069034200,8.8000341796875,0.02064109593629837,-0.022710371762514114,-0.09614650905132294
1789225040079074300,8.81007421875,0.0202725138515234,-0.015187208540737629,-0.062483351677656174
1789225040089113300,8.82011328125,0.01702558808028698,-0.022397184744477272,0.003480485174804926
1789225040099152400,8.83015234375,0.007408381439745426,-0.03620727360248566,0.06914365291595459
1789225040109192400,8.8401923828125,-0.0007901599165052176,-0.04313015937805176,0.11842464655637741
1789225040119231200,8.850231201171875,-0.005824599415063858,-0.05029379576444626,0.14116698503494263
1789225040129270300,8.860270263671875,-0.007655522786080837,-0.055804941803216934,0.14085859060287476
1789225040139310300,8.870310302734374,-0.0063196811825037,-0.06232915446162224,0.1284615695476532
1789225040149349000,8.88034912109375,-0.005557484459131956,-0.07119534909725189,0.12113840878009796
1789225040159388400,8.890388427734376,-0.003923901356756687,-0.07692913711071014,0.09247267246246338
1789225040169428200,8.90042822265625,-0.0049249837175011635,-0.07447876036167145,0.03797854110598564
1789225040179468000,8.910468017578125,-0.004033890087157488,-0.07317940145730972,-0.021982530131936073
1789225040189507000,8.920507080078124,-0.004680771846324205,-0.08898446708917618,-0.05916132405400276
1789225040199547100,8.930547119140625,-0.005636580288410187,-0.10381800681352615,-0.07258126139640808
1789225040209586000,8.9405859375,-0.029919283464550972,-0.13179132342338562,-0.09003455191850662
1789225040219625000,8.950625,-0.01098660472780466,-0.14694656431674957,-0.1658715307712555
1789225040229664000,8.9606640625,-0.04080016165971756,-0.13896188139915466,-0.15011493861675262
1789225040239703800,8.970703857421874,-0.043657999485731125,-0.176742821931839,-0.07402469217777252
1789225040249743000,8.9807431640625,-0.012801549397408962,-0.21682845056056976,-0.013185043819248676
1789225040259782100,8.9907822265625,-0.042131207883358,-0.1599835455417633,0.030717432498931885
1789225040269822000,9.000822021484375,-0.0239399541169405,-0.15379035472869873,0.01661679334938526
1789225040279861000,9.010861083984375,-0.050879959017038345,-0.14361602067947388,0.05289144441485405
1789225040289900000,9.020900146484376,-0.037337251007556915,-0.1982789933681488,0.17523492872714996
1789225040299940000,9.030940185546875,-0.038486137986183167,-0.2331847846508026,0.2717532217502594
1789225040309979000,9.040978759765625,-0.010822554118931293,-0.24508965015411377,0.23584501445293427
1789225040320018200,9.05101806640625,-0.00990269798785448,-0.19133080542087555,0.11602247506380081
1789225040330058000,9.06105810546875,0.003153981640934944,-0.16252313554286957,0.04140496253967285
1789225040340097000,9.071096923828126,0.024270186200737953,-0.15853211283683777,0.06241650506854057
1789225040350136000,9.081135986328125,0.03142103925347328,-0.11660544574260712,0.0725274607539177
1789225040360176000,9.091176025390626,0.04301031678915024,-0.04705459251999855,-0.009432650171220303
1789225040370215000,9.10121484375,0.026475815102458,0.025311214849352837,-0.1146370992064476
1789225040380254000,9.11125390625,0.031217306852340698,0.029567480087280273,-0.17775535583496094
1789225040390294000,9.1212939453125,0.072596974670887,-0.04273680970072746,-0.1583946943283081
1789225040400332800,9.131332763671875,0.11425706744194031,-0.09023614972829819,-0.0893770158290863
1789225040410372000,9.1413720703125,0.1288735568523407,-0.0868840292096138,-0.018488463014364243
1789225040420412200,9.151412109375,0.09751830250024796,-0.04014182835817337,-0.01564820110797882
1789225040430451000,9.161450927734375,0.050997402518987656,0.017528660595417023,-0.06529591232538223
1789225040440490000,9.171489990234376,0.01684209704399109,0.04957101494073868,-0.049322277307510376
1789225040450530000,9.181530029296875,0.03224502131342888,0.04145662859082222,0.0402640663087368
1789225040460568800,9.19156884765625,0.0811542421579361,0.0323728546500206,0.11341603845357895
1789225040470608000,9.20160791015625,0.11688534170389175,0.030401848256587982,0.11151081323623657
1789225040480648000,9.21164794921875,0.11392603814601898,0.016773654147982597,0.07822982221841812
1789225040490687000,9.22168701171875,0.06239387020468712,-0.019206184893846512,0.07243265211582184
1789225040500726000,9.23172607421875,-0.001751827308908105,-0.04626470059156418,0.07938376814126968
1789225040510766000,9.24176611328125,-0.033308953046798706,-0.05925027281045914,0.06469670683145523
1789225040520804900,9.251804931640624,-0.015201590023934841,-0.06303729116916656,0.031246868893504143
1789225040530844000,9.261843994140625,0.024052605032920837,-0.05921352282166481,-0.001166198286227882
1789225040540884000,9.271884033203126,0.047743555158376694,-0.07309658080339432,-0.01667831279337406
1789225040550923000,9.281923095703124,0.03635640814900398,-0.10899199545383453,-0.029877737164497375
1789225040560962000,9.291962158203125,-0.015671370550990105,-0.13224032521247864,-0.06532281637191772
1789225040571001000,9.3020009765625,-0.06486954540014267,-0.13462892174720764,-0.1168842762708664
1789225040581041200,9.312041259765625,-0.09673826396465302,-0.15504337847232819,-0.09905840456485748
1789225040591080000,9.322079833984375,-0.09265457093715668,-0.2018740028142929,-0.032758746296167374
1789225040601119000,9.332118896484374,-0.08256331831216812,-0.22856925427913666,0.018248511478304863
1789225040611159000,9.342158935546875,-0.0914476215839386,-0.2416110336780548,0.028420455753803253
1789225040621197800,9.35219775390625,-0.10834484547376633,-0.26182442903518677,0.01786368526518345
1789225040631237000,9.362237060546875,-0.13353675603866577,-0.2865079343318939,0.03945180028676987
1789225040641277200,9.372277099609375,-0.15471448004245758,-0.29591473937034607,0.07754379510879517
1789225040651316000,9.38231591796875,-0.14827096462249756,-0.28815484046936035,0.06708795577287674
1789225040661355000,9.39235498046875,-0.1399214118719101,-0.2767072319984436,0.053653642535209656
1789225040671395000,9.40239501953125,-0.11540248990058899,-0.32219189405441284,0.01461915671825409
1789225040681433900,9.412433837890624,-0.1513272076845169,-0.2731015682220459,-0.09663812816143036
1789225040691473000,9.422472900390625,-0.22526800632476807,-0.2770254909992218,-0.12323804199695587
1789225040701513000,9.432512939453124,-0.2127482146024704,-0.3502538800239563,0.011599930934607983
1789225040711552000,9.442552001953125,-0.1738351732492447,-0.34328493475914,0.14360323548316956
1789225040721591000,9.452591064453125,-0.09492465108633041,-0.23133282363414764,0.04646576941013336
1789225040731631000,9.462631103515625,-0.05972830951213837,-0.18414267897605896,-0.04580610245466232
1789225040741670000,9.472669921875,-0.07678931951522827,-0.25988003611564636,-0.022460035979747772
1789225040751709000,9.482708984375,-0.162583589553833,-0.3271680176258087,0.034390464425086975
1789225040761749000,9.4927490234375,-0.23437708616256714,-0.3221183717250824,0.003114566905423999
1789225040771787800,9.502787841796875,-0.2280086725950241,-0.2719542980194092,-0.07631820440292358
1789225040781827000,9.5128271484375,-0.1780349761247635,-0.2113918662071228,-0.09193152189254761
1789225040791867100,9.5228671875,-0.09677661210298538,-0.18882504105567932,-0.05561638996005058
1789225040801906200,9.53290625,-0.06413131207227707,-0.19902148842811584,0.018324412405490875
1789225040811945000,9.542945068359375,-0.08193375170230865,-0.19654688239097595,0.07291149348020554
1789225040821985000,9.552985107421875,-0.10528381168842316,-0.21098707616329193,0.051294613629579544
1789225040832024000,9.563024169921874,-0.12914733588695526,-0.18870440125465393,0.02027065120637417
1789225040842062800,9.573062744140625,-0.12208676338195801,-0.1638200879096985,0.010429738089442253
1789225040852102100,9.58310205078125,-0.08923027664422989,-0.1567629873752594,0.02695864625275135
1789225040862142200,9.59314208984375,-0.07027842104434967,-0.14416836202144623,0.057984475046396255
1789225040872181000,9.603180908203125,-0.05543316528201103,-0.15394455194473267,0.04556109383702278
1789225040882220000,9.613219970703126,-0.06736838817596436,-0.14570607244968414,-0.0014178669080138206
1789225040892260000,9.623260009765625,-0.07609529793262482,-0.14691488444805145,-0.005348959006369114
1789225040902299000,9.633298828125,-0.08420249819755554,-0.14602671563625336,0.014536865055561066
1789225040912338000,9.643337890625,-0.0738406702876091,-0.14948882162570953,0.0052205948159098625
1789225040922378000,9.6533779296875,-0.07027043402194977,-0.13783296942710876,-0.01888926886022091
1789225040932417000,9.6634169921875,-0.05052788928151131,-0.13880661129951477,-0.03659263253211975
1789225040942456000,9.6734560546875,-0.03538035973906517,-0.1280546337366104,-0.04891028627753258
1789225040952496000,9.68349609375,-0.03014405444264412,-0.08991630375385284,-0.07162012159824371
1789225040962535000,9.693534912109374,-0.030721161514520645,-0.05320623144507408,-0.07807216793298721
1789225040972574000,9.703573974609375,-0.0334026962518692,-0.05943802744150162,-0.031026626005768776
1789225040982614000,9.713614013671876,-0.03349857032299042,-0.08650825917720795,0.006845389027148485
1789225040992652800,9.72365283203125,-0.03386901691555977,-0.0654919221997261,-0.015379754826426506
1789225041002692000,9.733692138671875,-0.03026655875146389,-0.047810133546590805,-0.03177257627248764
1789225041012732000,9.74373193359375,-0.022659506648778915,-0.06529272347688675,0.00817963294684887
1789225041022771000,9.75377099609375,-0.02014841139316559,-0.07785804569721222,0.04219752177596092
1789225041032810000,9.76381005859375,-0.02853071130812168,-0.051114849746227264,0.0167909637093544
1789225041042850000,9.77385009765625,-0.03285222128033638,-0.055206798017024994,-0.006329535041004419
1789225041052889000,9.78388916015625,-0.0480697900056839,-0.07376237213611603,0.010040650144219398
1789225041062928000,9.793927978515624,-0.06290679425001144,-0.08883240073919296,0.009681389667093754
1789225041072968000,9.803968017578125,-0.07978857308626175,-0.09092245250940323,-0.01720908097922802
1789225041083007000,9.814007080078126,-0.090110182762146,-0.1099075898528099,-0.0159483402967453
1789225041093046000,9.8240458984375,-0.10331173986196518,-0.13185204565525055,0.005543636158108711
1789225041103085000,9.8340849609375,-0.11221548914909363,-0.1473788022994995,-0.00032410668791271746
1789225041113125000,9.844125,-0.11984118074178696,-0.15640504658222198,-0.012202337384223938
1789225041123164000,9.854163818359375,-0.12916304171085358,-0.1769033968448639,0.0037092508282512426
1789225041133203000,9.864202880859375,-0.14229242503643036,-0.19638335704803467,0.007666974328458309
1789225041143243000,9.874242919921874,-0.1550673395395279,-0.20282182097434998,-0.006305300164967775
1789225041153282000,9.884281982421875,-0.1735965609550476,-0.20665544271469116,-0.016818661242723465
1789225041163321000,9.894321044921876,-0.18914835155010223,-0.2238410860300064,-0.013670272193849087
1789225041173361200,9.904361083984375,-0.19485338032245636,-0.24219931662082672,-0.025236381217837334
1789225041183400000,9.91439990234375,-0.19203974306583405,-0.25404345989227295,-0.02213246561586857
1789225041193438700,9.924438720703124,-0.19053639471530914,-0.2705071270465851,0.004317250568419695
1789225041203478800,9.934478759765625,-0.1937526911497116,-0.2881316542625427,0.019508985802531242
1789225041213517800,9.944517822265626,-0.2053036242723465,-0.2914765775203705,0.0075636436231434345
1789225041223556900,9.954556884765625,-0.2206897735595703,-0.29274290800094604,-0.01056262943893671
1789225041233597000,9.964596923828125,-0.22829708456993103,-0.29982826113700867,-0.012026302516460419
1789225041243636000,9.974635986328124,-0.2243873029947281,-0.3079487681388855,0.0008106662426143885
1789225041253675000,9.984675048828125,-0.20848210155963898,-0.31258320808410645,0.012586898170411587
1789225041263714800,9.99471484375,-0.19000482559204102,-0.30607709288597107,0.0093892402946949
1789225041273753900,10.00475390625,-0.17983634769916534,-0.290652334690094,-0.006076002027839422
1789225041283793000,10.01479296875,-0.17637422680854797,-0.27635303139686584,-0.0021470405627042055
1789225041293832700,10.024832763671874,-0.1817101389169693,-0.27864760160446167,0.03406902030110359
1789225041303871700,10.034871826171875,-0.18547771871089935,-0.27094149589538574,0.03435051813721657
1789225041313911000,10.0449111328125,-0.18364253640174866,-0.24537301063537598,0.06814230233430862
1789225041323949800,10.05494970703125,-0.13914324343204498,-0.20850926637649536,0.038655783981084824
1789225041333990000,10.064989990234375,-0.09451505541801453,-0.25618118047714233,-0.0568518303334713
1789225041344029000,10.07502880859375,-0.11439954489469528,-0.21525318920612335,-0.13629738986492157
1789225041354067700,10.085067626953125,-0.1273057609796524,-0.07342787832021713,-0.12347906082868576
1789225041364107800,10.095107666015625,-0.2141900509595871,0.02599165216088295,0.06474943459033966
1789225041374146800,10.105146728515624,-0.1481412649154663,0.06320852786302567,0.001999767730012536
1789225041384185900,10.115185791015625,-0.050519898533821106,-0.2600345015525818,-0.005461610853672028
1789225041394226000,10.125225830078126,0.0010604707058519125,-0.04135436564683914,-0.05294710397720337
1789225041404265000,10.135264892578125,0.13355779647827148,0.09268945455551147,-0.2812140882015228
1789225041414303700,10.1453037109375,0.07073116302490234,0.013612215407192707,-0.349863201379776
1789225041424343800,10.15534375,-0.09052564203739166,0.024178840219974518,-0.10503773391246796
1789225041434382800,10.1653828125,-0.17148227989673615,-0.16007009148597717,0.07050372660160065
1789225041444422000,10.175421875,-0.22074143588542938,-0.15514031052589417,0.08477560430765152
1789225041454461700,10.185461669921875,-0.20155468583106995,-0.15042972564697266,0.04791612550616264
1789225041464501000,10.1955009765625,-0.13222648203372955,-0.12261965870857239,0.02371331863105297
1789225041474539800,10.205539794921876,-0.08709362149238586,-0.12229342013597488,0.10526970028877258
1789225041484579800,10.215579833984375,-0.0869908258318901,-0.13226190209388733,0.20447909832000732
1789225041494619000,10.225618896484375,-0.12629401683807373,-0.08884970843791962,0.136957585811615
1789225041504658000,10.235657958984374,-0.14962944388389587,-0.0524272546172142,-0.011320831254124641
1789225041514697700,10.24569775390625,-0.1425720602273941,-0.07627400010824203,-0.10587742924690247
1789225041524736800,10.25573681640625,-0.10279694944620132,-0.07572831958532333,-0.12678538262844086
1789225041534776000,10.265776123046875,-0.06781899183988571,-0.08829843997955322,-0.08463206142187119
1789225041544814800,10.27581494140625,-0.06932075321674347,-0.10332398861646652,-0.08702065050601959
1789225041554855000,10.28585498046875,-0.11403815448284149,-0.09679578244686127,-0.16517937183380127
1789225041564894000,10.29589404296875,-0.18403960764408112,-0.10629687458276749,-0.18861065804958344
1789225041574932700,10.3059326171875,-0.22615350782871246,-0.14555107057094574,-0.13268427550792694
1789225041584972800,10.315972900390625,-0.21539540588855743,-0.18432030081748962,-0.046666570007801056
1789225041595011800,10.32601171875,-0.173345685005188,-0.2020590901374817,0.03514121100306511
1789225041605051000,10.33605078125,-0.14452283084392548,-0.18749000132083893,0.028195684775710106
1789225041615091000,10.346091064453125,-0.1556665599346161,-0.15208807587623596,0.008754342794418335
1789225041625130000,10.3561298828125,-0.1942451149225235,-0.1784387230873108,0.08636924624443054
1789225041635168800,10.366168701171874,-0.2278352975845337,-0.23536032438278198,0.1446187049150467
1789225041645208800,10.376208740234375,-0.2420017123222351,-0.2223728895187378,0.028654813766479492
1789225041655248000,10.386247802734376,-0.22608186304569244,-0.21330934762954712,-0.1249922662973404
1789225041665286700,10.39628662109375,-0.212964728474617,-0.2548021972179413,-0.12166810780763626
1789225041675326700,10.40632666015625,-0.23001588881015778,-0.35033831000328064,0.01082947850227356
1789225041685366000,10.416365966796874,-0.2669408917427063,-0.4110727608203888,0.05973949655890465
1789225041695404800,10.42640478515625,-0.3048997223377228,-0.39971330761909485,-0.02930755540728569
1789225041705443800,10.43644384765625,-0.341945618391037,-0.3604186475276947,-0.12535765767097473
1789225041715484000,10.44648388671875,-0.33052679896354675,-0.3662962317466736,-0.1826997697353363
1789225041725522700,10.456522705078125,-0.31043270230293274,-0.3508762717247009,-0.15247449278831482
1789225041735561700,10.466561767578124,-0.2993512749671936,-0.36437636613845825,0.01016661711037159
1789225041745601800,10.476601806640625,-0.28562214970588684,-0.42796120047569275,0.12371235340833664
1789225041755641000,10.48664111328125,-0.29890573024749756,-0.3829266130924225,0.0317201130092144
1789225041765679900,10.496679931640625,-0.3333747684955597,-0.3095157742500305,-0.08669707924127579
1789225041775720000,10.506719970703125,-0.368767112493515,-0.3439187705516815,-0.07117217779159546
1789225041785759000,10.516759033203124,-0.36911624670028687,-0.4281553328037262,0.11007989943027496
1789225041795797800,10.5267978515625,-0.3365679085254669,-0.4519112706184387,0.17104604840278625
1789225041805837800,10.536837890625,-0.3064395487308502,-0.37978407740592957,0.035597942769527435
1789225041815876900,10.546876953125,-0.2887990474700928,-0.3057894706726074,-0.15146462619304657
1789225041825916000,10.556916015625,-0.29573869705200195,-0.3030746579170227,-0.26821601390838623
1789225041835956000,10.5669560546875,-0.3464679419994354,-0.34031468629837036,-0.2909833788871765
1789225041845995000,10.5769951171875,-0.353001207113266,-0.3754814863204956,-0.1786152869462967
1789225041856033800,10.58703369140625,-0.3291539251804352,-0.36819079518318176,-0.041006822139024734
1789225041866072800,10.59707275390625,-0.3032988905906677,-0.3400886058807373,-0.06631404161453247
1789225041876113000,10.60711279296875,-0.254716694355011,-0.2945008873939514,-0.16341368854045868
1789225041886151700,10.617151611328126,-0.28689515590667725,-0.2542833983898163,-0.129767045378685
1789225041896191000,10.62719091796875,-0.32346808910369873,-0.3252939283847809,0.10732033103704453
1789225041906231000,10.63723095703125,-0.32606518268585205,-0.4158821702003479,0.25574415922164917
1789225041916269800,10.647269775390624,-0.3167542517185211,-0.34887969493865967,0.17298269271850586
1789225041926308900,10.657308837890625,-0.2554512023925781,-0.26971322298049927,-0.04638560861349106
1789225041936349000,10.667348876953126,-0.22062957286834717,-0.2240578681230545,-0.028304608538746834
1789225041946387700,10.6773876953125,-0.2039770931005478,-0.33780521154403687,0.12860670685768127
1789225041956426800,10.6874267578125,-0.21868573129177094,-0.414978563785553,0.15027391910552979
1789225041966466800,10.697466796875,-0.25659504532814026,-0.32468461990356445,-0.050584614276885986
1789225041976505900,10.707505859375,-0.2631474733352661,-0.3438172936439514,-0.24992434680461884
1789225041986545000,10.717544921875,-0.23145905137062073,-0.24423690140247345,-0.288038969039917
1789225041996584000,10.727583984375,-0.2230386734008789,-0.2637767791748047,-0.10403238981962204
1789225042006624000,10.7376240234375,-0.20564743876457214,-0.3506341874599457,0.10852541029453278
1789225042016662800,10.747662841796876,-0.2011978179216385,-0.32058706879615784,0.1791553795337677
1789225042026701800,10.757701904296875,-0.2182718813419342,-0.2339983880519867,0.10911183804273605
1789225042036742000,10.767741943359376,-0.1450434774160385,-0.2478787750005722,-0.1646861582994461
1789225042046781000,10.777781005859374,-0.0862073227763176,-0.05429359897971153,-0.4732506573200226
1789225042056820000,10.787820068359375,-0.03828373923897743,0.1769428253173828,-0.31898412108421326
1789225042066860000,10.797860107421876,0.0024351945612579584,0.026585804298520088,0.0697239562869072
1789225042076898800,10.80789892578125,0.04224492609500885,-0.038954589515924454,0.21499858796596527
1789225042086937900,10.817937744140625,0.022547120228409767,0.023742081597447395,0.0984586626291275
1789225042096978000,10.82797802734375,0.06962887942790985,0.12444818764925003,-0.05998583883047104
1789225042107016700,10.8380166015625,0.1695117950439453,0.26634567975997925,-0.15037378668785095
1789225042117056000,10.848055908203126,0.15503379702568054,0.17857800424098969,0.13147254288196564
1789225042127096000,10.858095947265625,0.11412577331066132,0.18411630392074585,0.4531581699848175
1789225042137134800,10.868134765625,0.02750113233923912,0.24006453156471252,0.40533843636512756
1789225042147174000,10.878173828125,0.014853514730930328,0.35478684306144714,0.3293246328830719
1789225042157213000,10.888212890625,0.07528836280107498,0.32643190026283264,0.30735915899276733
1789225042167252700,10.898252685546876,0.18449820578098297,0.15951882302761078,0.11924996227025986
1789225042177291300,10.908291259765624,0.3112393617630005,0.26411765813827515,-0.12899500131607056
1789225042187330000,10.918330078125,0.3332842290401459,0.3420073986053467,-0.21272185444831848
1789225042197370000,10.9283701171875,0.3337380290031433,0.2336638867855072,-0.10741008073091507
1789225042207409200,10.9384091796875,0.3055330216884613,0.311198890209198,0.037335120141506195
1789225042217448200,10.9484482421875,0.30122989416122437,0.3932056128978729,0.11491939425468445
1789225042227488000,10.958488037109374,0.34489133954048157,0.5366804599761963,0.03660062327980995
1789225042237527000,10.968527099609375,0.35857972502708435,0.678360641002655,-0.025539182126522064
1789225042247566300,10.97856640625,0.38817861676216125,0.6595630049705505,0.010088320821523666
1789225042257606100,10.988606201171875,0.3707605004310608,0.4719124138355255,0.17616358399391174
1789225042267645200,10.998645263671875,0.34154534339904785,0.2826351523399353,0.2588672339916229
1789225042277684200,11.008684326171876,0.2876181900501251,0.2793770432472229,0.17513319849967957
1789225042287723000,11.018722900390625,0.24557514488697052,0.38962098956108093,0.13078171014785767
1789225042297763000,11.02876318359375,0.24193087220191956,0.4533294141292572,0.002293514320626855
1789225042307802000,11.038802001953124,0.22826991975307465,0.46617674827575684,-0.0847521722316742
1789225042317841200,11.048841064453125,0.22867286205291748,0.49680525064468384,-0.06844031065702438
1789225042327881200,11.058881103515626,0.22677908837795258,0.46566304564476013,-0.010747453197836876
1789225042337920300,11.068920166015625,0.2219552993774414,0.3525679111480713,0.07254797220230103
1789225042347959000,11.078958984375,0.23673558235168457,0.26102545857429504,0.0346197634935379
1789225042357999000,11.0889990234375,0.22411778569221497,0.2428656369447708,-0.17563067376613617
1789225042368038100,11.0990380859375,0.126291885972023,0.15154717862606049,-0.370481938123703
1789225042378077000,11.109076904296876,0.06729169189929962,-0.015576829202473164,-0.3519388735294342
1789225042388117000,11.119116943359375,0.0025566346012055874,-0.08129751682281494,-0.2362346351146698
1789225042398156300,11.12915625,-0.07888922095298767,-0.015530756674706936,-0.11559929698705673
1789225042408195000,11.139195068359374,-0.10284648835659027,0.06289853900671005,-0.026142388582229614
1789225042418234000,11.149234130859375,-0.12132882326841354,0.3090859353542328,0.17316113412380219
1789225042428274200,11.159274169921876,-0.08059711009263992,0.1258346289396286,0.29579463601112366
1789225042438313000,11.16931298828125,0.0004628573951777071,-0.10831129550933838,0.18585188686847687
1789225042448352000,11.17935205078125,0.04999685287475586,-0.1337285041809082,0.011598865501582623
1789225042458392000,11.18939208984375,0.08701159805059433,-0.0847814679145813,-0.26573047041893005
1789225042468431400,11.199431396484375,0.0843321904540062,-0.09645862877368927,-0.1221083328127861
1789225042478470100,11.20947021484375,0.09255150705575943,-0.22018855810165405,0.2158995419740677
1789225042488510200,11.21951025390625,-0.031498003751039505,0.004552141297608614,0.2542860805988312
1789225042498549200,11.22954931640625,-0.2029845416545868,0.674172043800354,0.15341272950172424
1789225042508588000,11.239588134765626,-0.19237662851810455,0.683211624622345,0.09347828477621078
1789225042518628000,11.249628173828125,-0.008146610110998154,0.486564040184021,0.10052314400672913
1789225042528667100,11.259667236328125,0.2489917129278183,0.3384054899215698,-0.10821781307458878
1789225042538706200,11.2697060546875,0.40793368220329285,0.21198175847530365,-0.39525410532951355
1789225042548745200,11.2797451171875,0.3058512508869171,0.3461821675300598,-0.0308721624314785
1789225042558785300,11.289785400390626,0.2822737693786621,0.14080318808555603,0.4665661156177521
1789225042568824000,11.299823974609374,0.2535398602485657,0.0057646785862743855,0.5077921152114868
1789225042578863000,11.309863037109375,0.18361803889274597,0.35743802785873413,0.09897078573703766
1789225042588903200,11.319903076171874,0.2388852834701538,0.6248385906219482,-0.29410991072654724
1789225042598942000,11.32994189453125,0.3398020565509796,0.7408578395843506,-0.19641052186489105
1789225042608981200,11.339981201171875,0.39200320839881897,0.62770015001297,0.009936519898474216
1789225042619021000,11.35002099609375,0.46262410283088684,0.497616708278656,0.000716922979336232
1789225042629060000,11.36006005859375,0.43485185503959656,0.42357921600341797,-0.06245565414428711
1789225042639099100,11.37009912109375,0.32898640632629395,0.355127215385437,-0.011511513963341713
1789225042649138200,11.38013818359375,0.24410907924175262,0.26447612047195435,0.25792261958122253
1789225042659178000,11.390177978515625,0.2386711686849594,0.26394563913345337,0.31686821579933167
1789225042669217000,11.400217041015624,0.24600790441036224,0.4188542366027832,0.21858187019824982
1789225042679256300,11.41025634765625,0.2897745668888092,0.5035989880561829,0.07014446705579758
1789225042689296100,11.420296142578126,0.3414550721645355,0.5326652526855469,-0.10878187417984009
1789225042699335200,11.430335205078125,0.2946217954158783,0.5524969696998596,0.014187990687787533
1789225042709374200,11.440374267578125,0.19156517088413239,0.44490742683410645,0.25401949882507324
1789225042719414300,11.450414306640624,0.11491486430168152,0.3281845450401306,0.24018970131874084
1789225042729453000,11.460453125,0.05812881514430046,0.28325966000556946,0.26670733094215393
1789225042739492000,11.4704921875,0.03975407034158707,0.161631241440773,0.3506413698196411
1789225042749532200,11.4805322265625,0.05050152167677879,0.1478709578514099,0.263077974319458
1789225042759571200,11.4905712890625,0.002016279147937894,-0.01811002753674984,0.02213619463145733
1789225042769610200,11.5006103515625,-0.06733962893486023,-0.2402847707271576,-0.1043945848941803
1789225042779649000,11.51064892578125,-0.21722260117530823,-0.2717433571815491,0.0357300341129303
1789225042789689000,11.520689208984376,-0.31345486640930176,-0.2912161350250244,-0.058269962668418884
1789225042799728000,11.53072802734375,-0.3858177363872528,0.010463027283549309,-0.3221687078475952
1789225042809767000,11.540766845703125,-0.40679892897605896,-0.011965583078563213,-0.27309492230415344
1789225042819807000,11.550806884765626,-0.3170274794101715,-0.32404065132141113,-0.09568231552839279
1789225042829846000,11.560845947265625,-0.3065436780452728,-0.4748498797416687,-0.03870745003223419
1789225042839885300,11.57088525390625,-0.35988253355026245,-0.4332648813724518,-0.24775786697864532
1789225042849925000,11.580925048828124,-0.5223990082740784,-0.35843244194984436,-0.22177287936210632
1789225042859964200,11.590964111328125,-0.6637697219848633,-0.40798747539520264,0.21222543716430664
1789225042870003200,11.601003173828126,-0.6881453990936279,-0.649890124797821,0.5441754460334778
1789225042880042000,11.6110419921875,-0.633831262588501,-0.8381332755088806,0.37987276911735535
1789225042890082000,11.62108203125,-0.607374370098114,-0.6739091873168945,-0.08389010280370712
1789225042900121000,11.63112109375,-0.6373892426490784,-0.6844305396080017,-0.26026514172554016
1789225042910160100,11.64116015625,-0.6600900292396545,-0.9291608929634094,-0.12269929051399231
1789225042920200200,11.6512001953125,-0.7078871130943298,-0.9051885008811951,-0.2955187261104584
1789225042930239200,11.6612392578125,-0.7876879572868347,-0.62642902135849,-0.6107416749000549
1789225042940278000,11.671278076171875,-0.7691677808761597,-0.5853074193000793,-0.5553580522537231
1789225042950318000,11.681318115234374,-0.7000728845596313,-0.6615228056907654,-0.2586962580680847
1789225042960357000,11.691357177734375,-0.640698254108429,-0.6774700880050659,-0.06234779581427574
1789225042970396200,11.701396240234375,-0.5908814072608948,-0.780042827129364,-0.11930908262729645
1789225042980435200,11.711435302734374,-0.7240474224090576,-0.934722900390625,-0.07028774172067642
1789225042990475300,11.721475341796875,-0.8560550212860107,-1.0885745286941528,-0.017121462151408195
1789225043000514000,11.73151416015625,-0.9804286360740662,-1.1148573160171509,0.10801780968904495
1789225043010553000,11.741552978515625,-0.9857355356216431,-1.212044596672058,0.35645851492881775
1789225043020593200,11.75159326171875,-0.8913570642471313,-1.2133433818817139,0.49502918124198914
1789225043030632000,11.7616318359375,-0.8152093291282654,-0.9590511918067932,0.31300559639930725
1789225043040671200,11.771671142578125,-0.6509615182876587,-0.590049147605896,0.014167483896017075
1789225043050710300,11.781710205078125,-0.4403185248374939,-0.4891289472579956,-0.0029049760196357965
1789225043060750000,11.79175,-0.44414976239204407,-0.6953702569007874,0.03813619911670685
1789225043070789000,11.8017890625,-0.4620099663734436,-0.6742119789123535,-0.15514858067035675
1789225043080828200,11.811828125,-0.5917817950248718,-0.7219427227973938,-0.39404183626174927
1789225043090868200,11.8218681640625,-0.6069961786270142,-0.8573011159896851,-0.26249101758003235
1789225043100907000,11.831906982421875,-0.5624819993972778,-0.9723379611968994,0.09941793233156204
1789225043110946300,11.8419462890625,-0.539539635181427,-0.9385208487510681,0.10796428471803665
1789225043120986000,11.851986083984375,-0.5134025812149048,-0.7577364444732666,-0.14045457541942596
1789225043131025200,11.862025146484376,-0.44799163937568665,-0.5506516695022583,-0.27012816071510315
1789225043141064200,11.872064208984375,-0.35455435514450073,-0.41178780794143677,-0.16094520688056946
1789225043151103000,11.88210302734375,-0.2672519385814667,-0.37526682019233704,0.06353023648262024
1789225043161143000,11.89214306640625,-0.20536194741725922,-0.288260281085968,0.14062128961086273
1789225043171182000,11.90218212890625,-0.1343170553445816,-0.18415918946266174,0.13787105679512024
1789225043181221400,11.912221435546876,-0.042518697679042816,-0.10628356039524078,0.22539611160755157
1789225043191261400,11.922261474609375,0.006607835181057453,-0.2280091941356659,0.3867173492908478
1789225043201300700,11.93230078125,0.014404239133000374,-0.22352629899978638,0.34423166513442993
1789225043211339500,11.942339599609374,0.043539486825466156,-0.1314304620027542,0.25063806772232056
1789225043221379600,11.952379638671875,0.10427261143922806,-0.15386652946472168,0.22904516756534576
1789225043231418600,11.962418701171876,0.18344305455684662,-0.17119865119457245,0.20285670459270477
1789225043241457400,11.97245751953125,0.23323512077331543,-0.0008604673203080893,0.10377886146306992
1789225043251496400,11.982496337890625,0.2865404188632965,0.19553647935390472,0.016044747084379196
1789225043261536500,11.99253662109375,0.33007803559303284,0.15674886107444763,-0.09055227041244507
1789225043271575600,12.002575439453125,0.3671444356441498,0.26451367139816284,-0.23411689698696136
1789225043281614600,12.012614501953125,0.4049355089664459,0.3168424069881439,-0.20802217721939087
1789225043291654700,12.022654541015624,0.4388841390609741,0.24703668057918549,-0.014271614141762257
1789225043301693400,12.032693359375,0.49894773960113525,0.1584751307964325,-0.030841801315546036
1789225043311732500,12.042732421875,0.5295799374580383,0.26323696970939636,-0.3103890120983124
1789225043321772500,12.0527724609375,0.5002050399780273,0.3961484134197235,-0.3587656021118164
1789225043331811300,12.062811279296875,0.4978681206703186,0.3376328945159912,-0.21685321629047394
1789225043341850600,12.0728505859375,0.49304884672164917,0.34788793325424194,-0.1302482783794403
1789225043351889700,12.0828896484375,0.5089988112449646,0.5458279252052307,-0.037400901317596436
1789225043361929500,12.092929443359376,0.5726414322853088,0.6343665719032288,0.05819273367524147
1789225043371968500,12.102968505859375,0.643916666507721,0.5925434827804565,0.26807886362075806
1789225043382007600,12.113007568359375,0.6780511736869812,0.4655437171459198,0.4265976548194885
1789225043392047600,12.123047607421874,0.6750500798225403,0.5432443618774414,0.29658079147338867
1789225043402086400,12.13308642578125,0.5915746092796326,0.6737925410270691,0.2753399610519409
1789225043412125700,12.143125732421876,0.5617371201515198,0.6208502054214478,0.3739916980266571
1789225043422164500,12.15316455078125,0.5418451428413391,0.6149662137031555,0.4261816740036011
1789225043432204500,12.16320458984375,0.5984642505645752,0.5802927017211914,0.24590590596199036
1789225043442243600,12.17324365234375,0.6417791843414307,0.5858342051506042,-0.13993313908576965
1789225043452282400,12.183282470703125,0.5438840985298157,0.5444813966751099,-0.5442108511924744
1789225043462322400,12.193322509765625,0.4949181377887726,0.628293514251709,-0.7208825349807739
1789225043472361500,12.203361572265624,0.4714849591255188,0.5292388200759888,-0.5168359279632568
1789225043482400500,12.213400390625,0.4711933434009552,0.4614861309528351,-0.3081780672073364
1789225043492440600,12.223440673828126,0.4746115207672119,0.5866264700889587,-0.29959550499916077
1789225043502479600,12.233479736328125,0.5238749384880066,0.6964656114578247,-0.3888143301010132
1789225043512518700,12.2435185546875,0.5743836760520935,0.7712410688400269,-0.29384759068489075
1789225043522557400,12.253557373046876,0.5649701952934265,0.7462190389633179,-0.04334081709384918
1789225043532597500,12.263597412109375,0.566739022731781,0.6159294843673706,0.2657986581325531
1789225043542636500,12.273636474609376,0.5773328542709351,0.4903281629085541,0.44961509108543396
1789225043552675600,12.283675537109374,0.5514378547668457,0.5601897835731506,0.3441528379917145
1789225043562715600,12.293715576171875,0.4811546504497528,0.6373540759086609,0.2142036408185959
1789225043572754700,12.303754638671874,0.41739988327026367,0.6637537479400635,-0.007426224648952484
