time,seconds_elapsed,z,y,x
1789064088057835000,0.0358349609375,7.410054138183593,6.5671455162048336,0.6208464179992675
1789064088067872300,0.045872314453125,7.358279527282715,6.619668315124511,0.6368576416015624
1789064088077909200,0.0559091796875,7.41214906463623,6.625504181671142,0.6579565437316894
1789064088087946200,0.0659462890625,7.319523387908935,6.645405982971191,0.5600935508728027
1789064088097983200,0.075983154296875,7.158812601470947,6.704961749267578,0.486471849822998
1789064088108019200,0.086019287109375,7.0920742301940916,6.696133130645752,0.4278139091491699
1789064088118056200,0.09605615234375,7.106289802551269,6.6629135826110835,0.4100070343017578
1789064088128093200,0.10609326171875,7.134272034454345,6.586149491882324,0.5057751007080078
1789064088138130200,0.116130126953125,7.255179218292236,6.598419775390624,0.5638344909667968
1789064088148167200,0.126167236328125,7.272537180328369,6.589291881561279,0.6986579719543456
1789064088158204400,0.136204345703125,7.3937436393737785,6.657526628875732,0.7453449043273925
1789064088168241200,0.1462412109375,7.442824773406982,6.664260321044922,0.7935282127380371
1789064088178278100,0.156278076171875,6.698527332305908,6.739228760528564,0.5077203895568847
1789064088188314000,0.166314208984375,6.39057314376831,6.789357357788085,-0.060902504730224606
1789064088198351000,0.17635107421875,7.09940647277832,6.421697765350341,0.3630208267211914
1789064088208388400,0.186388427734375,7.0920742301940916,6.254702199554443,0.7838017684936524
1789064088218425300,0.19642529296875,6.5954270233154295,6.745064627075195,0.3687070556640625
1789064088228462300,0.20646240234375,7.02922643661499,6.561010374450683,0.5599439132690429
1789064088238499000,0.2164990234375,7.463774037933349,6.5503861045837395,0.37394437179565426
1789064088248536000,0.2265361328125,7.9183730781555175,6.750301943206787,0.2711433380126953
1789064088258573300,0.2365732421875,7.359326990509032,6.777087074279785,0.5877765075683593
1789064088268609300,0.246609375,7.400477331542969,7.0561612052917475,0.5653308670043945
1789064088278646300,0.256646240234375,7.258171970367431,6.956652198791503,0.7468412803649902
1789064088288683300,0.266683349609375,7.653664157104492,6.760327662658691,0.7574655502319335
1789064088298720000,0.276719970703125,7.508964594268798,6.788309894561767,0.7143699203491211
1789064088308757200,0.28675732421875,7.181407879638671,6.636727001953124,0.723946726989746
1789064088318794200,0.296794189453125,7.076661557006836,6.553528494262695,0.6919242797851562
1789064088328831200,0.306831298828125,7.1881415718078605,6.375908658599853,0.7835024932861328
1789064088338868200,0.3168681640625,7.1230492141723625,6.262483354949951,0.8961796089172362
1789064088348904200,0.326904296875,7.021146006011962,6.329521001434326,1.084124439239502
1789064088358941400,0.33694140625,6.749104842376709,6.450577822875976,1.2606968116760253
1789064088368978200,0.346978271484375,6.639121203613281,6.474968752288818,1.055394019317627
1789064088379015200,0.35701513671875,6.720524060058593,6.639270841217041,0.616058014678955
1789064088389052200,0.36705224609375,7.547870371246337,6.477961504364013,1.020827732849121
1789064088399089200,0.377089111328125,7.0765119194030754,6.597970862579345,1.070058504486084
1789064088409126400,0.38712646484375,7.51405227279663,6.804470755767822,0.9549871871948241
1789064088419163100,0.3971630859375,7.453748318481445,6.676231329345702,0.9519944351196289
1789064088429200100,0.4072001953125,8.10751500930786,6.741473324584961,0.5401917495727538
1789064088439236000,0.417236083984375,7.9086466339111325,6.738181297302246,0.5319616813659668
1789064088449273000,0.427273193359375,7.63570764465332,6.758681649017333,0.6049848320007324
1789064088459310300,0.437310302734375,7.141753914642334,6.813598649597168,0.7670423568725585
1789064088469347300,0.447347412109375,7.147589781188964,6.536469807434082,0.9750386260986328
1789064088479384000,0.457384033203125,7.2541317550659175,6.341492009735107,0.9846154327392578
1789064088489421000,0.467421142578125,7.131877832794189,6.28822102279663,1.0721534309387206
1789064088499458300,0.477458251953125,7.255927406311034,5.740397755432128,1.8400936134338377
1789064088509495300,0.487495361328125,7.882011140441894,5.929838961791992,1.5295955856323242
1789064088519531300,0.49753125,7.447912451934814,5.810877066802978,1.7899650161743164
1789064088529568300,0.507568359375,7.005733332824707,5.973533142089844,1.1813888816833495
1789064088539605200,0.517605224609375,7.548319284057617,6.28822102279663,0.3842693664550781
1789064088549642200,0.527642333984375,7.2809168861389155,6.065260993194579,0.42227731781005856
1789064088559679200,0.53767919921875,7.696759786987304,6.323685134887695,0.24944588546752927
1789064088569716200,0.54771630859375,7.907449533081055,6.262782630157471,0.4004302276611328
1789064088579753200,0.557753173828125,8.022969763183593,6.277447115325927,0.49889177093505854
1789064088589789200,0.5677890625,7.764545621490478,6.457760427856445,0.31498715591430665
1789064088599826200,0.577826171875,8.028207079315186,6.303334420776367,0.1475426773071289
1789064088609863200,0.58786328125,8.464550331878662,5.970989302825927,-0.054468087768554684
1789064088619900200,0.597900146484375,8.432228609466552,5.8919806480407715,-0.1571194839477539
1789064088629937200,0.607937255859375,7.8721350585937495,5.762693758392333,0.12599486236572266
1789064088639974100,0.61797412109375,7.388207048034667,5.812523080444335,0.2946364418029785
1789064088650011400,0.628011474609375,7.255628131103515,5.7249850822448725,0.49096097793579097
1789064088660048100,0.638048095703125,7.028478248596191,5.674257934570313,0.41045594711303707
1789064088670084400,0.64808447265625,7.2714897171020505,5.793968017578124,0.05820902786254883
1789064088680121000,0.65812109375,7.456741070556641,5.632060130310058,0.17657237243652343
1789064088690158000,0.668157958984375,7.83337891921997,5.651064105987548,0.30885201416015623
1789064088700195300,0.6781953125,7.73791012802124,5.75865354309082,0.6489782875061034
1789064088710232300,0.688232421875,7.632565254974365,6.002413199615479,0.9093477180480957
1789064088720269300,0.698269287109375,7.410652688598632,6.415562623596191,1.0838251640319823
1789064088730306000,0.70830615234375,7.389703424072265,6.65857409210205,1.416020644378662
1789064088740343300,0.71834326171875,7.368305246734619,6.719027684020996,1.7229273696899412
1789064088750379500,0.728379638671875,6.43501551208496,7.34810417022705,1.3916297149658203
1789064088760416800,0.738416748046875,7.106888352966308,7.051672077178955,0.8662520881652832
1789064088770453800,0.748453857421875,7.8900915710449215,6.71019906539917,0.5596446380615234
1789064088780490800,0.75849072265625,8.737040408325194,6.32652824935913,0.6675333503723144
1789064088790527500,0.768527587890625,7.931690824890136,6.429628558349609,1.39177935256958
1789064088800564500,0.778564453125,7.419481307220458,6.667253073120117,1.835454847717285
1789064088810601700,0.788601806640625,7.177367664337158,6.734141082000732,2.2123919715881346
1789064088820638700,0.798638671875,7.432499778747558,6.667253073120117,2.099864493560791
1789064088830674700,0.8086748046875,7.264307112121582,6.919841348266601,1.852064621734619
1789064088840711700,0.818711669921875,6.453869850158691,6.979995664978027,2.044348942565918
1789064088850748400,0.82874853515625,6.657676266479492,6.5777697860717765,1.9425953720092772
1789064088860785700,0.83878564453125,6.984933705902099,6.442647029876708,1.456871710205078
1789064088870822700,0.84882275390625,6.930315980529785,6.309020649719238,1.0142436782836914
1789064088880859600,0.858859619140625,7.356483876037597,6.25036270904541,0.6666355247497558
1789064088890896600,0.868896728515625,7.318775199890136,6.291961962890625,0.8952817832946777
1789064088900933600,0.87893359375,6.840982331085205,6.649146923065185,1.3949217422485352
1789064088910969900,0.888969970703125,6.961739877319336,6.787860981750488,1.6808792030334472
1789064088921006600,0.899006591796875,7.102249587249755,6.832901900482177,1.7069161460876463
1789064088931043600,0.909043701171875,6.65932228012085,7.108684004211425,1.4794669883728027
1789064088941080600,0.91908056640625,6.809708071899414,7.095815170288086,1.087865379333496
1789064088951117600,0.92911767578125,7.522132703399658,6.833201175689696,0.7944260383605957
1789064088961154800,0.93915478515625,7.728333321380615,6.705859574890137,0.5826888290405273
1789064088971191600,0.949191650390625,7.756165915679931,6.785915692901611,0.3847182792663574
1789064088981227500,0.9592275390625,7.350199096679687,6.8402341430664055,0.5161000953674316
1789064088991264500,0.969264404296875,7.300968325042724,6.950517057037353,0.522833787536621
1789064089001301500,0.979301513671875,7.369053434753417,6.928669966888427,0.8215104446411132
1789064089011338800,0.9893388671875,7.276128482818603,6.82512074508667,1.0015244819641114
1789064089021375700,0.999375732421875,6.872106952667236,6.994061599731445,0.953790086364746
1789064089031412500,1.00941259765625,6.531531766510009,6.7477581039428705,1.1137526847839354
1789064089041449500,1.019449462890625,7.180659691619873,6.311414851379394,0.9112930068969726
1789064089051486700,1.02948681640625,7.428758838653564,6.160131233978271,0.6533177780151367
1789064089061522700,1.039522705078125,7.035211940765381,6.115090315246582,0.6459855354309082
1789064089071559700,1.0495595703125,6.932560544586181,6.246322493743896,0.5651812294006348
1789064089081596700,1.0595966796875,6.844423995971679,6.404639078521728,0.6872855140686035
1789064089091633700,1.069633544921875,6.9530608963012694,6.535272706604004,1.0913070442199706
1789064089101670700,1.079670654296875,7.280019060516357,6.541856761169433,1.497722776031494
1789064089111707600,1.089707763671875,7.013364850616455,6.805817494201659,1.6868647071838379
1789064089121744600,1.09974462890625,7.122600301361084,6.848164936065674,1.5562310791015623
1789064089131781600,1.10978173828125,8.027159616088866,6.558765810394287,1.0085574493408203
1789064089141817600,1.119817626953125,7.785345248413085,6.683114659118652,0.5553051475524902
1789064089151854600,1.1298544921875,7.434594705200195,6.845621096801757,0.4186860153198242
1789064089161891600,1.1398916015625,7.7416510681152335,6.73548782043457,0.6364087287902832
1789064089171928600,1.149928466796875,7.941866181945801,6.585550941467285,1.107767180633545
1789064089181965600,1.159965576171875,7.652915969085693,6.6902972640991205,1.435174257659912
1789064089192002600,1.17000244140625,7.012018112182616,6.795342861938476,1.4995184272766113
1789064089202039800,1.180039794921875,6.704961749267578,6.687005236816406,1.3504793739318848
1789064089212075800,1.19007568359375,6.912060192871094,6.396409010314941,1.055992569732666
1789064089222112800,1.20011279296875,7.1866451957702635,6.152798991394042,0.6561608924865723
1789064089232149500,1.2101494140625,7.313238608551025,5.963357785034179,0.3981856636047363
1789064089242186500,1.2201865234375,7.219715106201171,5.963657060241699,0.24615385818481444
1789064089252223700,1.2302236328125,6.890961290740966,6.196942084503173,0.31049802780151364
1789064089262260700,1.2402607421875,6.707655226135254,6.336703606414795,0.6414964073181152
1789064089272297700,1.250297607421875,7.095964807891845,6.392967345428467,0.9011176498413085
1789064089282334500,1.26033447265625,7.069778227233886,6.509086125946045,1.1246762298583983
1789064089292370400,1.270370361328125,7.063044535064697,6.6133835357666015,1.0075099861145018
1789064089302407700,1.28040771484375,7.810334728240966,6.523152060699463,0.5174468338012695
1789064089312444700,1.290444580078125,8.156147230529784,6.416759724426269,0.12479776153564452
1789064089322481700,1.300481689453125,8.008155640411376,6.46105245513916,-0.1541267318725586
1789064089332518700,1.3105185546875,7.749132948303222,6.572382832336426,-0.25647885284423827
1789064089342555600,1.3205556640625,7.564629782867431,6.478560054779052,-0.10235212097167969
1789064089352592600,1.330592529296875,7.419331669616699,6.418555375671386,0.014963760375976562
1789064089362629600,1.340629638671875,6.9624880653381345,6.413766972351074,0.21697452545166016
1789064089372665600,1.35066552734375,6.685359223175048,6.320991658020019,0.3450643142700195
1789064089382702600,1.36070263671875,7.006930433654785,6.143820735168457,0.34012627334594725
1789064089392739600,1.370739501953125,7.215076340484619,5.9688943763732905,0.4560954162597656
1789064089402776800,1.38077685546875,6.932560544586181,6.085611707305908,0.4798877952575683
1789064089412813600,1.3908134765625,6.925976490020751,6.291064137268066,0.43514615173339843
1789064089422850600,1.4008505859375,7.756165915679931,5.705083280944824,0.8022071937561035
1789064089432887600,1.410887451171875,6.21190584487915,6.970269220733642,0.4557961410522461
1789064089442923500,1.420923583984375,8.425943830108642,6.327126799774169,1.1276689819335937
1789064089452960800,1.430960693359375,8.09479581298828,5.243151998138427,2.051232272338867
1789064089462997800,1.440997802734375,5.354632012939453,8.13310303955078,1.201589958190918
1789064089473034500,1.451034423828125,7.530063496398926,6.31395869064331,2.5950153244018552
1789064089483071500,1.461071533203125,7.807341976165771,6.197989547729492,2.2426187675476075
1789064089493108700,1.471108642578125,9.28202056121826,7.132775658416747,1.5177742149353026
1789064089503145700,1.481145751953125,7.884854254913329,6.644657794952392,2.445676995849609
1789064089513182700,1.4911826171875,5.708524945831298,7.355436412811279,2.184709014892578
1789064089523218700,1.50121875,6.015581308746338,7.802553572845459,1.3320739486694335
1789064089533255700,1.511255615234375,6.341492009735107,8.445097443389892,1.205330898284912
1789064089543292400,1.52129248046875,2.57301859664917,8.061127352142334,2.3240216239929197
1789064089553329700,1.53132958984375,9.297133959197998,6.853851165008544,2.6343700141906736
1789064089563366700,1.54136669921875,10.098892240142822,6.733243256378174,2.3994389762878416
1789064089573403600,1.551403564453125,10.276212800598143,5.972934591674805,3.5607764190673827
1789064089583440600,1.561440673828125,9.795576817321777,5.98804798965454,1.6627730529785156
1789064089593477600,1.5714775390625,7.547421458435058,6.594529197692871,1.3187562019348145
1789064089603513600,1.581513671875,3.3916859268188473,7.345410693359375,0.7433996154785156
1789064089613550600,1.591550537109375,6.808660608673096,6.246621768951416,0.5632359405517577
1789064089623587600,1.601587646484375,7.831433630371094,5.3752820022583006,1.2931681716918944
1789064089633624600,1.61162451171875,7.264756024932861,5.941061782073974,1.7812860351562498
1789064089643661800,1.621661865234375,8.785672629547118,5.455637395477295,1.5830162101745604
1789064089653698600,1.631698486328125,8.377760521697997,5.178957466125488,1.8722656982421875
1789064089663735600,1.641735595703125,6.627449470520019,6.121674369812012,2.01741417388916
1789064089673771500,1.651771484375,7.454047593688965,5.899312890625,1.9720739799499512
1789064089683808500,1.66180859375,8.005611801147461,5.462071812438965,2.4582465545654295
1789064089693845800,1.671845703125,6.883180135345459,5.710470234680176,2.7061960639953613
1789064089703882800,1.6818828125,6.420500664520263,6.38398908920288,1.8363526733398436
1789064089713919700,1.691919677734375,7.422174784088134,5.838709661102294,2.327164013671875
1789064089723956500,1.70195654296875,7.046584398651123,5.186289708709716,2.5487773048400877
1789064089733993500,1.711993408203125,5.397278730010986,6.897994258117675,1.218798282623291
1789064089744030500,1.722030517578125,3.6379894226074216,7.68059892578125,0.0752677146911621
1789064089754066400,1.73206640625,4.064905506134033,7.792078940582275,-0.09995791931152344
1789064089764103400,1.742103515625,10.225186377716064,6.310517025756836,0.8687959274291992
1789064089774140400,1.752140380859375,9.425672660827637,6.8296098731994626,2.7142764945983884
1789064089784177700,1.762177734375,6.400898138427734,8.19744720916748,3.4521395187377926
1789064089794214400,1.77221435546875,8.07624075012207,8.677335004425048,3.723282856750488
1789064089804251400,1.78225146484375,9.235183991241454,8.034641496276855,1.8546084609985352
1789064089814288400,1.792288330078125,7.69945326385498,8.772953433227539,0.5391442863464355
1789064089824324400,1.802324462890625,6.0516439712524415,9.188796334075928,0.28431144714355466
1789064089834361600,1.812361572265625,6.219986275482177,8.390479718017577,0.34536358947753903
1789064089844398600,1.822398681640625,7.784746697998046,7.301716513061523,0.3093009269714355
1789064089854435300,1.832435302734375,6.902782661437988,7.198017653656006,-0.15831658477783203
1789064089864472300,1.842472412109375,5.5069630935668945,7.021445281219482,-0.47195700225830073
1789064089874509600,1.852509521484375,4.307318424224853,7.063194172668457,0.19991583862304688
1789064089884546600,1.862546630859375,5.053860429382324,6.372766268920898,1.6303016929626464
1789064089894582500,1.87258251953125,6.610989334106445,6.038475862121581,3.0192379310607906
1789064089904619500,1.88261962890625,6.656179890441894,5.925649108886718,4.099322154998779
1789064089914656500,1.892656494140625,5.980865384674072,6.525246987152099,3.5947441551208494
1789064089924693200,1.902693359375,5.384260258483886,7.288698041534423,2.196979298400879
1789064089934730500,1.91273046875,5.762394483184814,7.427112825012206,0.9109937316894531
1789064089944767500,1.922767578125,6.826018570709228,7.538443202209472,-0.2280477081298828
1789064089954804500,1.932804443359375,6.991218485260009,7.749731498718261,-0.35299510726928707
1789064089964841500,1.942841552734375,6.66530778427124,8.014440419769286,0.08529343414306641
1789064089974877400,1.95287744140625,6.9972039894104,7.848342679595947,0.7369651985168456
1789064089984914400,1.96291455078125,7.537096463775634,7.631966704559326,1.1186907257080076
1789064089994951400,1.972951416015625,7.6562079963684075,7.504325828552246,1.2669815910339355
1789064090004988400,1.982988525390625,6.784120041656494,7.570016736602783,1.105073703765869
1789064090015025400,1.993025390625,6.714089643096924,7.351545835113525,0.7896376350402832
1789064090025062700,2.003062744140625,6.399701037597656,7.256226681518554,0.13422493057250975
1789064090035099400,2.013099365234375,6.035932022857666,7.26520493774414,-0.39444472351074217
1789064090045135600,2.023135498046875,6.389675318145752,6.9524623458862305,-0.32785598983764647
1789064090055172400,2.03317236328125,5.903053830718994,7.158064413452148,-0.06389525680541992
1789064090065209300,2.043209228515625,5.303306314849853,7.369651985168456,0.8824129493713379
1789064090075246600,2.05324658203125,5.7058314689636225,7.040598894500732,1.73010997467041
1789064090085283600,2.06328369140625,6.631639323425293,7.069628589630127,1.9313725517272948
1789064090095320600,2.073320556640625,6.899939546966553,6.983287692260742,1.638831036376953
1789064090105357300,2.083357421875,7.089979303741455,7.11856008605957,1.0446201118469238
1789064090115394300,2.093394287109375,5.8928784736633295,7.713369561004638,0.45340193939208984
1789064090125430500,2.103430419921875,6.3058782600402825,7.649623941802978,0.21113865890502928
1789064090135467500,2.113467529296875,6.6702458251953125,7.5911156387329095,0.48063598327636714
1789064090145504500,2.12350439453125,6.615628099822998,7.744943095397948,0.7959224143981933
1789064090155541500,2.13354150390625,7.293785720062256,7.526771469116211,1.0467150382995605
1789064090165578200,2.143578125,6.970568495941162,7.554155150604248,1.1754033775329589
1789064090175615500,2.153615478515625,6.189759479522705,7.877372374725342,0.8622118728637694
1789064090185652500,2.163652587890625,6.636727001953124,7.56567724609375,0.23508067550659179
1789064090195688400,2.1736884765625,7.620743884277343,7.164049917602538,-0.5708674583435058
1789064090205725400,2.183725341796875,7.889193745422363,6.940491337585449,-1.2421417488098143
1789064090215762400,2.193762451171875,6.041618251800537,7.4226236968994135,-1.5087959587097166
1789064090225799700,2.203799560546875,4.704007711791992,7.7501804115295405,-1.107018992614746
1789064090235836400,2.21383642578125,3.933374052429199,7.669675380706787,-0.2522889999389648
1789064090245873400,2.223873291015625,3.571849601745605,7.678503999328613,0.3342904067993164
1789064090255910400,2.233910400390625,4.330063339996338,7.380575530242919,0.4537012145996093
1789064090265946400,2.2439462890625,4.787206219482422,7.224054596710205,0.06733692169189452
1789064090275983600,2.253983642578125,4.889408702850342,7.509862419891357,-0.49589901885986326
1789064090286020600,2.2640205078125,7.070825690460205,7.195773089599609,-1.1647791076660157
1789064090296057300,2.274057373046875,9.05292538986206,6.881983034515381,-1.2454337760925291
1789064090306094300,2.28409423828125,7.877372374725342,7.8444521018981925,-0.725293465423584
1789064090316131300,2.29413134765625,6.482600270080566,8.201637062072754,0.414346524810791
1789064090326168600,2.30416845703125,7.063643085479736,8.750657430267333,0.5767033248901366
1789064090336205600,2.31420556640625,10.48286233139038,8.09524472579956,-0.32411504974365235
1789064090346241500,2.324241455078125,11.066000073242186,6.846518922424316,-1.0327987411499022
1789064090356278500,2.334278564453125,9.431658164978026,7.199663667297363,-1.8441338287353515
1789064090366315300,2.344315185546875,8.097938202667235,6.61443099899292,-1.4704887321472166
1789064090376352500,2.3543525390625,6.222829389953613,6.086958445739746,0.17163433151245117
1789064090386389500,2.364389404296875,6.209661280822753,5.4221185722351075,2.1486463523864745
1789064090396426500,2.374426513671875,6.346878963470458,4.805162731933594,3.980659535217285
1789064090406463500,2.38446337890625,6.69718059387207,4.629787460327148,4.818480478668213
1789064090416499500,2.39449951171875,6.139032331848144,5.18404514465332,4.758026886749267
1789064090426536400,2.404536376953125,4.823119244384765,5.982960311126709,4.024652990722656
1789064090436573400,2.414573486328125,5.090372004699707,5.56696777267456,4.080467816925049
1789064090446610400,2.4246103515625,5.8345198081970215,6.258592777252197,4.416254599761962
1789064090456647400,2.4346474609375,7.478139247894287,7.172279985809325,4.721814586639404
1789064090466684700,2.4446845703125,8.404396015167237,7.770830400848388,4.4960114425659174
1789064090476721400,2.454721435546875,7.8341271072387695,8.487145610046387,4.849605100250244
1789064090486757600,2.464757568359375,7.870788320159912,9.171887284851074,5.5832782714843745
1789064090496794400,2.47479443359375,9.274389043426513,9.046790248107909,6.293907251739501
1789064090506831400,2.484831298828125,8.967482318115234,8.374169219207763,5.467907678985595
1789064090516868400,2.494868408203125,8.558672384643554,8.290222523498535,4.862773209381103
1789064090526905600,2.504905517578125,7.997531370544433,7.593060927581787,4.472069425964356
1789064090536942600,2.514942626953125,7.458686359405517,6.9798460273742675,3.924395796203613
1789064090546979300,2.524979248046875,6.673238577270507,7.117662260437012,3.2219968841552733
1789064090557016300,2.535016357421875,3.3919852020263668,8.365041325378417,2.335244444274902
1789064090567052300,2.54505224609375,1.0039186836242675,8.130259925079345,1.4749778602600097
1789064090577089500,2.555089599609375,2.099864493560791,6.3459811378479,2.1525369300842283
1789064090587126500,2.56512646484375,4.593575160217285,4.9461213546752925,3.2022447204589843
1789064090597163500,2.57516357421875,6.3609448982238765,5.545120682525634,1.246181964111328
1789064090607200500,2.585200439453125,7.452551217651367,6.10985299911499,0.0818517692565918
1789064090617237500,2.595237548828125,6.999149278259277,5.6778492370605465,0.00987608184814453
1789064090627274500,2.6052744140625,7.775020253753661,5.900061078643798,-0.661398208618164
1789064090637310500,2.615310546875,8.340949671173096,6.176741007995605,-1.5295955856323242
1789064090647347500,2.625347412109375,7.965359285736083,6.706907038116455,-1.7772458198547363
1789064090657384400,2.635384521484375,5.963956335449218,7.567023984527587,-1.444751064300537
1789064090667421700,2.645421630859375,6.420351026916504,7.50178198928833,-2.229899571228027
1789064090677458400,2.65545849609375,11.30571951446533,6.484994471740722,-4.0243537155151365
1789064090687495400,2.665495361328125,11.05762036743164,5.419574732971191,-4.40518141708374
1789064090697532400,2.675532470703125,7.763049245452881,5.725733270263672,-3.722534668731689
1789064090707568400,2.685568359375,4.477306742095947,5.8445455276489255,-3.606715163421631
1789064090717605400,2.69560546875,5.562628282165527,5.167435370635986,-5.276521183776855
1789064090727642600,2.705642578125,6.570736818695068,5.03695138015747,-6.090100835418701
1789064090737679400,2.715679443359375,5.155015449523925,5.310937832641601,-5.332186372375488
1789064090747716000,2.725716064453125,5.071218391418457,5.850082118988037,-5.456834496307373
1789064090757753000,2.735753173828125,6.311265213775634,6.4926259895324705,-5.496638098907471
1789064090767790300,2.745790283203125,9.18086554107666,7.112724219512939,-5.52881018371582
1789064090777827300,2.755827392578125,9.32736075515747,7.793425679016113,-4.139724308013916
1789064090787863300,2.76586328125,5.868038631439209,8.492532563781738,-2.9822774429321286
1789064090797900300,2.775900390625,7.165845568847656,9.440187508392333,-3.3301848716735836
1789064090807937000,2.78593701171875,9.032275400543213,7.873781072235107,-2.842216645812988
1789064090817974300,2.795974365234375,7.396437116241454,6.144568923187255,-2.268805348205566
1789064090828011300,2.80601123046875,9.777171392059326,5.038747031402588,-2.1815666252136228
1789064090838048300,2.81604833984375,10.416423235321044,3.496432249450683,-1.8837877937316894
1789064090848085200,2.826085205078125,9.055618866729736,4.093336650848388,-1.3334206871032714
1789064090858121200,2.836121337890625,8.258050438690185,3.9823055488586423,-0.8491934013366699
1789064090868158200,2.846158203125,6.631489685821533,3.812017955780029,-0.04384381790161133
1789064090878195200,2.8561953125,5.228487512969971,3.9571664314270016,0.4192845657348633
1789064090888232200,2.866232177734375,4.932055419921875,3.2140660911560057,0.1927332336425781
1789064090898269200,2.876269287109375,7.180958966827392,3.2194530448913574,-0.136619132232666
1789064090908306200,2.88630615234375,9.951648838043212,3.7433342956542965,0.8569745567321777
1789064090918343400,2.896343505859375,10.822090779113768,3.720739017486572,1.8381483245849608
1789064090928379400,2.90637939453125,10.524461585235596,4.724208788299561,2.325667637634277
1789064090938416000,2.916416015625,8.992920710754394,6.263680455780029,1.4980220512390137
1789064090948453000,2.926453125,9.259574920654297,7.187094108581543,1.5023615417480467
1789064090958490000,2.936489990234375,10.420164175415039,6.5677440666198725,1.6129437309265136
1789064090968527400,2.94652734375,11.257536206054686,6.5244987991333,1.7127520126342772
1789064090978564400,2.956564453125,9.54508346862793,6.320243470001221,2.0157681602478026
1789064090988601000,2.96660107421875,5.172523049163818,6.429927833557128,2.0395605392456053
1789064090998637300,2.97663720703125,0.5608417388916015,8.02581287765503,-0.1441010124206543
1789064091008674000,2.986674072265625,2.114528978729248,7.148786882019042,0.23642741394042968
1789064091018711300,2.996711181640625,10.08722050704956,3.3975217933654784,6.316652167510986
1789064091028748300,3.006748291015625,15.154548320770262,2.777722838592529,6.915501857757568
1789064091038785300,3.016785400390625,13.367276781463623,6.3447840370178215,2.1191677444458006
1789064091048822300,3.026822265625,5.568763423919678,8.897302281951903,0.7621043159484863
1789064091058859000,3.03685888671875,1.2865841171264647,9.933093775177001,-0.663343497467041
1789064091068896300,3.046896240234375,8.697984993743896,9.389310723114013,0.012569558715820313
1789064091078932200,3.05693212890625,13.137134146881102,7.381174080657958,2.518101596069336
1789064091088969200,3.06696923828125,9.897629663085937,7.643039887237548,3.8411972885131833
1789064091099006200,3.077006103515625,8.161833459472655,8.974365647888183,4.593874435424804
1789064091109043200,3.087043212890625,8.0054621635437,7.762301057434081,5.637147808837891
1789064091119080200,3.097080078125,6.812551186370849,5.244648374176025,3.126977005767822
1789064091129117200,3.1071171875,5.553201113128662,6.677428430175781,-0.637755467224121
1789064091139154200,3.117154296875,5.30540124130249,5.90544803237915,-2.2457611572265623
1789064091149190100,3.127190185546875,4.648791436004639,3.9852983009338376,-2.5610475883483885
1789064091159227100,3.13722705078125,4.621407754516602,4.11174207611084,-1.5692495506286621
1789064091169264400,3.147264404296875,6.171653329467773,4.9175405723571775,-0.7939771255493163
1789064091179301400,3.15730126953125,5.702689079284668,5.204844771575927,-0.3541922080993652
1789064091189338000,3.167338134765625,4.778377600860596,6.72276862411499,0.02079962692260742
1789064091199375000,3.177375,6.517316194152832,7.241711833953857,0.2677016731262207
1789064091209412000,3.187412109375,7.862258976745605,7.066486199951171,1.1493664344787597
1789064091219448300,3.1974482421875,6.895450418853759,7.618948233032226,1.416020644378662
1789064091229485300,3.2074853515625,9.885658654785155,8.930671467590331,1.4627075767517088
1789064091239522300,3.217522216796875,10.533140566253662,7.715464487457275,0.7927800247192383
1789064091249559000,3.22755908203125,7.312490420532226,8.60580822982788,-0.12853870162963865
1789064091259596000,3.237595947265625,8.107365371704102,8.517821318817138,-0.7990648040771484
1789064091269633300,3.24763330078125,7.657255459594726,7.311143682098388,-0.11267711563110351
1789064091279670300,3.257670166015625,7.055712292480468,7.269843703460693,0.21158757171630857
1789064091289706200,3.267706298828125,6.870460939025879,6.158634857940673,1.2855366539001465
1789064091299743200,3.2777431640625,5.19077883682251,6.152050803375244,2.0536264739990235
1789064091309780200,3.2877802734375,5.198410354614258,5.856666173553466,2.6014497413635254
1789064091319817200,3.297817138671875,6.1273605987548825,5.217863243103027,3.219602682495117
1789064091329854200,3.307854248046875,8.892064965820312,4.350713329315186,3.0461726997375487
1789064091339891200,3.31789111328125,7.3657614074707025,5.254973368835449,2.5597008499145506
1789064091349928200,3.32792822265625,5.288941104888916,6.26293226776123,2.460640756225586
1789064091359964200,3.337964111328125,6.119878718566894,6.664110683441161,2.6595091316223143
1789064091370001400,3.34800146484375,9.388113622283935,6.339397083282471,3.0069676475524902
1789064091380038100,3.3580380859375,9.41639512939453,7.108833641815185,3.33257907333374
1789064091390075100,3.3680751953125,7.556250077056884,8.902539598083495,2.972550998687744
1789064091400112000,3.378112060546875,7.072022791290283,9.153631497192382,2.705747151184082
1789064091410149000,3.388149169921875,7.261613635253906,9.764003282928467,2.853140190887451
1789064091420186400,3.398186279296875,7.706037318420409,9.983671285247802,2.635267839813232
1789064091430222300,3.408222412109375,6.573430295562744,9.40352629547119,2.1588217094421385
1789064091440259300,3.41825927734375,8.839991079711913,8.287080133819579,1.664419066619873
1789064091450296000,3.428296142578125,8.461707217407225,7.221211482238769,1.4381670097351074
1789064091460333000,3.4383330078125,4.591180958557128,8.32613554840088,0.8249521095275878
1789064091470370300,3.448370361328125,3.579032206726074,8.079532777404784,0.570119270324707
1789064091480407300,3.4584072265625,3.9317280387878415,6.595875936126709,0.1632546257019043
1789064091490444300,3.4684443359375,5.843198789215087,5.550208361053467,0.24824878463745115
1789064091500480300,3.478480224609375,5.66333438949585,6.477512591552734,-0.3233668617248535
1789064091510517200,3.488517333984375,7.503278365325928,5.6946086486816405,-0.3366846084594726
1789064091520554200,3.49855419921875,8.457667002105712,5.557091690826415,-0.7393594001770019
1789064091530591200,3.50859130859375,8.137592167663573,6.331915203094482,-1.362450382232666
1789064091540628200,3.518628173828125,6.653336775970459,6.997652902221679,-0.9319429962158202
1789064091550665200,3.528665283203125,5.825541551971435,7.727136220550537,-0.7852981445312499
1789064091560702200,3.5387021484375,10.120290417480469,6.613084260559082,-0.6654384239196777
1789064091570738400,3.548738525390625,8.981398615264892,7.044639109802246,-0.7739256866455078
1789064091580775200,3.558775146484375,8.921393936157227,7.039701068878173,-0.776319888305664
1789064091590812200,3.568812255859375,6.408529656219482,7.177068389129638,-0.6899789909362792
1789064091600849200,3.57884912109375,7.36127227935791,6.6437599693298335,-0.8637082489013671
1789064091610886100,3.58888623046875,7.143549565887451,5.632509043121337,-0.7185597732543945
1789064091620923400,3.59892333984375,6.921188086700439,5.965153436279296,-1.0301052642822266
1789064091630960000,3.608960205078125,6.047454118347168,5.751919850921631,-0.6147112762451171
1789064091640996000,3.61899609375,6.610091508483887,5.782745197296142,-0.44367549514770505
1789064091651033000,3.629033203125,5.938218667602539,6.077531276702881,0.12120645904541015
1789064091661070000,3.639070068359375,5.339219339752197,6.757035635375976,-0.0008978256225585938
1789064091671107300,3.649107421875,6.383689813995361,7.230040100860595,0.06239888076782226
1789064091681144300,3.659144287109375,9.97828433151245,6.063914254760742,0.14200608596801756
1789064091691181000,3.66918115234375,8.690203838348388,6.976554000091553,0.37768531188964843
1789064091701218000,3.679218017578125,5.582829358673095,8.198793947601319,0.45295302658081055
1789064091711255300,3.68925537109375,5.207538248443603,7.995137168884277,0.33833062210083004
1789064091721291300,3.699291259765625,9.043498220825194,6.38473727722168,0.09935936889648436
1789064091731328300,3.709328369140625,10.599280387115478,5.626822814178467,-0.323666136932373
1789064091741365200,3.719365234375,6.580762538146972,6.95844785003662,-0.1318307289123535
1789064091751402200,3.72940234375,-0.25528175201416015,9.617508068847656,0.05132569808959961
1789064091761439200,3.739439208984375,0.49425300521850585,8.224830890655516,-0.04668693237304687
1789064091771476200,3.749476318359375,5.1225440895080565,5.103689751434326,0.4513070129394531
1789064091781513200,3.75951318359375,10.54077208404541,4.4002433761596675,-0.39444472351074217
1789064091791549200,3.769549072265625,8.470835111236571,5.43319175491333,-1.5263035583496092
1789064091801586200,3.779586181640625,9.322422714233397,4.599111751556396,-0.9660603698730468
1789064091811623400,3.78962353515625,9.650278704071045,4.907664490509033,-0.8837596878051758
1789064091821660200,3.79966015625,5.78394229812622,6.64630380859375,-1.2345102310180662
1789064091831697200,3.809697265625,7.479635623931884,6.519261483001708,-0.35673604736328124
1789064091841734100,3.819734130859375,8.470984748840332,6.293009426116943,-0.041000703430175776
1789064091851771400,3.829771484375,8.205677277374267,7.398232767486572,-0.3688566932678222
1789064091861807400,3.839807373046875,9.676315647125243,7.396287478637695,-0.34431612625122066
1789064091871844400,3.84984423828125,10.487052184295655,6.460154629516601,-0.04833294601440429
1789064091881881300,3.85988134765625,7.425616448974609,7.632265979766845,-0.32935236587524414
1789064091891918000,3.86991796875,6.363788012695312,7.463774037933349,-0.5395931991577149
1789064091901955300,3.879955322265625,7.986308550262451,5.9026049179077145,-0.1452981132507324
1789064091911992300,3.889992431640625,8.17844323348999,5.437531245422363,-0.07990648040771484
1789064091922029300,3.900029296875,6.299294205474853,5.7200470413208,-0.19826982498168944
1789064091932065300,3.910065185546875,4.1301475013732905,6.263979730987549,-0.8892962791442871
1789064091942102300,3.920102294921875,4.572775533294678,5.94405453414917,-1.6609774017333983
1789064091952139300,3.93013916015625,4.448127409362793,5.633107593536376,-2.04300220413208
1789064091962176300,3.94017626953125,5.501875415039062,6.031293257141113,-1.999008748626709
1789064091972213200,3.950213134765625,4.053084135437011,6.8692638381958,-1.7010802795410156
1789064091982250200,3.960250244140625,7.606677949523926,6.166565650939941,-1.7676690132141113
1789064091992287200,3.970287353515625,11.621454858398437,5.1343654602050774,-1.9253870475769042
1789064092002323200,3.9803232421875,9.515155947875977,6.830657336425781,-2.512116091918945
1789064092012360400,3.9903603515625,7.4214265960693355,7.549366747283935,-2.1863550285339355
1789064092022397200,4.000397216796875,6.909067440795898,7.476792509460449,-2.146850701141357
1789064092032434200,4.01043408203125,7.728782234191894,7.423371884918213,-2.482188571166992
1789064092042471200,4.02047119140625,7.902062579345703,6.791601921844482,-2.5273791275024413
1789064092052508400,4.03050830078125,6.905176863098144,6.4935238151550285,-2.7091888160705566
1789064092062545400,4.04054541015625,4.168604365539551,6.858639568328857,-2.7870003700256345
1789064092072581400,4.050581298828125,5.387851560974121,6.22462504119873,-2.4343045379638673
1789064092082618000,4.0606181640625,7.844901014709472,4.993855750274658,-2.245461882019043
1789064092092655000,4.070655029296875,8.685116159820556,5.152621247863769,-1.7981950843811034
1789064092102692400,4.0806923828125,8.016984259033203,5.484667090606689,-1.0612298858642577
1789064092112729300,4.090729248046875,5.7311202239990235,6.961141326904296,-1.300500414276123
1789064092122766300,4.100766357421875,7.245153498840332,7.2523361038208005,-1.4258967262268065
1789064092132803300,4.11080322265625,8.976759849548339,6.9792474769592285,-1.8929156875610351
1789064092142839300,4.12083935546875,9.629329439544676,7.687631893157959,-2.5944167739868162
1789064092152876000,4.1308759765625,7.27852268447876,8.089708134460448,-2.6625018836975096
1789064092162913300,4.140913330078125,6.535721619415283,8.483554307556151,-2.601000828552246
1789064092172950300,4.1509501953125,6.6060512931823725,8.590694831848143,-2.762010890197754
1789064092182987300,4.1609873046875,7.6114663528442374,7.122001750946045,-1.2979565750122068
1789064092193024300,4.171024169921875,7.871386870574951,6.196044258880615,-0.16295535049438475
1789064092203060200,4.181060302734375,6.9168485961914055,6.40359161529541,-0.001496376037597656
1789064092213097200,4.19109716796875,5.238513232421875,6.33326194152832,-0.13602058181762694
1789064092223134200,4.20113427734375,3.598185820007324,6.88183339691162,-0.732326432800293
1789064092233171200,4.211171142578125,6.606500205993652,6.304830796813964,-0.9437643669128417
1789064092243208200,4.221208251953125,9.45485199356079,5.038148480987549,-0.10459668502807616
1789064092253245400,4.231245361328125,4.77568412399292,7.33523533630371,0.5608417388916015
1789064092263282200,4.2412822265625,4.244620268249512,7.88455497970581,0.865054987335205
1789064092273319200,4.251319091796875,6.95231270828247,6.9725137847900385,0.508169302368164
1789064092283355100,4.261355224609375,7.7319246238708494,7.229740825653076,0.47375265350341794
1789064092293392100,4.27139208984375,7.053916641235351,7.461978386688232,1.4043489112854004
1789064092303429400,4.281429443359375,5.4984337501525875,7.710077533721924,2.49640414352417
1789064092313466400,4.29146630859375,4.62260485534668,8.092401611328125,2.5514707817077635
1789064092323503400,4.30150341796875,6.523301698303222,7.256226681518554,2.3163901062011716
1789064092333540000,4.3115400390625,6.90742142715454,7.430704127502441,1.550095937347412
1789064092343576300,4.321576416015625,7.595754404449463,7.155520574188232,1.1924620643615722
1789064092353613000,4.331613037109375,6.346579688262939,7.287201665496826,1.6133926437377928
1789064092363650300,4.341650390625,4.383483964538574,8.238597550201415,1.7357962036132812
1789064092373687300,4.351687255859375,6.1273605987548825,7.599196069335937,1.7272668601989745
1789064092383724300,4.361724365234375,7.462277661895752,6.949020680999755,1.636885747528076
1789064092393761300,4.37176123046875,5.879560726928711,7.972841165924072,1.5679028121948242
1789064092403798300,4.38179833984375,3.9031472564697265,8.372672843170166,1.3735235649108886
1789064092413834200,4.391834228515625,7.191433599090575,7.947103498077392,0.7314286071777343
1789064092423871200,4.401871337890625,11.131840618896483,6.681169370269775,-0.0020949264526367185
1789064092433908200,4.411908203125,10.63683942565918,7.161655715942382,-0.1258452247619629
1789064092443945200,4.4219453125,7.813926030731201,7.95503429107666,0.105344873046875
1789064092453982500,4.431982421875,7.6939166725158685,7.679102549743652,0.3757400230407715
1789064092464019200,4.442019287109375,7.069927864837646,7.2243538719177245,0.8631096984863281
1789064092474056200,4.45205615234375,8.3762641456604,6.214000771331786,1.2164040809631347
1789064092484092200,4.462092041015625,8.602815477752685,5.325901593017578,0.9516951599121093
1789064092494129200,4.472129150390625,8.417414486694335,5.176413626861572,0.37978023834228514
1789064092504166400,4.48216650390625,7.586177597808837,4.89704022064209,-0.2889502128601074
1789064092514203400,4.492203369140625,7.619546783447265,4.385728528594971,-0.4634276588439941
1789064092524240100,4.502240234375,6.8309566116333,4.535964682769775,-0.20679916839599607
1789064092534277000,4.512277099609375,5.86085602645874,5.140201326751709,-0.1854009910583496
1789064092544314000,4.522314208984375,5.231779540252686,5.42032292098999,0.11118073959350586
1789064092554350000,4.53235009765625,5.512649322509765,6.1653685501098625,0.24136545486450195
1789064092564387300,4.54238720703125,10.874164665222168,4.940135850524902,0.650624301147461
1789064092574424300,4.55242431640625,11.568782421875,5.032911164855957,1.3449427825927733
1789064092584461300,4.56246142578125,7.913285399627685,6.714239280700683,1.765274811553955
1789064092594498000,4.572498046875,3.9606080963134764,7.819013709259033,1.6819266662597656
1789064092604535300,4.582535400390625,5.862801315307617,6.934505833435058,1.3322235862731933
1789064092614572300,4.592572265625,9.529371520233154,5.5273138076782224,0.3274070770263672
1789064092624608300,4.602608154296875,10.702979246520995,4.828955110931396,0.14425065002441406
1789064092634645200,4.612645263671875,9.183110105133055,5.14573791809082,0.5512649322509765
1789064092644682200,4.62268212890625,6.479008967590332,5.636698896026611,1.1641805572509765
1789064092654719200,4.63271923828125,6.129904438018799,5.45892942276001,1.4317325927734375
1789064092664756200,4.642756103515625,6.45461803817749,5.3776762039184565,1.0839748016357422
1789064092674793200,4.652793212890625,5.417629444122314,6.045359191894531,0.809539436340332
1789064092684830200,4.662830322265625,4.487931011962891,6.714688193511963,1.133205573272705
1789064092694866200,4.6728662109375,5.727828196716308,7.133224571228027,1.4235025245666504
1789064092704903400,4.6829033203125,8.799140013885497,6.539312921905517,1.5744868667602538
1789064092714940400,4.6929404296875,7.586027960205078,8.255506599426269,1.0079588989257813
1789064092724977200,4.70297705078125,9.459640396881102,8.461407942199706,0.3456628646850586
1789064092735014100,4.71301416015625,11.497106009674072,8.878447943878173,0.49724575729370113
1789064092745051100,4.723051025390625,11.88137537612915,9.259874195861816,0.43290158767700193
1789064092755088400,4.73308837890625,12.543372135162352,9.622745384979247,1.0324994659423827
1789064092765124400,4.743124267578125,11.616367179870604,9.09706848297119,1.3314753982543945
1789064092775161300,4.753161376953125,9.6794580368042,8.621520178222656,1.1125555839538575
1789064092785198300,4.7631982421875,9.25134485244751,7.486967866516113,0.8661024505615234
1789064092795235000,4.773235107421875,6.885424699401855,6.371120255279541,0.7592612014770508
1789064092805272000,4.78327197265625,6.762572226715087,5.142146615600586,0.20545242996215818
1789064092815309300,4.793309326171875,7.598747156524658,4.177133708953857,-0.02528875503540039
1789064092825346300,4.80334619140625,4.374655345916747,3.955670055389404,-0.3532943824768066
1789064092835382300,4.81338232421875,2.3705589187622067,3.169174810028076,-0.9165303230285644
1789064092845419300,4.823419189453125,2.1326351287841794,2.9504046333312988,-0.8019079185485839
1789064092855456000,4.8334560546875,1.7747019805908202,3.2564135330200195,-1.2165537185668944
1789064092865493200,4.8434931640625,2.107346373748779,3.462913426208496,-1.4959271247863768
1789064092875530200,4.8535302734375,3.6994904777526854,4.245967006683349,-1.8505682456970214
1789064092885567200,4.863567138671875,4.743362401580811,6.028599780273437,-2.2948422912597657
1789064092895604200,4.873604248046875,8.105270445251465,7.152976734924316,-3.149273008728027
1789064092905640200,4.88364013671875,10.921599785614013,7.722048542022705,-3.3846529594421386
1789064092915677200,4.89367724609375,10.774805296325683,8.104372619628906,-2.62374574432373
1789064092925714200,4.903714111328125,10.114005638122558,8.26687905731201,-2.177825685119629
1789064092935751200,4.913751220703125,9.447519750976562,8.883385984802246,-2.4699182876586914
1789064092945788200,4.9237880859375,9.203760094451903,10.08123500289917,-2.784606168365478
1789064092955825400,4.933825439453125,10.162787496948242,8.658181391143799,-2.1492449028015135
1789064092965861400,4.943861328125,8.423549628448486,7.644536263275146,-1.3896844261169432
1789064092975898400,4.9538984375,7.282562899780273,7.539490665435791,-1.6587328376770019
1789064092985935000,4.96393505859375,5.7207952293396,6.246023218536377,-1.4936825607299804
1789064092995972000,4.97397216796875,3.6592379623413085,7.108684004211425,-1.3112743217468261
1789064093006009000,4.984009033203125,0.3989338516235351,5.862801315307617,-1.3563152404785155
1789064093016046300,4.99404638671875,3.08358210067749,2.3228245231628417,-2.311751340484619
1789064093026083300,5.004083251953125,7.998279558563232,3.3897406379699704,-1.3328221366882322
1789064093036119300,5.014119384765625,6.12885697479248,5.3467012199401855,-1.2770073104858397
1789064093046156300,5.02415625,5.309291819000244,5.63744708404541,-1.33431851272583
1789064093056193000,5.034193115234375,8.490886550140381,6.384886914825439,-1.3254898941040039
1789064093066230300,5.044230224609375,9.886107567596435,7.772476414489746,-1.608903515625
1789064093076267300,5.054267333984375,9.756970315551758,9.617657706451416,-1.6283564041137695
1789064093086304300,5.06430419921875,9.798868844604492,10.588656117248535,-1.4915876342773438
1789064093096341200,5.07434130859375,10.02437271347046,10.142885695648193,-1.2310685661315917
1789064093106377200,5.084377197265625,10.308983435821533,8.805424793243407,-0.5597942756652832
1789064093116414200,5.094414306640625,10.094552749633788,7.759158667755126,0.16280571289062498
1789064093126451200,5.104451171875,8.98214680328369,6.6133835357666015,0.4632780212402344
1789064093136488200,5.11448828125,5.8259904647827145,6.562207475280761,0.5705681831359863
1789064093146525200,5.124525146484375,6.00794979095459,5.483469989776611,0.5565022483825683
1789064093156562400,5.1345625,6.789955908203124,5.142745166015625,0.9130886581420898
1789064093166599200,5.14459912109375,4.396352798461914,5.677400324249267,0.9968857162475585
1789064093176635400,5.154635498046875,3.5748423538208005,5.2916345817565915,1.5907973655700682
1789064093186672000,5.164672119140625,4.703858074188232,4.837933367156982,2.544138539123535
1789064093196709000,5.174709228515625,6.574178483581543,4.957643450164794,4.266766633605957
1789064093206746000,5.18474609375,7.968800950622558,5.665130040740967,6.521954959869384
1789064093216783400,5.194783447265625,7.020996368408203,6.343736573791504,6.088155546569824
1789064093226820400,5.2048203125,6.197690272521973,7.518990313720702,4.097676141357422
1789064093236857000,5.214857177734375,8.671199862670898,7.802254297637939,3.3749265151977537
1789064093246893000,5.22489306640625,12.54471887359619,7.153276010131836,3.548955048370361
1789064093256930000,5.234929931640625,11.768398985290526,7.388356685638428,3.4485482162475583
1789064093266967300,5.24496728515625,7.45045629119873,8.65099878616333,3.5660137351989745
1789064093277004300,5.25500439453125,9.073874654388428,8.054244022369383,4.1195232315063475
1789064093287041300,5.265041259765625,9.279476721954346,6.7948939491271965,3.289782718658447
1789064093297078000,5.275078125,6.677428430175781,6.612934622955322,2.4769512550354
1789064093307114200,5.2851142578125,4.746055878448486,6.685957773590087,2.0536264739990235
1789064093317151200,5.295151123046875,3.4754829849243163,5.496638098907471,1.1953051788330078
1789064093327188200,5.305188232421875,6.461651005554199,3.5597289558410643,0.7480383811950683
1789064093337225200,5.31522509765625,5.244349098968506,4.440196616363525,0.20006547622680662
1789064093347262200,5.32526220703125,3.489548919677734,4.182969575500488,0.6296750366210937
1789064093357299200,5.33529931640625,5.180753117370605,3.151816847991943,1.089212117767334
1789064093367336200,5.345336181640625,8.443900342559814,4.010886331176757,0.9440636421203613
1789064093377372200,5.3553720703125,8.616432499694824,4.479700943756103,0.7863456077575683
1789064093387409200,5.3654091796875,9.291148455047606,4.892102179718017,0.5406406623840332
1789064093397446100,5.375446044921875,9.153930772399901,6.046406655120849,-0.6584054565429687
1789064093407483100,5.385483154296875,8.166023312377929,6.9147536697387695,-1.399560507965088
1789064093417520400,5.395520263671875,10.206930590057372,7.646032639312744,-2.112583689880371
1789064093427557000,5.40555712890625,11.904419567108153,7.284957101440429,-2.020706201171875
1789064093437594000,5.415593994140625,11.009586696624755,6.942586264038085,-1.0447697494506836
1789064093447630000,5.425630126953125,9.053972853088379,7.129184355926514,-0.4993406837463379
1789064093457667000,5.4356669921875,6.095936701965332,7.614758380126952,-0.7062894897460937
1789064093467704300,5.445704345703125,7.200711130523681,6.225822142028808,-1.133804123687744
1789064093477741300,5.4557412109375,7.338078450775146,5.481973613739013,-1.555782166290283
1789064093487778300,5.4657783203125,6.74820701675415,4.964826055145263,-1.9783587593078613
1789064093497815000,5.47581494140625,5.8940755744934075,4.765059854125976,-1.9653402877807615
1789064093507851000,5.48585107421875,5.411643939971923,4.858284081268311,-2.407968319702148
1789064093517888300,5.49588818359375,5.149628495788574,5.040243407440185,-2.738218511199951
1789064093527925200,5.50592529296875,6.121225457000732,5.064783974456787,-3.197157041931152
1789064093537962200,5.515962158203125,8.428936582183837,5.277419009399414,-3.1811458183288575
1789064093547999200,5.525999267578125,8.272266011047362,6.230610545349121,-3.4605192245483396
1789064093558036200,5.5360361328125,8.375964870452881,6.784120041656494,-3.1132103462219236
1789064093568073200,5.5460732421875,9.376741164398192,6.842777982330322,-3.1543606872558594
1789064093578109200,5.556109130859375,8.324339897155761,7.896077075195312,-3.0629321113586423
1789064093588146200,5.566146240234375,7.911938661193847,8.468440909576415,-3.6270658775329587
1789064093598183200,5.57618310546875,9.92755718383789,8.385990589904784,-5.696853212738037
1789064093608220200,5.58622021484375,10.20827732849121,7.612962728881835,-5.52207649154663
1789064093618257400,5.59625732421875,7.276577395629882,7.290493692779541,-4.420743727874756
1789064093628294100,5.606294189453125,6.794145761108398,6.800729815673828,-4.045452617645264
1789064093638331100,5.6163310546875,5.20304912033081,6.897994258117675,-2.49011936416626
1789064093648367000,5.6263671875,1.5487491989135742,6.766762079620361,-1.208473287963867
1789064093658404000,5.636404052734375,0.6705261024475098,4.240430415344238,-2.589329095458984
1789064093668441300,5.64644140625,6.090100835418701,3.2763153343200684,-5.7417444938659665
1789064093678478300,5.656478271484375,8.564657888793946,4.1115924385070795,-6.2678703086853025
1789064093688515000,5.66651513671875,6.180781223297119,5.143194078826904,-2.9225720390319823
1789064093698552000,5.676552001953125,5.653607945251465,5.238513232421875,-2.3101053268432614
1789064093708589300,5.68658935546875,6.134692841339111,5.618892021179199,-3.239354846191406
1789064093718625300,5.696625244140625,7.442076585388183,6.19903701095581,-4.409820182800293
1789064093728662300,5.706662353515625,9.964667309570311,7.391199800109863,-5.443067836761474
1789064093738699300,5.71669921875,10.068066893768309,7.639298947143554,-5.203647670745849
1789064093748736500,5.726736572265625,8.503007196044921,8.213608070373535,-2.9563901374816894
1789064093758773800,5.736773681640625,4.153640605163574,7.940070530700683,-1.7438766342163086
1789064093768810800,5.746810791015625,5.65031591796875,8.045415403747558,-2.628384510040283
1789064093778846700,5.7568466796875,6.431723484802245,6.011840368652344,-3.3221044410705565
1789064093788883700,5.7668837890625,6.316502529907226,5.079897372436523,-3.0582933456420895
1789064093798920700,5.776920654296875,7.553855875396728,4.148852201843262,-2.1184195564270016
1789064093808957700,5.786957763671875,6.772298670959472,4.118625405883789,-1.7782932830810545
1789064093818994700,5.79699462890625,5.198709629821777,4.813093524932861,-1.521365517425537
1789064093829031700,5.80703173828125,4.2880151733398435,5.952284602355957,-0.5732616600036621
1789064093839068700,5.817068603515625,7.713369561004638,5.672013370513915,-0.46507367248535153
1789064093849104600,5.827104736328125,12.435184147644042,4.975300687408447,-0.42317514343261714
1789064093859142000,5.837141845703125,8.52290899734497,7.195922727203369,-0.5505167442321777
1789064093869179000,5.847178955078125,3.6510078941345214,9.417741867828369,-0.6075286712646484
1789064093879215600,5.857215576171875,8.602366564941406,9.632322191619872,-0.06778583450317383
1789064093889252600,5.867252685546875,12.269984233093261,7.464821501159667,-0.3124433166503906
1789064093899289600,5.87728955078125,10.273968236541748,7.96131907043457,0.2551321144104004
1789064093909325600,5.88732568359375,8.796446537017822,7.982717247772216,0.7143699203491211
1789064093919362800,5.89736279296875,6.716633482360839,7.480234174346923,0.4964975692749023
1789064093929399800,5.90739990234375,6.108057347869873,6.857143192291259,0.8268973983764648
1789064093939436800,5.917436767578125,6.648847647857665,5.524321055603027,1.3034931663513183
1789064093949473500,5.9274736328125,7.332990772247314,4.528333164978027,0.9977835418701171
1789064093959510800,5.9375107421875,5.723638343811035,5.983858136749268,0.2991255699157715
1789064093969547800,5.9475478515625,1.0541969184875488,7.696759786987304,-1.1305120964050293
1789064093979583700,5.957583740234375,2.1535843933105467,4.302081108093262,0.6015431671142578
1789064093989620700,5.967620849609375,14.200458959197997,1.4631564895629883,3.97736750793457
1789064093999657700,5.97765771484375,15.825074423217773,5.359570053863525,1.3000515014648437
1789064094009694700,5.98769482421875,9.253439778900146,8.345289161682128,1.7717092285156248
1789064094019731700,5.997731689453125,11.876287697601319,7.940968356323242,1.2017395957946777
1789064094029768700,6.007768798828125,14.647276844024658,8.325387360382079,0.15128361740112303
1789064094039805700,6.0178056640625,10.280552291107178,9.209147048187255,0.2262520568847656
1789064094049841700,6.027841552734375,10.818050563812255,10.63594160003662,0.7570166374206543
1789064094059879000,6.03787890625,10.033051694488524,9.727491707611083,-0.2702455123901367
1789064094069915600,6.04791552734375,6.654234601593017,8.47801771621704,-1.3555670524597168
1789064094079952600,6.05795263671875,7.529614583587646,7.345859606170654,-2.1902456062316893
1789064094089989600,6.06798974609375,9.771185887908935,4.435857125854492,-1.8842367065429686
1789064094100026600,6.078026611328125,7.901464028930664,3.9731776550292968,-1.2051812606811523
1789064094110062600,6.0880625,5.203647670745849,5.391742138671875,-0.6874351516723632
1789064094120099800,6.098099853515625,3.871872997283935,4.429273071289062,-0.14021043472290037
1789064094130136800,6.10813671875,4.785410568237304,2.7742811737060546,0.3919008842468262
1789064094140173600,6.118173583984375,3.395875779724121,5.218761068725586,-0.5614402893066406
1789064094150210600,6.12821044921875,1.8204910873413085,6.170755503845214,-1.8881272842407226
1789064094160247800,6.138247802734375,3.8030396995544433,4.726602989959717,-1.8576012130737303
1789064094170284800,6.148284912109375,5.284003063964843,5.61859274597168,-2.1025579704284665
1789064094180320800,6.15832080078125,7.2237553215026855,5.906794770812988,-1.8460791175842284
1789064094190357800,6.168357666015625,11.329212618255614,4.783016366577148,-1.2358569694519042
1789064094200394800,6.178394775390625,10.827178457641601,6.021117900085449,-0.79801734085083
1789064094210431700,6.188431640625,7.222857495880127,7.259967621612549,0.08634089736938476
1789064094220468700,6.19846875,6.425289067840576,8.007706727600096,0.6853402252197265
1789064094230505700,6.208505615234375,8.921992486572265,8.549694128417968,-0.017357962036132813
1789064094240541700,6.218541748046875,8.273163836669921,7.287800215911865,-1.9029414070129393
1789064094250578700,6.22857861328125,8.986336656188964,6.840683055877685,-2.3412299484252928
1789064094260616000,6.238615966796875,7.387159584808349,6.356006857299804,-2.7703905960083004
1789064094270652700,6.248652587890625,7.3469070693969725,5.9115831741333,-2.09402862701416
1789064094280689700,6.258689697265625,7.32939946975708,5.181052392578125,-0.31274259185791015
1789064094290726700,6.2687265625,7.002590943145751,5.256020832061767,1.0248679481506346
1789064094300763600,6.278763671875,6.6425628684997555,5.304054502868652,1.8598457771301269
1789064094310799600,6.288799560546875,5.823745900726318,6.061819328308105,1.8662801940917968
1789064094320836900,6.2988369140625,6.873004778289794,6.353612655639648,1.3395558288574219
1789064094330873600,6.30887353515625,6.763470052337646,6.439355002593993,1.4018050720214843
1789064094340910600,6.31891064453125,3.5332430999755857,7.787589812469482,0.928950244140625
1789064094350947600,6.328947509765625,5.399224018859863,7.748534397888183,0.22939444656372068
1789064094360984800,6.33898486328125,9.086444213104247,6.739677673339843,-0.18779519271850584
1789064094371020800,6.349020751953125,6.375609383392334,7.170334696960449,0.09083002548217772
1789064094381057800,6.359057861328125,3.893869725036621,8.824877681732177,0.4617816452026367
1789064094391094800,6.3690947265625,7.862857527160644,6.8590884811401365,1.4627075767517088
1789064094401131500,6.379131591796875,12.094459323883056,4.564246189880371,1.6111480796813964
1789064094411168800,6.389168701171875,10.567706852722168,5.716455738830566,1.004217958831787
1789064094421205800,6.399205810546875,6.481702444458008,7.179462590789795,0.5759551368713378
1789064094431242800,6.40924267578125,5.016600666046142,6.5397618347167965,0.25363573837280273
1789064094441278700,6.41927880859375,4.806808745574951,6.581660363769531,-0.4538508522033691
1789064094451315700,6.429315673828125,5.369446135711669,6.177938108825683,-0.9068038787841797
1789064094461352700,6.439352783203125,5.7234887062072755,6.444442681121826,-1.5037082801818846
1789064094471389700,6.4493896484375,6.216843885803223,5.645078601837158,-0.6132149002075195
1789064094481426700,6.4594267578125,5.9498904006958,5.890633909606933,0.31573534393310543
1789064094491463700,6.469463623046875,8.991125059509276,5.250334603118896,0.47584757995605464
1789064094501499600,6.479499755859375,10.107870496368408,5.061491947174072,0.19916765060424804
1789064094511536600,6.48953662109375,9.648483052825927,5.94375525894165,-0.31708208236694335
1789064094521574000,6.499573974609375,6.898443170928955,7.4131965278625485,-0.5784989761352539
1789064094531610600,6.509610595703125,6.5671455162048336,7.921814743041992,-0.8622118728637694
1789064094541647600,6.519647705078125,6.48589229736328,7.842656450653076,-1.0320505531311035
1789064094551684600,6.5296845703125,9.676764559936522,7.015609414672851,-1.4040496360778807
1789064094561721900,6.539721923828125,10.249876582336425,6.5020531585693355,-1.0564414825439452
1789064094571757800,6.5497578125,8.59967308807373,6.7191773216247555,-0.7631517791748046
1789064094581794800,6.559794921875,7.490559169006347,6.6510922119140625,-0.12554594955444334
1789064094591831800,6.569831787109375,6.906673239135742,6.253654736328125,0.26605565948486326
1789064094601868500,6.57986865234375,8.124573696136475,6.112396838378906,0.17477672119140625
1789064094611905800,6.58990576171875,8.894010254669189,5.249885690307617,0.5244798011779784
1789064094621942800,6.59994287109375,6.246771406555175,6.346729325866699,0.5515642074584961
1789064094631978800,6.609978759765625,5.014206464385986,7.242460021972656,0.24510639495849607
1789064094642015700,6.620015625,8.022221575164794,5.858461824798583,0.31648353195190426
1789064094652052700,6.630052734375,8.219743212127685,5.906345858001709,0.2518400871276855
1789064094662089700,6.64008984375,7.9934911552429195,6.978499288940429,0.08858546142578125
1789064094672126700,6.650126708984375,7.5804913688659665,6.276848564910888,0.8243535591125488
1789064094682163700,6.660163818359375,5.921309618377685,7.375637489318847,0.8476970252990722
1789064094692200700,6.67020068359375,6.813000099182129,7.076661557006836,0.9077017044067383
1789064094702236700,6.680236572265625,9.248801013183593,5.723039793395996,1.0556932945251465
1789064094712273700,6.690273681640625,8.183081999206543,5.785139398956298,1.1130044967651367
1789064094722310700,6.700310546875,7.228543724822997,6.4190042884826655,1.0431237358093262
1789064094732347600,6.71034765625,9.679308399200439,4.915445645904541,0.9642647186279296
1789064094742384600,6.720384521484375,9.847800341033935,4.961683665466309,0.3930979850769043
1789064094752421000,6.730421142578125,7.265953125762939,5.960365032958984,-0.11552023010253906
1789064094762457000,6.74045703125,5.981015022277831,6.872555865478515,-0.2832639839172363
1789064094772494000,6.750494140625,8.016236071014404,6.283282981872558,-0.02558803024291992
1789064094782531000,6.760531005859375,9.455001631164551,5.9947816818237305,0.31663316955566406
1789064094792568300,6.770568359375,7.885901718139648,6.970269220733642,0.4445733207702636
1789064094802605000,6.78060498046875,7.860014412689209,7.038952880859375,0.011073182678222656
1789064094812642000,6.79064208984375,7.818864071655273,6.699275520324707,-0.4736030158996582
1789064094822679000,6.800678955078125,7.0102224609374995,6.903680487060546,-1.0639233627319336
1789064094832715000,6.810715087890625,7.3091983932495115,6.235398948669433,-0.9388263259887695
1789064094842752000,6.820751953125,5.4884080307006835,6.270264510345458,-0.4128501487731933
1789064094852789200,6.830789306640625,5.559934805297852,6.544400600433349,-0.18570026626586913
1789064094862826000,6.840825927734375,8.508992700195313,4.856638067626953,0.28057050704956055
1789064094872863000,6.850863037109375,7.412747615051269,5.797858595275879,-0.03860650177001953
1789064094882900000,6.86089990234375,6.7550903465270995,6.5038488098144525,0.003591302490234375
1789064094892936000,6.87093603515625,7.114968783569336,6.0619689659118645,0.0948702407836914
1789064094902973200,6.88097314453125,7.5451768943786615,6.899789909362792,-0.23687632675170897
1789064094913010200,6.89101025390625,8.4145713722229,6.5303346656799315,-0.3990834892272949
1789064094923047200,6.901047119140625,8.508992700195313,6.881983034515381,-1.1903671379089356
1789064094933084000,6.911083984375,5.759252093505859,8.246827618408203,-1.7161936775207518
1789064094943121200,6.92112109375,7.395838565826415,7.467066065216064,-1.6539444343566894
1789064094953158100,6.931158203125,8.472630762481689,6.806116769409179,-0.9035118515014647
1789064094963194000,6.941194091796875,8.082226254272461,6.592284633636474,0.007930792999267577
1789064094973231000,6.951231201171875,5.897966152191162,6.480804618835449,0.3010708587646484
1789064094983268000,6.96126806640625,5.922057806396484,6.85011022491455,-0.21293431015014647
1789064094993305000,6.97130517578125,9.063400022125244,4.82012649230957,-0.4999392341613769
1789064095003342000,6.981342041015625,7.744793457794189,5.3956327163696285,-0.6429927833557129
1789064095013379000,6.991379150390625,5.163095880126953,6.610839696502685,-0.7314286071777343
1789064095023415000,7.0014150390625,4.734384145355224,6.917746421813964,-0.36227263870239257
1789064095033452000,7.0114521484375,7.302015788269043,6.243629016876221,-0.003441664886474609
1789064095043489000,7.021489013671875,9.170989459228515,6.0395233253479,0.14918869094848633
1789064095053526300,7.0315263671875,7.707683332061767,6.806416044616699,0.08798691101074219
1789064095063563000,7.04156298828125,5.553051475524902,7.834276744842529,0.025139117431640625
1789064095073600000,7.05160009765625,6.766762079620361,7.360374453735351,0.00852934341430664
1789064095083636000,7.061635986328125,9.897779300689697,6.106261696624755,0.17956512451171874
1789064095093673000,7.0716728515625,10.212916094207763,6.393116983032226,0.08529343414306641
1789064095103710200,7.081710205078125,11.232247451019287,6.395810459899902,-0.0013467384338378906
1789064095113747200,7.091747314453125,8.365340600585936,6.787561706542968,-0.12599486236572266
1789064095123784200,7.1017841796875,5.351339985656738,8.390629355621337,-0.1345242057800293
1789064095133821000,7.111821044921875,4.839878656005859,7.909694097137451,0.493504817199707
1789064095143858200,7.121858154296875,8.246977256011963,6.807313870239257,0.824203921508789
1789064095153894100,7.13189404296875,9.221267694091797,5.729025297546387,1.0685621284484863
1789064095163931100,7.14193115234375,5.533000036621093,7.021744556427001,0.802506468963623
1789064095173968100,7.151968017578125,5.48376926498413,6.3842883644104,0.7131728195190429
1789064095184005000,7.162005126953125,6.1361892173767085,5.374384176635742,0.7751227874755859
1789064095194042000,7.1720419921875,6.602310353088378,5.700594152832031,0.6953659446716308
1789064095204079000,7.1820791015625,6.801178728485107,5.072864405059814,0.9540893615722655
1789064095214115000,7.192114990234375,5.632359405517578,5.796062944030761,0.6606500205993652
1789064095224152000,7.202152099609375,4.881178634643555,6.392668070220947,0.2838625343322754
1789064095234189000,7.21218896484375,4.480598769378662,6.62026686553955,0.3067570877075195
1789064095244226000,7.22222607421875,8.143727309417724,6.054786360931396,0.18106150054931638
1789064095254263000,7.232262939453125,9.194482563018799,5.542876118469238,0.20096330184936523
1789064095264300000,7.242300048828125,7.954286103057861,6.853102976989746,0.34102409896850583
1789064095274337000,7.2523369140625,7.55265877456665,6.891410203552246,0.8620622352600097
1789064095284373000,7.262373046875,10.237007748413085,6.21819062423706,0.6522703147888184
1789064095294410000,7.272409912109375,9.565284545135498,6.243180104064941,0.38352117843627925
1789064095304447200,7.282447265625,7.393893276977539,7.358728440093993,-0.462829108428955
1789064095314484200,7.292484130859375,6.758532011413574,6.947673942565918,-0.4955997436523437
1789064095324521000,7.30252099609375,8.49133546295166,6.105513508605957,-0.40402153015136716
1789064095334558000,7.312557861328125,8.744372650909423,5.155913275146484,0.050128597259521485
1789064095344594000,7.322593994140625,6.605901655578613,5.985354512786865,0.296881005859375
1789064095354631200,7.332631103515625,6.848164936065674,5.395782353973388,0.40177696609497066
1789064095364668200,7.342668212890625,8.139088543701172,5.050718039703368,0.13332710494995118
1789064095374705200,7.352705078125,8.74676685256958,4.940584763336181,0.14290391159057617
1789064095384742100,7.3627421875,6.9798460273742675,5.810727429199218,-0.17612345962524412
1789064095394779100,7.372779052734375,6.02665449142456,6.6893994384765625,-0.3904045082092285
1789064095404815000,7.382815185546875,6.111349375152588,6.966079367828368,-0.6079775840759277
1789064095414852000,7.39285205078125,8.122628407287598,6.9972039894104,-1.2427402992248535
1789064095424889000,7.40288916015625,8.19026460418701,7.238120531463623,-1.1284171699523926
1789064095434926000,7.412926025390625,8.020425923919678,7.398831317901611,-0.4107552223205566
1789064095444963000,7.422963134765625,7.349301271057128,7.376834590148925,0.35179800643920894
1789064095455000000,7.433,7.356783151245117,7.36112264175415,0.5850830307006836
1789064095465036000,7.4430361328125,10.116998390197754,5.546317783355713,0.24271219329833982
1789064095475073000,7.453072998046875,7.850736881256103,5.903053830718994,-0.7433996154785156
1789064095485110000,7.463110107421875,5.285499440002441,7.088782202911377,-1.138293251800537
1789064095495147000,7.47314697265625,6.129156249999999,5.720196678924561,-0.5312134933471679
1789064095505184300,7.483184326171875,7.729081509399413,5.397578005218506,-0.579696076965332
1789064095515221000,7.493220947265625,4.6164697135925294,6.243629016876221,0.03516483688354492
1789064095525258000,7.503258056640625,3.418171782684326,6.699275520324707,-0.2941875289916992
1789064095535294000,7.5132939453125,7.5342533493041985,5.338920064544677,-0.5651812294006348
1789064095545331000,7.5233310546875,9.808146376037596,4.556465034484863,-0.9228151023864746
1789064095555368200,7.5333681640625,8.320299681854248,5.688024594116211,-0.7230489013671875
1789064095565405200,7.5434052734375,5.737853916168213,6.449829634857178,-0.19422960968017577
1789064095575442200,7.553442138671875,6.519860033416748,6.730250504302978,-0.08559270935058594
1789064095585479000,7.56347900390625,8.192359530639648,6.719326959228515,-0.5992986030578613
1789064095595515100,7.57351513671875,10.453982273864746,6.3329626663208005,-0.303913973236084
1789064095605552000,7.58355224609375,8.289025422668457,7.067982575988769,0.4996399589538574
1789064095615589000,7.593589111328125,6.725761376190185,8.212560607147216,0.8632593360900879
1789064095625626000,7.603626220703125,7.170334696960449,7.065438736724853,1.2319663917541503
1789064095635663000,7.6136630859375,6.036530573272705,6.953809084320068,0.44277766952514647
1789064095645700000,7.6237001953125,8.291269986724853,6.350769541168212,-0.7661445312499999
1789064095655736300,7.633736328125,9.146448892211913,5.200056368255615,-1.3863923988342284
1789064095665773000,7.64377294921875,6.373664094543456,5.974430967712402,-1.648557480621338
1789064095675810000,7.65381005859375,4.400692288970947,6.679373719024658,-1.2177508193969726
1789064095685847000,7.663846923828125,7.179163315582275,6.013187107086181,-0.762253953552246
1789064095695884000,7.673884033203125,8.343194235229491,5.918616141510009,-0.8171709541320801
1789064095705921300,7.68392138671875,6.30094021911621,7.464522225952148,-0.9063549659729003
1789064095715958000,7.6939580078125,5.6958057495117185,8.046163591766357,-0.6476315490722656
1789064095725994000,7.703993896484375,7.307702017211914,7.368305246734619,-0.050727147674560547
1789064095736031000,7.714031005859375,8.234108422088623,7.185148819732666,0.5104138664245605
1789064095746068000,7.72406787109375,8.872163164520263,6.661566844177246,0.3238157745361328
1789064095756105200,7.734105224609375,10.165331336212157,6.434865874481201,-1.186177285003662
1789064095766142200,7.74414208984375,10.843488956451415,6.381744525146484,-2.45181213760376
1789064095776179200,7.75417919921875,7.709030070495605,6.836193927764892,-3.182642194366455
1789064095786215400,7.76421533203125,4.076427601623535,8.551190504455565,-3.1857845840454098
1789064095796252200,7.774252197265625,5.37543163986206,7.133673484039306,-2.361431024932861
1789064095806289200,7.7842890625,8.309226499176026,6.252008722686767,-1.3418003929138183
1789064095816326100,7.794326171875,7.6282257644653315,5.719448490905761,-0.6031891807556152
1789064095826363400,7.80436328125,6.317549993133545,5.717503202056885,-0.025139117431640625
1789064095836400400,7.814400390625,4.464288270568847,5.841103862762451,-0.589272883605957
1789064095846436400,7.824436279296875,4.693084166717529,5.702988354492187,-1.3383587280273437
1789064095856473000,7.83447314453125,8.040178087615967,4.300584732055664,-1.710357810974121
1789064095866510000,7.844510009765625,10.01778865890503,3.982006273651123,-1.4528314949035643
1789064095876547000,7.854547119140625,7.542633055114746,5.681590177154541,-1.5152303756713865
1789064095886584300,7.864584228515625,6.002562837219238,6.615328824615478,-1.0896610305786132
1789064095896621300,7.874621337890625,4.3537060813903805,7.149086157226562,-1.0785878479003905
1789064095906657300,7.8846572265625,4.573972634124756,7.8016557472229,-1.1133037719726562
1789064095916694300,7.8946943359375,9.833884043884277,6.713491092681885,-0.4704606262207031
1789064095926731000,7.90473095703125,10.703577796936035,5.931933888244629,0.02319382858276367
1789064095936768300,7.914768310546875,9.368511096191405,6.836343565368652,0.26830022354125976
1789064095946805200,7.92480517578125,7.533804436492919,7.274033556365966,-0.13482348098754882
1789064095956842200,7.93484228515625,9.777769942474364,6.701071171569824,-0.5466261665344238
1789064095966878200,7.944878173828125,9.903615167236328,6.185719264221191,-0.6172551155090331
1789064095976915200,7.954915283203125,7.204302433013916,7.489212430572509,-0.49739539489746093
1789064095986952200,7.9649521484375,5.0094180610656736,7.787140899658203,0.02259527816772461
1789064095996989200,7.9749892578125,5.371391424560547,6.880337020874023,0.11821370697021484
1789064096007026200,7.985026123046875,6.477961504364013,6.052990709686279,-0.16983868026733398
1789064096017063200,7.995063232421875,6.641814680480957,5.506663818359375,-0.4765957679748535
1789064096027100400,8.005100341796876,8.69514187927246,4.751442832183837,-0.6031891807556152
1789064096037136400,8.015136474609376,9.959729268646239,4.342333623504638,-0.46806642456054687
1789064096047173400,8.02517333984375,8.193855906677246,4.901678986358642,-0.747589468383789
1789064096057210000,8.035210205078124,6.121375094604492,6.449679997253417,-0.5463268913269043
1789064096067247000,8.0452470703125,6.276848564910888,6.8439750831604,-0.28954876327514645
1789064096077284000,8.0552841796875,7.78878691329956,6.7651160659790035,-0.23358429946899412
1789064096087321300,8.0653212890625,6.8195841537475586,7.365911045074462,-0.5814917282104491
1789064096097357300,8.075357421875,7.915529963684081,7.2541317550659175,-0.802506468963623
1789064096107394300,8.085394287109375,8.179341059112549,6.619219402313232,-0.7896376350402832
1789064096117431000,8.09543115234375,8.489240536499024,6.554426319885254,-0.738012661743164
1789064096127468000,8.105468017578126,9.59476315307617,5.726331820678711,-0.596305850982666
1789064096137505300,8.11550537109375,9.30237127532959,5.574000740051269,-0.5265747276306152
1789064096147542300,8.125542236328124,6.581061813354491,6.429778195953369,-0.469862075805664
1789064096157578200,8.135578125,4.108599686431885,7.284807463836669,-0.2654571090698242
1789064096167615200,8.145615234375,6.705111386871337,6.570736818695068,-0.11177929000854492
1789064096177652200,8.15565234375,8.49821879272461,5.994332769012451,0.005985504150390624
1789064096187689200,8.165689208984375,7.485471490478515,6.968623207092285,-0.4149450752258301
1789064096197726200,8.175726318359375,8.484152857971191,6.612485710144043,-0.9320926338195801
1789064096207763200,8.18576318359375,9.432256715393066,6.146065299224853,-1.147870058441162
1789064096217799200,8.195799072265626,7.833079644012451,6.929118879699707,-1.1462240447998047
1789064096227836200,8.205836181640626,6.246472131347656,7.338228088378906,-0.6280290229797363
1789064096237873400,8.215873291015624,6.084863519287109,7.107636540985107,-0.2862567359924316
1789064096247910100,8.22591015625,7.465420051574706,6.720673697662353,-0.19003975677490234
1789064096257947100,8.235947021484375,8.839242891693115,6.202329038238525,-0.09247603912353515
1789064096267984100,8.245984130859375,7.190835048675536,6.4752680274963375,0.143652099609375
1789064096278021000,8.256021240234375,6.8976949829101555,6.366182214355469,0.3016694091796875
1789064096288057300,8.266057373046875,6.805368581390381,6.348076064300537,-0.29433716659545894
1789064096298094300,8.27609423828125,7.923460756683349,5.6860793052673335,-0.639700756072998
1789064096308131300,8.28613134765625,6.841880156707763,6.034136371612549,-0.8903437423706054
1789064096318168000,8.29616796875,6.67189183883667,6.424091967010497,-1.114650510406494
1789064096328205000,8.306205078125,5.0435354347229,6.970568495941162,-0.8753799819946289
1789064096338242300,8.3162421875,6.241234815216064,7.1854480949401855,-0.5776011505126952
1789064096348278300,8.3262783203125,6.19873773574829,6.815543938446044,0.25692776565551756
1789064096358315300,8.336315185546875,7.256825231933593,6.975506536865234,0.25647885284423827
1789064096368352300,8.346352294921875,8.296058390045166,6.3138090530395505,0.027234043884277342
1789064096378389200,8.35638916015625,7.660846762084961,6.494122365570068,0.009427169036865234
1789064096388426200,8.36642626953125,6.6057520179748535,6.504596997833252,0.13871405868530273
1789064096398463200,8.376463134765626,7.472752294158935,6.2301616325378415,0.04504091873168945
1789064096408499200,8.386499267578126,7.580940281677246,5.959317569732666,0.13721768264770506
1789064096418536200,8.3965361328125,4.937292736053466,6.724115362548828,0.26276363220214843
1789064096428573200,8.4065732421875,4.508431363677978,7.406612473297119,-0.019901801300048826
1789064096438610400,8.4166103515625,8.434772448730468,5.725733270263672,0.2624643569946289
1789064096448647200,8.426647216796875,7.679551462554931,6.31410832824707,0.45055882492065424
1789064096458684200,8.43668408203125,8.331073589324951,6.591985358428954,0.44098201828002925
1789064096468720000,8.44672021484375,8.648305309295655,6.525845537567139,0.2793734062194824
1789064096478757000,8.456757080078125,8.928426903533936,7.172130348205566,-0.33309330596923825
1789064096488794400,8.46679443359375,7.329998020172119,7.857620211029052,-0.15158289260864258
1789064096498831400,8.476831298828126,7.743596356964111,8.000973035430908,0.2241571304321289
1789064096508868000,8.4868681640625,8.090157047271727,7.569867098999023,0.5193921226501464
1789064096518905000,8.496905029296874,7.5917141891479485,7.798962270355224,0.3321954803466797
1789064096528941000,8.506941162109374,7.211185762786865,7.236175242614745,-0.3655646659851074
1789064096538978000,8.51697802734375,8.352471766662598,7.136217323303223,-1.5875053382873534
1789064096549015300,8.527015380859375,11.335048484802245,5.514444973754882,-1.6295535049438477
1789064096559052300,8.53705224609375,9.111583330535888,5.993434943389892,-1.449838742828369
1789064096569089300,8.54708935546875,6.024858840179443,7.00393768157959,-1.0488099647521971
1789064096579126000,8.5571259765625,5.378574029541015,7.087136189270019,-1.0262146865844726
1789064096589163300,8.567163330078126,8.959252249908447,6.187963828277588,-1.32788409576416
1789064096599199200,8.57719921875,7.129633268737792,6.344484761810302,-1.3290811965942382
1789064096609236200,8.587236328125,4.914547820281983,7.471405555725097,-1.5469535476684568
1789064096619273200,8.597273193359374,6.514772354888915,6.1002761924743645,-1.4694412689208984
1789064096629310200,8.607310302734374,6.374113007354736,6.080374391174316,-1.2388497215270995
1789064096639347200,8.61734716796875,8.526051387023925,4.912602531433105,-0.6147112762451171
1789064096649384200,8.62738427734375,9.310302068328857,4.366126002502441,-0.41359833679199215
1789064096659420200,8.637420166015625,7.23363140335083,5.608417388916015,-0.8617629600524902
1789064096669457200,8.64745703125,7.56522833328247,6.103119306945801,-1.2387000839233397
1789064096679494100,8.657494140625,9.300725261688232,5.261707061004638,-1.357362703704834
1789064096689531400,8.667531494140626,7.5445783439636225,6.771700120544433,-1.6329951698303222
1789064096699568400,8.677568359375,5.852476320648193,7.828740153503418,-1.2976572998046874
1789064096709605000,8.687605224609374,7.225999885559082,7.1692872337341305,-1.27042325592041
1789064096719641000,8.69764111328125,10.090213259124756,5.998223346710205,-1.1852794593811034
1789064096729678000,8.707677978515624,7.445667887878417,6.5385647338867185,-0.8780734588623046
1789064096739715000,8.717715087890625,6.311863764190673,6.583306377410889,-1.1572972274780273
1789064096749752300,8.72775244140625,6.969371395111083,5.129726694488525,-0.972943699645996
1789064096759789300,8.737789306640625,5.832275244140624,5.559934805297852,-1.3940239166259765
1789064096769826300,8.747826416015625,5.577442404937744,5.12643466720581,-1.1234791290283201
1789064096779862500,8.757862548828125,6.062417878723144,4.765508766937256,-0.3188777336120605
1789064096789899300,8.767899169921876,5.8551697975158685,5.166387907409668,0.14514847564697264
1789064096799936300,8.777936279296876,5.34984360961914,5.340266802978515,0.28266543350219725
1789064096809973200,8.78797314453125,3.6387376106262206,6.566546965789795,-0.8961796089172362
1789064096820010500,8.798010498046875,7.257723057556152,6.06511135559082,-1.6525976959228514
1789064096830047500,8.808047607421875,10.141090044403075,5.409549013519287,-1.2788029617309569
1789064096840083500,8.81808349609375,8.894608805084228,6.428581095123291,-0.6497264755249023
1789064096850120200,8.8281201171875,6.849212399291992,7.828141603088379,-0.3778349494934082
1789064096860157200,8.8381572265625,8.661174143218993,7.701099277496337,-0.13901333389282225
1789064096870194400,8.8481943359375,10.662726731109618,7.051821714782714,-0.23133973541259764
1789064096880231400,8.8582314453125,10.810568683624266,7.514950098419189,-0.239420166015625
1789064096890268400,8.868268310546876,9.29578722076416,7.722647092437744,0.12210428466796874
1789064096900305200,8.87830517578125,7.123947039794921,7.904606418609618,0.27189152603149414
1789064096910341400,8.88834130859375,6.345232949829101,7.707084781646728,0.4192845657348633
1789064096920378400,8.89837841796875,7.184849544525146,6.54380205001831,0.27997195663452146
1789064096930415400,8.908415283203125,7.857470573425292,6.000767185974121,0.19228432083129882
1789064096940452400,8.918452392578125,8.142829483795165,5.574898565673828,0.6762123313903808
1789064096950489300,8.9284892578125,5.938218667602539,6.0902504730224605,0.7860463325500487
1789064096960526300,8.9385263671875,3.791667241668701,7.303212889099121,0.8764274452209472
1789064096970562600,8.9485625,7.492803733062743,5.804592287445068,1.0154407791137694
1789064096980599300,8.958599365234376,9.045892422485352,5.632060130310058,1.3670891479492187
1789064096990636300,8.96863623046875,6.265925019836425,6.940192062377929,1.5867571502685547
1789064097000673300,8.97867333984375,5.852476320648193,7.313986796569824,1.8493711448669432
1789064097010710300,8.988710205078124,7.268347327423095,6.837241390991211,1.8668787445068358
1789064097020747500,8.99874755859375,7.447463539123535,7.164049917602538,1.7037737564086912
1789064097030783500,9.008783447265625,9.109189128875732,6.881085208892822,1.2988544006347655
1789064097040820500,9.018820556640625,9.632920742034912,6.445190869140625,1.5084966835021971
1789064097050857200,9.028857177734375,7.459584185028076,7.221660395050049,1.4330793312072754
1789064097060894200,9.038894287109375,5.9385179428100585,7.686135517120361,0.8488941261291504
1789064097070931500,9.048931396484376,7.427561737823486,6.78007982635498,0.6751648681640625
1789064097080968400,9.058968505859376,7.958475955963134,5.803844099426269,0.3028665100097656
1789064097091004400,9.06900439453125,7.371896549224853,6.427982544708252,-0.4312555740356445
1789064097101041400,9.07904150390625,8.140884194946288,5.307196892547607,-0.08768763580322265
1789064097111078100,9.089078125,7.306953829193115,5.307346530151367,-0.16699556579589842
1789064097121115400,9.099115478515625,6.686257048797607,5.837662197875976,-0.24016835403442383
1789064097131152400,9.10915234375,6.1441200103759765,5.7146600875854485,-0.27099370040893556
1789064097141189400,9.119189453125,5.969941839599609,6.357203958129882,-0.9133879333496093
1789064097151225300,9.129225341796875,6.966528280639648,6.220584825897216,-1.1513117233276366
1789064097161262300,9.139262451171875,8.365190962982178,6.187215640258788,-1.2780547737121581
1789064097171299600,9.149299560546876,8.37641378326416,6.608445494842529,-1.2286743644714355
1789064097181336300,9.15933642578125,7.855525284576416,6.874052241516113,-0.8973767097473144
1789064097191373300,9.169373291015624,6.011391455841064,7.14399847869873,-0.8385691314697266
1789064097201410300,9.179410400390625,3.028515462493896,8.011148392486572,-1.43008657913208
1789064097211446300,9.1894462890625,5.8654947921752925,6.74820701675415,-1.1095628318786621
1789064097221483300,9.199483154296875,8.20373198852539,4.906766664886474,-0.8792705596923828
1789064097231520500,9.2095205078125,5.877615438079833,5.749675286865234,-0.8589198455810546
1789064097241557200,9.21955712890625,2.9677625953674314,6.368726053619384,-0.8559270935058593
1789064097251594200,9.22959423828125,4.8707040023803705,5.321562102508545,-1.2086229255676268
1789064097261631200,9.23963134765625,7.564480145263672,4.761169276428222,-1.1330559356689451
1789064097271668500,9.24966845703125,8.86767403640747,4.8132431625366205,-0.2711433380126953
1789064097281704400,9.259704345703126,8.226177629089355,5.633257231140137,0.297479556274414
1789064097291741400,9.269741455078124,6.647201634216308,6.504596997833252,0.44981063690185547
1789064097301778400,9.2797783203125,6.788908444976807,7.1592615142822265,0.06584054565429687
1789064097311815200,9.289815185546875,7.290493692779541,7.681646389007568,-1.058536408996582
1789064097321852400,9.299852294921875,15.216947201538085,6.195744983673095,-1.9577087699890137
1789064097331889400,9.309889404296875,19.303699797821043,5.3208139144897455,-1.1004349380493164
1789064097341925400,9.31992529296875,9.700407301330566,9.241019857788086,-1.7775450950622558
1789064097351962400,9.32996240234375,5.922057806396484,8.98319426651001,-1.3409025672912598
1789064097361999400,9.339999267578126,8.704569048309326,9.181613729095458,-1.8308160820007322
1789064097372036400,9.350036376953126,11.687594679260254,7.230339376068115,-2.1260510742187497
1789064097382073300,9.3600732421875,5.697002850341796,7.556998265075683,-1.4968249504089355
1789064097392110300,9.3701103515625,3.3592145668029785,6.85025986251831,-1.4564227973937987
1789064097402146300,9.380146240234374,3.5194764404296874,5.250783515930175,-1.067963578033447
1789064097412183300,9.390183349609375,2.8202199180603027,4.767603693389892,-1.380257257080078
1789064097422220300,9.40022021484375,4.4835915214538575,1.7857751632690428,-1.3826514587402343
1789064097432257500,9.410257568359375,8.69514187927246,1.3914800773620604,-0.960823053741455
1789064097442294300,9.420294189453125,6.1842228881835934,4.116530479431152,-0.7422025146484375
1789064097452331300,9.430331298828126,3.723881407165527,5.411943215179443,-0.5237316131591797
1789064097462367200,9.4403671875,4.591629871368408,5.965901624298096,-0.21891981430053709
1789064097472404200,9.450404296875,6.516867281341552,6.608595132446289,-0.6642413230895996
1789064097482441500,9.46044140625,9.042899670410156,7.229142275238036,-0.4736030158996582
1789064097492478500,9.470478515625,10.23446390914917,9.062951109313964,-0.8936357696533203
1789064097502515200,9.48051513671875,12.656198888397215,8.88099178314209,-1.5900491775512695
1789064097512552200,9.49055224609375,11.737723276519775,8.60565859222412,-1.5746365043640136
1789064097522588200,9.500588134765625,10.86578495941162,9.303867651367186,-1.0363900436401368
1789064097532625400,9.51062548828125,10.41253265762329,7.98032304611206,-0.39668928756713867
1789064097542662400,9.520662353515625,7.555352251434326,7.960121969604492,-0.3886088569641113
1789064097552699400,9.530699462890626,4.748300442504883,7.5074682182312005,-0.20739771881103514
1789064097562736400,9.540736328125,3.949834188842773,6.1942486076354975,-0.22610241928100586
1789064097572773400,9.5507734375,5.4248120491027825,4.6079403701782224,-0.5992986030578613
1789064097582809300,9.560809326171874,5.26080923538208,4.040215301513672,-0.9699509475708007
1789064097592846300,9.570846435546875,6.759130561828613,3.4229601860046386,-0.6929717430114746
1789064097602883300,9.58088330078125,7.6571058219909665,3.6917093223571773,-0.24346038131713865
1789064097612920300,9.59092041015625,7.403769358825683,4.431667272949219,-0.28311434631347654
1789064097622957300,9.600957275390625,6.055384911346435,6.38443800201416,0.21772271347045896
1789064097632994300,9.610994384765625,4.819527941894531,7.841459349822998,-0.3215712104797363
1789064097643030500,9.621030517578125,9.220070593261719,8.070853796386718,-0.5339069702148437
1789064097653067300,9.6310673828125,8.674791165161132,7.822904286956787,-0.7224503509521484
1789064097663104300,9.641104248046876,8.758288948059082,9.085097474670409,-0.7275380294799805
1789064097673141200,9.651141357421874,10.48271269378662,9.603142858886718,-1.1284171699523926
1789064097683178500,9.661178466796875,9.752930100250243,7.568669998168945,-1.0969932731628418
1789064097693215500,9.671215576171875,9.095123194122314,7.183203530883788,-0.5451297904968262
1789064097703252200,9.681252197265625,7.770980038452148,6.705111386871337,-0.28221652069091796
1789064097713288200,9.6912880859375,6.992116310882568,5.8180596717834465,0.1301847152709961
1789064097723325200,9.7013251953125,4.24551809387207,6.405985816955566,0.18136077575683593
1789064097733362400,9.711362548828125,4.5881882064819335,6.270563785552978,0.14739303970336914
1789064097743399400,9.7213994140625,2.520495797729492,6.681169370269775,0.0796072052001953
1789064097753436400,9.7314365234375,2.0389619888305663,4.242824617004394,1.0401309837341308
1789064097763473200,9.74147314453125,6.324582960510254,2.0534768363952636,2.692279766845703
1789064097773509400,9.75150927734375,9.667786303710937,4.025999729156494,0.3308487419128418
1789064097783546000,9.761546142578124,9.708487731933593,5.226093311309814,1.167023671722412
1789064097793583000,9.7715830078125,7.1592615142822265,6.553528494262695,2.0664953079223634
1789064097803620000,9.7816201171875,6.120926181793212,7.5840826713562,1.942745009613037
1789064097813657300,9.7916572265625,7.996783182525634,7.421276958465576,2.6212019050598143
1789064097823694300,9.8016943359375,10.557381858062744,8.435221361541748,3.4932898597717283
1789064097833730300,9.811730224609375,11.053879427337646,9.315689022064209,2.0401590896606443
1789064097843767000,9.82176708984375,8.980351152038574,8.288127597045898,0.8658031753540039
1789064097853804000,9.831803955078126,6.32009383239746,8.231265307617187,0.10414777221679687
1789064097863841300,9.84184130859375,1.0497077903747558,7.8338278320312495,-0.8809165733337402
1789064097873878300,9.851878173828124,3.414879755401611,5.7453357963562,-1.3178583763122558
1789064097883915300,9.861915283203125,12.447155155944824,2.7199627235412596,0.2376245147705078
1789064097893951200,9.871951171875,10.603170964813232,4.221576077270508,1.9445406608581541
1789064097903988200,9.88198828125,5.476736297607421,5.362113893127441,2.5514707817077635
1789064097914025200,9.892025146484375,9.550021509552002,5.361365705108642,1.6527473335266112
1789064097924062200,9.902062255859375,10.062380664825438,6.189160929107666,0.9196727127075195
1789064097934099200,9.91209912109375,7.434445067596435,7.994239343261718,0.3425204750061035
1789064097944136200,9.92213623046875,8.44015940246582,8.523507547760008,-0.5045779998779296
1789064097954172200,9.932172119140626,7.125593053436279,8.161534184265136,-0.713771369934082
1789064097964209400,9.94220947265625,7.471255918121337,9.202413356018067,-0.9949404273986816
1789064097974246100,9.95224609375,9.471461767578125,8.106317908477783,-1.3370119895935058
1789064097984283100,9.962283203125,7.532158422851562,6.56325493850708,-1.043273373413086
1789064097994320100,9.972320068359375,8.22348415222168,6.559065085601806,-0.9527426231384277
1789064098004357000,9.982357177734375,6.075585987854003,5.519083739471435,-0.28057050704956055
1789064098014393300,9.992393310546875,5.718550665283203,5.044582897949218,0.04563946914672851
1789064098024430300,10.002430419921875,6.513126341247558,4.005649015045166,0.14829086532592772
1789064098034467300,10.01246728515625,5.402216770935058,4.339789784240723,-0.45893853073120117
1789064098044504000,10.022504150390626,4.202422463989258,4.368819479370117,-0.6539163284301758
1789064098054541000,10.032541015625,5.251830979156494,3.944297597503662,-0.6121674369812011
1789064098064578300,10.042578369140625,6.357353595733642,5.12643466720581,-0.7826046676635742
1789064098074614300,10.0526142578125,6.724414637756348,5.745036521148681,-1.0347440299987793
1789064098084651300,10.0626513671875,9.542240354156494,5.7974096824645995,-1.3168109130859373
1789064098094688300,10.072688232421875,9.007136283111572,7.021295643615722,-1.5004162528991698
1789064098104725200,10.082725341796875,8.882787434387206,7.92944626083374,-0.7746738746643066
1789064098114762200,10.09276220703125,8.761431337738037,7.561038480377197,-0.014814122772216796
1789064098124799200,10.10279931640625,3.4925416717529294,7.542333779907226,-0.4095581214904785
1789064098134835200,10.112835205078126,4.693383441925048,7.564330507659911,-1.7042226692199707
1789064098144872200,10.1228720703125,8.806921169281006,5.466560940551758,-2.5890298202514646
1789064098154909200,10.1329091796875,9.805303261566161,3.95207875289917,-2.2252608055114744
1789064098164946400,10.142946533203125,9.2182749420166,4.348618402862549,-1.4763245986938476
1789064098174983200,10.152983154296875,8.262090653991699,4.872200378417968,-0.682497110748291
1789064098185020200,10.163020263671875,9.14151085128784,5.580884069824219,0.19318214645385742
1789064098195057200,10.17305712890625,8.610147720336913,6.122272920227051,1.055992569732666
1789064098205093000,10.183093017578125,6.9804445777893065,7.713369561004638,0.7996633544921875
1789064098215130400,10.19313037109375,5.8454433532714845,8.952069644927978,-0.5668272430419922
1789064098225167400,10.20316748046875,6.628048020935058,8.907627276611327,-1.0570400329589844
1789064098235204000,10.2132041015625,8.702773397064208,8.726266500854491,-1.4420575874328612
1789064098245241000,10.223240966796874,9.121758687591552,7.478139247894287,-0.9560346504211426
1789064098255278000,10.233278076171874,4.203320289611816,7.820510085296631,-0.5436334144592285
1789064098265314000,10.24331396484375,4.3631332504272455,7.655160533142089,-0.4444236831665039
1789064098275351300,10.253351318359375,11.241076069641112,3.941155207824707,-0.36062662506103516
1789064098285388300,10.26338818359375,11.496657096862792,4.266766633605957,-0.1322796417236328
1789064098295425300,10.27342529296875,1.4863503181457518,8.598775262451172,-0.40147769088745117
1789064098305462000,10.2834619140625,0.2407669044494629,8.296656940460204,-0.2813186950683594
1789064098315499300,10.293499267578126,3.6165912452697753,4.595819724273682,1.237203707885742
1789064098325535200,10.30353515625,8.499565531158447,3.4796728378295896,1.0417769973754882
1789064098335572200,10.313572265625,8.226327266693115,6.24422756729126,-0.5922656356811523
1789064098345609200,10.323609130859374,5.684134016418457,5.945850185394287,-0.2597708801269531
1789064098355646200,10.333646240234375,4.474762902832031,6.635829176330566,-0.22385785522460935
1789064098365683200,10.34368310546875,14.665532631683348,5.043984347534179,-0.8964788841247558
1789064098375720200,10.35372021484375,25.831191349029538,4.453215087890625,1.1749544647216796
1789064098385756200,10.363756103515625,14.615254396820067,9.858274973297119,0.570119270324707
1789064098395793200,10.373793212890625,6.674884590911865,10.54660795059204,-0.6509235763549804
1789064098405830100,10.383830078125,6.281936243438721,11.177330450439452,-0.7428010650634765
1789064098415867400,10.393867431640626,13.689147267150878,11.045499721527099,-1.8499696952819824
1789064098425904400,10.403904296875,11.509525930786133,9.699958388519287,-0.8577227447509765
1789064098435941000,10.413941162109374,4.670339250946045,8.111106311798094,-0.3028665100097656
1789064098445977000,10.42397705078125,1.1731588134765625,8.110208486175537,-0.08454524612426757
1789064098456014000,10.43401416015625,0.2867056488037109,7.339874102020263,0.04339490509033203
1789064098466051000,10.444051025390625,-0.3372831588745117,5.6483706291198725,-0.5012859725952148
1789064098476088300,10.45408837890625,1.3639467582702636,3.5878608253479003,-1.7673697380065916
1789064098486125300,10.464125244140625,6.463147381591797,-0.1822586013793945,-2.6535236274719236
1789064098496162300,10.474162353515625,3.986196126556396,0.4020762413024902,-1.0507552536010742
1789064098506198300,10.4841982421875,1.3054384552001952,0.4786906944274902,-1.2051812606811523
1789064098516235000,10.494235107421876,6.21789134902954,2.0664953079223634,-0.5576993492126464
1789064098526272300,10.504272216796876,4.928314479827881,4.585644367218017,-1.4196119468688964
1789064098536309200,10.514309326171874,4.7658080421447755,4.633079487609863,-2.334645893859863
1789064098546346200,10.52434619140625,13.488333602905273,6.710947253417968,-2.666691736602783
1789064098556383200,10.53438330078125,10.646565869903563,8.640823429107666,-2.236633263397217
1789064098566419200,10.544419189453125,9.192986186981202,9.678260935974121,-2.2851158470153807
1789064098576456200,10.554456298828125,12.834417274475097,10.838999828338622,-2.064550019073486
1789064098586493200,10.5644931640625,14.072069895172119,10.082731378936767,-1.3871405868530273
1789064098596530200,10.5745302734375,12.91552085571289,8.412626083374024,-0.2768295669555664
1789064098606567200,10.584567138671876,7.773972790527344,9.671676881408692,0.3146878807067871
1789064098616604400,10.5946044921875,6.021267537689209,8.29920077972412,0.6242880828857421
1789064098626640400,10.604640380859376,7.093420968627929,5.809081415557861,0.3458125022888183
1789064098636677400,10.614677490234374,10.519373906707763,4.096778315734863,-0.9653121818542479
1789064098646714000,10.624714111328124,11.244817009735106,3.967192150878906,-0.5696703575134276
1789064098656751000,10.634751220703125,5.631760855102539,5.530905110168456,-0.6200982299804687
1789064098666788000,10.6447880859375,3.010858225250244,6.400748500823974,-0.8595183959960937
1789064098676825300,10.654825439453125,1.1378443389892579,5.664082577514648,-0.3450643142700195
1789064098686861300,10.664861328125,4.667496136474609,4.8132431625366205,1.7277157730102537
1789064098696898300,10.674898193359375,6.627299832916259,6.368576416015625,0.5038298118591308
1789064098706935000,10.68493505859375,5.488258393096923,6.228066706085205,-0.7956231391906737
1789064098716972000,10.694971923828126,5.789927802276611,6.774692872619629,-0.62563482131958
1789064098727009300,10.70500927734375,8.463802143859862,7.340921565246582,-0.8349778289794921
1789064098737046300,10.71504638671875,11.123012000274658,5.352537086486816,-0.49530046844482417
1789064098747082200,10.725082275390625,11.248258674621582,4.553621920013428,-0.771830760192871
1789064098757119000,10.735118896484375,8.208819667053222,6.809857709503174,-1.0446201118469238
1789064098767156000,10.745156005859375,6.124367846679687,6.943484089660644,-1.050904891204834
1789064098777192700,10.755192626953125,6.818087777709961,6.311714126586914,-0.8057984962463378
1789064098787229700,10.765229736328125,1.6871639823913573,7.844302464294433,-0.6579565437316894
1789064098797267000,10.775266845703126,6.112845751190185,5.325751955413818,-0.29867665710449215
1789064098807303000,10.785302978515626,10.072406384277343,3.867533506774902,-0.702847824859619
1789064098817340000,10.79533984375,8.963891015625,3.6655227416992187,-1.2918214332580567
1789064098827377000,10.805376953125,6.113743576812744,5.500229401397704,-0.027832594299316404
1789064098837414000,10.815413818359374,2.061407629394531,7.151330721282958,0.2410661796569824
1789064098847451000,10.825450927734375,3.6091093650817867,6.211307294464111,1.186177285003662
1789064098857488000,10.83548779296875,7.898022364044189,5.087678527832031,1.3967173934936523
1789064098867523800,10.84552392578125,11.522694039916992,6.831854437255859,0.04638765716552734
1789064098877560800,10.855560791015625,11.02559792022705,7.196820552825927,-0.8417115211486816
1789064098887597800,10.865597900390625,9.14225903930664,7.960271607208251,-1.2378022583007813
1789064098897635000,10.875635009765626,6.822427268218994,9.227552473449707,-1.75569800491333
1789064098907671800,10.885671875,10.737395895385742,10.586112277984618,-2.4748563285827636
1789064098917708800,10.895708740234374,14.617947873687744,6.772448308563232,-1.7968483459472655
1789064098927744800,10.905744873046874,9.328408218383789,7.570615287017822,-1.006761798095703
1789064098937781800,10.91578173828125,6.957400386810303,8.61897633895874,-0.8788216468811034
1789064098947819000,10.925819091796875,5.701491978454589,7.064241635894775,-0.9992799179077148
1789064098957856000,10.93585595703125,6.9247793891906735,5.948992575073242,-1.1583446907043455
1789064098967893000,10.94589306640625,4.102464544677734,7.056610118103027,-1.3394061912536621
1789064098977929700,10.9559296875,3.2056863853454587,5.702988354492187,-1.128117894744873
1789064098987966700,10.965966796875,4.403385765838623,3.102137163543701,-0.5641337661743163
1789064098998002700,10.976002685546876,5.2271407745361325,3.586813362121582,-0.5499181938171387
1789064099008040000,10.9860400390625,4.902127899169922,5.183147319030762,-0.5571007987976074
1789064099018077000,10.996076904296874,5.856516535949707,4.25808765258789,-0.0896329246520996
1789064099028114000,11.006114013671874,7.359177352905273,5.12044916305542,0.00613514175415039
1789064099038151000,11.01615087890625,8.961496813964843,6.241534090423584,-0.5566518859863281
1789064099048188000,11.02618798828125,9.751882637023925,6.880785933685302,-0.41629181365966794
1789064099058223900,11.036223876953125,6.150704064941406,7.532158422851562,-0.9521440727233886
1789064099068260900,11.0462607421875,8.979303688812255,9.285761501312255,-1.3102268585205077
1789064099078297900,11.0562978515625,13.01832188949585,9.102006523895263,-1.9336171157836912
1789064099088334800,11.0663349609375,10.755202770233154,6.806715319824218,-1.1558008514404297
1789064099098372000,11.0763720703125,8.387786241149902,8.05065271987915,-0.5825391914367676
1789064099108408800,11.086408935546874,4.6818613464355465,8.154052304077148,-0.7930792999267577
1789064099118444800,11.09644482421875,4.489277750396728,6.934056920623779,-0.30346506042480464
1789064099128481800,11.106481689453124,5.480177962493896,5.602581522369384,0.15382745666503905
1789064099138518800,11.116518798828125,8.648454946899413,3.9477392623901366,0.4821323593139648
1789064099148556000,11.12655615234375,8.096890739440918,4.176385520935058,0.34267011260986324
1789064099158593000,11.136593017578125,5.2748751701354974,5.437980158233643,-0.20575170516967772
1789064099168629800,11.146629638671875,5.0495209388732905,5.332635285186767,0.13901333389282225
1789064099178666000,11.156666015625,9.170690184020996,4.8317982254028315,0.5072714767456055
1789064099188702700,11.16670263671875,8.586056066131592,5.929838961791992,0.11761515655517578
1789064099198739700,11.17673974609375,5.528061995697021,8.096142551422119,-0.18869301834106444
1789064099208777000,11.18677685546875,6.290764862060547,8.346785537719725,-0.51714755859375
1789064099218814000,11.19681396484375,10.813262160491943,7.1038956008911125,-0.7725789482116698
1789064099228851000,11.206850830078125,9.90825393295288,7.204900983428955,-0.7237970893859863
1789064099238887000,11.216886962890625,6.0425160774230955,8.901192859649658,-0.5565022483825683
1789064099248924000,11.226923828125,6.9342065582275385,7.4491095527648925,-0.3660135787963867
1789064099258961000,11.2369609375,7.694964135742187,6.559813273620605,-0.2937386161804199
1789064099268998000,11.246997802734375,7.726238394927978,6.219836637878418,-0.21727380065917967
1789064099279035000,11.257034912109376,8.134449777984619,5.193173038482666,-0.04384381790161133
1789064099289071900,11.26707177734375,5.997325521087646,5.543474668884277,-0.3942950859069824
1789064099299107800,11.27710791015625,5.170727397918701,5.759401731109619,-0.5008370597839356
1789064099309145000,11.28714501953125,3.822941500854492,6.33326194152832,-0.4999392341613769
1789064099319181800,11.297181884765624,1.3239935180664062,5.9947816818237305,-0.9638158058166504
1789064099329218800,11.30721875,4.140921408843994,3.507505432128906,-0.30795418853759765
1789064099339255800,11.317255859375,10.270077658843993,3.8015433235168454,-1.0114005638122558
1789064099349293000,11.32729296875,11.492616881561279,3.7331589385986326,-0.9120411949157714
1789064099359329000,11.3373291015625,10.133907439422607,5.136909299468994,-1.1819874320983885
1789064099369366000,11.347365966796875,10.620528926849365,6.088155546569824,-0.7062894897460937
1789064099379402800,11.35740283203125,9.132532595062255,7.49534757232666,-0.05880757827758789
1789064099389439700,11.367439697265626,8.819041815185546,7.728782234191894,-0.10938508834838867
1789064099399476700,11.377476806640624,8.573636145019531,8.44674345703125,-0.17342998275756835
1789064099409514000,11.387513916015624,9.368810371398926,9.244910435485838,-0.8243535591125488
1789064099419550000,11.397550048828125,8.775646910095213,9.18655177001953,-1.511190160369873
1789064099429587000,11.4075869140625,8.688707462310791,7.39913059310913,-1.5720926651000975
1789064099439624000,11.4176240234375,7.323862878417969,6.570138268280029,-1.1459247695922852
1789064099449660700,11.42766064453125,4.752340657806396,6.705560299682617,-1.4136264427185057
1789064099459698000,11.437697998046875,7.00992318572998,4.720467848205566,-0.4970961196899414
1789064099469735000,11.44773486328125,6.596773761749267,3.966593600463867,0.007032967376708984
1789064099479771000,11.45777099609375,6.227468155670166,4.7572786987304685,-0.0818517692565918
1789064099489808000,11.467807861328126,5.185391883087158,4.941033676147461,0.00987608184814453
1789064099499844900,11.477844970703124,5.373935263824462,4.972756848144531,0.2946364418029785
1789064099509881900,11.4878818359375,7.360673728942871,5.740996305847168,0.6721721160888672
1789064099519918800,11.4979189453125,6.834996826934814,6.919093160247803,0.826149210357666
1789064099529955800,11.507955810546875,7.0269818725585935,7.876474549102783,0.7435492530822754
1789064099539991800,11.51799169921875,8.12173058166504,7.988104201507568,0.25468320159912106
1789064099550028800,11.52802880859375,10.646116957092284,8.298302954101562,-0.09756371765136718
1789064099560066000,11.538066162109375,10.015244819641113,8.44629454421997,-0.5348047958374023
1789064099570103000,11.54810302734375,9.094823918914795,8.206575102996826,-0.22340894241333006
1789064099580139800,11.558139892578126,7.122899576568603,7.944559658813476,0.34102409896850583
1789064099590176800,11.5681767578125,6.835595377349853,7.174225274658203,0.4652233100891113
1789064099600212700,11.578212646484374,5.22265164642334,6.415562623596191,0.2109890213012695
1789064099610250000,11.58825,5.557540603637695,5.469703330230713,-0.18659809188842771
1789064099620287000,11.598286865234375,6.394463721466064,4.20706122970581,0.06643909606933593
1789064099630324000,11.608323974609375,5.775712229919433,4.613028048706054,0.30526071166992186
1789064099640361000,11.61836083984375,4.738873273468017,4.959888014221191,0.7043442008972167
1789064099650397700,11.628397705078125,4.544793301391601,4.288314448547363,1.259050798034668
1789064099660433700,11.63843359375,4.773289922332763,5.805041200256348,0.6392518432617187
1789064099670471000,11.648470947265626,5.899761803436279,6.9235822883605955,-0.39983167724609375
1789064099680508000,11.6585078125,10.322151544952392,6.200832662200927,-0.7158662963867187
1789064099690545000,11.668544921875,9.814281517791747,6.940790612792968,-1.0166378799438476
1789064099700582000,11.678581787109374,6.95874712524414,8.28019680404663,-0.8436568099975585
1789064099710619000,11.688618896484375,10.058490087127685,9.663446813201904,-0.8438064476013183
1789064099720654800,11.69865478515625,11.832443879699706,7.927351334381103,-0.9407716148376464
1789064099730691800,11.70869189453125,12.898462168884276,6.928370691680907,-0.8521861534118652
1789064099740728800,11.718728759765625,10.702530333709715,7.3006690498352045,-1.2674305038452147
1789064099750766600,11.7287666015625,3.258658097076416,9.240122032165527,-1.5825672973632812
1789064099760803600,11.738803466796876,4.243872080230712,7.747636572265624,-1.3507786491394043
1789064099770840300,11.74884033203125,7.915679601287842,4.937292736053466,-0.75971011428833
1789064099780876300,11.758876220703126,7.125892328643799,4.714033431243896,-0.7535749725341796
1789064099790913500,11.76891357421875,5.279364298248291,5.179256741333008,-0.8179191421508789
1789064099800950500,11.778950439453125,4.829254386138916,5.3101896446228025,-0.9252093040466308
1789064099810987500,11.788987548828125,3.1497219215393066,4.687996488189697,-0.579696076965332
1789064099821024500,11.7990244140625,4.149899665069579,3.7339071266174315,-0.05386953735351562
1789064099831061500,11.8090615234375,6.209511643218994,5.636848533630371,-0.008678981018066407
1789064099841097500,11.819097412109375,6.69733023147583,6.232855109405517,-0.030526071166992186
1789064099851134500,11.829134521484375,9.865607215881347,6.2587424148559565,0.07062894897460938
1789064099861171500,11.83917138671875,12.385953376007079,6.641814680480957,-0.2989759323120117
1789064099871208400,11.84920849609375,10.51428622817993,8.123376595306397,-0.38247371520996093
1789064099881245700,11.85924560546875,7.498639599609374,10.23371572113037,0.0805050308227539
1789064099891282400,11.869282470703125,7.690325370025635,11.006593944549559,0.2742857276916504
1789064099901318700,11.879318603515625,9.155726423645019,9.68499462814331,0.6985083343505859
1789064099911355400,11.88935546875,8.117091815948486,7.689427544403076,0.8779238212585448
1789064099921392400,11.899392333984375,8.214655533599853,6.559364360809326,1.025316860961914
1789064099931429600,11.9094296875,6.746710640716552,5.786785412597656,0.5309142181396485
1789064099941466600,11.919466552734375,6.178536659240723,5.173420874786377,-0.1452981132507324
1789064099951503600,11.929503662109376,7.263409286499023,4.212747458648681,-0.10818798751831055
1789064099961539600,11.93953955078125,5.765836148071289,3.8103719421386715,0.5523123954772949
1789064099971576600,11.94957666015625,7.80809016418457,3.442413074493408,1.53857384185791
1789064099981613300,11.95961328125,9.671078330993652,4.449025234985351,1.4809633644104003
1789064099991650600,11.969650634765625,6.233603297424316,5.918616141510009,0.7209539749145507
1789064100001687600,11.9796875,4.251204322814941,8.109161022949218,0.7225999885559081
1789064100011724500,11.989724609375,7.78250213394165,7.051971352386474,0.5886743331909179
1789064100021760500,11.999760498046875,11.462988636016846,6.2481181449890135,0.17597382202148437
1789064100031797500,12.009797607421875,8.155698317718505,7.096413720703125,-0.2796726814270019
1789064100041834500,12.01983447265625,6.55667088394165,7.679401824951172,-0.3060088996887207
1789064100051871500,12.02987158203125,7.389553786468506,6.058377663421631,-0.44502223358154297
1789064100061908500,12.039908447265624,8.036137872314452,5.400271482086182,-0.11462240447998046
1789064100071945500,12.049945556640624,8.379855448150634,4.684554823303222,0.25438392639160157
1789064100081981400,12.0599814453125,7.50821640625,4.717774371337891,0.7249941902160644
1789064100092018700,12.070018798828125,5.782296284484863,5.069871652984619,0.6721721160888672
1789064100102055400,12.080055419921875,4.802020342254639,5.387253010559082,0.6958148574829102
1789064100112092400,12.090092529296875,3.1675287963867187,6.091597211456299,0.0025438392639160153
1789064100122129400,12.10012939453125,6.6902972640991205,5.4625207252502435,-0.701650724029541
1789064100132166700,12.110166748046876,8.700528833007812,5.865195516967773,-1.3271359077453613
1789064100142202600,12.12020263671875,8.59353794631958,6.4269350814819335,-1.1767501159667968
1789064100152239600,12.130239501953126,10.071658196258545,6.849511674499511,-0.6724713912963867
1789064100162276600,12.140276611328124,9.21199016265869,7.5445783439636225,-0.11118073959350586
1789064100172313300,12.150313232421874,9.192986186981202,8.291419624328613,0.2549824768066406
1789064100182350300,12.160350341796875,9.179518802642821,8.406191666412353,-0.11192892761230468
1789064100192387600,12.1703876953125,7.87782128753662,8.563610425567626,-0.7770680763244628
1789064100202423600,12.180423583984375,7.143549565887451,8.112901963043212,-1.1155483360290526
1789064100212460500,12.19046044921875,7.199214754486084,7.222258945465088,-1.2877812179565429
1789064100222497500,12.20049755859375,7.912986124420166,6.132897190093994,-1.7281646858215332
1789064100232534500,12.210534423828125,7.5798928184509275,5.595099642181396,-1.674594423675537
1789064100242571500,12.220571533203126,6.33326194152832,5.902754555511474,-1.1956044540405273
1789064100252608500,12.2306083984375,6.976105087280273,4.994005387878418,-0.5717652839660644
1789064100262644500,12.24064453125,4.988319158935546,6.022614276123046,-0.44053310546874996
1789064100272681500,12.250681396484374,3.6578912239074706,6.893654767608642,-0.5578489868164063
1789064100282718500,12.260718505859375,7.236624155426025,5.852027407836914,-0.7673416320800781
1789064100292755700,12.270755615234375,8.844629845428466,5.497386286926269,-1.6570868240356444
1789064100302792400,12.28079248046875,7.065738011932373,7.241412558746338,-2.478297993469238
1789064100312829400,12.290829345703125,6.757634185791015,7.387608497619628,-2.593369310760498
1789064100322865400,12.300865478515625,7.985410724639892,7.306056003570556,-2.4672248107910155
1789064100332902400,12.31090234375,8.621819453430176,7.416787830352782,-1.7446248222351073
1789064100342939600,12.320939697265626,8.604461491394042,7.463923675537109,-0.7046434761047363
1789064100352976600,12.3309765625,8.237998999786376,7.157316225433349,0.17298106994628906
1789064100363013600,12.341013671875,7.04149672012329,7.29722738494873,0.6573579933166503
1789064100373050400,12.35105029296875,7.249343351745605,7.109581829833984,-0.02483984222412109
1789064100383086300,12.36108642578125,7.415441091918945,6.2110080192565915,-0.8355763793945312
1789064100393123300,12.371123291015625,6.843077257537842,6.252307997894286,-1.5330372505187988
1789064100403160600,12.38116064453125,7.841010437011718,5.616198544311523,-1.6590321128845213
1789064100413197600,12.391197509765625,7.909095546722412,5.4221185722351075,-1.4007576087951659
1789064100423234600,12.401234619140626,6.237942787933349,6.036530573272705,-0.8747814315795898
1789064100433271300,12.411271240234376,5.481823976135254,6.663961045837402,-0.8249521095275878
1789064100443308500,12.42130859375,5.9579708312988275,6.6141317237854,-0.9147346717834473
1789064100453344500,12.431344482421874,5.16519080657959,7.589170349884033,-0.8393173194885254
1789064100463381500,12.441381591796874,8.212111694335936,6.547692627716064,-0.4038718925476074
1789064100473418500,12.45141845703125,9.396044415283203,6.148609138488769,-0.25752631607055665
1789064100483455500,12.46145556640625,8.221688500976562,6.830657336425781,-0.426467170715332
1789064100493492500,12.471492431640625,5.843797339630127,6.779481275939941,-0.11192892761230468
1789064100503528700,12.48152880859375,1.529745223236084,7.625681925201415,-0.8961796089172362
1789064100513565400,12.4915654296875,-0.07422025146484375,6.451625286102295,-0.7628525039672851
1789064100523602400,12.5016025390625,1.5643115097045897,4.377648097991943,-1.0944494338989257
1789064100533639400,12.511639404296876,6.475866577911376,0.45489831542968745,0.026785131072998045
1789064100543676700,12.5216767578125,9.886406842803954,2.8297967247009277,1.1375450637817381
1789064100553713700,12.531713623046874,13.10092184677124,5.87971036453247,-0.03681085052490234
1789064100563749600,12.54174951171875,15.114894355773925,5.907393321228027,0.7326257080078125
1789064100573786600,12.55178662109375,14.429853405761717,8.775197997283936,0.5295674797058105
1789064100583823400,12.5618232421875,12.081141577148436,9.450961415863036,-0.03516483688354492
1789064100593860400,12.5718603515625,8.467692721557617,9.8189202835083,-0.3043628860473633
1789064100603897600,12.581897705078125,8.096441826629638,11.477802758789062,-0.9449614677429199
1789064100613934600,12.5919345703125,15.755792212677001,11.31305175704956,-2.2049100914001465
1789064100623970600,12.601970458984376,17.124677011871338,6.673687490081787,-0.8747814315795898
1789064100634007600,12.612007568359376,10.231321519470214,7.533804436492919,-0.9066542411804198
1789064100644044300,12.622044189453124,4.668693237304687,9.578003741455078,-0.8019079185485839
1789064100654081500,12.63208154296875,3.7707179771423336,7.291391518402099,-0.13482348098754882
1789064100664118500,12.642118408203125,7.692270658874511,3.186832047271728,0.3589806114196777
1789064100674155500,12.652155517578125,4.107103310394287,6.265176831817627,0.21308394775390624
1789064100684191500,12.66219140625,-0.01571194839477539,6.496516567230224,-0.6171054779052734
1789064100694228500,12.672228515625,0.05626373901367187,4.295048140716553,-0.5270236404418945
1789064100704265500,12.682265380859375,0.13542203140258788,3.060088996887207,-0.270694425201416
1789064100714302500,12.692302490234376,1.7272668601989745,0.8719383171081543,1.1092635566711424
1789064100724339500,12.70233935546875,5.962011046600342,0.03247136001586914,1.4694412689208984
1789064100734376400,12.71237646484375,9.675567459106444,3.208230224609375,-0.5530605834960938
1789064100744412400,12.722412353515624,8.30668265991211,4.9814358291625975,-0.18869301834106444
1789064100754450000,12.732449951171875,7.853879270935058,8.639925603485107,0.06509235763549805
1789064100764487000,12.74248681640625,10.236708473205566,9.194781838226318,-1.012448027038574
1789064100774523600,12.752523681640625,8.17754540786743,8.572439044189453,-1.5180734901428221
1789064100784561000,12.762560791015625,8.025962515258788,9.334992272949219,-1.3298293846130371
1789064100794598000,12.772597900390625,11.230451799774169,8.429086219787598,-1.5589245559692382
1789064100804635000,12.782634765625,9.808894564056397,7.503577640533447,-1.0660182891845702
1789064100814670800,12.7926708984375,7.948001323699951,7.5248261802673335,-0.47854105682373044
1789064100824707800,12.802707763671876,8.073397635650634,5.749226374053955,-0.2518400871276855
1789064100834744800,12.812744873046874,6.996755076599121,4.918438397979736,0.03336918563842773
1789064100844781800,12.82278173828125,4.802469255065918,5.419125820159912,-0.04279635467529297
1789064100854818800,12.83281884765625,4.905569564056396,5.045630361175537,0.02633621826171875
1789064100864855800,12.842855712890625,4.567089304351806,3.615543782043457,0.5787982513427734
1789064100874891800,12.852891845703125,4.774038110351563,4.115782291412353,0.5609913764953613
1789064100884929000,12.862928955078125,6.822427268218994,5.895571950531005,-0.1197100830078125
1789064100894965800,12.8729658203125,9.424176284790038,5.4978351997375485,-0.29867665710449215
1789064100905002800,12.883002685546876,11.884966678619383,5.698798501586913,-0.8062474090576172
1789064100915039700,12.893039794921876,8.804975880432128,7.423970435333252,-0.82360537109375
1789064100925075700,12.90307568359375,3.585466623687744,10.658387240600586,-0.21891981430053709
1789064100935113000,12.913113037109374,7.210287937164306,12.235268309020995,-0.3924994346618652
1789064100945150000,12.92314990234375,11.887360880279541,10.428543881225586,-1.0033201332092285
1789064100955187000,12.93318701171875,10.600627125549316,8.950273993682861,-0.7332242584228515
1789064100965223700,12.9432236328125,8.935609508514403,8.081478066253661,-0.3363853332519531
1789064100975260700,12.9532607421875,9.082254360198974,6.210259831237793,-0.488417138671875
1789064100985296600,12.963296630859375,4.81399135055542,6.189460204315186,-1.150413897705078
1789064100995334000,12.973333984375,5.181501305389404,5.524919606018066,-1.8043302261352538
1789064101005371000,12.983370849609376,7.323713240814208,3.6733038970947263,-1.7281646858215332
