time,seconds_elapsed,z,y,x
1789064088064109300,0.042109375,7.491525383689999,6.302307415816188,0.5730199236696586
1789064088074145300,0.052145263671875,7.490380305308103,6.303471198898554,0.5751821432048455
1789064088084182300,0.062182373046875,7.4887360452324145,6.305235870483517,0.5772504739115014
1789064088094219300,0.07221923828125,7.486941563031077,6.307173560547828,0.5793555564319715
1789064088104256300,0.08225634765625,7.485197934234142,6.309039354419708,0.5815603364672511
1789064088114293000,0.09229296875,7.483698635587095,6.310588337427378,0.584047988564521
1789064088124330200,0.102330322265625,7.4824968585819,6.311797713217139,0.586377600555867
1789064088134367200,0.1123671875,7.481350026634335,6.3129901378721,0.5881676257777959
1789064088144404200,0.122404296875,7.480095058137178,6.314337460827827,0.5896712718063966
1789064088154440200,0.132440185546875,7.478501066944003,6.316137203726172,0.5906069086886943
1789064088164477200,0.142477294921875,7.476536488872766,6.318347280991077,0.5918426244961098
1789064088174514200,0.15251416015625,7.474979322558641,6.320040640905499,0.5934252905776723
1789064088184551200,0.16255126953125,7.474992766562104,6.319845410594343,0.5953394536359236
1789064088194588200,0.172588134765625,7.475830386430025,6.318422099792957,0.5999050445184111
1789064088204625200,0.182625244140625,7.476471022421121,6.317237273922562,0.6043787558663636
1789064088214662400,0.192662353515625,7.47837481021583,6.314838396087288,0.6058929232889786
1789064088224699100,0.20269921875,7.481819397711753,6.310529300716519,0.6082682010529562
1789064088234735400,0.2127353515625,7.485521174839138,6.306140125846863,0.6082363446099683
1789064088244772000,0.222772216796875,7.488207052922248,6.30263825520575,0.6114692621165886
1789064088254809000,0.23280908203125,7.489775909674167,6.300313027128577,0.6161893859736621
1789064088264846300,0.242846435546875,7.490431158712505,6.299128201258182,0.6203330616496503
1789064088274883300,0.25288330078125,7.490465060982108,6.298667598009109,0.6245839240271598
1789064088284920300,0.26292041015625,7.488977452772855,6.300186185878515,0.6271081818077713
1789064088294957000,0.27295703125,7.485913973549008,6.303501594036817,0.6303564430139958
1789064088304994000,0.282994140625,7.482327931755781,6.307395678865909,0.6339689344227314
1789064088315030000,0.293030029296875,7.478942380970716,6.31099282657504,0.6381050113141536
1789064088325067300,0.3030673828125,7.476418415451049,6.313515623050928,0.6427079019997268
1789064088335104300,0.313104248046875,7.474474880167842,6.315332317084073,0.6474477900031954
1789064088345141200,0.323141357421875,7.473133402431011,6.316498438253999,0.6515445577975362
1789064088355178200,0.33317822265625,7.472837634354829,6.316449922937155,0.6553985298119485
1789064088365215200,0.34321533203125,7.47375124206841,6.315117797550559,0.657809828737378
1789064088375252200,0.353252197265625,7.475924494454264,6.312238442721963,0.6607428865145891
1789064088385289200,0.363289306640625,7.477129194068908,6.310083310514688,0.6676632603622973
1789064088395325200,0.3733251953125,7.478398191091418,6.308122239574789,0.6719684832755476
1789064088405362200,0.383362060546875,7.479385448563098,6.3065913767457005,0.6753407361876219
1789064088415399400,0.3933994140625,7.480361600118875,6.305284970322251,0.676730875371769
1789064088425436200,0.403436279296875,7.480503638938069,6.305071619832515,0.6771506351538003
1789064088435473200,0.41347314453125,7.478840089640021,6.306601313617825,0.6812630389086902
1789064088445510100,0.42351025390625,7.475477919730544,6.309996216753125,0.6867064720716327
1789064088455547400,0.43354736328125,7.470991714227199,6.31459348141551,0.6932349239923059
1789064088465584400,0.44358447265625,7.4659747628480195,6.32000147793889,0.6979860640421509
1789064088475620400,0.453620361328125,7.4602330043256275,6.326459860298037,0.7008714832853525
1789064088485657000,0.463656982421875,7.454448575705289,6.33300066024363,0.7033351699851453
1789064088495694000,0.473694091796875,7.449786429113149,6.338585182377695,0.7024276997514068
1789064088505731000,0.48373095703125,7.445453952866792,6.343963952806591,0.699796255269274
1789064088515768300,0.493768310546875,7.442188229069114,6.347520768505334,0.702282884453237
1789064088525805300,0.503805419921875,7.440761995658278,6.3490931323885915,0.7031815137933939
1789064088535842300,0.51384228515625,7.4408730548173185,6.34810821300447,0.7108519753560424
1789064088545879000,0.523879150390625,7.441720611557364,6.34599984254837,0.7207390900548547
1789064088555915000,0.5339150390625,7.442286428746581,6.3445724400937555,0.7274354458883404
1789064088565952300,0.5439521484375,7.442147312536835,6.344520417645573,0.7293002899121492
1789064088575989200,0.5539892578125,7.439791104799508,6.347672744196653,0.7259075056686997
1789064088586026200,0.564026123046875,7.435557997274398,6.353080156198144,0.7219677550669759
1789064088596063200,0.574063232421875,7.430980606356263,6.358545435866713,0.7209849545747041
1789064088606100200,0.584100341796875,7.425717571261525,6.3640890414685005,0.7262678634136914
1789064088616137200,0.59413720703125,7.41994541760087,6.36948067137897,0.7379078131292015
1789064088626174200,0.60417431640625,7.414428700006008,6.374280765137076,0.7517839974641799
1789064088636210200,0.614210205078125,7.4098752744853495,6.37828298651576,0.7626546433076262
1789064088646247200,0.6242470703125,7.406476864218711,6.381428883326053,0.7693219191771
1789064088656284400,0.634284423828125,7.404284322610497,6.383737160268425,0.7712737108319997
1789064088666321200,0.644321044921875,7.403353179240226,6.384492362549901,0.7739528669133782
1789064088676358100,0.654358154296875,7.403795077788829,6.3830719743579625,0.7814029637236147
1789064088686395100,0.66439501953125,7.405884743544459,6.379329865220189,0.7920891198456287
1789064088696432000,0.67443212890625,7.40955612553358,6.373488737976551,0.804672195630148
1789064088706469400,0.684469482421875,7.414683551549911,6.366275153335929,0.8144908482026308
1789064088716505300,0.69450537109375,7.420744459024071,6.358166665682196,0.8225874262228607
1789064088726542300,0.704542236328125,7.427133867800236,6.349950041478872,0.8283739737350493
1789064088736579000,0.7145791015625,7.430983528965712,6.344797481021285,0.8333152295295149
1789064088746616600,0.724616455078125,7.433675252267718,6.341088689631223,0.8375267828099429
1789064088756653600,0.734653564453125,7.435787129855155,6.337898953679203,0.8429024114336818
1789064088766690800,0.74469091796875,7.437310393899679,6.3350868188679215,0.8505728729963302
1789064088776727600,0.7547275390625,7.437015210345387,6.334238093084097,0.8594320328868925
1789064088786763800,0.764763671875,7.435767840632796,6.33447482444942,0.8684314049657433
1789064088796800500,0.774800537109375,7.436585002234578,6.332919996222853,0.8727614700593054
1789064088806837500,0.78483740234375,7.439013106164336,6.329762993496656,0.8749721318461
1789064088816874800,0.794874755859375,7.441018016245961,6.327467576035857,0.8745194196425378
1789064088826911700,0.804911865234375,7.439840789160132,6.328256680586934,0.8788218660768121
1789064088836948700,0.81494873046875,7.437142051595449,6.330403629487752,0.8861644108593464
1789064088846985500,0.8249853515625,7.433825474393367,6.333703840076923,0.8904008793853223
1789064088857022500,0.8350224609375,7.429715116465092,6.338368324756622,0.8915192158907651
1789064088867058400,0.845058349609375,7.427682733854651,6.340984644734859,0.889847994742915
1789064088877095700,0.855095703125,7.42867349845767,6.340258084025979,0.886753097467497
1789064088887132700,0.865132568359375,7.4305825469493865,6.33794220829904,0.88731628430821
1789064088897169700,0.875169677734375,7.433933610942959,6.333714361470937,0.8894259699385613
1789064088907206700,0.88520654296875,7.438775790277123,6.327724765667319,0.8915792024496942
1789064088917243600,0.89524365234375,7.4418036136657,6.323764629864693,0.8943975478060543
1789064088927280600,0.90528076171875,7.442319161972403,6.322828810319304,0.8967216799046843
1789064088937317600,0.915317626953125,7.442862767329812,6.3222442884296175,0.8963322421956806
1789064088947353600,0.925353515625,7.4429896085798735,6.32231384653449,0.8947838437099009
1789064088957390600,0.935390625,7.441972540491819,6.323766383430361,0.8929811782021075
1789064088967427800,0.945427734375,7.440884745255112,6.325185018056631,0.8919918018385767
1789064088977464600,0.955464599609375,7.440724001735449,6.325365050798654,0.8920558800507337
1789064088987501600,0.96550146484375,7.441215584644675,6.324828459703922,0.8917585776045918
1789064088997538600,0.97553857421875,7.440923323699831,6.325009661489725,0.8929160040114075
1789064089007575800,0.985575927734375,7.43928432432115,6.326822848391532,0.8937260782852768
1789064089017612800,0.99561279296875,7.4355182497859,6.330792336544394,0.8969481090717017
1789064089027648800,1.005648681640625,7.431103940474987,6.335446884351969,0.9006618688978254
1789064089037685800,1.015685791015625,7.4271455582380295,6.340000309872627,0.9012682372931391
1789064089047722500,1.025722412109375,7.42331927794814,6.344335124206543,0.9022894700996578
1789064089057759500,1.035759521484375,7.421385095015168,6.346535264599323,0.9027272039297968
1789064089067796700,1.045796630859375,7.421922270631789,6.345955418884754,0.9023877428423612
1789064089077833700,1.055833740234375,7.424739666140079,6.342464654159546,0.9037557432599366
1789064089087870700,1.06587060546875,7.42923347042799,6.336882470113038,0.9059775109626352
1789064089097906700,1.07590673828125,7.43303695436418,6.3319771624147885,0.9090686088457703
1789064089107943400,1.085943359375,7.434589444503188,6.329632060593366,0.9127010470639914
1789064089117980700,1.095980712890625,7.436234289100765,6.327547655534744,0.9137507753126323
1789064089128017700,1.106017578125,7.437142636117339,6.326589039635658,0.9130019297067076
1789064089138054700,1.1160546875,7.43605834801197,6.327632995730638,0.9145932174861431
1789064089148091600,1.126091552734375,7.435959563812613,6.327472836732864,0.9165021929126232
1789064089158128600,1.136128662109375,7.43706664827168,6.3258303302228445,0.9188555511057376
1789064089168165600,1.14616552734375,7.437372937741875,6.325140009871125,0.9211215963415801
1789064089178201600,1.15620166015625,7.435494868910312,6.327006388264894,0.9234618758574128
1789064089188238600,1.166238525390625,7.432113994300365,6.330680108341574,0.9255034646876156
1789064089198275600,1.176275634765625,7.427891992691158,6.33535043824017,0.9274360401853918
1789064089208312800,1.186312744140625,7.4234794369459145,6.340315367171168,0.9288399156339466
1789064089218349600,1.196349609375,7.419488906005024,6.344775853711366,0.9302587694559246
1789064089228386600,1.206386474609375,7.417114578089118,6.347351257157325,0.9316242856554686
1789064089238423600,1.216423583984375,7.416445300525426,6.347934025481343,0.9329821300052106
1789064089248460500,1.22646044921875,7.417386965289712,6.346419529265165,0.9357983564697205
1789064089258496500,1.23649658203125,7.42022540358603,6.342593833497166,0.9392273080050945
1789064089268533800,1.24653369140625,7.4236167995899915,6.338009428316354,0.943361412135139
1789064089278570800,1.25657080078125,7.425524094516039,6.3349173075199126,0.949105435679853
1789064089288607500,1.266607421875,7.427185890248418,6.332381651562452,0.9530105533596127
1789064089298644500,1.27664453125,7.4286571318447585,6.3302452240556475,0.9557364711921662
1789064089308681700,1.286681640625,7.428825474148988,6.329461964723468,0.9596085633851588
1789064089318718700,1.29671875,7.427765151441097,6.329940103629231,0.9646546677935868
1789064089328754700,1.306754638671875,7.426184019729495,6.330773047322034,0.9713331226442009
1789064089338791700,1.316791748046875,7.424353297170996,6.3317147120863195,0.9791547561805695
1789064089348828700,1.32682861328125,7.421462836426496,6.333740080434084,0.9879315715499222
1789064089358865700,1.33686572265625,7.417659352490306,6.336617097175121,0.9979964539684355
1789064089368902700,1.346902587890625,7.41475953939557,6.338533159929513,1.0073352871347219
1789064089378939600,1.356939697265625,7.4134028640896075,6.338647726219892,1.0165568505968898
1789064089388976600,1.3669765625,7.413269593098759,6.337153103747964,1.0267940208423882
1789064089399013600,1.377013671875,7.4150149754613635,6.333365401902794,1.0375043615575879
1789064089409049900,1.3870498046875,7.4191791094034905,6.326675548875332,1.0484937384098767
1789064089419086600,1.397086669921875,7.42225778619647,6.321108562397956,1.0602147905375807
1789064089429123600,1.40712353515625,7.4276523387163875,6.312671573442221,1.0726323004968463
1789064089439160600,1.41716064453125,7.4344409759432075,6.302386326271296,1.0859995854616165
1789064089449197600,1.427197509765625,7.43201053392589,6.3027978296816345,1.1001539291508495
1789064089459234800,1.43723486328125,7.43503251209557,6.297464067438244,1.1102362741608172
1789064089469271600,1.447271484375,7.4430328631997105,6.285297828826308,1.1254658458661286
1789064089479308500,1.45730859375,7.450843829211593,6.275405964887142,1.1289785301622002
1789064089489344500,1.467344482421875,7.456897722423077,6.266207928431034,1.1400439679253846
1789064089499381500,1.477381591796875,7.460953135293722,6.25974428537488,1.1489868605766445
1789064089509418800,1.487418701171875,7.46196435816288,6.257386324071883,1.1552467977542429
1789064089519455700,1.497455810546875,7.461927533283829,6.258313375788926,1.150449553540349
1789064089529492700,1.50749267578125,7.4598483889222145,6.257396845465898,1.1687730726730077
1789064089539529500,1.517529541015625,7.463755917754769,6.250461493244766,1.1808743562899529
1789064089549566700,1.527566650390625,7.471445303213596,6.241649825757742,1.178854906226322
1789064089559602700,1.537602783203125,7.47158617298901,6.239475988849997,1.1894192625995725
1789064089569639700,1.5476396484375,7.469092018085718,6.241495511978864,1.1944781534243374
1789064089579676700,1.5576767578125,7.461347103047371,6.25163053702414,1.1898744590211658
1789064089589713700,1.567713623046875,7.446342426139116,6.268502176848053,1.1950978927578777
1789064089599750400,1.57775048828125,7.441513690808415,6.273557122150063,1.1986373919956386
1789064089609787600,1.58778759765625,7.442970319357514,6.272502644661069,1.1951095101304352
1789064089619824600,1.59782470703125,7.439036487039923,6.276034910440445,1.2010420419845729
1789064089629861600,1.607861572265625,7.436541747614741,6.278933554491401,1.2013410249311476
1789064089639897600,1.617897705078125,7.437081261318921,6.278728387308121,1.1990743221081792
1789064089649934600,1.6279345703125,7.432512638229131,6.2838593204557895,1.2005183103714137
1789064089659971800,1.637971923828125,7.429618670353293,6.287199278533459,1.2009431847199796
1789064089670008600,1.648008544921875,7.432098212209343,6.284400587725639,1.200251914520189
1789064089680045600,1.658045654296875,7.432483412134647,6.2832444034278385,1.2039171590294688
1789064089690082600,1.66808251953125,7.429351543849706,6.286572086545824,1.2058734807290137
1789064089700119800,1.678119873046875,7.429615163221955,6.286819923827052,1.202955547455698
1789064089710155800,1.68815576171875,7.432002935141324,6.284369608065486,1.201008066649735
1789064089720192800,1.69819287109375,7.431562790158391,6.287260068809986,1.1885374382637441
1789064089730229500,1.7082294921875,7.426856804424524,6.295391937339305,1.1748243355359882
1789064089740266500,1.7182666015625,7.429522808763385,6.29275399005115,1.1721014864433557
1789064089750303500,1.728303466796875,7.446125568518042,6.2738756865799425,1.1679367679793387
1789064089760340500,1.738340576171875,7.4636355062454935,6.253018776512145,1.1680232772190122
1789064089770377500,1.74837744140625,7.471333659532665,6.242171219283342,1.1767991427402942
1789064089780414500,1.75841455078125,7.479627440625428,6.2316796358853574,1.1797146648608148
1789064089790450700,1.76845068359375,7.489973478072881,6.222036778271198,1.1648763574954122
1789064089800487400,1.7784873046875,7.490638663983344,6.224081435841321,1.1495728437710553
1789064089810524400,1.7885244140625,7.485244695985317,6.232336053967476,1.1399502982925622
1789064089820561400,1.7985615234375,7.477820098942518,6.241716461253166,1.1373475684482603
1789064089830598400,1.808598388671875,7.4695456070721145,6.25239450713396,1.133060757974535
1789064089840635600,1.8186357421875,7.457341959059238,6.268421512827277,1.1248653957549481
1789064089850672400,1.82867236328125,7.442432559219002,6.287776201638579,1.1155523546170443
1789064089860708400,1.838708251953125,7.428907307213544,6.305589506226777,1.1051043911650775
1789064089870745300,1.848745361328125,7.41888217228353,6.318548356521129,1.0984181913994253
1789064089880782300,1.8587822265625,7.415030757552385,6.324246860423684,1.0916051503837108
1789064089890819600,1.868819580078125,7.415205529597401,6.324770007514953,1.0873818336002528
1789064089900856600,1.878856689453125,7.416173497846722,6.324239846161007,1.0838616966500878
1789064089910893600,1.8888935546875,7.418163794881105,6.323361309760808,1.075325412038341
1789064089920930300,1.898930419921875,7.422227975580096,6.320175080940127,1.0659778841089456
1789064089930966300,1.90896630859375,7.428921335738897,6.314325185868143,1.0539507617067545
1789064089941003500,1.91900341796875,7.43411890438199,6.309943609783053,1.0434915462084113
1789064089951040500,1.92904052734375,7.436494985863566,6.308343773370981,1.0362073074843734
1789064089961077500,1.939077392578125,7.437188813346624,6.308724881643056,1.0288836865980178
1789064089971114500,1.949114501953125,7.437053788790107,6.310413565382361,1.019458051931113
1789064089981151500,1.9591513671875,7.435338217043876,6.314145153126121,1.0088153696246445
1789064089991188500,1.9691884765625,7.431262345907092,6.320249315220117,1.0005864704616367
1789064090001225500,1.9792255859375,7.426227274349332,6.327217985188961,0.9939055313929915
1789064090011261400,1.989261474609375,7.420576701241731,6.334744873562455,0.988143241539225
1789064090021298400,1.99929833984375,7.4149588613599535,6.342342489084601,0.9815613789308816
1789064090031335400,2.00933544921875,7.410372702613473,6.348790350049733,0.9744823804553597
1789064090041372400,2.019372314453125,7.407479903781414,6.353412164631486,0.9663207743749022
1789064090051409400,2.029409423828125,7.404830266055464,6.357296897110342,0.9610638036947697
1789064090061446400,2.0394462890625,7.404362648543715,6.3582122583895915,0.9586107114542275
1789064090071483400,2.0494833984375,7.405936765992641,6.357064841920137,0.9540518791060895
1789064090081519400,2.059519287109375,7.407562905889749,6.356099211758375,0.9478378268968314
1789064090091556600,2.069556640625,7.4096245145946735,6.354777607765794,0.9405587758045643
1789064090101593600,2.079593505859375,7.41022715666294,6.355028367656469,0.9340941098351031
1789064090111630300,2.08963037109375,7.411155377423762,6.354593483370542,0.9296818463508039
1789064090121667300,2.099667236328125,7.4142878302305935,6.351669120356441,0.9246744665175676
1789064090131704600,2.10970458984375,7.41586136315763,6.350168652665615,0.9223620979219674
1789064090141741600,2.119741455078125,7.417139128008484,6.349166197624802,0.918975597288832
1789064090151778600,2.129778564453125,7.417500362536311,6.3493193423599,0.9149899617187678
1789064090161814500,2.139814453125,7.415652104321122,6.352026263231038,0.9111807056289166
1789064090171851500,2.1498515625,7.41311937097311,6.35575434384346,0.9057755586497485
1789064090181888500,2.159888427734375,7.411445884802937,6.358764631575346,0.8983166209459305
1789064090191925500,2.169925537109375,7.408593417981266,6.363245576381683,0.8900701130609959
1789064090201962500,2.17996240234375,7.403115278831124,6.37020898565352,0.8858318909693509
1789064090211999500,2.18999951171875,7.395167534697055,6.378979152086377,0.889108063095808
1789064090222036500,2.200036376953125,7.389647894492745,6.3843924093067645,0.8961170650750399
1789064090232072400,2.210072509765625,7.386992996069789,6.3861091500967735,0.9057201752007007
1789064090242109400,2.220109375,7.387388717389106,6.384902112394571,0.9109874480791389
1789064090252146400,2.230146484375,7.38919079837501,6.382767438453436,0.9113301971022039
1789064090262183400,2.240183349609375,7.389504102107882,6.3825932509303085,0.910007716326788
1789064090272220400,2.250220458984375,7.3916756009280675,6.380253994327783,0.9087792705103754
1789064090282257700,2.260257568359375,7.399455587279796,6.371529420602322,0.9066722152285277
1789064090292294400,2.27029443359375,7.407910696414112,6.360936130395531,0.9119913644246757
1789064090302330400,2.280330322265625,7.415085118088125,6.350377911502123,0.9271457520019263
1789064090312367400,2.290367431640625,7.423240367493033,6.339072673633694,0.9391757970135658
1789064090322404400,2.300404296875,7.431092834559083,6.330125397068262,0.9374206969745457
1789064090332441600,2.310441650390625,7.4330188341856,6.329124695593118,0.9288662191189825
1789064090342478600,2.320478515625,7.421462836426496,6.343092430669069,0.9259886909212917
1789064090352515600,2.330515625,7.4017650332659475,6.365296079170704,0.9312636356495321
1789064090362552300,2.34055224609375,7.382364167225361,6.385394279825687,0.9475362866669893
1789064090372589300,2.35058935546875,7.367672209528088,6.399183735725283,0.9686272246863692
1789064090382625500,2.36062548828125,7.359934893274307,6.405585419461131,0.9849914264447986
1789064090392662500,2.37066259765625,7.356570969799161,6.408047425660491,0.99406927058734
1789064090402699500,2.380699462890625,7.3565622019708155,6.408202323961258,0.9931398077175021
1789064090412736500,2.390736572265625,7.358271343976258,6.406472723689675,0.991629403154552
1789064090422773200,2.400773193359375,7.364789932090043,6.398586938875913,0.9941534417394549
1789064090432810500,2.410810546875,7.378444363433122,6.381658015906811,1.0016898285936564
1789064090442847500,2.420847412109375,7.399863583558798,6.355837345951795,1.0078349802851676
1789064090452883500,2.430883544921875,7.425694774907827,6.325805780303478,1.0067875901240855
1789064090462920400,2.44092041015625,7.447769244071841,6.3008800133615726,1.0000132736835627
1789064090472957400,2.45095751953125,7.462911868146062,6.2843865592002865,0.9908691593717783
1789064090482994400,2.460994384765625,7.472192906710505,6.276002761736512,0.9739180245708674
1789064090493031400,2.471031494140625,7.472050867891311,6.2801856003791094,0.9476889199454337
1789064090503068400,2.481068359375,7.461835763347149,6.296853826585411,0.9170689599499106
1789064090513105400,2.49110546875,7.446383342671394,6.31987171407938,0.8837297310583293
1789064090523142700,2.501142578125,7.426255331400037,6.3479433778315775,0.8513135352957993
1789064090533178600,2.5111787109375,7.403878079897165,6.378725469586253,0.815377787104994
1789064090543215600,2.521215576171875,7.383138074207306,6.407106929939985,0.7801582243595272
1789064090553252400,2.53125244140625,7.364362646588683,6.431850910574197,0.7535539297461509
1789064090563289300,2.541289306640625,7.3547156973212955,6.444829634612798,0.7366868930321187
1789064090573326300,2.551326416015625,7.351502580493688,6.450909246787428,0.7152416616823524
1789064090583363600,2.561363525390625,7.346196875301003,6.460860731959342,0.6790205937441438
1789064090593400600,2.571400634765625,7.3408239500910035,6.472132067558169,0.6278489171724766
1789064090603436500,2.5814365234375,7.3399325542092315,6.477210978257656,0.584389678141661
1789064090613473500,2.5914736328125,7.343608027851581,6.4760957104921335,0.5495362087622284
1789064090623510300,2.60151025390625,7.350189159807562,6.47153410166502,0.5141572542039677
1789064090633547500,2.611547607421875,7.359668351292609,6.463169008901715,0.4828174555012956
1789064090643584500,2.62158447265625,7.366316118744015,6.45758331772387,0.4553932593397796
1789064090653621500,2.63162158203125,7.369581258019805,6.455640951484441,0.4293753497796133
1789064090663658500,2.641658447265625,7.376689628720283,6.450218341913819,0.38667346845474093
1789064090673694500,2.651694580078125,7.378409876641631,6.450879436171054,0.34002292256932704
1789064090683731500,2.6617314453125,7.366868491929769,6.465480792975425,0.31175986443087456
1789064090693768400,2.6717685546875,7.348751235958933,6.4868929988384245,0.29404043040489775
1789064090703805400,2.681805419921875,7.336219086644053,6.502036791956424,0.2716499906268902
1789064090713842400,2.691842529296875,7.3341574779391285,6.50585021276474,0.23330614011473952
1789064090723879700,2.701879638671875,7.338424487733841,6.501943268454075,0.2064937374423258
1789064090733916400,2.71191650390625,7.348681677854061,6.490621663972735,0.19772168957963585
1789064090743952400,2.721952392578125,7.367718971279263,6.46899727666378,0.19793661097194998
1789064090753989000,2.731989013671875,7.395649180734157,6.436870784562826,0.2035918237220496
1789064090764026000,2.742026123046875,7.426918763744831,6.400334074804187,0.21676318425592034
1789064090774063000,2.75206298828125,7.452392812219261,6.36962913993895,0.24505024432446806
1789064090784100400,2.762100341796875,7.469837868016958,6.347687941765785,0.28065840452872215
1789064090794137300,2.772137451171875,7.478883344259858,6.3359653552681205,0.30369300569547336
1789064090804174000,2.782174072265625,7.4750518032729625,6.3390598141521215,0.3321241686761379
1789064090814210300,2.792210205078125,7.4628855646610255,6.351659768006205,0.3635035687368363
1789064090824247000,2.8022470703125,7.449342776998877,6.36595541986227,0.39023729841616
1789064090834284300,2.8122841796875,7.437738848444819,6.377682098013162,0.41904191608540714
1789064090844321300,2.8223212890625,7.431588509121537,6.382641181725263,0.4514082813568413
1789064090854358300,2.832358154296875,7.430651520532369,6.381350557392835,0.4839017436066642
1789064090864395300,2.842395263671875,7.433792156645655,6.375051749509573,0.517526036517322
1789064090874432300,2.852432373046875,7.442019886764884,6.362463486093282,0.552983390074037
1789064090884469200,2.86246923828125,7.453311680629849,6.34609395057261,0.5878951655119657
1789064090894505200,2.872505126953125,7.467509132808447,6.326607159814238,0.6170392077360302
1789064090904542200,2.882542236328125,7.48606010402143,6.301871947008371,0.6447504406780004
1789064090914579200,2.8925791015625,7.508541984942555,6.2728124412626025,0.6663477938495576
1789064090924616200,2.9026162109375,7.530628144544362,6.244779940477013,0.6802640909992158
1789064090934653200,2.912653076171875,7.55208009789586,6.2176464343577615,0.6909032661743462
1789064090944690200,2.922690185546875,7.573236283171177,6.190469673618674,0.7032530446596443
1789064090954727200,2.93272705078125,7.587986693057418,6.171030229133367,0.7150044188603758
1789064090964763100,2.94276318359375,7.588801516571641,6.1684858053475615,0.7281888946041465
1789064090974800100,2.952800048828125,7.575137732878327,6.182976102992892,0.7473178849007934
1789064090984837400,2.96283740234375,7.554610493156313,6.205272105953097,0.769963431951031
1789064090994874000,2.9728740234375,7.543001303905248,6.215633340969681,0.7996399736166
1789064091004911000,2.9829111328125,7.5450494686067096,6.209450268420577,0.8278465888600796
1789064091014948000,2.992947998046875,7.55726656062305,6.1933291547030205,0.8371276274245232
1789064091024985300,3.0029853515625,7.5708783218681805,6.180717510411143,0.8067934255678206
1789064091035021300,3.013021240234375,7.580293800467253,6.1733846833050245,0.7738510870393365
1789064091045058300,3.023058349609375,7.587892000511288,6.16481500788033,0.7676783166885376
1789064091055095300,3.03309521484375,7.607491603994369,6.140058167764544,0.7721001517187803
1789064091065132000,3.043132080078125,7.629788191476464,6.112878484416008,0.7677411527916789
1789064091075169300,3.053169189453125,7.634310637336969,6.105826812338829,0.7788217150587589
1789064091085206300,3.063206298828125,7.628207644286752,6.111808809357881,0.7915943951312452
1789064091095243300,3.0732431640625,7.616276383474469,6.125718092244863,0.7989351863481103
1789064091105279200,3.083279296875,7.596902989962697,6.150956578397751,0.7894184393316507
1789064091115316200,3.093316162109375,7.572650007715821,6.183984403252602,0.7640040120899677
1789064091125353200,3.103353271484375,7.548758259996771,6.216891816598177,0.7327300451651215
1789064091135390200,3.11339013671875,7.526837520089745,6.2458642285823815,0.7115335278794169
1789064091145427200,3.12342724609375,7.5142492566734544,6.262405613538623,0.69907882771492
1789064091155464200,3.133464111328125,7.5134940543919795,6.264883401829004,0.6848568986821919
1789064091165501200,3.143501220703125,7.520383813905715,6.258928877338767,0.6633386020962149
1789064091175538200,3.1535380859375,7.5311577213764185,6.24812399020791,0.6426460888098925
1789064091185574400,3.163574462890625,7.546044909384846,6.232242530465125,0.6218934428341686
1789064091195611100,3.173611083984375,7.564124171432852,6.211881879481673,0.6057523092418908
1789064091205648100,3.183648193359375,7.578709746146202,6.19465426582694,0.599831540890783
1789064091215685000,3.19368505859375,7.589878790414333,6.181327166742086,0.5960853400997818
1789064091225722400,3.203722412109375,7.598353188771009,6.172505562382936,0.5792972503734752
1789064091235759400,3.21375927734375,7.5976470863282675,6.174914961612224,0.5626433084208518
1789064091245796000,3.223796142578125,7.590410705333948,6.186016785863042,0.5378134396014734
1789064091255832300,3.233832275390625,7.581054847967624,6.199482416635751,0.5142115051418542
1789064091265869000,3.243869140625,7.566914678934216,6.218149707704782,0.49678562896866346
1789064091275906300,3.25390625,7.550138900700211,6.23954613147676,0.4835759822510183
1789064091285943300,3.263943359375,7.532111661100387,6.261994110128283,0.4744532395208254
1789064091295980300,3.273980224609375,7.516469270810484,6.281691913288832,0.46196441789101805
1789064091306017300,3.284017333984375,7.50911014021933,6.292058409002423,0.4400545647041872
1789064091316054000,3.294053955078125,7.506507264244556,6.297195771890879,0.4099526007007807
1789064091326090000,3.304090087890625,7.5067346432596445,6.299111834645271,0.3748475311804563
1789064091336127200,3.314127197265625,7.503848274168372,6.303916604578495,0.3511150656763464
1789064091346164200,3.324164306640625,7.506957346099615,6.301348215395212,0.3301280994880944
1789064091356201200,3.334201171875,7.522923561516404,6.2834519086986775,0.30698896023463457
1789064091366238200,3.34423828125,7.5417118486165995,6.2621373179912565,0.2803607002237812
1789064091376275200,3.354275146484375,7.555917484101653,6.2461354467391965,0.25355065390523523
1789064091386312200,3.364312255859375,7.567755221411585,6.23307313607037,0.21970486373100429
1789064091396348200,3.37434814453125,7.5763541229307645,6.223773392805457,0.18409266667244956
1789064091406385200,3.38438525390625,7.577648254394531,6.223155553168058,0.14824614026821217
1789064091416422100,3.394422119140625,7.571293332409859,6.23165742405355,0.11112931993352249
1789064091426459400,3.40445947265625,7.560556249818205,6.245212486675381,0.07545151029285042
1789064091436496400,3.414496337890625,7.546181102985143,6.26293285228312,0.034713830296590455
1789064091446533000,3.424533203125,7.52302351475954,6.290826821380853,-0.0011243528996343229
1789064091456570000,3.434570068359375,7.499187296620011,6.319108913013339,-0.03783706318392651
1789064091466606000,3.444606201171875,7.481652808973193,6.339498205569386,-0.07755787145495414
1789064091476643300,3.454643310546875,7.4669795559763905,6.356123177155852,-0.11960082308021373
1789064091486680300,3.464680419921875,7.455895851904153,6.368147376948595,-0.1634081905621104
1789064091496717300,3.47471728515625,7.447961551773548,6.376430636647343,-0.19844532767906783
1789064091506754000,3.484754150390625,7.447054958322644,6.3763254227071995,-0.23285644185217097
1789064091516791000,3.494791015625,7.447668121784925,6.374560751122236,-0.2600096025199629
1789064091526828300,3.504828369140625,7.447906606715917,6.373112305879593,-0.28723646774478256
1789064091536864300,3.5148642578125,7.448574130713939,6.371311393937468,-0.30905962902884926
1789064091546901200,3.5249013671875,7.449366157874465,6.368661756211519,-0.3427391592580825
1789064091556938200,3.534938232421875,7.4495590500980615,6.36640316362977,-0.37863326026424765
1789064091566975200,3.544975341796875,7.442042683118581,6.373481139191985,-0.4063482925985008
1789064091577012200,3.55501220703125,7.430815186661482,6.385128906887769,-0.42836836469415573
1789064091587049200,3.56504931640625,7.415485515582561,6.40183921867013,-0.44431748284567146
1789064091597086200,3.575086181640625,7.401831668761372,6.416296783089638,-0.4630452719302848
1789064091607122200,3.5851220703125,7.3863552826881405,6.432839337089657,-0.48033433344867077
1789064091617159200,3.5951591796875,7.373181912860274,6.446400244930386,-0.5004980005552991
1789064091627196400,3.605196533203125,7.365600663951039,6.453589864173531,-0.519123352178745
1789064091637233200,3.615233154296875,7.362469964709877,6.4554305236041545,-0.5402217063196003
1789064091647270100,3.625270263671875,7.362486915844679,6.454059819772839,-0.5561253413615748
1789064091657307100,3.63530712890625,7.365033093196153,6.449653109246492,-0.5732764191813766
1789064091667344400,3.645344482421875,7.372830615204572,6.4395420495986935,-0.5865586562111973
1789064091677380400,3.65538037109375,7.381175249701738,6.428572327294946,-0.6017422698829322
1789064091687417300,3.665417236328125,7.38022014093399,6.4289674640923735,-0.6091849871043116
1789064091697454300,3.675454345703125,7.375455703011155,6.433589278674125,-0.6180330410789698
1789064091707491000,3.685490966796875,7.369196642616391,6.4392363446503875,-0.6336923094384372
1789064091717528000,3.695528076171875,7.357866854828596,6.450072795963287,-0.6547843434363603
1789064091727565300,3.7055654296875,7.338712072503566,6.469959399694204,-0.6732887720938772
1789064091737602300,3.715602294921875,7.3213126094132654,6.489571862658858,-0.6739608261365443
1789064091747638300,3.72563818359375,7.3139903037011615,6.498678129178285,-0.66566938313134
1789064091757675300,3.73567529296875,7.31682932651937,6.495062276768684,-0.6697473731599748
1789064091767712300,3.745712158203125,7.319490070161223,6.48977235366702,-0.6915867914590984
1789064091777749200,3.755749267578125,7.303542559444904,6.50486003268361,-0.71794821722731
1789064091787786200,3.7657861328125,7.286222006809711,6.523548951062559,-0.7243337535459548
1789064091797823200,3.7758232421875,7.27904407800436,6.530693562120199,-0.732080422149971
1789064091807860500,3.785860595703125,7.277890816316008,6.531797139447927,-0.7336968443706631
1789064091817896400,3.795896484375,7.28422820264399,6.524989797520637,-0.7313692782059311
1789064091827933200,3.80593310546875,7.29899848627448,6.508290007132292,-0.7329149002127349
1789064091837970200,3.81597021484375,7.310172206717729,6.495362136498093,-0.7362265089787542
1789064091848007200,3.826007080078125,7.314657827699184,6.489860031950474,-0.7401894943255931
1789064091858044200,3.836044189453125,7.318785136762261,6.48479398073256,-0.743778531793505
1789064091868081400,3.846081298828125,7.31561702812016,6.488439643758535,-0.7431619342651218
1789064091878118400,3.856118408203125,7.304618079721927,6.501444671282171,-0.7376713740248233
1789064091888155100,3.866155029296875,7.295615273576974,6.512219747796654,-0.7316971949860454
1789064091898191000,3.876191162109375,7.28655869141817,6.522907146027684,-0.7267227675743401
1789064091908228000,3.88622802734375,7.27441758724749,6.536712968540192,-0.7242989744935184
1789064091918265300,3.896265380859375,7.264727967882156,6.548142709571123,-0.7182854863576591
1789064091928302300,3.90630224609375,7.264057521274686,6.54941579824686,-0.7134433070234953
1789064091938339300,3.91633935546875,7.2704416693538425,6.543196485340595,-0.7054444902893156
1789064091948376000,3.9263759765625,7.2766393549501895,6.537373478275537,-0.69544675482288
1789064091958413300,3.936413330078125,7.285117260438203,6.52923810261488,-0.6830067407708614
1789064091968449300,3.94644921875,7.301783733078837,6.512251311978697,-0.6670305154167115
1789064091978486300,3.956486328125,7.320430565881729,6.491752713829278,-0.6624402650170028
1789064091988523300,3.966523193359375,7.331154204469919,6.480520541197061,-0.6537696134358644
1789064091998560300,3.976560302734375,7.337692081806063,6.475019021171331,-0.6346554553821683
1789064092008597200,3.98659716796875,7.345526428693533,6.468564145943522,-0.6093399219376966
1789064092018634200,3.99663427734375,7.349520466765761,6.466239502388238,-0.585389575899206
1789064092028670200,4.006670166015625,7.3498945607751605,6.468001251363754,-0.5607062394110486
1789064092038707200,4.016707275390625,7.345836809816956,6.474783458849787,-0.5350193153709173
1789064092048744200,4.026744140625,7.334791099667549,6.489498212900758,-0.5075833191737532
1789064092058781200,4.03678125,7.321935709747672,6.506394987165928,-0.4758895924668759
1789064092068818400,4.046818359375,7.319080320316552,6.511548716667294,-0.44853334697503594
1789064092078855200,4.056855224609375,7.322828274673223,6.509390077328682,-0.41762631366644054
1789064092088892200,4.06689208984375,7.328402859935164,6.505363306030631,-0.38097394163887943
1789064092098928000,4.07692822265625,7.336842186978459,6.498112311989068,-0.3400964992621913
1789064092108965000,4.086965087890625,7.349505269196629,6.485680115917325,-0.3018463001165539
1789064092119002400,4.09700244140625,7.368288295599818,6.465833844196796,-0.26777928667338563
1789064092129039400,4.107039306640625,7.384183199346065,6.44891135096848,-0.23612991056488825
1789064092139076400,4.117076416015625,7.393520352011919,6.439404686954617,-0.20078339697150513
1789064092149113000,4.127113037109375,7.396327226126194,6.43734716990292,-0.1590074348525144
1789064092159150300,4.137150390625,7.397503868690133,6.436848572731018,-0.11958821932696737
1789064092169187300,4.147187255859375,7.394660169696808,6.44076077773869,-0.07733086689920164
1789064092179223300,4.157223388671875,7.390859023848176,6.445492482435703,-0.034891340004676016
1789064092189260300,4.16726025390625,7.383177821695804,6.454383644899726,0.0029725735119136513
1789064092199297300,4.17729736328125,7.374788763535022,6.4638721887350075,0.03527172904083272
1789064092209334300,4.187334228515625,7.36951637609005,6.469587643772363,0.07103791793456767
1789064092219371300,4.197371337890625,7.371691382041573,6.466586123868822,0.10865712113371118
1789064092229408300,4.207408203125,7.386613641363382,6.448830102425814,0.1446288813528139
1789064092239445200,4.2174453125,7.401421918916702,6.430780066472291,0.1854773076975718
1789064092249481200,4.227481201171875,7.41043232384622,6.419037021708488,0.22768439124282447
1789064092259518200,4.237518310546875,7.424314134204387,6.4019198826909065,0.2556883965862915
1789064092269555500,4.247555419921875,7.437293442764878,6.385999259981513,0.2758027081258595
1789064092279592200,4.25759228515625,7.445226573851704,6.375586587038636,0.3014725896996446
1789064092289629200,4.267629150390625,7.452983179327845,6.365045319280028,0.331099392205663
1789064092299666200,4.277666259765625,7.457849908581376,6.357775620537996,0.3599213628685102
1789064092309702100,4.2877021484375,7.463625569373368,6.349846581104398,0.37962764159645884
1789064092319739400,4.297739501953125,7.469533916634321,6.342387497270107,0.38804117661137133
1789064092329776400,4.3077763671875,7.474419350588321,6.336258200734854,0.3940397594390437
1789064092339813000,4.317813232421875,7.479093187618255,6.3303036762446165,0.40100452041774987
1789064092349850000,4.32785009765625,7.480273337313532,6.32803923844397,0.41449766025189305
1789064092359887400,4.337887451171875,7.482914207211136,6.32425445920825,0.4244885641187429
1789064092369924400,4.34792431640625,7.4900897979289285,6.315411812061071,0.42954182892031967
1789064092379960300,4.357960205078125,7.493921338915825,6.310687706148624,0.432138457817398
1789064092389997300,4.367997314453125,7.495922741866111,6.3082747997879975,0.4326633584743365
1789064092400034300,4.378034423828125,7.499505276528001,6.304311156854033,0.42833873674087225
1789064092410071300,4.3880712890625,7.5102008580654855,6.292699629515409,0.4113446030484512
1789064092420108300,4.3981083984375,7.519985754498839,6.281758548784255,0.39964013672936705
1789064092430145300,4.408145263671875,7.522900765162706,6.2783250672042366,0.39873613709434863
1789064092440182300,4.418182373046875,7.520631066665053,6.280858969596028,0.4016284975349903
1789064092450218200,4.42821826171875,7.516321386772394,6.286014452663063,0.40164628892000764
1789064092460255200,4.438255126953125,7.509052857074141,6.294838395109772,0.3994047570709139
1789064092470292200,4.448292236328125,7.499564313238858,6.306794790363312,0.3889310015905648
1789064092480329200,4.4583291015625,7.487545958665013,6.321966056010127,0.3738938471848145
1789064092490366200,4.4683662109375,7.4763137860327955,6.336138958269357,0.35840577067378904
1789064092500403200,4.4784033203125,7.468498143845796,6.345951327231526,0.34758272683173413
1789064092510440400,4.4884404296875,7.463454304459691,6.352313263478875,0.33963085451181974
1789064092520476400,4.498476318359375,7.461430105155706,6.354957640507817,0.33459713466092944
1789064092530513400,4.508513427734375,7.466335997375846,6.349662456709146,0.3255703265858814
1789064092540550100,4.518550048828125,7.475178060001134,6.3397285071939224,0.31614319408163427
1789064092550587100,4.528587158203125,7.487697349834442,6.325791167256236,0.2985541449696757
1789064092560624400,4.538624267578125,7.502175957041978,6.309675898757576,0.27518601926593106
1789064092570661400,4.548661376953125,7.5071338717103,6.304542627522349,0.257046441865433
1789064092580698400,4.558698486328125,7.503252061840891,6.309582959777116,0.24650871777078134
1789064092590734300,4.568734375,7.498539061844348,6.31561814828813,0.23510626660557463
1789064092600771000,4.57877099609375,7.497394567984342,6.317801922067999,0.21176393293021245
1789064092610808300,4.588808349609375,7.493715002688765,6.32292993260622,0.1875518489493057
1789064092620845300,4.59884521484375,7.483114698219299,6.336020884847641,0.16798285980019717
1789064092630882300,4.60888232421875,7.470650353443622,6.3511255149990316,0.15157206982052884
1789064092640919300,4.618919189453125,7.4625722609281535,6.361061802601814,0.13151806450029835
1789064092650956000,4.6289560546875,7.45858815972805,6.366263462898135,0.10265480284583754
1789064092660992300,4.6389921875,7.455574949386715,6.370205478522181,0.0725536425600294
1789064092671029200,4.649029296875,7.4538570395529264,6.37244595092535,0.04825382093016523
1789064092681066200,4.659066162109375,7.458564194330573,6.367057828146219,0.027933312444144393
1789064092691103200,4.669103271484375,7.472816591566801,6.350384925764799,0.0030267753590946084
1789064092701140200,4.67914013671875,7.4895982150197025,6.330534562391042,-0.025083772798499555
1789064092711177500,4.689177490234375,7.504415260401368,6.312756329116225,-0.05697918010691646
1789064092721214200,4.699214111328125,7.522374695461988,6.2908747521758075,-0.09574814699622802
1789064092731250200,4.709250244140625,7.536860901454091,6.27276100333631,-0.13634858079613185
1789064092741287200,4.719287109375,7.544138783502579,6.263052679270506,-0.17472889999430627
1789064092751324200,4.72932421875,7.54508687800765,6.26080753069222,-0.21058250459330155
1789064092761361200,4.739361083984375,7.532700859165192,6.274601662766933,-0.24119736828859895
1789064092771398400,4.7493984375,7.507325594890117,6.303614991283417,-0.27365946728577834
1789064092781435100,4.75943505859375,7.474236979758739,6.341426543283462,-0.3040928734669462
1789064092791472000,4.76947216796875,7.437907190749049,6.3824722548991435,-0.33463110999576745
1789064092801508000,4.779508056640625,7.403218154683708,6.420718691185116,-0.3702895756151527
1789064092811545000,4.789545166015625,7.368444362944365,6.4587465162843465,-0.4012526864925399
1789064092821582300,4.799582275390625,7.338634331092238,6.491151825326681,-0.4239966524159536
1789064092831619300,4.809619384765625,7.3259069514662025,6.504113013708591,-0.4449586668260395
1789064092841656300,4.81965625,7.32865361982584,6.499362019789219,-0.4685246897220611
1789064092851693000,4.829693115234375,7.339868256801366,6.484981027737259,-0.4916725968038663
1789064092861730000,4.83972998046875,7.358126382547616,6.462119207587838,-0.5190189054235815
1789064092871766300,4.849766357421875,7.3820268980950114,6.432250723546743,-0.54973151213862
1789064092881803300,4.85980322265625,7.4096461419045925,6.397664563333988,-0.5808760074649005
1789064092891840300,4.86984033203125,7.435464473772049,6.364390070241689,-0.6154631905909628
1789064092901877200,4.879877197265625,7.458585237118601,6.335139425837993,-0.637104236773774
1789064092911914000,4.8899140625,7.476203311395644,6.313277138119935,-0.6475340800471604
1789064092921951200,4.899951171875,7.486088745594024,6.300223010757565,-0.6603404431935399
1789064092931988200,4.90998828125,7.4887822224617,6.295702902984619,-0.6727955817494541
1789064092942024200,4.920024169921875,7.4845070293605325,6.29961569251418,-0.6836584096126258
1789064092952061200,4.930061279296875,7.468308174231648,6.318184199383855,-0.6894190189659595
1789064092962098200,4.94009814453125,7.442554724293947,6.347726520210504,-0.6965127035539597
1789064092972135400,4.950135498046875,7.412990776157379,6.38152766752541,-0.7028858918476849
1789064092982172200,4.960172119140625,7.381532977098226,6.417476348263025,-0.7066421756412834
1789064092992209200,4.970209228515625,7.349008425590395,6.454798655441403,-0.7057097901619971
1789064093002245000,4.9802451171875,7.323713825336098,6.483906091982126,-0.7018248384874314
1789064093012282000,4.9902822265625,7.316898884624242,6.4905006679415695,-0.7118777382072061
1789064093022319400,5.0003193359375,7.322943425485492,6.483211679977178,-0.716139487304911
1789064093032356400,5.0103564453125,7.337485161057114,6.467580395603179,-0.7085849072068929
1789064093042393000,5.02039306640625,7.365396081289648,6.435716938352584,-0.7091342116527259
1789064093052430000,5.03043017578125,7.399998608115315,6.394779947808384,-0.7191573007561266
1789064093062467000,5.040467041015625,7.430969500440359,6.3574646548926825,-0.7305634417157619
1789064093072503300,5.05050341796875,7.453709155514836,6.329803910028934,-0.7390425893127918
1789064093082540300,5.060540283203125,7.464141702201962,6.316693668565153,-0.7458904824461787
1789064093092577300,5.070577392578125,7.461606046244501,6.319490021285414,-0.7475675488129258
1789064093102614300,5.0806142578125,7.445222482198476,6.338901408720016,-0.7465742269266397
1789064093112651000,5.090651123046875,7.4173898878991595,6.371243004876375,-0.7483142755270004
1789064093122688300,5.100688232421875,7.383053903055191,6.410227692309022,-0.7549060019422322
1789064093132725200,5.110725341796875,7.349611067658662,6.447606698110699,-0.7628677746016532
1789064093142761200,5.12076123046875,7.324340432801843,6.474346820998192,-0.7792635405421257
1789064093152798200,5.130798095703125,7.306718851393461,6.492335482153296,-0.7948708595186471
1789064093162835200,5.140835205078125,7.296008656808733,6.503382945868372,-0.8029015326958149
1789064093172872200,5.1508720703125,7.296736971083283,6.502589749664068,-0.8027090788636356
1789064093182909200,5.1609091796875,7.304559043011069,6.494643759095668,-0.7958651312530041
1789064093192946200,5.1709462890625,7.316501994261145,6.481992367315292,-0.7892723819244652
1789064093202983200,5.180983154296875,7.331214410224557,6.46496758275628,-0.7923891987707465
1789064093213019100,5.19101904296875,7.346269940537214,6.445281470033526,-0.8130501478750258
1789064093223056400,5.201056396484375,7.361635267451405,6.42270840369761,-0.8517718735225498
1789064093233093400,5.21109326171875,7.376749249953031,6.398673448115587,-0.9005193186219781
1789064093243130000,5.221130126953125,7.38460230154097,6.382000545734167,-0.9529453791689128
1789064093253167000,5.2311669921875,7.382143217951059,6.378378263583779,-0.9953111604072153
1789064093263204000,5.2412041015625,7.37660311948061,6.378837113267183,-1.0327351013291626
1789064093273240300,5.251240234375,7.369903329581022,6.37796617565155,-1.0846434216123073
1789064093283277300,5.26127734375,7.353559513023495,6.388958109787106,-1.1299395572140811
1789064093293314300,5.271314208984375,7.3303767903566355,6.407148430994153,-1.1766065427776424
1789064093303351000,5.28135107421875,7.310024322679639,6.423060285875201,-1.2158221894219516
1789064093313388000,5.291387939453125,7.293930096969008,6.431797719082236,-1.2652834088139235
1789064093323425300,5.30142529296875,7.284456166180968,6.432106346639991,-1.3172313304550944
1789064093333462300,5.311462158203125,7.279328740164637,6.429380721068382,-1.3582403633221982
1789064093343498200,5.321498291015625,7.281189857861399,6.419001950395107,-1.3968090172998606
1789064093353535200,5.33153515625,7.294463765454291,6.394180812871456,-1.4407029579535127
1789064093363572200,5.341572265625,7.315321260043978,6.3603159526705735,-1.4841969395041466
1789064093373609200,5.351609130859375,7.341663908046484,6.321768487611412,-1.518416896753013
1789064093383646200,5.361646240234375,7.369644970905781,6.280531052815914,-1.553591085986793
1789064093393683200,5.37168310546875,7.396143101730942,6.2410787478715175,-1.586312329110503
1789064093403720200,5.38172021484375,7.422344295436144,6.20211451870501,-1.6164691285736859
1789064093413756200,5.391756103515625,7.440750889742374,6.170385501489043,-1.6528618998169897
1789064093423793400,5.40179345703125,7.448659470909833,6.1528176960945125,-1.6824658877030014
1789064093433830100,5.411830078125,7.446212662279605,6.1493374527633184,-1.7058569924235343
1789064093443867100,5.4218671875,7.437188228824734,6.154861769142746,-1.7251950223609804
1789064093453904100,5.431904052734375,7.427424959701299,6.162566352170705,-1.739688827137649
1789064093463941000,5.441941162109375,7.418518015146255,6.169187816137075,-1.7541664114318787
1789064093473978400,5.451978271484375,7.408905552670359,6.178943486475944,-1.7604447610490024
1789064093484014300,5.462014404296875,7.399325238898396,6.1900844736933704,-1.7615975843459366
1789064093494051300,5.47205126953125,7.39376059050858,6.19687427996397,-1.7610900732152164
1789064093504088000,5.482088134765625,7.395444013550877,6.194703365665674,-1.7616598359271882
1789064093514125000,5.492125,7.403917827385664,6.184627961853146,-1.7614675282254815
1789064093524162300,5.502162353515625,7.418734288245439,6.1667170421093696,-1.7619206788204609
1789064093534199300,5.51219921875,7.437749954360723,6.144791626027226,-1.758348957813531
1789064093544235300,5.5222353515625,7.456534734329581,6.126007430580258,-1.7442776162326334
1789064093554272300,5.532272216796875,7.475439341285824,6.107685591948032,-1.7275328176587819
1789064093564309200,5.542309326171875,7.491660992768407,6.092121527591347,-1.7121480553917585
1789064093574346200,5.55234619140625,7.5036249868065115,6.08189648617506,-1.6960348327197134
1789064093584383200,5.56238330078125,7.509196064937115,6.07745821146667,-1.6872637895040212
1789064093594420200,5.572420166015625,7.508152108842134,6.081524145731329,-1.6772300328761338
1789064093604457200,5.582457275390625,7.501233707755803,6.098209907594323,-1.6473353914804756
1789064093614493200,5.5924931640625,7.489482479685544,6.123515029242634,-1.6064219279423355
1789064093624530400,5.602530517578125,7.474324658042192,6.153057934591174,-1.5635646368600427
1789064093634567200,5.612567138671875,7.456749253863096,6.185583070620894,-1.518499022078514
1789064093644604200,5.622604248046875,7.442610838395357,6.212413794401288,-1.4777826885476708
1789064093654641200,5.63264111328125,7.433821382740139,6.225344587644934,-1.4675697759605943
1789064093664678100,5.64267822265625,7.430096224737167,6.227902455434203,-1.4755604824535549
1789064093674715400,5.65271533203125,7.438178993427753,6.2249482818037265,-1.4470287999741733
1789064093684751400,5.66275146484375,7.455639246794581,6.217163619276881,-1.389498548156023
1789064093694788000,5.6727880859375,7.476551101920008,6.202620714661479,-1.3412883517384528
1789064093704825000,5.6828251953125,7.501451149898767,6.182500886696577,-1.2943347312532365
1789064093714862000,5.692862060546875,7.5270941251993175,6.160764855706692,-1.2482830280438064
1789064093724899300,5.7028994140625,7.547519073590636,6.144807408118248,-1.2027798986278473
1789064093734936300,5.712936279296875,7.559059873780607,6.141008600357175,-1.148481029946357
1789064093744972800,5.722972900390625,7.563449048650265,6.146831022900343,-1.0867765611834823
1789064093755009500,5.733009521484375,7.564272055470943,6.156100955548882,-1.0269364980529994
1789064093765046500,5.743046630859375,7.5568872059166425,6.172047881743311,-0.9847165550261735
1789064093775083800,5.753083740234375,7.541564549100398,6.198625507545471,-0.933936727316305
1789064093785120800,5.763120849609375,7.526209159058332,6.225552677437663,-0.8769619174238293
1789064093795157800,5.77315771484375,7.51696202276349,6.244037597677111,-0.823204389077425
1789064093805194500,5.783194580078125,7.513429756984114,6.254547885775565,-0.7742015079122037
1789064093815230700,5.793230712890625,7.518014162164926,6.255307764232159,-0.7217838498674333
1789064093825267700,5.803267822265625,7.534505278238654,6.241202081990242,-0.6700847884207963
1789064093835304700,5.8133046875,7.559121833100915,6.2159934064537286,-0.6256858208544552
1789064093845341700,5.823341796875,7.579909769585728,6.195151109433174,-0.5791801633324474
1789064093855378700,5.833378662109375,7.593116457161307,6.184369018656015,-0.5182134342595934
1789064093865416000,5.843416015625,7.60941000483632,6.1687482556760305,-0.46239086314216254
1789064093875452700,5.85345263671875,7.62287680465281,6.154218795064091,-0.4332754259580746
1789064093885488600,5.863488525390625,7.623909654831886,6.154667707875371,-0.4079975211102515
1789064093895525600,5.873525634765625,7.614322911319136,6.1684934041321275,-0.37705548955351115
1789064093905562600,5.883562744140625,7.597557654479146,6.191013278976082,-0.3447694595092907
1789064093915600000,5.893599853515625,7.576491485574841,6.218738321247696,-0.30734595697876066
1789064093925636900,5.903636962890625,7.558194781383872,6.242838743281364,-0.2665454157631844
1789064093935673600,5.913673583984375,7.545762000790238,6.259209447845817,-0.2327304043197073
1789064093945709800,5.923709716796875,7.53367291906774,6.274656607824563,-0.20697868968136607
1789064093955746600,5.93374658203125,7.5231135311305515,6.288038651967049,-0.18360961412955074
1789064093965783600,5.943783447265625,7.520296720144152,6.292322028374672,-0.1490441313786432
1789064093975820800,5.95382080078125,7.538256155204772,6.2714867456167935,-0.1163571832501795
1789064093985857800,5.96385791015625,7.558339158290624,6.24724779189527,-0.11744608359858393
1789064093995894800,5.973894775390625,7.568177246215939,6.235541572010517,-0.10537650116099975
1789064094005931500,5.983931640625,7.583519192254543,6.217272340348362,-0.07841410469179973
1789064094015967500,5.993967529296875,7.610094479969144,6.184799226766824,-0.07150443946777377
1789064094026004700,6.004004638671875,7.6268772724658245,6.164204182505607,-0.06091010351479053
1789064094036041700,6.014041748046875,7.631410239720344,6.158759945625066,-0.040489402040326965
1789064094046078700,6.02407861328125,7.623345006686448,6.16876812942028,-0.036102072067884725
1789064094056115700,6.03411572265625,7.59629976337254,6.202068925997614,-0.030967640922032295
1789064094066152700,6.044152587890625,7.555740373969078,6.251433553147316,-0.027406909383286254
1789064094076189000,6.05418896484375,7.512211028844118,6.303703254088759,-0.019941560204990674
1789064094086225700,6.0642255859375,7.469697582763433,6.354045201838016,-0.010469849915144732
1789064094096262700,6.0742626953125,7.42634125611782,6.40467298079133,0.0015846037373776197
1789064094106299600,6.084299560546875,7.391320796141028,6.445037724405527,0.01570097148467903
1789064094116337000,6.0943369140625,7.371258251321315,6.467935784912109,0.027367579736607146
1789064094126374000,6.104373779296875,7.364222361335158,6.475926783666014,0.03137546367109753
1789064094136410600,6.11441064453125,7.364094351041317,6.47602790595293,0.03947311483698431
1789064094146446600,6.124446533203125,7.367227972891927,6.472376982229948,0.051667798658693205
1789064094156483600,6.134483642578125,7.367688576140999,6.471768494942784,0.06128800148305017
1789064094166520800,6.144520751953125,7.363216983684897,6.4767223179578775,0.074047657677182
1789064094176557800,6.154557861328125,7.362965054750442,6.476881892433762,0.08444052537446842
1789064094186594800,6.1645947265625,7.367803726953268,6.471316075000167,0.08898995970659888
1789064094196631600,6.174631591796875,7.369881117749213,6.468766390517354,0.10150571500910445
1789064094206668500,6.18466845703125,7.370459209898113,6.467806605574488,0.11913800960774533
1789064094216704500,6.19470458984375,7.372564073222875,6.46523061760664,0.12839479964692144
1789064094226741800,6.20474169921875,7.368586401763558,6.469739034941792,0.1295902839086484
1789064094236778800,6.21477880859375,7.354547355017066,6.485588345980644,0.1347909943568986
1789064094246815700,6.224815673828125,7.334119484016298,6.508464779177308,0.1447886841575615
1789064094256852700,6.234852783203125,7.310070499908924,6.535225360330939,0.1551790356707759
1789064094266889700,6.2448896484375,7.288787473383546,6.5586378001004455,0.1680366906129755
1789064094276925700,6.25492578125,7.2749699604332445,6.573606236651539,0.18138717057341708
1789064094286962700,6.264962646484375,7.268001290464401,6.581043108654022,0.1908316560712643
1789064094296999700,6.274999755859375,7.264227032622695,6.585031301507353,0.19686618699515238
1789064094307036700,6.28503662109375,7.265603581672907,6.5833958092600104,0.20070247722240164
1789064094317074000,6.295073974609375,7.272235567033291,6.576036678668856,0.20175083549786357
1789064094327110700,6.305110595703125,7.2773513026118275,6.570156972980499,0.20878464312478898
1789064094337147600,6.315147705078125,7.279502343165874,6.567516103082895,0.21669983669612555
1789064094347183600,6.32518359375,7.284001992672682,6.562693212971091,0.21156704038493335
1789064094357220600,6.335220703125,7.287740010157227,6.558650075060129,0.20820087015377356
1789064094367257900,6.3452578125,7.28475018069148,6.561871375194191,0.2112984708429314
1789064094377294800,6.355294921875,7.282631873363256,6.564194265183806,0.21216191927185282
1789064094387331800,6.365331787109375,7.2869988364011045,6.5596005076527595,0.20413855261830613
1789064094397368600,6.37536865234375,7.2826207674473515,6.564812104821205,0.1925159924290143
1789064094407404500,6.385404541015625,7.270957217660546,6.577841682264208,0.18856913623306898
1789064094417441500,6.395441650390625,7.26852502207756,6.580495411643385,0.1897450846772641
1789064094427478800,6.405478759765625,7.274329908964037,6.5741966037601225,0.18558767273686824
1789064094437515800,6.415515869140625,7.27924982970953,6.568944090059399,0.17852913252748548
1789064094447552800,6.425552734375,7.281701314514875,6.566439998283982,0.17050523615097626
1789064094457589500,6.435589599609375,7.286890699851512,6.5607695514321325,0.16706901462459936
1789064094467626800,6.445626708984375,7.294303021934628,6.552478108426929,0.1689740262620151
1789064094477662700,6.455662841796875,7.303729606449604,6.542013413035869,0.16730875993091612
1789064094487699700,6.46569970703125,7.318566525575518,6.525625757336616,0.15866231120927257
1789064094497736700,6.47573681640625,7.333517426469921,6.509041117760539,0.14929510133187285
1789064094507773700,6.485773681640625,7.349141696581244,6.491537025251985,0.14298313257293774
1789064094517811000,6.49581103515625,7.3675015291363,6.47076837798953,0.1395503999115899
1789064094527847700,6.50584765625,7.386354698166251,6.449253880795836,0.1388206151991617
1789064094537883600,6.515883544921875,7.399772982665896,6.433840038564801,0.13946843898287042
1789064094547920600,6.525920654296875,7.406142517697811,6.426588460001349,0.1356477573167067
1789064094557957600,6.53595751953125,7.404623345306515,6.428292925831675,0.1377795543141663
1789064094567995000,6.545994873046875,7.399491243115067,6.434188998132944,0.1382739776344504
1789064094578031900,6.556031982421875,7.394545018884539,6.439891593688726,0.1374156163726002
1789064094588068600,6.566068603515625,7.391930452471971,6.443023461973667,0.1311626386587508
1789064094598105600,6.576105712890625,7.392572842028737,6.442452384087443,0.12268890702235512
1789064094608141600,6.5861416015625,7.392029821193217,6.4431713460117574,0.11760743903960101
1789064094618178600,6.596178466796875,7.389473122447729,6.44611382920444,0.11702756592556833
1789064094628215800,6.6062158203125,7.393611537426709,6.441399660164118,0.11517913418044336
1789064094638252800,6.616252685546875,7.401206814861297,6.432730616018175,0.1117894734758418
1789064094648289800,6.626289794921875,7.402946936526894,6.430746748724579,0.11072796345786191
1789064094658326500,6.636326416015625,7.405600665906071,6.4277399681240315,0.10783855302613228
1789064094668362500,6.646362548828125,7.406713595584034,6.426491429367661,0.10577896274835802
1789064094678399700,6.656399658203125,7.405325356096029,6.428197648763656,0.0990706150829792
1789064094688436700,6.666436767578125,7.406716518193483,6.426739851170778,0.08916334351212717
1789064094698473700,6.6764736328125,7.406101601165533,6.427616634005307,0.0760986856225878
1789064094708510700,6.6865107421875,7.398308170810341,6.436663279291987,0.0691761015514843
1789064094718547700,6.696547607421875,7.394094352507591,6.441611841610074,0.058271955297235396
1789064094728584700,6.706584716796875,7.393770527380704,6.442091734081506,0.044790072076045906
1789064094738620700,6.71662060546875,7.39157857029438,6.444671813702583,0.034022386566863856
1789064094748657000,6.726656982421875,7.38868752502799,6.448010018214583,0.029244801468087823
1789064094758694100,6.736694091796875,7.392256615686416,6.443934147077798,0.025211091255885547
1789064094768731100,6.746731201171875,7.402064892995357,6.432690868529677,0.017656256571185077
1789064094778768100,6.75676806640625,7.405782452213764,6.428429119431972,0.008187911277959937
1789064094788805000,6.76680517578125,7.40233903376162,6.432398023062944,-0.0031179833213609526
1789064094798841000,6.776841064453125,7.396823485210538,6.43871027494967,-0.019812147971929515
1789064094808878000,6.786878173828125,7.388185420724749,6.448567652097344,-0.03294458071792032
1789064094818915000,6.7969150390625,7.377861595109104,6.460334662258624,-0.04026044755608309
1789064094828952000,6.8069521484375,7.367901342108845,6.471680232137441,-0.042059263439243655
1789064094838989000,6.816989013671875,7.356894794926047,6.484202444580197,-0.04005483741480857
1789064094849026300,6.8270263671875,7.351379830896854,6.490403637307882,-0.04755897053380031
1789064094859062300,6.837062255859375,7.349362061333656,6.492579812303185,-0.060565144268330186
1789064094869099300,6.847099365234375,7.34562579741478,6.4966843250125645,-0.07250150594741571
1789064094879136000,6.857135986328125,7.346759769880771,6.495327065184712,-0.07893948940592818
1789064094889173000,6.867173095703125,7.350296711835265,6.491273405879736,-0.08306774831707589
1789064094899210000,6.8772099609375,7.354541509798168,6.4864499312460415,-0.08408020416209473
1789064094909247200,6.887247314453125,7.359284904932975,6.481023230022192,-0.08746527088996954
1789064094919284200,6.8972841796875,7.358396431660652,6.481980092355609,-0.09122807575589977
1789064094929320200,6.9073203125,7.355650932344794,6.485083903589844,-0.0920515392343048
1789064094939357000,6.91735693359375,7.3537097351491445,6.4872139013558625,-0.0969211819641292
1789064094949394000,6.927393798828125,7.346723529523611,6.495131834873557,-0.09640705842953175
1789064094959431200,6.93743115234375,7.334931384921074,6.508448997086286,-0.09625495487404986
1789064094969468200,6.94746826171875,7.318930682712793,6.526428890413046,-0.09678744518239982
1789064094979505200,6.957505126953125,7.309805126971006,6.536537611973285,-0.10395310816122218
1789064094989541000,6.967541015625,7.305799982982873,6.540890546485781,-0.11145027724988758
1789064094999578000,6.977578125,7.300036597150564,6.547273525521159,-0.11426026576985604
1789064095009615000,6.987614990234375,7.298341483670472,6.549186665666103,-0.11291680613849311
1789064095019652000,6.997652099609375,7.304342769911885,6.542501488813757,-0.11243806444453075
1789064095029689000,7.007689208984375,7.313408704420924,6.532292229488491,-0.1166319085383322
1789064095039726000,7.01772607421875,7.318160282862186,6.526874880614876,-0.12175912449210881
1789064095049763300,7.027763427734375,7.317894909924268,6.52710927389264,-0.12508018607306293
1789064095059799300,7.03779931640625,7.318213474354147,6.526695432394742,-0.12801008377880788
1789064095069836000,7.0478359375,7.321710084298252,6.522644695699214,-0.13433945119711568
1789064095079873000,7.057873046875,7.322675129938125,6.5214423341721295,-0.1400295617306605
1789064095089910000,7.067909912109375,7.321401456740498,6.522768614339828,-0.14477293859915807
1789064095099947000,7.077947021484375,7.321382167518139,6.5226686610966915,-0.1501470876518637
1789064095109984300,7.087984375,7.316525375136733,6.528123419371247,-0.14979475794970057
1789064095120020200,7.098020263671875,7.311328391015529,6.533969222790002,-0.1486623381199781
1789064095130057200,7.10805712890625,7.308758832788467,6.536776681426167,-0.15156247087512165
1789064095140094000,7.118093994140625,7.306026777476072,6.539491201081872,-0.1655510112770833
1789064095150131000,7.128130859375,7.294433370316028,6.5521852629601955,-0.174623448592145
1789064095160168200,7.138168212890625,7.278354926696419,6.569812689587473,-0.18301497270464895
1789064095170205200,7.148205078125,7.267884386086464,6.581116758412122,-0.1927317723378539
1789064095180242200,7.1582421875,7.261731708675622,6.587582155033946,-0.20347566826278343
1789064095190278100,7.168278076171875,7.261161215311288,6.587877338588237,-0.21401140132974833
1789064095200315000,7.17831494140625,7.263569445496797,6.584903291213512,-0.22358418938238173
1789064095210352000,7.18835205078125,7.267048519784212,6.580610562455654,-0.2365548945113085
1789064095220389000,7.19838916015625,7.273741879943013,6.572758095389604,-0.24882554334579035
1789064095230426000,7.208426025390625,7.283124040794372,6.56180006352365,-0.26318742883848023
1789064095240463000,7.218463134765625,7.294658995765447,6.548115237042308,-0.28375202316250653
1789064095250499000,7.2284990234375,7.301334235745668,6.540059356358647,-0.29754290383420884
1789064095260536300,7.238536376953125,7.306345341905951,6.533783929350972,-0.312033457207866
1789064095270573000,7.248572998046875,7.313460142347216,6.525092088851332,-0.32689609529692676
1789064095280610000,7.258610107421875,7.320081606313586,6.516444672015309,-0.35033750543259085
1789064095290647000,7.26864697265625,7.319176766428351,6.516456362453103,-0.36853831150103356
1789064095300684000,7.27868408203125,7.3142106684535735,6.520976470226049,-0.3867415652548894
1789064095310720300,7.28872021484375,7.309278472748399,6.525646215602755,-0.40096795126702633
1789064095320757200,7.29875732421875,7.304376672181487,6.529882245737314,-0.4208456045065075
1789064095330794000,7.3087939453125,7.293546650609374,6.541097467234731,-0.4342922017851844
1789064095340831000,7.3188310546875,7.283315179452299,6.551282761162519,-0.45210813672188666
1789064095350868000,7.328867919921875,7.278561262923478,6.555169831728935,-0.4718803202928975
1789064095360905200,7.3389052734375,7.279564302486181,6.552439529982209,-0.49382334509696807
1789064095370941200,7.348941162109375,7.28288672490716,6.547330808666348,-0.5122536856049672
1789064095380978200,7.358978271484375,7.286437695387005,6.54208706279397,-0.5284930188747122
1789064095391015200,7.36901513671875,7.293283031237125,6.533104130393267,-0.5449408803286031
1789064095401052000,7.379052001953125,7.303522101178765,6.520021361458301,-0.564156525995396
1789064095411089200,7.389089111328125,7.314559043499827,6.505991082540154,-0.5828283105764538
1789064095421126100,7.399126220703125,7.3201003110140554,6.4986863124847405,-0.5946336069215089
1789064095431163100,7.4091630859375,7.320499539464712,6.497306840825081,-0.6047092299297452
1789064095441199000,7.41919921875,7.317136785033345,6.4999342667192215,-0.6170505328476429
1789064095451236000,7.429236083984375,7.313426824599504,6.502264170971513,-0.6361872680593281
1789064095461273000,7.439273193359375,7.306872580650448,6.5072156558990475,-0.6604082477327435
1789064095471310000,7.44931005859375,7.293100075885653,6.520766626867651,-0.6787307439520954
1789064095481347000,7.45934716796875,7.286033790761232,6.527257157930731,-0.6921014629829675
1789064095491384000,7.469384033203125,7.285797643917799,6.526265224283933,-0.7038422427244484
1789064095501420000,7.479419921875,7.2872636248171325,6.523504527398943,-0.7141842615839094
1789064095511457300,7.489457275390625,7.289377255970239,6.5210273236304515,-0.7152299712445587
1789064095521494300,7.499494384765625,7.293899701830744,6.514569525793195,-0.7278734719794243
1789064095531531000,7.509531005859375,7.3004767421334975,6.505095010483265,-0.7464328456945717
1789064095541568000,7.519568115234375,7.304974638074636,6.497956829166412,-0.7643906002547591
1789064095551605000,7.52960498046875,7.310536363855004,6.490379087388515,-0.7755169744249433
1789064095561641000,7.539640869140625,7.320075176572799,6.478423276656866,-0.7854437635470182
1789064095571678200,7.54967822265625,7.333815532633662,6.461188064217567,-0.7991166073296219
1789064095581715200,7.559715087890625,7.3484542988389725,6.4429281849056474,-0.8119577495284378
1789064095591752000,7.569751953125,7.359619835975765,6.429228745377063,-0.8193872419420629
1789064095601789000,7.579788818359375,7.362827107584476,6.424850091901421,-0.8249014753188938
1789064095611826200,7.589826171875,7.3642206077694885,6.422430171278119,-0.8312868655070662
1789064095621863200,7.59986328125,7.363011231979727,6.422302745506167,-0.842900073346123
1789064095631899100,7.609899169921875,7.3545005932658905,6.429956475129723,-0.8586965582191943
1789064095641936100,7.61993603515625,7.346467508935928,6.436925729620456,-0.8750902052678168
1789064095651973000,7.62997314453125,7.34112848599553,6.4418240230560295,-0.8838109796009957
1789064095662010000,7.640010009765625,7.3375804381251335,6.445942564290761,-0.883253418783471
1789064095672047000,7.650047119140625,7.340766082423925,6.441919300124049,-0.8861197680000216
1789064095682084000,7.660083984375,7.351069449773431,6.428277143740654,-0.899677095644176
1789064095692120000,7.6701201171875,7.360726920434832,6.415483128619194,-0.9119587773293256
1789064095702157000,7.680156982421875,7.3672437549829475,6.40683629630506,-0.920082535617426
1789064095712194300,7.6901943359375,7.374983409324288,6.397793742671609,-0.9210016232237219
1789064095722231000,7.70023095703125,7.381198630577325,6.391072325462103,-0.9178747233748435
1789064095732268000,7.71026806640625,7.383578219190239,6.389093134343624,-0.912497852642089
1789064095742305000,7.720304931640625,7.381660402870178,6.3912155333250755,-0.9131487177662551
1789064095752341200,7.73034130859375,7.377824770230054,6.393951680290699,-0.92491718923226
1789064095762378200,7.740378173828125,7.377361828893423,6.39323914810717,-0.9334966553986072
1789064095772415200,7.750415283203125,7.374449740839004,6.396420700752735,-0.9347094652544706
1789064095782452200,7.7604521484375,7.371639359593391,6.4007420710831875,-0.9272595145747065
1789064095792489200,7.7704892578125,7.369268538808822,6.4040399435848,-0.9233314544107765
1789064095802526200,7.780526123046875,7.3656187841296195,6.409174383863807,-0.9168011027939618
1789064095812562200,7.790562255859375,7.35647861534059,6.420508847826719,-0.9108651368737221
1789064095822599200,7.80059912109375,7.344058694228529,6.435299589723348,-0.9066967651478945
1789064095832636200,7.81063623046875,7.334618081188202,6.446321918997168,-0.9048224226433783
1789064095842673400,7.82067333984375,7.3355036318510765,6.445950163075327,-0.9002737463630736
1789064095852710100,7.830710205078125,7.343992058733106,6.436963139021397,-0.8953557983789593
1789064095862747100,7.8407470703125,7.352741182377934,6.428194726154207,-0.886508109730482
1789064095872784100,7.8507841796875,7.365612938910722,6.4152756233483546,-0.8731417015485465
1789064095882820000,7.860820068359375,7.383166131258011,6.396532928955555,-0.8623240280013531
1789064095892857300,7.870857421875,7.398223415136337,6.380654391822219,-0.8508427029136568
1789064095902894300,7.880894287109375,7.4094526651591055,6.368168419736623,-0.8466565032701939
1789064095912931300,7.890931396484375,7.419541512975096,6.356969564852118,-0.8424539370138198
1789064095922968000,7.900968017578125,7.423612707936764,6.3534852298676965,-0.8328185320537537
1789064095933005300,7.91100537109375,7.421678525003791,6.357307418504357,-0.8208042691331356
1789064095943041300,7.921041259765625,7.420797065994143,6.359452029317617,-0.8121118441116064
1789064095953078300,7.931078369140625,7.424573661923408,6.355518197000026,-0.8083868322391062
1789064095963115300,7.941115234375,7.424714531698823,6.356342372864485,-0.8005687058340758
1789064095973152300,7.95115234375,7.419601718729734,6.3636810451895,-0.7895930652461945
1789064095983189000,7.96118896484375,7.414600549441576,6.37100978064239,-0.7773814531225711
1789064095993226200,7.971226318359375,7.406967862606048,6.380598862242699,-0.7714731058616191
1789064096003262200,7.98126220703125,7.3949559377729885,6.395035383874178,-0.7671616724032908
1789064096013299200,7.99129931640625,7.382489839431643,6.4100494131326675,-0.7619039710707962
1789064096023336200,8.001336181640625,7.376410811778903,6.41709348642528,-0.761486257115379
1789064096033373200,8.011373291015625,7.377465289267898,6.41651656332016,-0.7561127473834902
1789064096043410200,8.02141015625,7.379608146515488,6.414868796113133,-0.749151822329685
1789064096053447200,8.031447265625,7.387578102481365,6.406880719968676,-0.7388813343364745
1789064096063484200,8.041484130859375,7.402671042194962,6.390130660697817,-0.732857397871837
1789064096073520000,8.05152001953125,7.415396083733439,6.375931454953551,-0.7278663846515119
1789064096083557000,8.06155712890625,7.419446235907078,6.371824019634723,-0.7225375177789479
1789064096093594400,8.071594482421874,7.41649381584227,6.375808705356717,-0.7176835018765181
1789064096103631400,8.08163134765625,7.409798702117801,6.384094303143024,-0.713171431279555
1789064096113668000,8.091668212890625,7.403838916930556,6.391387967282533,-0.7097318852849305
1789064096123705000,8.101705078125,7.398591663926839,6.397962669497728,-0.7051894195497036
1789064096133741000,8.111740966796875,7.393210555410385,6.405114294818043,-0.696651089111343
1789064096143778300,8.1217783203125,7.390091546607017,6.410233537527918,-0.6825197609715163
1789064096153815300,8.131815185546875,7.3914464683473105,6.4098839934378855,-0.6710390934709459
1789064096163852300,8.141852294921875,7.397291687244176,6.4034174277722835,-0.6683645404994487
1789064096173889300,8.15188916015625,7.401391523778438,6.398997857764363,-0.6652924395777284
1789064096183926000,8.161926025390626,7.4029568733990185,6.397558764871954,-0.6617038405012339
1789064096193962000,8.1719619140625,7.4046467261821025,6.396127855286002,-0.6566186461914331
1789064096203999200,8.181999267578124,7.403449040830135,6.398306368368863,-0.6488526152998209
1789064096214036200,8.1920361328125,7.401647544366121,6.401828112754226,-0.6345047948651016
1789064096224073200,8.2020732421875,7.40205963229835,6.40267683853805,-0.6209835614476352
1789064096234110200,8.212110107421875,7.4013319025456905,6.404338634270429,-0.6124746397668496
1789064096244147200,8.222147216796875,7.399128839543462,6.407029188528656,-0.6109480147214607
1789064096254183200,8.23218310546875,7.395509480002522,6.41146103349626,-0.6082676895963027
1789064096264220200,8.24222021484375,7.388912565955519,6.419716820666194,-0.6013180896541104
1789064096274257200,8.252257080078126,7.382770994460582,6.42759266860783,-0.5925571294410154
1789064096284294100,8.262294189453126,7.380497788831591,6.430860730493069,-0.585375328178145
1789064096294331400,8.272331298828124,7.378924255904555,6.433606229808926,-0.5749565177554264
1789064096304368400,8.282368408203125,7.374976979583502,6.438992599022388,-0.5652168487032875
1789064096314404400,8.292404296875,7.373297063672542,6.441623532047867,-0.5571061325598508
1789064096324441000,8.302441162109375,7.374628020015359,6.440578406909108,-0.5515475851172581
1789064096334478000,8.31247802734375,7.379039991238713,6.435899309182167,-0.5471303531968966
1789064096344515300,8.322515380859375,7.379162156313657,6.436299706676602,-0.5407425518559291
1789064096354552300,8.33255224609375,7.376408473691344,6.4396922717243426,-0.537913429377228
1789064096364589300,8.34258935546875,7.37100749143064,6.4462237193197005,-0.5336936197251081
1789064096374626000,8.3526259765625,7.364118900960683,6.454735527077317,-0.5258610264033079
1789064096384662300,8.362662353515624,7.358434425583481,6.461706535133719,-0.5197817430222407
1789064096394699000,8.372698974609374,7.355541626751423,6.465141185757518,-0.5180083766741678
1789064096404736300,8.382736328125,7.352463534480333,6.468900246030092,-0.514770454198867
1789064096414773200,8.392773193359375,7.34773182978332,6.474753063711524,-0.5087097293877973
1789064096424810200,8.402810302734375,7.348204123470187,6.474210042876005,-0.5088025953030213
1789064096434847200,8.41284716796875,7.353442608645558,6.468298773005604,-0.508304801848717
1789064096444883200,8.42288330078125,7.355504801872372,6.466172282370924,-0.5055248522739857
1789064096454920200,8.432920166015625,7.359664844161272,6.461564496314526,-0.5038835513403639
1789064096464957200,8.442957275390626,7.365138307136297,6.45517625658214,-0.5057888735050335
1789064096474994200,8.452994140625,7.372463535457849,6.446968984729051,-0.5037378592593595
1789064096485031200,8.46303125,7.379311209395527,6.439643756407499,-0.49712863372005517
1789064096495068400,8.473068359375,7.384642049029469,6.4338230874299995,-0.49332138692419975
1789064096505104400,8.4831044921875,7.383673496258258,6.434984532424807,-0.4926687317017466
1789064096515141400,8.493141357421875,7.377998957753181,6.441200922721624,-0.49643140870351343
1789064096525178000,8.50317822265625,7.368983876648545,6.4509174300938845,-0.5041097247790545
1789064096535215000,8.513215087890625,7.361949155706167,6.458325660523772,-0.5119673429442569
1789064096545252400,8.52325244140625,7.358580556055903,6.462216822743415,-0.5113027780883014
1789064096555289300,8.533289306640626,7.351808869963884,6.470844950357079,-0.49945342340581117
1789064096565325300,8.5433251953125,7.345725166136026,6.478851731202006,-0.48496341802142556
1789064096575362300,8.5533623046875,7.344937815150618,6.480029542809724,-0.4811407179281115
1789064096585399000,8.56339892578125,7.348270174443721,6.475935551494359,-0.48535669165533035
1789064096595436000,8.57343603515625,7.3434496224194765,6.481580279383063,-0.48295346643850207
1789064096605473300,8.583473388671875,7.334827924546599,6.491456361231207,-0.4813255364431068
1789064096615510300,8.59351025390625,7.325773680475354,6.501939176800847,-0.4777221416562795
1789064096625546200,8.603546142578125,7.318335639429092,6.511122015687823,-0.46652394435890016
1789064096635583200,8.613583251953125,7.313763509207964,6.517044975996017,-0.45537258187793195
1789064096645620200,8.6236201171875,7.30839935182631,6.523856409576535,-0.44382473089266566
1789064096655657200,8.6336572265625,7.307780927667022,6.525321805953979,-0.43231501996070143
1789064096665694200,8.643694091796876,7.317806647118926,6.514526271173358,-0.42547110888268797
1789064096675731200,8.653731201171874,7.325927994254231,6.505940229135751,-0.4170311607848853
1789064096685767200,8.66376708984375,7.326648125222325,6.505932630351185,-0.40427948696780946
1789064096695804200,8.67380419921875,7.328689860183,6.504529777815938,-0.38959878131691367
1789064096705841400,8.68384130859375,7.3301856516987085,6.503314556807279,-0.3816499777369201
1789064096715878100,8.693878173828125,7.323647189840674,6.511231321281194,-0.37207901631519197
1789064096725915100,8.7039150390625,7.309034727120399,6.528384700655937,-0.35858726472053676
1789064096735952100,8.7139521484375,7.2950225683808325,6.544559005865454,-0.34895595141369845
1789064096745989400,8.7239892578125,7.281164138898253,6.560518207019567,-0.33856819371636954
1789064096756025300,8.734025390625,7.269687636116147,6.5738833000272505,-0.32570977158918973
1789064096766062300,8.744062255859374,7.264784081983566,6.580060527357459,-0.3099899686815217
1789064096776099300,8.754099365234374,7.2655416223525995,6.579804506769776,-0.29742985364748165
1789064096786136300,8.76413623046875,7.270196754682064,6.575091506773233,-0.28774531231606376
1789064096796173300,8.77417333984375,7.278198859351873,6.566435906630754,-0.28306077122902495
1789064096806210300,8.784210205078125,7.2871987428873775,6.556603663924336,-0.27941320850690826
1789064096816246300,8.794246337890625,7.300536363366246,6.5418427326440804,-0.2771940894190222
1789064096826283500,8.804283447265625,7.314985159957408,6.526095128414035,-0.2673292961498722
1789064096836320500,8.814320556640626,7.326025609409808,6.514265574410557,-0.2531218340339139
1789064096846357200,8.824357177734376,7.336605455613136,6.5027522467494006,-0.2424986236128956
1789064096856394200,8.834394287109374,7.3487600037872784,6.489115351063012,-0.2397693082468584
1789064096866431200,8.84443115234375,7.35500562017858,6.481980676877498,-0.24125943720676005
1789064096876467200,8.85446728515625,7.353308753132819,6.483885633715987,-0.24181235838178544
1789064096886504400,8.86450439453125,7.3450021125584835,6.493454841572046,-0.2374240968275815
1789064096896541400,8.87454150390625,7.331938048323988,6.508427369776368,-0.23116571228625252
1789064096906578200,8.884578125,7.318723177441954,6.523449582341313,-0.22646137052020057
1789064096916615200,8.894615234375,7.3057526367098085,6.537968521559238,-0.22655509495195
1789064096926652400,8.90465234375,7.292924134796857,6.552174741566181,-0.2294572096016258
1789064096936688400,8.9146884765625,7.283826051583886,6.562044393673538,-0.2362710178023204
1789064096946725400,8.924725341796876,7.278949385458231,6.567218581441044,-0.24274284416493028
1789064096956762400,8.934762451171874,7.280473234024644,6.565300180599093,-0.2488513536404818
1789064096966799400,8.94479931640625,7.2871934821903706,6.557419656482338,-0.2596913851499557
1789064096976836400,8.95483642578125,7.292522568258643,6.551237752977014,-0.26603644332773985
1789064096986873300,8.964873291015625,7.296511345633864,6.546659193015098,-0.26936648279959335
1789064096996909300,8.974909423828125,7.302893155625462,6.539131135597825,-0.27908706355877216
1789064097006946300,8.9849462890625,7.311264678129553,6.529120613715052,-0.29389371541058645
1789064097016983300,8.9949833984375,7.318928344625234,6.519625055617094,-0.3133095050256699
1789064097027020500,9.0050205078125,7.325991122618317,6.510593023377656,-0.33530400428865104
1789064097037057300,9.015057373046876,7.326606624168157,6.50894584069252,-0.35333106122538444
1789064097047094300,9.02509423828125,7.323461311879754,6.511559822583198,-0.369988839102909
1789064097057130200,9.035130126953124,7.321737556827068,6.512508501610159,-0.3870147927056998
1789064097067167200,9.045167236328124,7.321065941175818,6.512067772105336,-0.4066410284673795
1789064097077204200,9.055204345703125,7.314905080458521,6.517883764907717,-0.4239542745789513
1789064097087241500,9.065241455078125,7.308897364476323,6.523214020019769,-0.4450598621781915
1789064097097278500,9.075278564453125,7.304646136772632,6.526659192037582,-0.4639427322266623
1789064097107315200,9.085315185546875,7.299063952726125,6.531441165617108,-0.4840723509332165
1789064097117352200,9.095352294921875,7.297871528071164,6.531396157431602,-0.5023203206116333
1789064097127388200,9.10538818359375,7.301480950739979,6.525889961230755,-0.5210762763448059
1789064097137425400,9.11542529296875,7.3085069038540125,6.516667959377169,-0.5377275514163077
1789064097147462400,9.12546240234375,7.315953712728619,6.507017502978444,-0.5530990523429588
1789064097157499400,9.13549951171875,7.3219263573974365,6.499203614357113,-0.5657967309504747
1789064097167536400,9.145536376953125,7.326368723759055,6.493281238570809,-0.5761957406941801
1789064097177573400,9.155573486328125,7.327455349951982,6.4911079861849545,-0.5867741986580193
1789064097187609300,9.165609375,7.323238024517893,6.495187364453077,-0.5942301041545346
1789064097197646300,9.175646240234375,7.316899469146132,6.501610675498843,-0.6020222924007103
1789064097207683300,9.185683349609375,7.311936878302693,6.506364592027664,-0.6108837903788313
1789064097217720300,9.19572021484375,7.3021741937011475,6.5165142301201815,-0.619417992631346
1789064097227757600,9.205757568359376,7.290856680873036,6.528989096289873,-0.6213611625883728
1789064097237794300,9.215794189453124,7.286608375778794,6.5336722856700415,-0.6219678232446313
1789064097247830300,9.225830322265624,7.290562081840634,6.528679884210229,-0.6280362564381211
1789064097257867300,9.2358671875,7.298964584004879,6.5193029840558765,-0.6278402954746037
1789064097267904300,9.245904296875,7.309471364971995,6.507737633946538,-0.62559529302679
1789064097277941200,9.255941162109375,7.323250299477577,6.492655800148844,-0.6211366331174969
1789064097287978500,9.265978515625,7.337745273298025,6.476285095584392,-0.6209663180518895
1789064097298015200,9.27601513671875,7.352516141450405,6.459326946520805,-0.6228869839161634
1789064097308051500,9.286051513671875,7.367653504827619,6.441678477105498,-0.6267689399160444
1789064097318088200,9.296088134765625,7.381667417132854,6.424221146348119,-0.6409016562953591
1789064097328125200,9.306125244140626,7.385294959980249,6.420299004468322,-0.6384092549577355
1789064097338162400,9.316162353515624,7.383308170077204,6.424668890115618,-0.6170709911137819
1789064097348199400,9.326199462890624,7.381635852950811,6.427934029391408,-0.6029080257266759
1789064097358236400,9.336236328125,7.376521286416053,6.4333034474700685,-0.6082153383545578
1789064097368272400,9.3462724609375,7.364242819601297,6.448008264648914,-0.6012514176260679
1789064097378309400,9.356309326171875,7.342492175564169,6.474467232507467,-0.5826366969944908
1789064097388346400,9.366346435546875,7.316522452527284,6.505020776203274,-0.5688472045622766
1789064097398383400,9.37638330078125,7.285267482563853,6.5407029149591915,-0.5607765647009014
1789064097408420400,9.38642041015625,7.2575137987196445,6.572398029905557,-0.5499736503314226
1789064097418457300,9.396457275390626,7.24881143682599,6.582617226102948,-0.5424642976146191
1789064097428493300,9.406493408203126,7.251989482340216,6.579698708307743,-0.5353530408373102
1789064097438530600,9.416530517578124,7.26677087188661,6.564981031647324,-0.5152256871530786
1789064097448567300,9.4265673828125,7.299966454523801,6.529824378070235,-0.4922094070943072
1789064097458604300,9.436604248046875,7.340299633955955,6.4856526433885096,-0.4761305250832811
1789064097468641300,9.446641357421875,7.375165195631981,6.446753296151757,-0.4655049400420859
1789064097478678300,9.45667822265625,7.409960614681244,6.40761955563724,-0.4530715749265626
1789064097488715500,9.466715576171875,7.438524445864558,6.375002649670839,-0.44505675690565255
1789064097498751500,9.47675146484375,7.449740836405754,6.362464070615172,-0.43679172698333857
1789064097508788200,9.486788330078125,7.449601720196008,6.363745927119255,-0.4201889306960627
1789064097518825200,9.4968251953125,7.443960499438643,6.371397318655252,-0.40390126477256416
1789064097528862200,9.5068623046875,7.4267965986698865,6.3923781473636625,-0.3880621828667819
1789064097538899500,9.5168994140625,7.399438051623106,6.425080393525958,-0.37019550412353125
1789064097548936400,9.5269365234375,7.370855515739321,6.458811982735991,-0.3530236757766455
1789064097558972400,9.536972412109375,7.346010412818193,6.4875915024966,-0.34302900905013084
1789064097569009400,9.547009521484375,7.322060797432065,6.514989212509989,-0.3357419938471168
1789064097579046100,9.557046142578125,7.303125795337557,6.536835718137025,-0.323285247856006
1789064097589083400,9.56708349609375,7.301596686074137,6.5390346894860265,-0.31318339442797005
1789064097599120400,9.577120361328125,7.313297060739994,6.526646332556009,-0.29826287040552124
1789064097609157400,9.587157470703126,7.329481302821636,6.5090136452317235,-0.2860712050913833
1789064097619193300,9.597193359375,7.352246676859259,6.484032348710298,-0.2686654949233867
1789064097629230300,9.607230224609374,7.38081693778336,6.45178252249062,-0.2615783131414093
1789064097639267300,9.617267333984374,7.407949274858832,6.420728043535352,-0.25869391681151466
1789064097649304300,9.62730419921875,7.421631178730726,6.405186775532364,-0.25171419572569426
1789064097659341300,9.63734130859375,7.422066063016652,6.404838985008001,-0.24770844894936306
1789064097669378300,9.64737841796875,7.411766787320375,6.416892995417117,-0.2440824222056195
1789064097679414300,9.657414306640625,7.393450209385156,6.438421521136164,-0.2323878562260419
1789064097689451500,9.667451416015625,7.367989604914188,6.467879670810699,-0.2228207489955239
1789064097699488500,9.677488525390626,7.340922149768471,6.498771068158745,-0.21730722800474614
1789064097709525200,9.687525146484376,7.314992758741974,6.5280310649126765,-0.214657645077724
1789064097719562200,9.697562255859374,7.292125093373656,6.5536880687385795,-0.21086696582417933
1789064097729599200,9.70759912109375,7.277046766707301,6.57049073497951,-0.2088728145985864
1789064097739635200,9.71763525390625,7.269669515937566,6.579190174263715,-0.19117997631859032
1789064097749672200,9.727672119140625,7.266810619375109,6.582771539881825,-0.17595626809848472
1789064097759709200,9.737709228515625,7.264386022576689,6.585320639842748,-0.180665231240727
1789064097769746200,9.74774609375,7.2657836144149295,6.583361322468519,-0.195256925167609
1789064097779783200,9.757783203125,7.280489016115665,6.567157206642627,-0.19315182438082992
1789064097789820200,9.767820068359375,7.309364397466182,6.535099688124657,-0.1898495131661184
1789064097799856000,9.777856201171875,7.3444187597125765,6.4957064198911185,-0.1889454039332457
1789064097809893000,9.78789306640625,7.373926009225845,6.4621402503758665,-0.19063481832491233
1789064097819930400,9.797930419921874,7.390473823922872,6.442846351841092,-0.202513435634505
1789064097829967400,9.80796728515625,7.395338215088844,6.4366194401502606,-0.22201873016394674
1789064097840004000,9.818004150390625,7.387566412043571,6.444889255845546,-0.240108805866912
1789064097850041000,9.828041015625,7.368072022500634,6.466521826460957,-0.2569099742705002
1789064097860077000,9.8380771484375,7.347849318683147,6.489191338908672,-0.26437696741661054
1789064097870114300,9.8481142578125,7.324990421143173,6.513621431288123,-0.29601907353410495
1789064097880151300,9.8581513671875,7.304466688552498,6.535161647444963,-0.32681692911349236
1789064097890188300,9.868188232421875,7.29735714880824,6.5427569248795505,-0.3336180604957044
1789064097900225300,9.878225341796876,7.306140759244561,6.5321238871842615,-0.3493524764506146
1789064097910262000,9.888261962890626,7.324832015711069,6.5092556372940535,-0.383154756276682
1789064097920299300,9.89829931640625,7.344156893905997,6.486296786510944,-0.4021173404978588
1789064097930335200,9.908335205078124,7.3630439652055495,6.463834194812178,-0.41811522969454523
1789064097940372200,9.918372314453125,7.37606185221076,6.447971439769864,-0.43331773072984064
1789064097950409200,9.9284091796875,7.379194889539479,6.443490494963527,-0.44643484032582487
1789064097960446200,9.9384462890625,7.3726914989948265,6.449253296273946,-0.4700482460275292
1789064097970483200,9.948483154296875,7.356112704637646,6.466581447693705,-0.49124224256258453
1789064097980520200,9.958520263671875,7.329992759475112,6.494765924170613,-0.5095085881479084
1789064097990556200,9.96855615234375,7.305107909065485,6.521140136355161,-0.5296401796158403
1789064098000593200,9.97859326171875,7.28275520748198,6.545216592991352,-0.5403655352370813
1789064098010630100,9.988630126953124,7.264960023072361,6.5637582118541,-0.554811920675449
1789064098020667400,9.99866748046875,7.251691960698365,6.577621902033687,-0.5641210528232157
1789064098030704400,10.008704345703125,7.243336220285296,6.585873013028502,-0.5750985565746203
1789064098040741000,10.0187412109375,7.246492638489603,6.581779606235027,-0.582155343218334
1789064098050777000,10.028777099609375,7.2600161369293925,6.5655269750922916,-0.5969959886712953
1789064098060814000,10.03881396484375,7.279150460988283,6.543042756083607,-0.6106863315779716
1789064098070851300,10.048851318359375,7.303761755153537,6.514117105850577,-0.6258779093604534
1789064098080888300,10.058888427734376,7.328490538218617,6.485088579764962,-0.6381487773906439
1789064098090925300,10.06892529296875,7.348596337658167,6.46217006099224,-0.6394390363968908
1789064098100962000,10.078962158203124,7.365627551957965,6.442902465942502,-0.6379043741755187
1789064098110998300,10.088998291015624,7.370639827162027,6.436945018842816,-0.6401541258636861
1789064098121035000,10.099034912109374,7.367834706613421,6.4402615960448975,-0.639086277436465
1789064098131072300,10.109072265625,7.355249950328469,6.4520584168225525,-0.6645460781898349
1789064098141109200,10.119109130859375,7.340783618080615,6.467030360504984,-0.6788197374098003
1789064098151146200,10.129146240234375,7.332528999954461,6.475724539092183,-0.6851243174467235
1789064098161183200,10.139183349609375,7.328915485632419,6.480225942164659,-0.6812143774613738
1789064098171219200,10.14921923828125,7.3314821212500325,6.477606115055083,-0.6785038033284246
1789064098181256200,10.159256103515625,7.347870945993066,6.458993769043683,-0.6786516143012792
1789064098191293200,10.169293212890626,7.369749600324035,6.433705014008283,-0.6816337719172239
1789064098201330200,10.179330078125,7.387827693328261,6.412612541618943,-0.6846821266371756
1789064098211367200,10.1893671875,7.40245067744255,6.395510600170493,-0.6866966082647442
1789064098221404400,10.199404296875,7.414047007212043,6.382220910486579,-0.6852332577139139
1789064098231440400,10.2094404296875,7.414533913946151,6.38184506291151,-0.6834721663255244
1789064098241477400,10.219477294921875,7.399357387602329,6.400064025691151,-0.6775503019958734
1789064098251514000,10.22951416015625,7.375832719630003,6.427880253377556,-0.6706937871646136
1789064098261551000,10.239551025390625,7.3588161183774465,6.446375695011019,-0.6800369311798363
1789064098271588400,10.24958837890625,7.345159348946809,6.4594520342051975,-0.703210301496461
1789064098281625300,10.259625244140626,7.329695822355151,6.476202093476057,-0.7104602726247161
1789064098291661300,10.269661376953126,7.323232179298996,6.4853521991372105,-0.6934499549824744
1789064098301698300,10.2796982421875,7.329360306790471,6.479818530407548,-0.6803063957709818
1789064098311735000,10.289735107421874,7.3458221967697135,6.462365875825285,-0.668660600836575
1789064098321772000,10.29977197265625,7.345897600093483,6.4608426117807625,-0.6824176157712936
1789064098331809300,10.309809326171875,7.341053667193651,6.465492483413219,-0.6904544264283031
1789064098341846300,10.31984619140625,7.348930684179067,6.456279833909869,-0.6928632411357015
1789064098351882200,10.32988232421875,7.367220374107361,6.434436250892281,-0.7017682859946042
1789064098361919200,10.339919189453125,7.388194188553094,6.406489674824476,-0.736115157558769
1789064098371956200,10.349956298828126,7.401360544118285,6.389232250553369,-0.753625022220984
1789064098381993200,10.3599931640625,7.413445534187555,6.3767749200403685,-0.7402374981857835
1789064098392030200,10.3700302734375,7.424286077153682,6.364962901693582,-0.7332200937043875
1789064098402067200,10.380067138671874,7.431971955481171,6.355628087115288,-0.7363214207205921
1789064098412103200,10.390103271484374,7.4275237439006565,6.358854647946357,-0.7531549204912036
1789064098422140200,10.40014013671875,7.414097276094555,6.375644454705715,-0.7434391437713056
1789064098432177400,10.410177490234375,7.395486099126934,6.399231666520238,-0.7259500296361744
1789064098442214100,10.420214111328125,7.375956638270616,6.4227352917045355,-0.7170176583789288
1789064098452251100,10.430251220703125,7.350181561022996,6.451396153521538,-0.7243635641623288
1789064098462288100,10.4402880859375,7.315595985332131,6.486041934967041,-0.76400203932859
1789064098472324000,10.450323974609375,7.2736442647874355,6.525626926380395,-0.8250337964616715
1789064098482361300,10.460361328125,7.218800329443812,6.579096066239476,-0.8802318059399723
1789064098492398300,10.4703984375,7.19082920345664,6.610820407280325,-0.8714486338950693
1789064098502435300,10.480435302734374,7.206279870566726,6.59654404464662,-0.8517724580444395
1789064098512472000,10.49047216796875,7.239235799229145,6.560235882946849,-0.8527323160525411
1789064098522509000,10.500509033203125,7.278814360901713,6.517910068392753,-0.840291790543869
1789064098532546300,10.51054638671875,7.3200529647409915,6.4706695937901735,-0.8471402681991458
1789064098542582300,10.520582275390625,7.35116355779767,6.433315137907862,-0.8621137462515384
1789064098552619300,10.530619384765625,7.383934193021059,6.39779140458405,-0.8462662618435919
1789064098562656300,10.54065625,7.413561854043603,6.363851141059398,-0.8431399465166032
1789064098572693000,10.55069287109375,7.437630127373337,6.336427127560973,-0.8376961480274796
1789064098582730200,10.560730224609374,7.440048878952861,6.334454950705171,-0.8311079287435859
1789064098592767200,10.570767333984374,7.417109317392111,6.362853362193703,-0.8191271297011524
1789064098602803200,10.58080322265625,7.38546096419692,6.401880719724297,-0.800793381435424
1789064098612840200,10.590840087890625,7.350110249352455,6.443848806881904,-0.7893519499666989
1789064098622877200,10.600877197265625,7.309646137017011,6.489706887215376,-0.7894092331118882
1789064098632914400,10.61091455078125,7.273353172886371,6.529909718266129,-0.793096689452976
1789064098642951200,10.620951171875,7.24897977913022,6.558378272381424,-0.7812517917498946
1789064098652988200,10.63098828125,7.23114952340722,6.580422930929064,-0.760854462017864
1789064098663024000,10.641024169921875,7.2221011245548725,6.592520195958018,-0.741837042336911
1789064098673061000,10.65106103515625,7.235286769342422,6.581012128993868,-0.7150467966973781
1789064098683098400,10.661098388671874,7.258812606358528,6.556226647305488,-0.7042130487982183
1789064098693135400,10.67113525390625,7.2771081415057175,6.535951921039819,-0.7038485263347626
1789064098703172000,10.681172119140625,7.28462041683197,6.527824144163727,-0.7015674296602606
1789064098713209000,10.691208984375,7.282544779601693,6.530459753364324,-0.698587756262347
1789064098723245000,10.7012451171875,7.2784133788853875,6.535152295094728,-0.6977536435257643
1789064098733282300,10.7112822265625,7.273977442264557,6.54018561308682,-0.6968583021212369
1789064098743319300,10.7213193359375,7.265674893343448,6.549412291115522,-0.6968186276979744
1789064098753356000,10.73135595703125,7.260032503542304,6.556556902173162,-0.688380177437514
1789064098763393000,10.74139306640625,7.2623466257035725,6.554632071590423,-0.6822831757366656
1789064098773429800,10.7514296875,7.267298695152998,6.550271538293361,-0.6713339116990565
1789064098783466000,10.761466064453124,7.277575174495578,6.5412172942221165,-0.6478907114651054
1789064098793502700,10.771502685546874,7.274904493981599,6.5438838830828665,-0.6509473225567489
1789064098803540000,10.7815400390625,7.261895374804735,6.55799482602179,-0.6541864506084472
1789064098813577000,10.791576904296875,7.247112231692672,6.574933685863018,-0.6480656296405941
1789064098823614000,10.801614013671875,7.249592358070611,6.573862257239222,-0.6309748671732842
1789064098833651000,10.81165087890625,7.275403091153502,6.547165973493456,-0.6111497843712568
1789064098843687000,10.82168701171875,7.310778355917334,6.5085641478985545,-0.6012467414509505
1789064098853723600,10.8317236328125,7.341703655534983,6.473761130064726,-0.6001493016030639
1789064098863761000,10.841760986328126,7.365944362822175,6.445972959429025,-0.6022308205848559
1789064098873798000,10.8517978515625,7.386867908385396,6.422393930920959,-0.5978523132396861
1789064098883835000,10.8618349609375,7.401527132856845,6.4057134297549725,-0.5955013296667486
1789064098893871900,10.871871826171875,7.412221545350551,6.393913101845979,-0.5892608643746003
1789064098903907800,10.881907958984375,7.420123112255334,6.383890889525413,-0.5984112622966989
1789064098913944800,10.89194482421875,7.411964940240979,6.393811395037174,-0.5935859610321
1789064098923981800,10.90198193359375,7.387452430275082,6.4232268746137615,-0.5814448203288018
1789064098934018800,10.912018798828125,7.3640423285931345,6.451058299869299,-0.570188572701253
1789064098944055800,10.922055908203125,7.344300686290859,6.474170879909396,-0.5627988643087446
1789064098954093000,10.932093017578126,7.32227473244369,6.499528608527779,-0.5574964835843071
1789064098964129000,10.94212890625,7.299062783682346,6.526658607515692,-0.5447865300171076
1789064098974166000,10.952166015625,7.2801044007122515,6.5488260156601665,-0.5322961009521037
1789064098984202800,10.96220263671875,7.2651926627844565,6.566093376803398,-0.523231298954226
1789064098994239700,10.97223974609375,7.255700027295947,6.577305091169476,-0.5140534650359302
1789064099004277000,10.982277099609375,7.259972297787666,6.573653582924604,-0.5002617441140115
1789064099014314000,10.99231396484375,7.276680271482467,6.556079932311177,-0.4879726463073864
1789064099024350000,11.002349853515625,7.298672907581925,6.532395689862966,-0.4770400776762515
1789064099034387000,11.012386962890625,7.325527012237906,6.502931694969535,-0.4678817887086421
1789064099044424000,11.022423828125,7.355268070507049,6.470225941675901,-0.45452528086621313
1789064099054460700,11.032460693359376,7.37906395663619,6.4442702471643685,-0.4372420280341059
1789064099064498000,11.042497802734376,7.394527483227849,6.426632299143075,-0.4356003252416849
1789064099074535000,11.052534912109374,7.3973513084769245,6.423779832321405,-0.42968883617557585
1789064099084571000,11.06257080078125,7.3872034239500755,6.4362769103229045,-0.41707046988196667
1789064099094608000,11.07260791015625,7.370365686395764,6.456282171997428,-0.40560529221147296
1789064099104644900,11.082644775390625,7.354840785005688,6.474807424247264,-0.39187669965364036
1789064099114681900,11.092681884765625,7.342797295990586,6.489277263626456,-0.3781487281503156
1789064099124718800,11.10271875,7.331646956422925,6.502463492935895,-0.36782994403596964
1789064099134755800,11.112755859375,7.322829443717002,6.512646448776126,-0.3632996436625719
1789064099144791800,11.122791748046875,7.317032155615091,6.519591737869382,-0.3554568212077021
1789064099154828800,11.132828857421876,7.317410341277718,6.519706888681649,-0.3454239048300311
1789064099164866000,11.142865966796874,7.332900171354413,6.502813037025928,-0.3352424102945253
1789064099174903000,11.152903076171874,7.3569836422532795,6.475621078717708,-0.33392756483629343
1789064099184939800,11.162939697265625,7.37305916326344,6.457760427856445,-0.3251483748467639
1789064099194976800,11.172976806640625,7.3858777283042665,6.443683971709013,-0.3132574460448697
1789064099205012700,11.1830126953125,7.400429985269904,6.427247800692916,-0.3074042265046388
1789064099215050000,11.193050048828125,7.4102663196295495,6.415862483325601,-0.30829087314605713
1789064099225087000,11.2030869140625,7.405768423688412,6.421417194843292,-0.3006315174993127
1789064099235124000,11.2131240234375,7.394141698780656,6.435144106900692,-0.2932138433876447
1789064099245160700,11.22316064453125,7.381474524909257,6.4497489708364,-0.29146301766494287
1789064099255197700,11.23319775390625,7.365501879751682,6.467985469272732,-0.2914198726429604
1789064099265234000,11.24323388671875,7.3493965481251475,6.486324843561649,-0.2904234637504443
1789064099275271000,11.25327099609375,7.3339078870922325,6.503867514514923,-0.2896311991279013
1789064099285308000,11.263307861328125,7.31921534487307,6.52056438229382,-0.28584698614776133
1789064099295345000,11.273344970703125,7.311913497427105,6.528887389481067,-0.2827296395785175
1789064099305382000,11.2833818359375,7.308325702068209,6.533245584690571,-0.27471785376491026
1789064099315419000,11.2934189453125,7.306297411110997,6.5358829474568365,-0.26576286881705746
1789064099325454800,11.303454833984375,7.310346394240856,6.531243012696504,-0.2684840922081843
1789064099335491800,11.313491943359375,7.315155840349197,6.525239388367534,-0.2830570449019782
1789064099345528800,11.32352880859375,7.3220052678525445,6.51759968726933,-0.28199421970974653
1789064099355565800,11.33356591796875,7.333468326631188,6.504843666070699,-0.2786343330889009
1789064099365603000,11.34360302734375,7.352528416410088,6.483648902350664,-0.2701861834183335
1789064099375639800,11.353639892578125,7.381548759189248,6.450860146948695,-0.2636714312294498
1789064099385676000,11.363676025390625,7.408064425671101,6.42050767878294,-0.2608596617443487
1789064099395712800,11.373712646484375,7.422800222510099,6.403486401355266,-0.26035361191835255
1789064099405749800,11.383749755859375,7.425867793387174,6.399790469446778,-0.26373444999568163
1789064099415787000,11.393787109375,7.419038239628076,6.407729445752501,-0.26316777428993954
1789064099425824000,11.403823974609375,7.4019292839169495,6.42764995175302,-0.2591187180948444
1789064099435861000,11.413861083984376,7.37663994435966,6.456975999480486,-0.2510443153738044
1789064099445897700,11.423897705078126,7.354939569205046,6.481770248997211,-0.24878236179118973
1789064099455933700,11.43393359375,7.341420746940374,6.496944437253474,-0.2522778209578246
1789064099465971000,11.443970947265624,7.33102210252285,6.508419186469912,-0.25881303141284734
1789064099476008000,11.454008056640625,7.328520348834991,6.511020308879018,-0.2641739008588716
1789064099486045000,11.464044921875,7.335285020664334,6.503391129174828,-0.2643471568002365
1789064099496082000,11.47408203125,7.35161130156517,6.485010838353634,-0.26235110587850213
1789064099506118000,11.484117919921875,7.373514505815505,6.46017450326085,-0.26041188144423066
1789064099516155000,11.49415478515625,7.3955685167133804,6.43495939798355,-0.2593274654746987
1789064099526191900,11.50419189453125,7.416514274108409,6.41073564183116,-0.26108760701501743
1789064099536228900,11.514228759765626,7.432061387330293,6.39225247515738,-0.27195184138398615
1789064099546265900,11.524265869140624,7.438357857125997,6.384388902175426,-0.2842445741861127
1789064099556302800,11.534302734375,7.433790403079986,6.389332788318395,-0.2925302633039653
1789064099566340000,11.544340087890625,7.420120189645886,6.405022524881362,-0.2964608624848537
1789064099576376000,11.5543759765625,7.399444481363892,6.428887969115376,-0.2966739024473354
1789064099586412800,11.564412841796875,7.377592130517959,6.453608568874001,-0.304068561009597
1789064099596449800,11.57444970703125,7.354658414176106,6.479494120758772,-0.30910865580234675
1789064099606486800,11.58448681640625,7.333997903463244,6.502257741230726,-0.32172479360625145
1789064099616524000,11.59452392578125,7.317026894918084,6.520891714552045,-0.3308752645935863
1789064099626561000,11.60456103515625,7.3069661041527985,6.531715306383371,-0.3396029435915872
1789064099636597000,11.614596923828126,7.308662971198558,6.5295081517279145,-0.3454733334623277
1789064099646634000,11.624634033203124,7.3231029999613755,6.512852200481295,-0.3539799901207909
1789064099656670700,11.634670654296874,7.346340083163976,6.486053625404835,-0.36439028844349086
1789064099666708000,11.6447080078125,7.373868726080656,6.453966296270489,-0.3778408312449231
1789064099676745000,11.654744873046875,7.400671977332234,6.422289301502704,-0.39323523812312633
1789064099686782000,11.664781982421875,7.420061152935028,6.3995449702531095,-0.39862460301127284
1789064099696818000,11.67481787109375,7.435561504405737,6.381226638752222,-0.4034423785565421
1789064099706855000,11.68485498046875,7.446915842112898,6.366995868825912,-0.4185638137122616
1789064099716891600,11.6948916015625,7.451240719574689,6.361034330072998,-0.4320247683098539
1789064099726929000,11.704928955078126,7.443235692295431,6.369394162139296,-0.44658020361326634
1789064099736966000,11.7149658203125,7.422540110269188,6.393088341459632,-0.4524337519470602
1789064099747003600,11.725003662109375,7.401607796877622,6.41759792881608,-0.4483556888531893
1789064099757039600,11.73503955078125,7.389224116122723,6.431520071184635,-0.4531075595553964
1789064099767076600,11.74507666015625,7.373285373234748,6.449286614021658,-0.4601708124725148
1789064099777113300,11.75511328125,7.350304310619831,6.475145277899503,-0.4646563969213515
1789064099787150600,11.765150634765625,7.331608377978205,6.495943151256442,-0.4697005285684019
1789064099797187600,11.7751875,7.322965637317299,6.505417082044482,-0.47339642394427206
1789064099807224600,11.785224609375,7.325473236224055,6.502638849502802,-0.47277580782789735
1789064099817260500,11.795260498046876,7.339400054767728,6.486617104506492,-0.47685872975997623
1789064099827297500,11.805297607421876,7.358457806459069,6.4645367901235815,-0.48295565839558835
1789064099837334300,11.815334228515624,7.383193603786825,6.435998677903413,-0.48657322783824053
1789064099847371500,11.82537158203125,7.412147895592451,6.401963721832633,-0.49528048510272055
1789064099857408500,11.835408447265625,7.437539526480436,6.371769659098982,-0.5039212530022487
1789064099867445500,11.845445556640625,7.456658652970194,6.349295376962423,-0.505055371598713
1789064099877481500,11.8554814453125,7.469063376513123,6.334592897871136,-0.5063734684599563
1789064099887518500,11.8655185546875,7.472423792856931,6.330186187344789,-0.5118693989951163
1789064099897555700,11.8755556640625,7.460085704809427,6.343991425335407,-0.5208444038176909
1789064099907592400,11.885592529296876,7.4328212657868855,6.374971085488796,-0.5322622717477381
1789064099917629400,11.89562939453125,7.397038589265942,6.415141767835617,-0.5478667046474293
1789064099927666400,11.90566650390625,7.364322899100184,6.451499029374122,-0.5615066690737381
1789064099937702400,11.915702392578124,7.340849084532261,6.476836884248256,-0.5769803152006119
1789064099947739600,11.92573974609375,7.324063953948021,6.494881659504771,-0.5873617527550086
1789064099957776600,11.935776611328125,7.31725719654262,6.501756805971264,-0.5960691926825791
1789064099967813400,11.9458134765625,7.328361358880996,6.487828233861923,-0.611219196345657
1789064099977850400,11.955850341796875,7.344814481031894,6.467382242682576,-0.6301154007997364
1789064099987887600,11.9658876953125,7.354758367419242,6.454650186881422,-0.644513928508386
1789064099997923600,11.975923583984375,7.3696134067237375,6.436736344528198,-0.6539176436044275
1789064100007960600,11.985960693359376,7.387360075816511,6.414384811988473,-0.6730281483963132
1789064100017997600,11.99599755859375,7.394265617421269,6.404530357450247,-0.6908081352367996
1789064100028034600,12.00603466796875,7.3847010857403275,6.414422221389413,-0.7012623092338442
1789064100038071300,12.0160712890625,7.370732181620597,6.428588693907857,-0.7182862170100212
1789064100048108500,12.026108642578125,7.356278124332428,6.442994820401072,-0.7371397513661533
1789064100058144500,12.03614453125,7.340542210540175,6.458735994890332,-0.756009067813307
1789064100068181500,12.046181396484375,7.326966689652204,6.472138497298956,-0.7728945900321006
1789064100078218500,12.056218505859375,7.318113521111011,6.480722201249003,-0.7847562196742742
1789064100088255500,12.06625537109375,7.316770289808511,6.481010955062509,-0.7948328655958176
1789064100098292500,12.07629248046875,7.322157243543863,6.474205366700887,-0.8006598181836306
1789064100108329500,12.08632958984375,7.3302557943254705,6.46401831920743,-0.808824493004009
1789064100118365400,12.096365478515626,7.345448687282204,6.4443912431955335,-0.8273973107226192
1789064100128402400,12.10640234375,7.362984928494692,6.422853949648141,-0.8389194062121212
1789064100138439400,12.116439453125,7.377175950932502,6.405074547329544,-0.8501062783978879
1789064100148476700,12.1264765625,7.389868843767046,6.389126452091336,-0.8598167213555424
1789064100158513700,12.136513671875,7.4031222930938005,6.372848686507344,-0.8665767900750041
1789064100168550400,12.14655029296875,7.413588742050528,6.3592971310168505,-0.8765976872213185
1789064100178586400,12.15658642578125,7.414253927960991,6.35745179541111,-0.8843266740381717
1789064100188623400,12.166623291015625,7.407287596079707,6.365092081031203,-0.8877384552430361
1789064100198660600,12.17666064453125,7.395115512248873,6.378688644707203,-0.8916125201974063
1789064100208697600,12.186697509765626,7.3787173351556055,6.397171226859093,-0.8950505318220704
1789064100218734600,12.196734619140624,7.360742118003964,6.416601903516054,-0.9039300038482994
1789064100228771300,12.206771240234374,7.3448378619074814,6.4341808148264885,-0.9083275812201201
1789064100238807600,12.2168076171875,7.3351838983774185,6.444650186392664,-0.9121112644772976
1789064100248844500,12.226844482421875,7.330452193680405,6.44961979149878,-0.9150189686175435
1789064100258881500,12.236881591796875,7.330814597252011,6.449969335588812,-0.9096376409053802
1789064100268918500,12.24691845703125,7.338180742105841,6.442470504266023,-0.9033659402247518
1789064100278955500,12.25695556640625,7.350666714191436,6.428333842363953,-0.9025585693646222
1789064100288992500,12.266992431640626,7.35763479963839,6.420773051720857,-0.8995943857967853
1789064100299028500,12.277028564453126,7.363356684416532,6.414771180957556,-0.8955879996996372
1789064100309065500,12.2870654296875,7.37128630837202,6.405591849201917,-0.8960585398208349
1789064100319102500,12.2971025390625,7.375354580724239,6.40086891233325,-0.8963287350643425
1789064100329139500,12.307139404296874,7.37533470697999,6.401580859994888,-0.8913914978578686
1789064100339176400,12.317176513671875,7.372911863747238,6.405703492882847,-0.8817678564008324
1789064100349213700,12.327213623046875,7.365780112171173,6.415538073676824,-0.8697967019695788
1789064100359249700,12.337249755859375,7.355048874798417,6.429470737439393,-0.8576444918829947
1789064100369286700,12.34728662109375,7.3472420004397625,6.439460801056027,-0.849565303388983
1789064100379323400,12.357323486328125,7.339151632964611,6.4500529222190375,-0.839075985013321
1789064100389360400,12.3673603515625,7.329815649342536,6.461819932380318,-0.8301028433542698
1789064100399397600,12.377397705078126,7.323669401672482,6.469767091992497,-0.8224117773950099
1789064100409434600,12.3874345703125,7.319982822114229,6.474693442478776,-0.8164417630746961
1789064100419470600,12.397470703125,7.319453829804062,6.476242425486445,-0.8088692089285701
1789064100429507600,12.407507568359375,7.323404028734564,6.4720806296318765,-0.8064186009060591
1789064100439544300,12.41754443359375,7.329777070897817,6.465607634225488,-0.80042111405693
1789064100449581600,12.42758154296875,7.33861095021665,6.4567790156036615,-0.7906755267206579
1789064100459618600,12.43761865234375,7.346469262501597,6.448796200156211,-0.782813926500082
1789064100469655600,12.447655517578125,7.347942842185497,6.448049181181192,-0.7751023292094469
1789064100479691500,12.45769140625,7.344647307771444,6.452769195440411,-0.7670139344956726
1789064100489728500,12.467728515625,7.337491006276011,6.462057248267531,-0.7572472313061356
1789064100499765500,12.477765625,7.3337155793905255,6.468164917492866,-0.7415159936890006
1789064100509802500,12.487802490234374,7.338457220959663,6.464660124242306,-0.7249792118426412
1789064100519839500,12.497839599609375,7.335940854224562,6.467078291299939,-0.7288713969755918
1789064100529876500,12.50787646484375,7.322699095335603,6.481226643639802,-0.7363145525883883
1789064100539912400,12.517912353515625,7.315474404779076,6.488555379092693,-0.7435525410179048
1789064100549949400,12.527949462890625,7.331349434781074,6.469689350581168,-0.7515452933374792
1789064100559986700,12.537986572265625,7.3635799717783925,6.433535502660274,-0.7467917421348392
1789064100570023400,12.5480234375,7.40269266950488,6.389278427782655,-0.7400295545235276
1789064100580060400,12.558060302734376,7.434373755925893,6.352680343225598,-0.737508730809018
1789064100590097400,12.568097412109376,7.453958746361732,6.330666079816222,-0.7290789753116667
1789064100600133400,12.57813330078125,7.458102422037721,6.325494230136275,-0.7315835785437375
1789064100610170600,12.588170654296874,7.439536253255605,6.34461978636682,-0.7546488853760063
1789064100620207600,12.59820751953125,7.406782569167017,6.383165497860312,-0.7517696036126464
1789064100630244600,12.60824462890625,7.355944362333417,6.441814086183905,-0.7506690219596028
1789064100640281300,12.61828125,7.306112702193856,6.499011306655406,-0.7442852392066269
1789064100650318600,12.628318603515625,7.266967271241545,6.542617224147915,-0.7454747412521392
1789064100660354600,12.6383544921875,7.2322975243985645,6.579710983267426,-0.7560849095284938
1789064100670391600,12.6483916015625,7.2020052619874475,6.613955198174715,-0.7463933174017816
1789064100680428500,12.658428466796876,7.184082651805877,6.635829760852456,-0.7246408467337488
1789064100690465500,12.668465576171876,7.176100420880317,6.646701868000626,-0.7037978921260685
1789064100700502300,12.678502197265624,7.175867781168222,6.6489592915385956,-0.6845717981304973
1789064100710539500,12.68853955078125,7.186271101760864,6.6391106822192665,-0.6708986620869487
1789064100720575500,12.698575439453125,7.194342180013656,6.628335021182894,-0.6906552096974105
1789064100730612500,12.708612548828125,7.210928573155403,6.607936960798502,-0.7127850623104721
1789064100740649500,12.7186494140625,7.2486495242625475,6.567250145623087,-0.7061815723922104
1789064100750687000,12.72868701171875,7.288195352709293,6.522216241154075,-0.7164462882317603
1789064100760723700,12.7387236328125,7.316669167521596,6.488842379340529,-0.7291448801547289
1789064100770760700,12.7487607421875,7.3337512352257965,6.469131716698408,-0.7326721044328063
1789064100780796700,12.758796630859376,7.344336926648021,6.456372772890329,-0.739157374798879
1789064100790834000,12.768833984375,7.337409757733345,6.462904805007576,-0.7507739436388016
1789064100800871000,12.778870849609374,7.3168351717382665,6.486059470623731,-0.7518898689914494
1789064100810908000,12.788907958984375,7.293183077993988,6.512226177537441,-0.7554979764860122
1789064100820945000,12.79894482421875,7.266495562076568,6.541299127286672,-0.761468940654397
1789064100830981600,12.808981689453125,7.238395841273665,6.571818184190988,-0.7663036673344671
1789064100841017600,12.819017578125,7.218291795399785,6.593610329282283,-0.7687346208084375
1789064100851054800,12.829054931640625,7.2097273806720965,6.602840514442324,-0.7698810874298214
1789064100861091800,12.839091796875,7.211113282072544,6.601632307696342,-0.7672557804275304
1789064100871128800,12.84912890625,7.221325464007258,6.590157558479905,-0.7698528111834079
1789064100881165800,12.859165771484374,7.2445602091223,6.563809649780392,-0.7766172638170421
1789064100891202800,12.869202880859374,7.274999771049618,6.529310583329201,-0.7828621495559811
1789064100901239000,12.879239013671874,7.296532388421893,6.503923044094443,-0.7937129947204142
1789064100911275800,12.88927587890625,7.318024673783778,6.480103777089715,-0.790668658588454
1789064100921312800,12.899312744140625,7.3496040533959865,6.444364939710497,-0.7898523737695068
1789064100931349800,12.909349853515625,7.373645438718795,6.414378382247686,-0.8096192235782742
1789064100941387000,12.919386962890625,7.369740247973799,6.416295029523968,-0.8297405128479003
1789064100951424000,12.929424072265626,7.3427072796195745,6.44650487434864,-0.8352263238478451
1789064100961460000,12.9394599609375,7.305993459728359,6.487955659633874,-0.8362265869315714
1789064100971496700,12.94949658203125,7.2654434226751325,6.533584022864699,-0.8342607667513191
1789064100981533700,12.95953369140625,7.228394087219238,6.575255172902345,-0.8286842087280005
1789064100991571000,12.969571044921874,7.20205553086996,6.603775164943933,-0.8312284863833338
