time,seconds_elapsed,z,y,x
1789064088064109300,0.042109375,0.010640366934239864,-0.018079224973917007,0.012658797204494476
1789064088074145300,0.052145263671875,0.011927250772714615,-0.017521128058433533,0.0197029709815979
1789064088084182300,0.062182373046875,0.01234376896172762,-0.015389533713459969,0.025142477825284004
1789064088094219300,0.07221923828125,0.02202795445919037,-0.011522972024977207,0.02646687813103199
1789064088104256300,0.08225634765625,0.031438231468200684,-0.003285281825810671,0.02316669002175331
1789064088114293000,0.09229296875,0.04216291755437851,-0.0012770537286996841,0.021040061488747597
1789064088124330200,0.102330322265625,0.047312140464782715,0.015422032214701176,0.018033087253570557
1789064088134367200,0.1123671875,0.04684777185320854,0.016033411026000977,0.017821775749325752
1789064088144404200,0.122404296875,0.03841753676533699,0.01876874268054962,0.022238360717892647
1789064088154440200,0.132440185546875,0.03092535212635994,0.012735375203192234,0.028667397797107697
1789064088164477200,0.142477294921875,0.0204657893627882,-0.0011125302407890558,0.029607225209474564
1789064088174514200,0.15251416015625,0.03838757425546646,0.01747223548591137,0.01127147488296032
1789064088184551200,0.16255126953125,0.07372798770666122,0.010610335506498814,-0.015933247283101082
1789064088194588200,0.172588134765625,0.08536973595619202,0.003095960011705756,-0.016976939514279366
1789064088204625200,0.182625244140625,0.06840939074754715,0.012324346229434013,-0.02002253197133541
1789064088214662400,0.192662353515625,0.060786448419094086,0.029271285980939865,-0.0431295707821846
1789064088224699100,0.20269921875,0.051146335899829865,0.024067472666502,-0.05787096545100212
1789064088234735400,0.2127353515625,0.06899275630712509,0.056279491633176804,-0.044534359127283096
1789064088244772000,0.222772216796875,0.07232730090618134,-0.015219726599752903,-0.033334702253341675
1789064088254809000,0.23280908203125,0.07710465788841248,0.01951371133327484,-0.013766920194029808
1789064088264846300,0.242846435546875,0.06513161957263947,-0.017005950212478638,-0.0056181796826422215
1789064088274883300,0.25288330078125,0.0548623763024807,0.012305558659136295,0.009848864749073982
1789064088284920300,0.26292041015625,0.04470028728246689,-0.002991638146340847,0.041053656488657
1789064088294957000,0.27295703125,0.042562343180179596,-0.0078043583780527115,0.054694317281246185
1789064088304994000,0.282994140625,0.044248390942811966,-0.014763197861611843,0.056865327060222626
1789064088315030000,0.293030029296875,0.04641669616103172,-0.0185527540743351,0.04628836363554001
1789064088325067300,0.3030673828125,0.04693441465497017,-0.02380131371319294,0.032619692385196686
1789064088335104300,0.313104248046875,0.04292050004005432,-0.025107450783252716,0.026395700871944427
1789064088345141200,0.323141357421875,0.022652512416243553,-0.019557952880859375,0.016075950115919113
1789064088355178200,0.33317822265625,-0.0021079194266349077,-0.005507771857082844,0.0003488680813461542
1789064088365215200,0.34321533203125,-0.02198149263858795,-0.07916601002216339,-0.03113209269940853
1789064088375252200,0.353252197265625,0.0010278194677084684,-0.04054984822869301,-0.03871375322341919
1789064088385289200,0.363289306640625,-0.008342246524989605,-0.1096130758523941,-0.03101775050163269
1789064088395325200,0.3733251953125,-0.016710076481103897,-0.05042921379208565,-0.022970497608184814
1789064088405362200,0.383362060546875,-0.04698728770017624,-0.08916036784648895,-0.02522645890712738
1789064088415399400,0.3933994140625,-0.04907533898949623,-0.027281470596790314,-0.015785299241542816
1789064088425436200,0.403436279296875,-0.04153752699494362,-0.07194960862398148,0.004070696886628866
1789064088435473200,0.41347314453125,-0.022924650460481644,-0.07348901778459549,0.031853172928094864
1789064088445510100,0.42351025390625,-0.0174233578145504,-0.10535214096307755,0.05492014437913895
1789064088455547400,0.43354736328125,-0.030551278963685036,-0.10118943452835083,0.06451205909252167
1789064088465584400,0.44358447265625,-0.05276816710829735,-0.09427347034215927,0.0752619057893753
1789064088475620400,0.453620361328125,-0.0738203227519989,-0.0911519005894661,0.08517764508724213
1789064088485657000,0.463656982421875,-0.0846753641963005,-0.10919801145792007,0.07422832399606705
1789064088495694000,0.473694091796875,-0.11603431403636932,-0.07576505094766617,0.03757162764668465
1789064088505731000,0.48373095703125,-0.13746130466461182,-0.1650262176990509,0.03956526890397072
1789064088515768300,0.493768310546875,-0.1565997153520584,-0.1917312741279602,0.03503132611513138
1789064088525805300,0.503805419921875,-0.15182892978191376,-0.16695348918437958,-0.0033243168145418167
1789064088535842300,0.51384228515625,-0.12754391133785248,-0.26121437549591064,-0.03162294253706932
1789064088545879000,0.523879150390625,-0.11652401834726334,-0.20254310965538025,-0.030352883040905
1789064088555915000,0.5339150390625,-0.12807783484458923,-0.18761244416236877,-0.027714641764760017
1789064088565952300,0.5439521484375,-0.16136309504508972,-0.11983766406774521,0.006909381598234177
1789064088575989200,0.5539892578125,-0.18973641097545624,-0.1010257676243782,0.047426629811525345
1789064088586026200,0.564026123046875,-0.1852513700723648,-0.11226697266101837,0.05833254009485245
1789064088596063200,0.574063232421875,-0.13743916153907776,-0.14096762239933014,0.059148769825696945
1789064088606100200,0.584100341796875,-0.0648626908659935,-0.17176735401153564,0.06967838108539581
1789064088616137200,0.59413720703125,0.0011660847812891006,-0.1915612816810608,0.07012512534856796
1789064088626174200,0.60417431640625,0.0267470795661211,-0.15040026605129242,0.06359851360321045
1789064088636210200,0.614210205078125,0.016509398818016052,-0.10608630627393723,0.04899030923843384
1789064088646247200,0.6242470703125,-0.0014272574335336685,-0.059880733489990234,0.039279092103242874
1789064088656284400,0.634284423828125,0.007415234111249447,0.0010441162157803774,0.02361847274005413
1789064088666321200,0.644321044921875,0.04333248734474182,-0.03685852512717247,0.0030508805066347122
1789064088676358100,0.654358154296875,0.09612854570150375,-0.03685297071933746,-0.021899936720728874
1789064088686395100,0.66439501953125,0.13964726030826569,-0.04857407510280609,-0.048567235469818115
1789064088696432000,0.67443212890625,0.15820181369781494,-0.01779772713780403,-0.07205835729837418
1789064088706469400,0.684469482421875,0.1575930118560791,0.01897147297859192,-0.08484844863414764
1789064088716505300,0.69450537109375,0.14827416837215424,0.030470509082078934,-0.09773596376180649
1789064088726542300,0.704542236328125,0.13278523087501526,0.04894113168120384,-0.08149120956659317
1789064088736579000,0.7145791015625,0.10780034214258194,0.02724430337548256,-0.032960910350084305
1789064088746616600,0.724616455078125,0.09360197186470032,0.03544311225414276,-0.038069386035203934
1789064088756653600,0.734653564453125,0.11498115211725235,-0.0043058875016868114,-0.02475462108850479
1789064088766690800,0.74469091796875,0.180413156747818,0.05491695553064346,-0.009025724604725838
1789064088776727600,0.7547275390625,0.20765186846256256,0.03332642465829849,0.033371102064847946
1789064088786763800,0.764763671875,0.19565699994564056,0.08757767826318741,0.01733781024813652
1789064088796800500,0.774800537109375,0.13560353219509125,0.06966673582792282,-0.013197911903262138
1789064088806837500,0.78483740234375,0.08339091390371323,0.07407879084348679,-0.03882551193237305
1789064088816874800,0.794874755859375,0.057092685252428055,0.04231295362114906,-0.0015495250700041652
1789064088826911700,0.804911865234375,0.04676840826869011,-0.05885601043701172,0.030356209725141525
1789064088836948700,0.81494873046875,0.024356402456760406,-0.06603997200727463,0.037337832152843475
1789064088846985500,0.8249853515625,-0.016890637576580048,-0.04462389275431633,0.05800289660692215
1789064088857022500,0.8350224609375,-0.047122664749622345,-0.041622016578912735,0.053781721740961075
1789064088867058400,0.845058349609375,-0.039064206182956696,0.014378666877746582,0.0038373335264623165
1789064088877095700,0.855095703125,-0.005510639399290085,0.013603747822344303,-0.02334279753267765
1789064088887132700,0.865132568359375,0.02555833011865616,-0.005809098482131958,-0.0360143817961216
1789064088897169700,0.875169677734375,0.025655534118413925,-0.009527936577796936,-0.06913771480321884
1789064088907206700,0.88520654296875,-0.0007760715670883656,-0.029817495495080948,-0.07589735090732574
1789064088917243600,0.89524365234375,-0.037897564470767975,-0.07348278909921646,-0.02942720800638199
1789064088927280600,0.90528076171875,-0.0671161636710167,-0.07037141919136047,-0.013353432528674603
1789064088937317600,0.915317626953125,-0.0805748999118805,-0.04843173921108246,-0.01646064594388008
1789064088947353600,0.925353515625,-0.08032642304897308,-0.04833373799920082,0.002264305716380477
1789064088957390600,0.935390625,-0.07080268859863281,-0.03391361981630325,0.01598835550248623
1789064088967427800,0.945427734375,-0.04973895102739334,-0.04442218691110611,0.007955729030072689
1789064088977464600,0.955464599609375,-0.0230881217867136,-0.012209102511405945,-0.00914466381072998
1789064088987501600,0.96550146484375,-0.003447042778134346,-0.013167841359972954,-0.0029938272200524807
1789064088997538600,0.97553857421875,0.007067291997373104,-0.006513873115181923,0.010985327884554863
1789064089007575800,0.985575927734375,0.010645515285432339,-0.010666539892554283,0.044089753180742264
1789064089017612800,0.99561279296875,-0.0037058580201119184,-0.0641321986913681,0.061609700322151184
1789064089027648800,1.005648681640625,-0.014925755560398102,-0.037615638226270676,0.06025228649377823
1789064089037685800,1.015685791015625,-0.019040962681174278,-0.020314065739512444,0.06080154702067375
1789064089047722500,1.025722412109375,-0.02067001722753048,-0.032787248492240906,0.04603991284966469
1789064089057759500,1.035759521484375,-0.011467019096016884,-0.004803977906703949,0.012169321067631245
1789064089067796700,1.045796630859375,0.006208914332091808,0.0027359637897461653,-0.02850780077278614
1789064089077833700,1.055833740234375,0.026630785316228867,-0.005536533892154694,-0.059229776263237
1789064089087870700,1.06587060546875,0.035955578088760376,-0.0021718963980674744,-0.07534375786781311
1789064089097906700,1.07590673828125,0.021444767713546753,-0.03041459619998932,-0.04295168071985245
1789064089107943400,1.085943359375,-0.014324948191642761,-0.05251936614513397,-0.026096004992723465
1789064089117980700,1.095980712890625,-0.041134633123874664,-0.02165009081363678,-0.0323980487883091
1789064089128017700,1.106017578125,-0.04489075765013695,-0.04344673454761505,0.0012158399913460016
1789064089138054700,1.1160546875,-0.018082445487380028,-0.043563175946474075,0.010825498029589653
1789064089148091600,1.126091552734375,0.020869746804237366,-0.008683488704264164,-0.01362604834139347
1789064089158128600,1.136128662109375,0.0412130132317543,-0.0002378679346293211,-0.015944289043545723
1789064089168165600,1.14616552734375,0.035903200507164,0.0021557812578976154,0.009331772103905678
1789064089178201600,1.15620166015625,0.011042636819183826,-0.02034829929471016,0.04362647607922554
1789064089188238600,1.166238525390625,-0.01623132824897766,-0.04190552234649658,0.053410664200782776
1789064089198275600,1.176275634765625,-0.03535819426178932,-0.05098890885710716,0.06163109466433525
1789064089208312800,1.186312744140625,-0.04147893935441971,-0.05415807291865349,0.06290382146835327
1789064089218349600,1.196349609375,-0.033804815262556076,-0.04790324717760086,0.045111559331417084
1789064089228386600,1.206386474609375,-0.0139991519972682,-0.029200930148363113,0.019066110253334045
1789064089238423600,1.216423583984375,0.019024353474378586,-0.009192214347422123,-0.0015855907695367932
1789064089248460500,1.22646044921875,0.05184967815876007,-0.004109038971364498,-0.02845129184424877
1789064089258496500,1.23649658203125,0.07257794588804245,0.018122293055057526,-0.055164702236652374
1789064089268533800,1.24653369140625,0.06883247196674347,-0.01142814289778471,-0.04276289418339729
1789064089278570800,1.25657080078125,0.04535316303372383,-0.0355585552752018,-0.027117684483528137
1789064089288607500,1.266607421875,0.02505721151828766,-0.012076662853360176,-0.030451428145170212
1789064089298644500,1.27664453125,0.02346828021109104,-0.023960424587130547,-0.0162858497351408
1789064089308681700,1.286681640625,0.04300762712955475,-0.02151431143283844,0.0059675234369933605
1789064089318718700,1.29671875,0.07923522591590881,-0.009723247960209846,0.022673144936561584
1789064089328754700,1.306754638671875,0.11773069202899933,-0.00035717757418751717,0.025553086772561073
1789064089338791700,1.316791748046875,0.15181320905685425,0.021900150924921036,0.03772180527448654
1789064089348828700,1.32682861328125,0.17624637484550476,0.020697198808193207,0.06173872575163841
1789064089358865700,1.33686572265625,0.1929771453142166,0.029578186571598053,0.06381207704544067
1789064089368902700,1.346902587890625,0.20902135968208313,0.05971159040927887,0.04248122498393059
1789064089378939600,1.356939697265625,0.2234770953655243,0.059299107640981674,0.02194378525018692
1789064089388976600,1.3669765625,0.2393527328968048,0.06058860942721367,0.002191120060160756
1789064089399013600,1.377013671875,0.2595483958721161,0.07787834852933884,-0.03479212522506714
1789064089409049900,1.3870498046875,0.2830638587474823,0.09932531416416168,-0.05951478332281113
1789064089419086600,1.397086669921875,0.3187938630580902,0.04210713505744934,-0.029085349291563034
1789064089429123600,1.40712353515625,0.3487861156463623,0.1395801603794098,-0.11576991528272629
1789064089439160600,1.41716064453125,0.35643503069877625,0.16754284501075745,0.005760144907981157
1789064089449197600,1.427197509765625,0.3822610378265381,0.09429792314767838,0.07491924613714218
1789064089459234800,1.43723486328125,0.3663736581802368,0.18247674405574799,-0.12519870698451996
1789064089469271600,1.447271484375,0.3159395158290863,0.1081862822175026,-0.0786045640707016
1789064089479308500,1.45730859375,0.29281923174858093,0.22812210023403168,-0.08222497999668121
1789064089489344500,1.467344482421875,0.26617056131362915,0.007820898666977882,-0.0892791599035263
1789064089499381500,1.477381591796875,0.274406373500824,0.22787538170814514,0.03669629618525505
1789064089509418800,1.487418701171875,0.25304433703422546,0.06918107718229294,-0.033369340002536774
1789064089519455700,1.497455810546875,0.24452556669712067,0.3775120675563812,0.0771319568157196
1789064089529492700,1.50749267578125,0.31940674781799316,-0.15629486739635468,0.02735348790884018
1789064089539529500,1.517529541015625,0.35824331641197205,0.39237460494041443,-0.10947393625974655
1789064089549566700,1.527566650390625,0.34780028462409973,0.19393260776996613,-0.009722571820020676
1789064089559602700,1.537602783203125,0.24206112325191498,0.07251119613647461,0.044416025280952454
1789064089569639700,1.5476396484375,0.14044103026390076,0.13273991644382477,0.0817767083644867
1789064089579676700,1.5576767578125,0.09181813150644302,0.1348026692867279,0.2419506311416626
1789064089589713700,1.567713623046875,0.04701657593250275,-0.12884095311164856,0.18635447323322296
1789064089599750400,1.57775048828125,0.13103117048740387,0.20138202607631683,0.001251015579327941
1789064089609787600,1.58778759765625,0.13303281366825104,0.06816937774419785,0.03984581306576729
1789064089619824600,1.59782470703125,0.14929208159446716,0.058025192469358444,0.09163693338632584
1789064089629861600,1.607861572265625,0.11797597259283066,0.1515548825263977,0.022096998989582062
1789064089639897600,1.617897705078125,0.09062162041664124,0.08285091817378998,0.03777436167001724
1789064089649934600,1.6279345703125,0.09409943968057632,0.04117137938737869,0.10644716769456863
1789064089659971800,1.637971923828125,0.1146540716290474,0.12092222273349762,0.010164965875446796
1789064089670008600,1.648008544921875,0.10666964948177338,0.06530875712633133,-0.03234467655420303
1789064089680045600,1.658045654296875,0.08124604821205139,0.024423496797680855,0.04520116373896599
1789064089690082600,1.66808251953125,0.043055787682533264,0.055713772773742676,0.047180160880088806
1789064089700119800,1.678119873046875,-0.004995360504835844,0.0218074731528759,-0.034790873527526855
1789064089710155800,1.68815576171875,-0.029143573716282845,0.023039983585476875,-0.027251465246081352
1789064089720192800,1.69819287109375,-0.06186902895569801,0.1692066341638565,0.12756119668483734
1789064089730229500,1.7082294921875,-0.055256135761737823,0.19146187603473663,0.056464653462171555
1789064089740266500,1.7182666015625,0.04208306968212128,-0.03353866562247276,-0.10965988039970398
1789064089750303500,1.728303466796875,0.22865375876426697,0.32101672887802124,-0.30266475677490234
1789064089760340500,1.738340576171875,0.34001946449279785,0.1731135994195938,-0.1491803526878357
1789064089770377500,1.74837744140625,0.2816008925437927,0.1333126574754715,-0.06090669333934784
1789064089780414500,1.75841455078125,0.13744159042835236,0.19949142634868622,-0.15565353631973267
1789064089790450700,1.76845068359375,-0.08012641221284866,0.17691634595394135,-0.055648911744356155
1789064089800487400,1.7784873046875,-0.1452733427286148,0.04550616815686226,0.05791139602661133
1789064089810524400,1.7885244140625,-0.10516053438186646,-0.01984967105090618,0.11475550383329391
1789064089820561400,1.7985615234375,-0.06636617332696915,-0.027485568076372147,0.11158861964941025
1789064089830598400,1.808598388671875,-0.06994733214378357,0.035526420921087265,0.16144698858261108
1789064089840635600,1.8186357421875,-0.07953306287527084,0.04272617772221565,0.23930327594280243
1789064089850672400,1.82867236328125,-0.05163991451263428,0.11177874356508255,0.24973487854003906
1789064089860708400,1.838708251953125,0.03945435211062431,0.140812948346138,0.21925735473632812
1789064089870745300,1.848745361328125,0.1300569474697113,0.19680164754390717,0.14744389057159424
1789064089880782300,1.8587822265625,0.16451098024845123,0.2239675372838974,0.0548529177904129
1789064089890819600,1.868819580078125,0.09078988432884216,0.11306844651699066,0.00666541513055563
1789064089900856600,1.878856689453125,-0.03689488023519516,0.04616890102624893,-0.012921816669404507
1789064089910893600,1.8888935546875,-0.16200034320354462,-0.003623421536758542,-0.04348238930106163
1789064089920930300,1.898930419921875,-0.21403007209300995,-0.04520593583583832,-0.09708850085735321
1789064089930966300,1.90896630859375,-0.19096416234970093,0.006654065102338791,-0.10631262511014938
1789064089941003500,1.91900341796875,-0.12347669154405594,0.01222931407392025,-0.0556505024433136
1789064089951040500,1.92904052734375,-0.06641580164432526,0.024111805483698845,-0.015221853740513325
1789064089961077500,1.939077392578125,-0.032086096704006195,0.09165967255830765,0.007662393152713776
1789064089971114500,1.949114501953125,-0.02821412868797779,0.11120408028364182,0.029925353825092316
1789064089981151500,1.9591513671875,-0.0335259847342968,0.11489511281251907,0.0626545175909996
1789064089991188500,1.9691884765625,-0.04147445410490036,0.045638278126716614,0.08714786916971207
1789064090001225500,1.9792255859375,-0.047994937747716904,0.04842951521277428,0.08784865587949753
1789064090011261400,1.989261474609375,-0.05578708276152611,0.0316753052175045,0.09698250144720078
1789064090021298400,1.99929833984375,-0.03456834331154823,0.06100873649120331,0.09693089127540588
1789064090031335400,2.00933544921875,0.009850788861513138,0.11798360198736191,0.06986518949270248
1789064090041372400,2.019372314453125,0.07089319080114365,0.15849187970161438,0.06928221881389618
1789064090051409400,2.029409423828125,0.11353892087936401,0.144268199801445,0.051042232662439346
1789064090061446400,2.0394462890625,0.11900008469820023,0.12993018329143524,0.0019557885825634003
1789064090071483400,2.0494833984375,0.09012236446142197,0.17017720639705658,-0.002685035578906536
1789064090081519400,2.059519287109375,0.031205296516418457,0.10358942300081253,-0.009864887222647667
1789064090091556600,2.069556640625,0.006686105392873287,0.12088984996080399,-0.012199414893984795
1789064090101593600,2.079593505859375,0.004146115854382515,0.06283819675445557,0.011573201045393944
1789064090111630300,2.08963037109375,0.04474787041544914,0.10924217849969864,-0.021832693368196487
1789064090121667300,2.099667236328125,0.08241433650255203,0.11311182379722595,-0.031257789582014084
1789064090131704600,2.10970458984375,0.10183890163898468,0.11730363965034485,0.0035734293051064014
1789064090141741600,2.119741455078125,0.09605380892753601,0.14231689274311066,-0.0020835967734456062
1789064090151778600,2.129778564453125,0.07445503771305084,0.10812828689813614,0.03083520382642746
1789064090161814500,2.139814453125,0.05476836860179901,0.1119498610496521,0.05085781589150429
1789064090171851500,2.1498515625,0.03858886659145355,0.11842986196279526,0.04695042595267296
1789064090181888500,2.159888427734375,0.05793895199894905,0.15654586255550385,0.051114074885845184
1789064090191925500,2.169925537109375,0.12486977875232697,0.2179279923439026,0.08482810109853745
1789064090201962500,2.17996240234375,0.21436841785907745,0.17886005342006683,0.14435775578022003
1789064090211999500,2.18999951171875,0.32450664043426514,0.20282211899757385,0.13806550204753876
1789064090222036500,2.200036376953125,0.40353888273239136,0.2348162680864334,0.0949300229549408
1789064090232072400,2.210072509765625,0.4235421419143677,0.23880276083946228,0.053211335092782974
1789064090242109400,2.220109375,0.4035957455635071,0.3208814561367035,0.015248599462211132
1789064090252146400,2.230146484375,0.37801289558410645,0.3508009910583496,0.027500204741954803
1789064090262183400,2.240183349609375,0.35888171195983887,0.31470343470573425,0.05205562338232994
1789064090272220400,2.250220458984375,0.3846952021121979,0.3688734769821167,-0.03551337495446205
1789064090282257700,2.260257568359375,0.4429705739021301,0.3850550055503845,-0.08907685428857803
1789064090292294400,2.27029443359375,0.48118212819099426,0.2498636692762375,-0.08443709462881088
1789064090302330400,2.280330322265625,0.49703824520111084,0.22621871531009674,-0.08618835359811783
1789064090312367400,2.290367431640625,0.45320820808410645,0.27232441306114197,-0.09498797357082367
1789064090322404400,2.300404296875,0.4105243384838104,0.47786396741867065,-0.0451846569776535
1789064090332441600,2.310441650390625,0.41787704825401306,0.45595812797546387,0.14022354781627655
1789064090342478600,2.320478515625,0.5079596638679504,0.42185014486312866,0.33979272842407227
1789064090352515600,2.330515625,0.6734601855278015,0.4444345533847809,0.38340333104133606
1789064090362552300,2.34055224609375,0.8139209151268005,0.4088083803653717,0.33767765760421753
1789064090372589300,2.35058935546875,0.8636964559555054,0.4931999444961548,0.2489669919013977
1789064090382625500,2.36062548828125,0.7955819368362427,0.5045887231826782,0.15773333609104156
1789064090392662500,2.37066259765625,0.6517089009284973,0.5259160995483398,0.10160721838474274
1789064090402699500,2.380699462890625,0.48692137002944946,0.4604603350162506,0.0589362308382988
1789064090412736500,2.390736572265625,0.35633885860443115,0.3115944266319275,-0.0035476507619023323
1789064090422773200,2.400773193359375,0.29837337136268616,0.18966180086135864,-0.12955443561077118
1789064090432810500,2.410810546875,0.24710248410701752,0.09380237013101578,-0.2559315264225006
1789064090442847500,2.420847412109375,0.16083431243896484,0.09964486956596375,-0.3782331347465515
1789064090452883500,2.430883544921875,0.018820447847247124,0.08641881495714188,-0.3887408971786499
1789064090462920400,2.44092041015625,-0.12255585938692093,-0.01046487782150507,-0.2913292944431305
1789064090472957400,2.45095751953125,-0.2534531354904175,-0.05455377697944641,-0.2081308215856552
1789064090482994400,2.460994384765625,-0.4063720107078552,-0.041063327342271805,-0.09011559188365936
1789064090493031400,2.471031494140625,-0.6110436320304871,-0.12874789535999298,0.07301633805036545
1789064090503068400,2.481068359375,-0.7243160009384155,-0.1753818690776825,0.18924936652183533
1789064090513105400,2.49110546875,-0.8103198409080505,-0.24956315755844116,0.24148914217948914
1789064090523142700,2.501142578125,-0.8811407089233398,-0.30257561802864075,0.31047165393829346
1789064090533178600,2.5111787109375,-0.9202958345413208,-0.28146952390670776,0.298440545797348
1789064090543215600,2.521215576171875,-0.9350146055221558,-0.38836511969566345,0.2737463712692261
1789064090553252400,2.53125244140625,-0.9236884117126465,-0.5397218465805054,0.1754051297903061
1789064090563289300,2.541289306640625,-0.8742507696151733,-0.5381664037704468,0.006577117368578911
1789064090573326300,2.551326416015625,-0.8382474780082703,-0.3679153025150299,0.013694415800273418
1789064090583363600,2.561363525390625,-0.9112740159034729,-0.1830032765865326,0.07560422271490097
1789064090593400600,2.571400634765625,-0.8886701464653015,-0.06843701750040054,0.051256801933050156
1789064090603436500,2.5814365234375,-0.8571001887321472,-0.2757572829723358,-0.05449947714805603
1789064090613473500,2.5914736328125,-0.8136083483695984,-0.2174854576587677,-0.09723947942256927
1789064090623510300,2.60151025390625,-0.745797336101532,-0.21183645725250244,-0.1500796675682068
1789064090633547500,2.611547607421875,-0.6710565090179443,-0.1907506138086319,-0.16382957994937897
1789064090643584500,2.62158447265625,-0.6418936252593994,-0.20513823628425598,-0.06552988290786743
1789064090653621500,2.63162158203125,-0.6627826690673828,-0.1964840292930603,-0.08995506167411804
1789064090663658500,2.641658447265625,-0.6426194310188293,0.16844739019870758,-0.11016637831926346
1789064090673694500,2.651694580078125,-0.4783402383327484,0.08009568601846695,0.07949916273355484
1789064090683731500,2.6617314453125,-0.3910553753376007,-0.054430775344371796,0.2601962685585022
1789064090693768400,2.6717685546875,-0.38133615255355835,-0.1191469207406044,0.2626221477985382
1789064090703805400,2.681805419921875,-0.3645956516265869,0.09739917516708374,0.1044696792960167
1789064090713842400,2.691842529296875,-0.18748559057712555,0.36611318588256836,-0.01569480635225773
1789064090723879700,2.701879638671875,-0.004028807394206524,0.20714092254638672,-0.09351707994937897
1789064090733916400,2.71191650390625,0.1121625155210495,0.1457177698612213,-0.21732796728610992
1789064090743952400,2.721952392578125,0.30161526799201965,0.21994240581989288,-0.35838583111763
1789064090753989000,2.731989013671875,0.49978429079055786,0.3317839801311493,-0.4797615110874176
1789064090764026000,2.742026123046875,0.7231775522232056,0.35396823287010193,-0.4544229805469513
1789064090774063000,2.75206298828125,0.8244077563285828,0.23578381538391113,-0.31575536727905273
1789064090784100400,2.762100341796875,0.8946297764778137,0.34580013155937195,-0.20748019218444824
1789064090794137300,2.772137451171875,1.0281084775924683,0.620418131351471,-0.018103085458278656
1789064090804174000,2.782174072265625,1.0943164825439453,0.43415361642837524,0.17653781175613403
1789064090814210300,2.792210205078125,1.1307873725891113,0.5978482961654663,0.24000678956508636
1789064090824247000,2.8022470703125,1.173377513885498,0.6432654857635498,0.2486223578453064
1789064090834284300,2.8122841796875,1.2093563079833984,0.615608274936676,0.18685220181941986
1789064090844321300,2.8223212890625,1.2286051511764526,0.6243290901184082,0.08708488941192627
1789064090854358300,2.832358154296875,1.2611957788467407,0.6319832801818848,0.036897093057632446
1789064090864395300,2.842395263671875,1.262933611869812,0.6327634453773499,-0.04023223742842674
1789064090874432300,2.852432373046875,1.246996283531189,0.56243497133255,-0.11641035974025726
1789064090884469200,2.86246923828125,1.3047930002212524,0.6924899220466614,-0.1286110281944275
1789064090894505200,2.872505126953125,1.3443413972854614,0.7632490992546082,-0.18424713611602783
1789064090904542200,2.882542236328125,1.2959455251693726,0.738412082195282,-0.2699875831604004
1789064090914579200,2.8925791015625,1.2106354236602783,0.7805765867233276,-0.28228259086608887
1789064090924616200,2.9026162109375,1.1137008666992188,0.7713809609413147,-0.26010018587112427
1789064090934653200,2.912653076171875,1.0954667329788208,0.7576332092285156,-0.2688790261745453
1789064090944690200,2.922690185546875,1.0876188278198242,0.7056456208229065,-0.23746581375598907
1789064090954727200,2.93272705078125,1.1416841745376587,0.7840962409973145,-0.05685342103242874
1789064090964763100,2.94276318359375,1.1295428276062012,0.7242554426193237,0.20249596238136292
1789064090974800100,2.952800048828125,1.0262463092803955,0.5305355191230774,0.3717174828052521
1789064090984837400,2.96283740234375,0.8962609171867371,0.4060790538787842,0.36204394698143005
1789064090994874000,2.9728740234375,0.9543617367744446,0.3933744430541992,0.10758956521749496
1789064091004911000,2.9829111328125,1.06685471534729,0.5408544540405273,-0.06112019345164299
1789064091014948000,2.992947998046875,0.6903663277626038,0.735817551612854,-0.1331925243139267
1789064091024985300,3.0029853515625,0.2962229251861572,0.8188304901123047,-0.09305626899003983
1789064091035021300,3.013021240234375,0.19271861016750336,0.37636178731918335,-0.05840640887618065
1789064091045058300,3.023058349609375,0.2358965277671814,0.1548529714345932,-0.16045504808425903
1789064091055095300,3.03309521484375,0.531723141670227,0.4139639139175415,-0.3923678994178772
1789064091065132000,3.043132080078125,0.8583962321281433,0.6899590492248535,-0.14573030173778534
1789064091075169300,3.053169189453125,0.8804426789283752,0.5144357085227966,0.13133539259433746
1789064091085206300,3.063206298828125,0.7583386898040771,0.4616571366786957,0.19187690317630768
1789064091095243300,3.0732431640625,0.5359429121017456,0.41549283266067505,0.30556008219718933
1789064091105279200,3.083279296875,0.13509587943553925,0.3471575975418091,0.41695380210876465
1789064091115316200,3.093316162109375,-0.09381053596735,0.3576813340187073,0.4352625012397766
1789064091125353200,3.103353271484375,-0.021537629887461662,0.35223516821861267,0.42337825894355774
1789064091135390200,3.11339013671875,0.09085788577795029,0.261953741312027,0.3246695399284363
1789064091145427200,3.12342724609375,0.18871991336345673,0.3048515319824219,0.13027840852737427
1789064091155464200,3.133464111328125,0.27562978863716125,0.4959075152873993,-0.011842254549264908
1789064091165501200,3.143501220703125,0.27022773027420044,0.5079029202461243,-0.08891275525093079
1789064091175538200,3.1535380859375,0.2822923958301544,0.5134806632995605,-0.15207946300506592
1789064091185574400,3.163574462890625,0.33636152744293213,0.5425255298614502,-0.22090965509414673
1789064091195611100,3.173611083984375,0.37406814098358154,0.45034849643707275,-0.24272680282592773
1789064091205648100,3.183648193359375,0.36511290073394775,0.31450018286705017,-0.16183316707611084
1789064091215685000,3.19368505859375,0.3157283067703247,0.3850635886192322,-0.1377914845943451
1789064091225722400,3.203722412109375,0.1885339319705963,0.42787623405456543,-0.03614392504096031
1789064091235759400,3.21375927734375,0.10456660389900208,0.3001944422721863,0.11765363067388535
1789064091245796000,3.223796142578125,0.1128465011715889,0.4709593951702118,0.17106875777244568
1789064091255832300,3.233832275390625,0.17099237442016602,0.3957914113998413,0.21299144625663757
1789064091265869000,3.243869140625,0.23572467267513275,0.3941323757171631,0.29566583037376404
1789064091275906300,3.25390625,0.25332361459732056,0.35311171412467957,0.30096447467803955
1789064091285943300,3.263943359375,0.20428764820098877,0.2832050621509552,0.3189503848552704
1789064091295980300,3.273980224609375,0.1275888830423355,0.3415655791759491,0.20128579437732697
1789064091306017300,3.284017333984375,0.008373984135687351,0.33575451374053955,0.09941547363996506
1789064091316054000,3.294053955078125,-0.11571121215820312,0.3738797903060913,0.019910790026187897
1789064091326090000,3.304090087890625,-0.21858526766300201,0.21621976792812347,0.02915659174323082
1789064091336127200,3.314127197265625,-0.26114150881767273,0.0782507136464119,0.05299614369869232
1789064091346164200,3.324164306640625,-0.26909059286117554,0.023855509236454964,-0.16202770173549652
1789064091356201200,3.334201171875,-0.28952500224113464,0.11778786033391953,-0.316683828830719
1789064091366238200,3.34423828125,-0.3847525715827942,0.008553724735975266,-0.2546551823616028
1789064091376275200,3.354275146484375,-0.47727373242378235,0.0259175356477499,-0.204295352101326
1789064091386312200,3.364312255859375,-0.5627360939979553,-0.0019326978363096714,-0.17706632614135742
1789064091396348200,3.37434814453125,-0.621186375617981,-0.03747231513261795,-0.087098628282547
1789064091406385200,3.38438525390625,-0.6756023168563843,-0.056959670037031174,0.043620865792036057
1789064091416422100,3.394422119140625,-0.7365630865097046,-0.1720854640007019,0.14368754625320435
1789064091426459400,3.40445947265625,-0.775113582611084,-0.09666133671998978,0.17893172800540924
1789064091436496400,3.414496337890625,-0.8136215806007385,-0.18088486790657043,0.2942380905151367
1789064091446533000,3.424533203125,-0.843940258026123,-0.24155133962631226,0.41208502650260925
1789064091456570000,3.434570068359375,-0.8596656918525696,-0.21977335214614868,0.32108375430107117
1789064091466606000,3.444606201171875,-0.8540009260177612,-0.16248486936092377,0.2552871108055115
1789064091476643300,3.454643310546875,-0.8001813888549805,-0.11025550216436386,0.19900786876678467
1789064091486680300,3.464680419921875,-0.7798869013786316,-0.12889626622200012,0.15758684277534485
1789064091496717300,3.47471728515625,-0.7291558384895325,-0.16191521286964417,0.07504722476005554
1789064091506754000,3.484754150390625,-0.7168928384780884,-0.20671963691711426,-0.022420262917876244
1789064091516791000,3.494791015625,-0.6759774088859558,-0.2123812586069107,0.016030989587306976
1789064091526828300,3.504828369140625,-0.6448755264282227,-0.22444108128547668,-0.009719586931169033
1789064091536864300,3.5148642578125,-0.6248840093612671,-0.20944242179393768,0.009272213093936443
1789064091546901200,3.5249013671875,-0.6093246936798096,0.009526509791612625,-0.03949039801955223
1789064091556938200,3.534938232421875,-0.6101894378662109,-0.13575239479541779,0.05680444836616516
1789064091566975200,3.544975341796875,-0.5779553651809692,-0.10633343458175659,0.15418384969234467
1789064091577012200,3.55501220703125,-0.5432783961296082,-0.27185556292533875,0.23348399996757507
1789064091587049200,3.56504931640625,-0.5133824348449707,-0.15783937275409698,0.24531888961791992
1789064091597086200,3.575086181640625,-0.5030136704444885,-0.25201353430747986,0.22805574536323547
1789064091607122200,3.5851220703125,-0.4956464171409607,-0.13222366571426392,0.2534724473953247
1789064091617159200,3.5951591796875,-0.4917560815811157,-0.2076699584722519,0.1687314361333847
1789064091627196400,3.605196533203125,-0.4805971086025238,-0.12126817554235458,0.08910365402698517
1789064091637233200,3.615233154296875,-0.47017937898635864,-0.1774960309267044,0.03210641071200371
1789064091647270100,3.625270263671875,-0.45862042903900146,-0.16782133281230927,-0.002646413631737232
1789064091657307100,3.63530712890625,-0.43418088555336,-0.2058025300502777,-0.061492688953876495
1789064091667344400,3.645344482421875,-0.4309575855731964,-0.15988847613334656,-0.15180645883083344
1789064091677380400,3.65538037109375,-0.4182910621166229,-0.23266440629959106,-0.040755849331617355
1789064091687417300,3.665417236328125,-0.4440881013870239,-0.26816776394844055,0.08505582809448242
1789064091697454300,3.675454345703125,-0.4897778332233429,-0.30775031447410583,0.11221075057983398
1789064091707491000,3.685490966796875,-0.5284693837165833,-0.14964212477207184,0.12616592645645142
1789064091717528000,3.695528076171875,-0.5206205248832703,-0.18610292673110962,0.27173590660095215
1789064091727565300,3.7055654296875,-0.4791117012500763,-0.2251908779144287,0.331166535615921
1789064091737602300,3.715602294921875,-0.4829549193382263,-0.5750038027763367,0.2641901671886444
1789064091747638300,3.72563818359375,-0.49647998809814453,-0.44131404161453247,0.09192419052124023
1789064091757675300,3.73567529296875,-0.4999610185623169,-0.3985742926597595,-0.11468358337879181
1789064091767712300,3.745712158203125,-0.4707495868206024,0.1801716536283493,0.14888469874858856
1789064091777749200,3.755749267578125,-0.470444917678833,-0.2614805996417999,0.31999972462654114
1789064091787786200,3.7657861328125,-0.4187299311161041,-0.3453441262245178,0.2057536244392395
1789064091797823200,3.7758232421875,-0.42003515362739563,-0.2774686813354492,0.08542562276124954
1789064091807860500,3.785860595703125,-0.3890592157840729,-0.3994320333003998,0.024876374751329422
1789064091817896400,3.795896484375,-0.4009060263633728,-0.3397543430328369,-0.14704477787017822
1789064091827933200,3.80593310546875,-0.4114060401916504,-0.3520723879337311,-0.1906643807888031
1789064091837970200,3.81597021484375,-0.3962332010269165,-0.2721189856529236,-0.07888699322938919
1789064091848007200,3.826007080078125,-0.3936525881290436,-0.31159311532974243,-0.015023689717054367
1789064091858044200,3.836044189453125,-0.34940844774246216,-0.2634008228778839,-0.028732579201459885
1789064091868081400,3.846081298828125,-0.3412826359272003,-0.35372379422187805,0.19230380654335022
1789064091878118400,3.856118408203125,-0.3421601355075836,-0.4151557385921478,0.20654399693012238
1789064091888155100,3.866155029296875,-0.3411470353603363,-0.3588545322418213,0.14809483289718628
1789064091898191000,3.876191162109375,-0.34475722908973694,-0.37047842144966125,0.21803157031536102
1789064091908228000,3.88622802734375,-0.3519217371940613,-0.35506969690322876,0.21920037269592285
1789064091918265300,3.896265380859375,-0.3908100426197052,-0.44889819622039795,0.1436648666858673
1789064091928302300,3.90630224609375,-0.36462223529815674,-0.3803061246871948,-0.021543512120842934
1789064091938339300,3.91633935546875,-0.3107491731643677,-0.43952125310897827,-0.0683421790599823
1789064091948376000,3.9263759765625,-0.23825807869434357,-0.3339870274066925,-0.05069301277399063
1789064091958413300,3.936413330078125,-0.19190922379493713,-0.40939441323280334,-0.1501287817955017
1789064091968449300,3.94644921875,-0.16640372574329376,-0.2828165292739868,-0.27451032400131226
1789064091978486300,3.956486328125,-0.13317546248435974,-0.1637287586927414,-0.2265302687883377
1789064091988523300,3.966523193359375,-0.09766581654548645,-0.27528417110443115,-0.07284047454595566
1789064091998560300,3.976560302734375,-0.024715175852179527,-0.34274762868881226,-0.0899273157119751
1789064092008597200,3.98659716796875,0.01749957725405693,-0.33041757345199585,-0.06910626590251923
1789064092018634200,3.99663427734375,0.057727158069610596,-0.26103824377059937,-0.003761609550565481
1789064092028670200,4.006670166015625,0.08700820803642273,-0.2807067632675171,0.03977673500776291
1789064092038707200,4.016707275390625,0.15900756418704987,-0.18884631991386414,0.1319359540939331
1789064092048744200,4.026744140625,0.23893332481384277,-0.21613891422748566,0.22785186767578125
1789064092058781200,4.03678125,0.32420217990875244,-0.10918716341257095,0.1540474146604538
1789064092068818400,4.046818359375,0.4078458249568939,-0.012819148600101471,-0.03712863475084305
1789064092078855200,4.056855224609375,0.46653228998184204,-0.04368385300040245,-0.07201844453811646
1789064092088892200,4.06689208984375,0.48560377955436707,-0.1060449406504631,-0.09665823727846146
1789064092098928000,4.07692822265625,0.49019214510917664,-0.12261646240949631,-0.1478484719991684
1789064092108965000,4.086965087890625,0.47608765959739685,-0.05645452067255974,-0.25480759143829346
1789064092119002400,4.09700244140625,0.4772818088531494,-0.038567665964365005,-0.2894641160964966
1789064092129039400,4.107039306640625,0.5077598094940186,0.031969353556632996,-0.2061055600643158
1789064092139076400,4.117076416015625,0.5783831477165222,-0.04545805975794792,-0.07844720035791397
1789064092149113000,4.127113037109375,0.6573063135147095,-0.005186046008020639,-0.040111325681209564
1789064092159150300,4.137150390625,0.7441035509109497,0.11939743161201477,0.004415926989167929
1789064092169187300,4.147187255859375,0.8286826610565186,0.15376977622509003,0.0592779703438282
1789064092179223300,4.157223388671875,0.8287143707275391,0.17865276336669922,0.0790649875998497
1789064092189260300,4.16726025390625,0.8074974417686462,0.23622573912143707,0.14028224349021912
1789064092199297300,4.17729736328125,0.7758350968360901,0.231356680393219,0.11306926608085632
1789064092209334300,4.187334228515625,0.7673446536064148,0.16573889553546906,0.039806656539440155
1789064092219371300,4.197371337890625,0.8255118131637573,0.21403372287750244,-0.1313866674900055
1789064092229408300,4.207408203125,0.8920857906341553,0.30197033286094666,-0.28801658749580383
1789064092239445200,4.2174453125,0.905487596988678,0.1654505878686905,-0.14669357240200043
1789064092249481200,4.227481201171875,0.8526658415794373,0.26303014159202576,-0.16094213724136353
1789064092259518200,4.237518310546875,0.7867414355278015,0.378415584564209,-0.22785459458827972
1789064092269555500,4.247555419921875,0.782630443572998,0.40359461307525635,-0.1426166594028473
1789064092279592200,4.25759228515625,0.781510055065155,0.26283004879951477,-0.10495182871818542
1789064092289629200,4.267629150390625,0.7542667388916016,0.2462918758392334,-0.09708211570978165
1789064092299666200,4.277666259765625,0.6261646747589111,0.1878298968076706,-0.05467526987195015
1789064092309702100,4.2877021484375,0.526081919670105,0.27102935314178467,-0.0942278802394867
1789064092319739400,4.297739501953125,0.4458416700363159,0.30060455203056335,-0.06076498702168465
1789064092329776400,4.3077763671875,0.42523303627967834,0.28196123242378235,-0.0742371678352356
1789064092339813000,4.317813232421875,0.43033456802368164,0.22219644486904144,-0.029042253270745277
1789064092349850000,4.32785009765625,0.4323844611644745,0.18719428777694702,-0.0004814199637621641
1789064092359887400,4.337887451171875,0.39820200204849243,0.23709499835968018,-0.07750749588012695
1789064092369924400,4.34792431640625,0.3492997884750366,0.2590634524822235,-0.08930470049381256
1789064092379960300,4.357960205078125,0.3195938467979431,0.23153594136238098,-0.014204096049070358
1789064092389997300,4.367997314453125,0.27719563245773315,0.2460700273513794,-0.01944642700254917
1789064092400034300,4.378034423828125,0.260280042886734,0.37490177154541016,-0.08563822507858276
1789064092410071300,4.3880712890625,0.2659044563770294,0.4371984601020813,-0.17400583624839783
1789064092420108300,4.3981083984375,0.31012704968452454,0.3690071702003479,-0.08600914478302002
1789064092430145300,4.408145263671875,0.3418630361557007,0.1961470991373062,0.027397863566875458
1789064092440182300,4.418182373046875,0.38182535767555237,0.3422987163066864,0.060049016028642654
1789064092450218200,4.42821826171875,0.36267024278640747,0.2821735441684723,0.1213112473487854
1789064092460255200,4.438255126953125,0.30264151096343994,0.3539388179779053,0.13737116754055023
1789064092470292200,4.448292236328125,0.20971845090389252,0.3482380211353302,0.20634381473064423
1789064092480329200,4.4583291015625,0.14412613213062286,0.3497632145881653,0.2116411179304123
1789064092490366200,4.4683662109375,0.10297944396734238,0.26869550347328186,0.16894608736038208
1789064092500403200,4.4784033203125,0.10626871883869171,0.2258889377117157,0.11130063235759735
1789064092510440400,4.4884404296875,0.12844814360141754,0.17182935774326324,0.0663657933473587
1789064092520476400,4.498476318359375,0.14335492253303528,0.21000470221042633,-0.004056176170706749
1789064092530513400,4.508513427734375,0.14488549530506134,0.2644190788269043,-0.11876692622900009
1789064092540550100,4.518550048828125,0.11002551019191742,0.21044668555259705,-0.1355626881122589
1789064092550587100,4.528587158203125,0.1277432143688202,0.452085018157959,-0.24134977161884308
1789064092560624400,4.538624267578125,0.14103318750858307,0.38638749718666077,-0.14593617618083954
1789064092570661400,4.548661376953125,0.15304869413375854,0.3322180211544037,0.014173784293234348
1789064092580698400,4.558698486328125,0.11662943661212921,0.195445254445076,0.10112306475639343
1789064092590734300,4.568734375,0.12299700826406479,0.3354799747467041,0.05574711412191391
1789064092600771000,4.57877099609375,0.1358717978000641,0.45782825350761414,0.01946820504963398
1789064092610808300,4.588808349609375,0.18464399874210358,0.4524734914302826,0.12808798253536224
1789064092620845300,4.59884521484375,0.2220504879951477,0.41306936740875244,0.21613262593746185
1789064092630882300,4.60888232421875,0.23863853514194489,0.4258483052253723,0.17713665962219238
1789064092640919300,4.618919189453125,0.19182761013507843,0.4936678409576416,0.09202362596988678
1789064092650956000,4.6289560546875,0.1322183907032013,0.527743935585022,0.05469954013824463
1789064092660992300,4.6389921875,0.09858720004558563,0.46053484082221985,0.048892248421907425
1789064092671029200,4.649029296875,0.05660085007548332,0.34602123498916626,-0.0025739450938999653
1789064092681066200,4.659066162109375,0.004509154707193375,0.2638166546821594,-0.15434056520462036
1789064092691103200,4.669103271484375,-0.09003031253814697,0.3223901391029358,-0.29022637009620667
1789064092701140200,4.67914013671875,-0.21294131875038147,0.17855839431285858,-0.23467308282852173
1789064092711177500,4.689177490234375,-0.3072584569454193,0.24962809681892395,-0.25584182143211365
1789064092721214200,4.699214111328125,-0.3345140218734741,0.2518153488636017,-0.3044506311416626
1789064092731250200,4.709250244140625,-0.3399868905544281,0.2578861117362976,-0.16397085785865784
1789064092741287200,4.719287109375,-0.33161765336990356,0.198509082198143,-0.09774736315011978
1789064092751324200,4.72932421875,-0.36442509293556213,0.16199259459972382,0.07647205889225006
1789064092761361200,4.739361083984375,-0.3984624147415161,0.056473348289728165,0.31043288111686707
1789064092771398400,4.7493984375,-0.4086402356624603,0.10206596553325653,0.4667309820652008
1789064092781435100,4.75943505859375,-0.41361740231513977,0.04071339592337608,0.5661481618881226
1789064092791472000,4.76947216796875,-0.4165304899215698,0.07217016071081161,0.548274576663971
1789064092801508000,4.779508056640625,-0.41500529646873474,0.15109534561634064,0.5260496735572815
1789064092811545000,4.789545166015625,-0.4424014985561371,-0.059747036546468735,0.5340628623962402
1789064092821582300,4.799582275390625,-0.4340682029724121,-0.0925087109208107,0.3612271845340729
1789064092831619300,4.809619384765625,-0.39269956946372986,-0.05357491970062256,0.04230013117194176
1789064092841656300,4.81965625,-0.3823564052581787,-0.0156182199716568,-0.11969702690839767
1789064092851693000,4.829693115234375,-0.39239898324012756,-0.013044461607933044,-0.22289572656154633
1789064092861730000,4.83972998046875,-0.44947320222854614,0.02024664916098118,-0.33609580993652344
1789064092871766300,4.849766357421875,-0.4475283920764923,-0.0007731879595667124,-0.4226706922054291
1789064092881803300,4.85980322265625,-0.39510059356689453,0.15163631737232208,-0.4456564486026764
1789064092891840300,4.86984033203125,-0.3037427067756653,0.15721485018730164,-0.41620081663131714
1789064092901877200,4.879877197265625,-0.24651990830898285,-0.03586512804031372,-0.3448624610900879
1789064092911914000,4.8899140625,-0.18751713633537292,-0.020510030910372734,-0.22549526393413544
1789064092921951200,4.899951171875,-0.12487079948186874,0.09282531589269638,-0.09869791567325592
1789064092931988200,4.90998828125,-0.08702781051397324,0.05700739473104477,-0.012986472807824612
1789064092942024200,4.920024169921875,-0.008681435137987137,0.15210387110710144,0.14828838407993317
1789064092952061200,4.930061279296875,0.05980038270354271,0.07338616251945496,0.3271501362323761
1789064092962098200,4.94009814453125,0.08582133054733276,0.1992540806531906,0.42735105752944946
1789064092972135400,4.950135498046875,0.10842539370059967,0.14683955907821655,0.45656466484069824
1789064092982172200,4.960172119140625,0.15625682473182678,0.1747598648071289,0.4832417964935303
1789064092992209200,4.970209228515625,0.17007161676883698,0.05440690740942955,0.4740718901157379
1789064093002245000,4.9802451171875,0.15659362077713013,0.19474458694458008,0.24709545075893402
1789064093012282000,4.9902822265625,0.30915912985801697,0.41632208228111267,-0.10327505320310593
1789064093022319400,5.0003193359375,0.2914848029613495,0.1985732465982437,-0.15031073987483978
1789064093032356400,5.0103564453125,0.2415446639060974,0.13071657717227936,-0.353380411863327
1789064093042393000,5.02039306640625,0.2516569495201111,0.32755643129348755,-0.5420885682106018
1789064093052430000,5.03043017578125,0.24621663987636566,0.3454197347164154,-0.5985735654830933
1789064093062467000,5.040467041015625,0.2534843981266022,0.3711138963699341,-0.46713459491729736
1789064093072503300,5.05050341796875,0.2829955220222473,0.3606491684913635,-0.3089732229709625
1789064093082540300,5.060540283203125,0.32426944375038147,0.31565025448799133,-0.10796687006950378
1789064093092577300,5.070577392578125,0.36009395122528076,0.3264825940132141,0.11201879382133484
1789064093102614300,5.0806142578125,0.3463483154773712,0.2771342098712921,0.33108454942703247
1789064093112651000,5.090651123046875,0.30832284688949585,0.32999759912490845,0.45407676696777344
1789064093122688300,5.100688232421875,0.23086480796337128,0.27777647972106934,0.5238444209098816
1789064093132725200,5.110725341796875,0.14454570412635803,0.30183932185173035,0.4314087927341461
1789064093142761200,5.12076123046875,0.10591629147529602,0.3354630470275879,0.27181434631347656
1789064093152798200,5.130798095703125,0.07845142483711243,0.2460949718952179,0.20544645190238953
1789064093162835200,5.140835205078125,0.08161019533872604,0.12216769903898239,0.0571075864136219
1789064093172872200,5.1508720703125,0.08262655138969421,0.028236623853445053,-0.08146515488624573
1789064093182909200,5.1609091796875,0.09485206007957458,-0.04122660681605339,-0.15192866325378418
1789064093192946200,5.1709462890625,-0.010964516550302505,-0.05372289568185806,-0.2109713852405548
1789064093202983200,5.180983154296875,-0.3504994511604309,-0.15515311062335968,-0.2077777236700058
1789064093213019100,5.19101904296875,-0.6477553248405457,-0.16104160249233246,-0.22303906083106995
1789064093223056400,5.201056396484375,-0.7882692813873291,-0.06900914013385773,-0.23393645882606506
1789064093233093400,5.21109326171875,-0.8722237944602966,-0.038471437990665436,-0.20164424180984497
1789064093243130000,5.221130126953125,-0.9375359416007996,-0.17148567736148834,-0.01913461647927761
1789064093253167000,5.2311669921875,-0.995578944683075,-0.3434455692768097,0.15607686340808868
1789064093263204000,5.2412041015625,-1.0763046741485596,-0.35126593708992004,0.11450944095849991
1789064093273240300,5.251240234375,-1.1775016784667969,-0.3015521168708801,0.22178781032562256
1789064093283277300,5.26127734375,-1.2667262554168701,-0.5140936374664307,0.43152904510498047
1789064093293314300,5.271314208984375,-1.2979521751403809,-0.5197649598121643,0.4497317671775818
1789064093303351000,5.28135107421875,-1.3619426488876343,-0.6652989387512207,0.41202008724212646
1789064093313388000,5.291387939453125,-1.325871229171753,-0.4243364632129669,0.2625417113304138
1789064093323425300,5.30142529296875,-1.3382881879806519,-0.5192549824714661,0.2239149659872055
1789064093333462300,5.311462158203125,-1.2971124649047852,-0.6299405097961426,0.17647777497768402
1789064093343498200,5.321498291015625,-1.2820802927017212,-0.5969223380088806,0.0031065167859196663
1789064093353535200,5.33153515625,-1.2965009212493896,-0.45046788454055786,-0.16789200901985168
1789064093363572200,5.341572265625,-1.3371907472610474,-0.6755995154380798,-0.24210871756076813
1789064093373609200,5.351609130859375,-1.3879340887069702,-0.7036040425300598,-0.2859998345375061
1789064093383646200,5.361646240234375,-1.4470797777175903,-0.742815375328064,-0.25529491901397705
1789064093393683200,5.37168310546875,-1.4361869096755981,-0.8028520345687866,-0.23983117938041687
1789064093403720200,5.38172021484375,-1.4140355587005615,-0.7031962871551514,-0.20229391753673553
1789064093413756200,5.391756103515625,-1.2892279624938965,-0.6015876531600952,-0.07347331196069717
1789064093423793400,5.40179345703125,-1.2122790813446045,-0.6579044461250305,0.15361256897449493
1789064093433830100,5.411830078125,-1.159449815750122,-0.642349123954773,0.2775285243988037
1789064093443867100,5.4218671875,-1.1603155136108398,-0.7733793258666992,0.3881914019584656
1789064093453904100,5.431904052734375,-1.118350625038147,-0.6980271935462952,0.3449098467826843
1789064093463941000,5.441941162109375,-1.035495400428772,-0.7289595603942871,0.34322619438171387
1789064093473978400,5.451978271484375,-0.9550571441650391,-0.7281787395477295,0.3862704038619995
1789064093484014300,5.462014404296875,-0.8923631310462952,-0.7836343050003052,0.33442798256874084
1789064093494051300,5.47205126953125,-0.8711172938346863,-0.7189508080482483,0.24436162412166595
1789064093504088000,5.482088134765625,-0.8486790657043457,-0.7032387256622314,0.11360493302345276
1789064093514125000,5.492125,-0.8307109475135803,-0.7014110684394836,0.0049588605761528015
1789064093524162300,5.502162353515625,-0.7531229257583618,-0.6068161129951477,-0.10920179635286331
1789064093534199300,5.51219921875,-0.6866945028305054,-0.687624454498291,-0.12722429633140564
1789064093544235300,5.5222353515625,-0.6124639511108398,-0.7406613230705261,-0.09561843425035477
1789064093554272300,5.532272216796875,-0.5407218933105469,-0.6406928300857544,-0.1228049024939537
1789064093564309200,5.542309326171875,-0.49823540449142456,-0.6108190417289734,-0.05635157227516174
1789064093574346200,5.55234619140625,-0.4957261383533478,-0.5841116905212402,0.00987266469746828
1789064093584383200,5.56238330078125,-0.46102410554885864,-0.4481258988380432,0.08979758620262146
1789064093594420200,5.572420166015625,-0.24074995517730713,-0.41156822443008423,0.18690262734889984
1789064093604457200,5.582457275390625,-0.04915229231119156,-0.5879522562026978,0.3113846182823181
1789064093614493200,5.5924931640625,0.0913238599896431,-0.4622350037097931,0.34549668431282043
1789064093624530400,5.602530517578125,0.20356996357440948,-0.4325580596923828,0.37360048294067383
1789064093634567200,5.612567138671875,0.18210189044475555,-0.44400233030319214,0.4029034674167633
1789064093644604200,5.622604248046875,0.008417448028922081,-0.4245375394821167,0.25477153062820435
1789064093654641200,5.63264111328125,0.0006120726466178894,0.14029937982559204,0.08840382844209671
1789064093664678100,5.64267822265625,0.2579538822174072,0.16125738620758057,-0.06427786499261856
1789064093674715400,5.65271533203125,0.5027986764907837,-0.24823962152004242,-0.15851067006587982
1789064093684751400,5.66275146484375,0.48493605852127075,-0.36816123127937317,-0.24662242829799652
1789064093694788000,5.6727880859375,0.5090588927268982,-0.1446543037891388,-0.34010952711105347
1789064093704825000,5.6828251953125,0.4944054186344147,-0.25507083535194397,-0.37082669138908386
1789064093714862000,5.692862060546875,0.6090892553329468,-0.07618457078933716,-0.3833119571208954
1789064093724899300,5.7028994140625,0.7877420783042908,0.012301349081099033,-0.25784698128700256
1789064093734936300,5.712936279296875,0.9324110746383667,-0.03690539672970772,-0.1256854087114334
1789064093744972800,5.722972900390625,0.9311833381652832,-0.08143558353185654,-0.015603646636009216
1789064093755009500,5.733009521484375,0.8979769945144653,0.07257622480392456,0.015532910823822021
1789064093765046500,5.743046630859375,0.9404892921447754,0.20540830492973328,0.15506204962730408
1789064093775083800,5.753083740234375,0.9691068530082703,0.05133315548300743,0.275299072265625
1789064093785120800,5.763120849609375,0.9844884276390076,0.05931438133120537,0.18971574306488037
1789064093795157800,5.77315771484375,1.0263785123825073,0.18034712970256805,0.0671442523598671
1789064093805194500,5.783194580078125,1.0203362703323364,0.2028883993625641,-0.007481779437512159
1789064093815230700,5.793230712890625,0.993523359298706,0.09052560478448868,-0.19161050021648407
1789064093825267700,5.803267822265625,0.9659436345100403,0.1700686365365982,-0.3711563050746918
1789064093835304700,5.8133046875,0.9402230381965637,0.22119922935962677,-0.44910913705825806
1789064093845341700,5.823341796875,0.8996854424476624,0.014995191246271133,-0.2617717385292053
1789064093855378700,5.833378662109375,0.8410952687263489,-0.1368124634027481,-0.19807769358158112
1789064093865416000,5.843416015625,0.8261051177978516,0.10250824689865112,-0.3078859746456146
1789064093875452700,5.85345263671875,0.782835841178894,0.37198755145072937,-0.1470767706632614
1789064093885488600,5.863488525390625,0.7432903051376343,0.19679494202136993,0.06814231723546982
1789064093895525600,5.873525634765625,0.7350596189498901,0.19035568833351135,0.19973580539226532
1789064093905562600,5.883562744140625,0.7519330978393555,0.1563335508108139,0.3086071312427521
1789064093915600000,5.893599853515625,0.753976047039032,0.10724548250436783,0.3456428349018097
1789064093925636900,5.903636962890625,0.7124043703079224,0.054522618651390076,0.21637780964374542
1789064093935673600,5.913673583984375,0.6282172203063965,0.16169406473636627,0.1865214854478836
1789064093945709800,5.923709716796875,0.526267945766449,0.10154498368501663,0.17473727464675903
1789064093955746600,5.93374658203125,0.47498032450675964,0.07465216517448425,0.14476439356803894
1789064093965783600,5.943783447265625,0.5632433295249939,-0.04596452787518501,-0.07706014811992645
1789064093975820800,5.95382080078125,0.5552064776420593,0.22609634697437286,-0.4359707832336426
1789064093985857800,5.96385791015625,0.3414004445075989,0.3761681318283081,-0.24087052047252655
1789064093995894800,5.973894775390625,0.29123392701148987,-0.11893384903669357,-0.09885883331298828
1789064094005931500,5.983931640625,0.26459991931915283,-0.0038613181095570326,-0.39703354239463806
1789064094015967500,5.993967529296875,0.2568306028842926,0.18054641783237457,-0.4051394462585449
1789064094026004700,6.004004638671875,0.282502681016922,-0.03022867813706398,-0.14343297481536865
1789064094036041700,6.014041748046875,0.3038683235645294,0.04416785016655922,-0.008735526353120804
1789064094046078700,6.02407861328125,0.2463914304971695,0.21235793828964233,0.28862425684928894
1789064094056115700,6.03411572265625,0.20902538299560547,0.07137604802846909,0.5621321201324463
1789064094066152700,6.044152587890625,0.2190321981906891,0.09749580174684525,0.6968377232551575
1789064094076189000,6.05418896484375,0.30999836325645447,0.16862541437149048,0.6672930717468262
1789064094086225700,6.0642255859375,0.4202660322189331,0.20657280087471008,0.6824983954429626
1789064094096262700,6.0742626953125,0.4334404170513153,0.1946391463279724,0.6385464668273926
1789064094106299600,6.084299560546875,0.38206538558006287,0.1501885950565338,0.4348314106464386
1789064094116337000,6.0943369140625,0.31564322113990784,0.1657867580652237,0.1903877854347229
1789064094126374000,6.104373779296875,0.2552381753921509,0.18425710499286652,0.044287022203207016
1789064094136410600,6.11441064453125,0.2709481716156006,0.07586642354726791,-0.03363458067178726
1789064094146446600,6.124446533203125,0.38181397318840027,0.18071800470352173,-0.053507886826992035
1789064094156483600,6.134483642578125,0.43720585107803345,0.27762991189956665,0.04958467558026314
1789064094166520800,6.144520751953125,0.49613896012306213,0.22146517038345337,0.06726859509944916
1789064094176557800,6.154557861328125,0.5287265181541443,0.4116182327270508,-0.056329622864723206
1789064094186594800,6.1645947265625,0.5512377023696899,0.37679633498191833,-0.06376810371875763
1789064094196631600,6.174631591796875,0.555361270904541,0.2702648341655731,-0.001898904680274427
1789064094206668500,6.18466845703125,0.503437876701355,0.1835152953863144,-0.030708713456988335
1789064094216704500,6.19470458984375,0.43385908007621765,0.3836314380168915,-0.0115340705960989
1789064094226741800,6.20474169921875,0.36911654472351074,0.26816290616989136,0.15742352604866028
1789064094236778800,6.21477880859375,0.37036246061325073,0.2627356946468353,0.2682141661643982
1789064094246815700,6.224815673828125,0.45154306292533875,0.21896666288375854,0.3642842471599579
1789064094256852700,6.234852783203125,0.592318058013916,0.3996911644935608,0.3658376634120941
1789064094266889700,6.2448896484375,0.6312244534492493,0.3620055615901947,0.28727415204048157
1789064094276925700,6.25492578125,0.6056813597679138,0.38963380455970764,0.15191927552223206
1789064094286962700,6.264962646484375,0.5116947293281555,0.3574436604976654,0.0860089585185051
1789064094296999700,6.274999755859375,0.3905869126319885,0.2738708555698395,0.038788896054029465
1789064094307036700,6.28503662109375,0.31563225388526917,0.27579739689826965,-0.06887338310480118
1789064094317074000,6.295073974609375,0.27142059803009033,0.19310449063777924,-0.0989256501197815
1789064094327110700,6.305110595703125,0.2015932947397232,0.039543699473142624,-0.049224138259887695
1789064094337147600,6.315147705078125,0.18691030144691467,0.15014775097370148,-0.027591485530138016
1789064094347183600,6.32518359375,0.16166940331459045,0.24787963926792145,-0.08577383309602737
1789064094357220600,6.335220703125,0.18934044241905212,0.1599969118833542,-0.004679244942963123
1789064094367257900,6.3452578125,0.21614035964012146,0.15403462946414948,0.08385355025529861
1789064094377294800,6.355294921875,0.20158632099628448,0.20694012939929962,-0.03290484845638275
1789064094387331800,6.365331787109375,0.13958872854709625,0.29947248101234436,-0.03926527500152588
1789064094397368600,6.37536865234375,0.06953065097332001,0.18902404606342316,0.17444884777069092
1789064094407404500,6.385404541015625,0.016757983714342117,-0.006710560992360115,0.1409047394990921
1789064094417441500,6.395441650390625,-0.02009587548673153,-0.00023406604304909706,-0.060918986797332764
1789064094427478800,6.405478759765625,-0.03731534630060196,0.04470224678516388,-0.09462767839431763
1789064094437515800,6.415515869140625,0.0013305495958775282,0.1112690418958664,-0.05248754471540451
1789064094447552800,6.425552734375,0.04714784026145935,0.13499514758586884,-0.0373392179608345
1789064094457589500,6.435589599609375,0.14077405631542206,0.14627528190612793,-0.10255701094865799
1789064094467626800,6.445626708984375,0.16547700762748718,0.08907963335514069,-0.11268234997987747
1789064094477662700,6.455662841796875,0.13480494916439056,0.24840997159481049,-0.18683303892612457
1789064094487699700,6.46569970703125,0.05907529592514038,0.15076704323291779,-0.23045454919338226
1789064094497736700,6.47573681640625,0.03873460367321968,0.1901562660932541,-0.2260936200618744
1789064094507773700,6.485773681640625,0.03883793577551842,0.04441423714160919,-0.25579506158828735
1789064094517811000,6.49581103515625,0.060698408633470535,0.11717042326927185,-0.3067973256111145
1789064094527847700,6.50584765625,0.07873226702213287,0.025146495550870895,-0.26272282004356384
1789064094537883600,6.515883544921875,0.1183268129825592,0.1790621429681778,-0.1445847898721695
1789064094547920600,6.525920654296875,0.16471268236637115,0.12502872943878174,-0.04277215525507927
1789064094557957600,6.53595751953125,0.1926681101322174,0.15071651339530945,0.06901213526725769
1789064094567995000,6.545994873046875,0.18423493206501007,0.15131092071533203,0.09962570667266846
1789064094578031900,6.556031982421875,0.1667010486125946,0.18820491433143616,0.05962526798248291
1789064094588068600,6.566068603515625,0.14836570620536804,0.25941598415374756,0.021314628422260284
1789064094598105600,6.576105712890625,0.1269032508134842,0.19961349666118622,-0.010026725940406322
1789064094608141600,6.5861416015625,0.12690432369709015,0.1456165611743927,0.034754857420921326
1789064094618178600,6.596178466796875,0.12889879941940308,0.121137335896492,0.014134034514427185
1789064094628215800,6.6062158203125,0.11702750623226166,0.1510680764913559,-0.12121713161468506
1789064094638252800,6.616252685546875,0.12804065644741058,0.13243697583675385,-0.08397413045167923
1789064094648289800,6.626289794921875,0.13610710203647614,0.14532774686813354,-0.005440172739326954
1789064094658326500,6.636326416015625,0.12158749252557755,0.13596999645233154,-0.05520082637667656
1789064094668362500,6.646362548828125,0.08622577041387558,0.12564384937286377,0.017404133453965187
1789064094678399700,6.656399658203125,0.04754896089434624,0.15964019298553467,0.016918811947107315
1789064094688436700,6.666436767578125,0.01283784955739975,0.18399959802627563,-0.03683177009224892
1789064094698473700,6.6764736328125,-0.000004047993570566177,0.14126311242580414,0.06890913099050522
1789064094708510700,6.6865107421875,-0.027001576498150826,0.07158976048231125,0.13895559310913086
1789064094718547700,6.696547607421875,-0.06789245456457138,0.1175733134150505,-0.0028178179636597633
1789064094728584700,6.706584716796875,-0.09599093347787857,0.10676540434360504,0.013520942069590092
1789064094738620700,6.71662060546875,-0.1038072258234024,-0.011276094242930412,0.06161351501941681
1789064094748657000,6.726656982421875,-0.07925713807344437,-0.015247932635247707,0.003328106366097927
1789064094758694100,6.736694091796875,-0.057222239673137665,0.026318078860640526,-0.12455525249242783
1789064094768731100,6.746731201171875,-0.05538066476583481,0.06621941924095154,-0.13174551725387573
1789064094778768100,6.75676806640625,-0.09967568516731262,0.0515839047729969,0.009201561100780964
1789064094788805000,6.76680517578125,-0.16085222363471985,0.07084468752145767,0.09087485074996948
1789064094798841000,6.776841064453125,-0.1799318790435791,0.04604984074831009,0.09812649339437485
1789064094808878000,6.786878173828125,-0.14250726997852325,0.03809657320380211,0.1538398265838623
1789064094818915000,6.7969150390625,-0.08067332953214645,-0.02269241400063038,0.160989448428154
1789064094828952000,6.8069521484375,-0.022377267479896545,-0.03830333054065704,0.16136547923088074
1789064094838989000,6.816989013671875,-0.023309942334890366,-0.010387263260781765,0.14795207977294922
1789064094849026300,6.8270263671875,-0.04295554757118225,0.13076746463775635,0.0350220613181591
1789064094859062300,6.837062255859375,-0.06414308398962021,0.12919647991657257,0.034439392387866974
1789064094869099300,6.847099365234375,-0.06831172853708267,0.05924483388662338,0.04254605248570442
1789064094879136000,6.857135986328125,-0.060445334762334824,0.009584279730916023,-0.05223791301250458
1789064094889173000,6.867173095703125,-0.03292929008603096,0.019302688539028168,-0.06487222015857697
1789064094899210000,6.8772099609375,-0.040330518037080765,-0.0338544100522995,-0.0716155543923378
1789064094909247200,6.887247314453125,-0.03269896283745766,0.056981220841407776,-0.04425689950585365
1789064094919284200,6.8972841796875,0.014141734689474106,0.012739437632262707,0.04962828755378723
1789064094929320200,6.9073203125,0.0877845287322998,0.14519095420837402,0.028598103672266006
1789064094939357000,6.91735693359375,0.16520771384239197,0.1627330631017685,0.052571024745702744
1789064094949394000,6.927393798828125,0.19229553639888763,0.17515777051448822,0.14007984101772308
1789064094959431200,6.93743115234375,0.15449465811252594,0.12192322313785553,0.23324266076087952
1789064094969468200,6.94746826171875,0.10220696777105331,0.14151529967784882,0.20863957703113556
1789064094979505200,6.957505126953125,0.05811665579676628,0.19743183255195618,0.07717034220695496
1789064094989541000,6.967541015625,0.08124115318059921,0.133993461728096,0.06554244458675385
1789064094999578000,6.977578125,0.1162375658750534,0.11218804121017456,0.0726814717054367
1789064095009615000,6.987614990234375,0.11921337991952896,0.06491879373788834,-0.02838442660868168
1789064095019652000,6.997652099609375,0.12808659672737122,0.14154987037181854,-0.1543862372636795
1789064095029689000,7.007689208984375,0.11381419003009796,0.18134602904319763,-0.12549573183059692
1789064095039726000,7.01772607421875,0.08183258026838303,0.12722842395305634,-0.014519473537802696
1789064095049763300,7.027763427734375,0.07951163500547409,0.10472097247838974,0.0032560601830482483
1789064095059799300,7.03779931640625,0.08431611210107803,0.1336684226989746,-0.038865648210048676
1789064095069836000,7.0478359375,0.08389453589916229,0.1737188994884491,-0.051750555634498596
1789064095079873000,7.057873046875,0.07058919966220856,0.10954808443784714,0.007244998589158058
1789064095089910000,7.067909912109375,0.058433208614587784,0.16219930350780487,0.011154253035783768
1789064095099947000,7.077947021484375,0.06017336994409561,0.07305020093917847,0.018847616389393806
1789064095109984300,7.087984375,0.07089792191982269,0.051849573850631714,0.09453465789556503
1789064095120020200,7.098020263671875,0.07862143218517303,0.04859305918216705,0.06261921674013138
1789064095130057200,7.10805712890625,0.0707177072763443,0.18974646925926208,0.016688479110598564
1789064095140094000,7.118093994140625,0.045449141412973404,0.23338355123996735,0.07412268221378326
1789064095150131000,7.128130859375,-0.00042700523044914007,0.08706841617822647,0.26071465015411377
1789064095160168200,7.138168212890625,-0.02570350095629692,0.11160541325807571,0.2079700231552124
1789064095170205200,7.148205078125,-0.02135375887155533,0.13269124925136566,0.10619358718395233
1789064095180242200,7.1582421875,-0.02831260673701763,0.11854131519794464,0.06763830035924911
1789064095190278100,7.168278076171875,-0.056554898619651794,0.0861186608672142,-0.039715055376291275
1789064095200315000,7.17831494140625,-0.09152335673570633,0.06029515713453293,-0.04659849777817726
1789064095210352000,7.18835205078125,-0.11178148537874222,0.07980707287788391,-0.07342052459716797
1789064095220389000,7.19838916015625,-0.12841293215751648,0.04983518272638321,-0.13084208965301514
1789064095230426000,7.208426025390625,-0.13146598637104034,0.129282608628273,-0.1747240573167801
1789064095240463000,7.218463134765625,-0.1177750676870346,0.15292872488498688,-0.16274355351924896
1789064095250499000,7.2284990234375,-0.098814956843853,0.09624706208705902,-0.06357117742300034
1789064095260536300,7.238536376953125,-0.11321564018726349,0.059669721871614456,-0.10330726206302643
1789064095270573000,7.248572998046875,-0.1659933626651764,0.15990683436393738,-0.12809355556964874
1789064095280610000,7.258610107421875,-0.19937311112880707,0.08588600903749466,-0.0673634335398674
1789064095290647000,7.26864697265625,-0.21775291860103607,0.06530030816793442,0.06285582482814789
1789064095300684000,7.27868408203125,-0.1822909414768219,0.051797039806842804,0.07065293937921524
1789064095310720300,7.28872021484375,-0.14793936908245087,0.0733441412448883,0.06269089132547379
1789064095320757200,7.29875732421875,-0.10494621843099594,0.16502141952514648,0.09908271580934525
1789064095330794000,7.3087939453125,-0.13065531849861145,0.06608738750219345,0.19255462288856506
1789064095340831000,7.3188310546875,-0.14131082594394684,0.1274513155221939,0.10170045495033264
1789064095350868000,7.328867919921875,-0.1797461062669754,0.16340237855911255,0.018059352412819862
1789064095360905200,7.3389052734375,-0.1952226310968399,0.08606317639350891,-0.061904776841402054
1789064095370941200,7.348941162109375,-0.21238644421100616,0.04483983665704727,-0.04525362327694893
1789064095380978200,7.358978271484375,-0.21523118019104004,0.04057270660996437,-0.08103805035352707
1789064095391015200,7.36901513671875,-0.22189387679100037,0.01294214278459549,-0.13138030469417572
1789064095401052000,7.379052001953125,-0.2104690968990326,0.13207708299160004,-0.18713165819644928
1789064095411089200,7.389089111328125,-0.16430853307247162,0.04287984222173691,-0.13970156013965607
1789064095421126100,7.399126220703125,-0.11627049744129181,0.04587193951010704,-0.044689010828733444
1789064095431163100,7.4091630859375,-0.08774537593126297,0.0797036662697792,0.030232630670070648
1789064095441199000,7.41919921875,-0.14725425839424133,0.043622978031635284,0.05511827394366264
1789064095451236000,7.429236083984375,-0.23291270434856415,0.13845761120319366,0.031223861500620842
1789064095461273000,7.439273193359375,-0.2932354211807251,0.0387098602950573,0.177941232919693
1789064095471310000,7.44931005859375,-0.2642993927001953,-0.03593321517109871,0.18798720836639404
1789064095481347000,7.45934716796875,-0.22052817046642303,-0.029864955693483353,0.04547331482172012
1789064095491384000,7.469384033203125,-0.1900714635848999,-0.004116981755942106,-0.022754475474357605
1789064095501420000,7.479419921875,-0.18392221629619598,-0.10126377642154694,-0.008959567174315453
1789064095511457300,7.489457275390625,-0.2507917881011963,-0.16231898963451385,-0.023683566600084305
1789064095521494300,7.499494384765625,-0.273275762796402,-0.014609966427087784,-0.11309108883142471
1789064095531531000,7.509531005859375,-0.29361778497695923,0.022257238626480103,-0.08069293200969696
1789064095541568000,7.519568115234375,-0.26754215359687805,-0.04639303684234619,-0.05702464282512665
1789064095551605000,7.52960498046875,-0.26685771346092224,-0.12090189009904861,-0.10790486633777618
1789064095561641000,7.539640869140625,-0.27937960624694824,-0.057770416140556335,-0.16597190499305725
1789064095571678200,7.54967822265625,-0.2781199514865875,-0.09749624878168106,-0.23117008805274963
1789064095581715200,7.559715087890625,-0.23775769770145416,-0.003096554894000292,-0.21436159312725067
1789064095591752000,7.569751953125,-0.19240699708461761,-0.14926068484783173,-0.08530402183532715
1789064095601789000,7.579788818359375,-0.1925031840801239,-0.07130743563175201,-0.011512566357851028
1789064095611826200,7.589826171875,-0.28385066986083984,-0.1094718649983406,0.002610709983855486
1789064095621863200,7.59986328125,-0.37159764766693115,-0.19557136297225952,0.0856030061841011
1789064095631899100,7.609899169921875,-0.4072778820991516,-0.038655251264572144,0.1698017716407776
1789064095641936100,7.61993603515625,-0.40624281764030457,-0.21542732417583466,0.1247711256146431
1789064095651973000,7.62997314453125,-0.3512203097343445,-0.25314274430274963,0.09469684213399887
1789064095662010000,7.640010009765625,-0.31135696172714233,-0.2927044630050659,0.0697011798620224
1789064095672047000,7.650047119140625,-0.29953333735466003,-0.16400213539600372,-0.10996711254119873
1789064095682084000,7.660083984375,-0.3061245083808899,-0.031952667981386185,-0.17134152352809906
1789064095692120000,7.6701201171875,-0.29143691062927246,-0.12210626155138016,-0.09788887947797775
1789064095702157000,7.680156982421875,-0.21562843024730682,-0.12224212288856506,-0.08439189195632935
1789064095712194300,7.6901943359375,-0.14700382947921753,-0.12612447142601013,-0.10513818264007568
1789064095722231000,7.70023095703125,-0.13119184970855713,-0.22095522284507751,-0.04248430207371712
1789064095732268000,7.71026806640625,-0.19920338690280914,-0.1942993849515915,0.01918678730726242
1789064095742305000,7.720304931640625,-0.28959921002388,-0.17830650508403778,0.0946560651063919
1789064095752341200,7.73034130859375,-0.3193325996398926,-0.09322889894247055,0.03665268421173096
1789064095762378200,7.740378173828125,-0.2809608280658722,-0.1608470380306244,0.0487014465034008
1789064095772415200,7.750415283203125,-0.15687111020088196,-0.20286957919597626,0.08108335733413696
1789064095782452200,7.7604521484375,-0.040290914475917816,-0.13094739615917206,0.05763282999396324
1789064095792489200,7.7704892578125,0.03622489422559738,0.010628633201122284,0.04377693682909012
1789064095802526200,7.780526123046875,0.05016245320439339,-0.088105209171772,0.09876192361116409
1789064095812562200,7.790562255859375,0.037458643317222595,-0.013088221661746502,0.1843804270029068
1789064095822599200,7.80059912109375,-0.03607913851737976,-0.07512572407722473,0.21010369062423706
1789064095832636200,7.81063623046875,-0.051748644560575485,-0.07531747221946716,0.08264133334159851
1789064095842673400,7.82067333984375,-0.03362147882580757,-0.08587218075990677,-0.08380714803934097
1789064095852710100,7.830710205078125,0.03274396061897278,-0.06737972795963287,-0.1351398378610611
1789064095862747100,7.8407470703125,0.058945249766111374,-0.10116856545209885,-0.13540372252464294
1789064095872784100,7.8507841796875,0.057089559733867645,-0.1162729486823082,-0.22978270053863525
1789064095882820000,7.860820068359375,0.03736286237835884,-0.11604157835245132,-0.2650662064552307
1789064095892857300,7.870857421875,0.06854474544525146,-0.08288522064685822,-0.1904423087835312
1789064095902894300,7.880894287109375,0.0918724313378334,0.09305248409509659,-0.16739122569561005
1789064095912931300,7.890931396484375,0.10082251578569412,-0.040376413613557816,-0.13552969694137573
1789064095922968000,7.900968017578125,0.08685509860515594,-0.04186411201953888,0.01043711882084608
1789064095933005300,7.91100537109375,0.02495870366692543,-0.16358761489391327,0.06811745464801788
1789064095943041300,7.921041259765625,0.010743859224021435,-0.02534184604883194,-0.030959028750658035
1789064095953078300,7.931078369140625,0.011724434792995453,-0.07311895489692688,-0.04986214637756348
1789064095963115300,7.941115234375,0.047898635268211365,-0.08488497138023376,0.06467017531394958
1789064095973152300,7.95115234375,0.058362193405628204,-0.12068291753530502,0.09659694880247116
1789064095983189000,7.96118896484375,0.030766069889068604,-0.09343770891427994,0.10537141561508179
1789064095993226200,7.971226318359375,0.00006834277883172035,-0.08034534752368927,0.15125875174999237
1789064096003262200,7.98126220703125,-0.011790884658694267,-0.05805034935474396,0.21870940923690796
1789064096013299200,7.99129931640625,-0.0337585024535656,-0.07467406988143921,0.17479307949543
1789064096023336200,8.001336181640625,-0.027252843603491783,-0.04971382021903992,0.014939550310373306
1789064096033373200,8.011373291015625,-0.0364556647837162,-0.10386227071285248,-0.008376957848668098
1789064096043410200,8.02141015625,-0.04499722644686699,-0.18482719361782074,-0.04484166204929352
1789064096053447200,8.031447265625,-0.052140623331069946,-0.16430780291557312,-0.17399458587169647
1789064096063484200,8.041484130859375,-0.05984939634799957,-0.0842810794711113,-0.2331068217754364
1789064096073520000,8.05152001953125,-0.08882804960012436,-0.19336070120334625,-0.12754124402999878
1789064096083557000,8.06155712890625,-0.08151842653751373,-0.0851733386516571,0.02381828986108303
1789064096093594400,8.071594482421874,-0.08097381144762039,-0.174617201089859,0.10130588710308075
1789064096103631400,8.08163134765625,-0.01975395530462265,-0.05192757397890091,0.10121111571788788
1789064096113668000,8.091668212890625,-0.014078758656978607,-0.04258733615279198,0.10194268077611923
1789064096123705000,8.101705078125,-0.009627996943891048,-0.10929681360721588,0.08998967707157135
1789064096133741000,8.111740966796875,0.006723280064761639,-0.1270153671503067,0.08843998610973358
1789064096143778300,8.1217783203125,-0.005895528011023998,-0.2254568189382553,0.04960775002837181
1789064096153815300,8.131815185546875,0.0042172931134700775,-0.08292975276708603,-0.07517866045236588
1789064096163852300,8.141852294921875,-0.01189371757209301,-0.01532683800905943,-0.08973617851734161
1789064096173889300,8.15188916015625,-0.053383104503154755,-0.11622095853090286,-0.013805725611746311
1789064096183926000,8.161926025390626,-0.05285473167896271,-0.07498005032539368,-0.03858431056141853
1789064096193962000,8.1719619140625,-0.023072868585586548,-0.09821426123380661,0.018318653106689453
1789064096203999200,8.181999267578124,0.03565860539674759,-0.1296044886112213,0.04169020801782608
1789064096214036200,8.1920361328125,0.06184733659029007,-0.14119721949100494,0.01943230628967285
1789064096224073200,8.2020732421875,0.05363220348954201,-0.11242721229791641,0.01384439691901207
1789064096234110200,8.212110107421875,0.04040082171559334,-0.03726748004555702,0.018399998545646667
1789064096244147200,8.222147216796875,0.04686853289604187,0.06197934225201607,0.03432149812579155
1789064096254183200,8.23218310546875,0.03536314517259598,-0.06629207730293274,0.09964138269424438
1789064096264220200,8.24222021484375,0.03326830267906189,-0.0456475168466568,0.09394461661577225
1789064096274257200,8.252257080078126,-0.0026963553391397,-0.14918962121009827,0.10550060123205185
1789064096284294100,8.262294189453126,0.018879679962992668,-0.059951964765787125,0.0019071327988058329
1789064096294331400,8.272331298828124,0.016750482842326164,-0.15785162150859833,0.06453269720077515
1789064096304368400,8.282368408203125,0.03198003023862839,-0.08098709583282471,0.06446975469589233
1789064096314404400,8.292404296875,0.06167880445718765,-0.07547888159751892,0.0031302354764193296
1789064096324441000,8.302441162109375,0.08263583481311798,0.06313934177160263,-0.05660715699195862
1789064096334478000,8.31247802734375,0.06852294504642487,-0.05857697129249573,-0.046063702553510666
1789064096344515300,8.322515380859375,0.05174330249428749,0.010836134664714336,0.026303082704544067
1789064096354552300,8.33255224609375,0.041115157306194305,-0.00547892227768898,0.06153084337711334
1789064096364589300,8.34258935546875,0.03979270160198212,-0.05131034553050995,0.1051964983344078
1789064096374626000,8.3526259765625,0.03620089590549469,-0.07551076263189316,0.10349474102258682
1789064096384662300,8.362662353515624,0.025930671021342278,-0.017452288419008255,0.07810265570878983
1789064096394699000,8.372698974609374,0.008113856427371502,-0.027996275573968887,0.02108410932123661
1789064096404736300,8.382736328125,-0.009233713150024414,-0.06171843782067299,0.07586098462343216
1789064096414773200,8.392773193359375,-0.025441445410251617,-0.11293341964483261,0.07581570744514465
1789064096424810200,8.402810302734375,0.0030936184339225292,0.08772503584623337,-0.10435551404953003
1789064096434847200,8.41284716796875,-0.017420710995793343,-0.10927990823984146,-0.024482782930135727
1789064096444883200,8.42288330078125,-0.02789541892707348,-0.022816253826022148,-0.052106477320194244
1789064096454920200,8.432920166015625,-0.04794955253601074,-0.05630364269018173,-0.07026071846485138
1789064096464957200,8.442957275390626,-0.06237300485372543,-0.014367244206368923,-0.09188579022884369
1789064096474994200,8.452994140625,-0.033870257437229156,-0.11797299981117249,-0.1102682575583458
1789064096485031200,8.46303125,-0.01032271794974804,-0.06428319215774536,-0.09820582717657089
1789064096495068400,8.473068359375,-0.025271309539675713,-0.07133550941944122,-0.032517895102500916
1789064096505104400,8.4831044921875,-0.0888233408331871,-0.05345769226551056,0.06032285839319229
1789064096515141400,8.493141357421875,-0.1415286362171173,-0.0379844605922699,0.11595096439123154
1789064096525178000,8.50317822265625,-0.14424186944961548,-0.026011191308498383,0.15918642282485962
1789064096535215000,8.513215087890625,-0.06203141808509827,0.049187157303094864,0.050042081624269485
1789064096545252400,8.52325244140625,0.007773765362799168,-0.1095685213804245,0.07914945483207703
1789064096555289300,8.533289306640626,0.04746871441602707,-0.14652547240257263,0.13570302724838257
1789064096565325300,8.5433251953125,0.027401762083172798,-0.1426050215959549,0.06745699048042297
1789064096575362300,8.5533623046875,0.006870654411613941,0.07344020158052444,-0.05658319592475891
1789064096585399000,8.56339892578125,-0.007975457236170769,-0.005787033587694168,-0.0013688810868188739
1789064096595436000,8.57343603515625,0.010398756712675095,-0.027019085362553596,0.12621544301509857
1789064096605473300,8.583473388671875,0.07363826781511307,0.05463933199644089,0.13487984240055084
1789064096615510300,8.59351025390625,0.14862090349197388,0.01433744840323925,0.1323506385087967
1789064096625546200,8.603546142578125,0.19228655099868774,0.02675698697566986,0.08329087495803833
1789064096635583200,8.613583251953125,0.19647331535816193,0.004975259304046631,0.07159054279327393
1789064096645620200,8.6236201171875,0.18322397768497467,0.023277223110198975,0.07579517364501953
1789064096655657200,8.6336572265625,0.15986725687980652,-0.007296132855117321,-0.07382148504257202
1789064096665694200,8.643694091796876,0.17454224824905396,0.08607102185487747,-0.20136955380439758
1789064096675731200,8.653731201171874,0.20728953182697296,0.03075556829571724,-0.042163122445344925
1789064096685767200,8.66376708984375,0.2514033317565918,0.01718415878713131,-0.01669176295399666
1789064096695804200,8.67380419921875,0.273996502161026,0.07959480583667755,-0.043755073100328445
1789064096705841400,8.68384130859375,0.3019063472747803,0.1934736669063568,-0.004046866670250893
1789064096715878100,8.693878173828125,0.3114452660083771,0.08366567641496658,0.1844402253627777
1789064096725915100,8.7039150390625,0.31778931617736816,0.13800083100795746,0.22482968866825104
1789064096735952100,8.7139521484375,0.3393856883049011,0.17525126039981842,0.18876303732395172
1789064096745989400,8.7239892578125,0.34975290298461914,0.14648881554603577,0.2019837498664856
1789064096756025300,8.734025390625,0.39496859908103943,0.1721784621477127,0.11801879107952118
1789064096766062300,8.744062255859374,0.42710569500923157,0.1784401684999466,0.013539141044020653
1789064096776099300,8.754099365234374,0.41022151708602905,0.21196697652339935,-0.04509274661540985
1789064096786136300,8.76413623046875,0.34052082896232605,0.23967181146144867,-0.11844919621944427
1789064096796173300,8.77417333984375,0.27277612686157227,0.15541978180408478,-0.1405036300420761
1789064096806210300,8.784210205078125,0.2860364317893982,0.2839007079601288,-0.17152492702007294
1789064096816246300,8.794246337890625,0.33219221234321594,0.1808619201183319,-0.24213144183158875
1789064096826283500,8.804283447265625,0.4071160852909088,0.20762833952903748,-0.2134118229150772
1789064096836320500,8.814320556640626,0.4077936112880707,0.15685784816741943,-0.14753614366054535
1789064096846357200,8.824357177734376,0.36585596203804016,0.245833158493042,-0.20101192593574524
1789064096856394200,8.834394287109374,0.3240795135498047,0.2998250126838684,-0.16995759308338165
1789064096866431200,8.84443115234375,0.32148420810699463,0.29876580834388733,-0.04772883653640747
1789064096876467200,8.85446728515625,0.33132803440093994,0.27826613187789917,0.06942228972911835
1789064096886504400,8.86450439453125,0.3176649212837219,0.20776483416557312,0.1742282211780548
1789064096896541400,8.87454150390625,0.2987823188304901,0.16749544441699982,0.19550633430480957
1789064096906578200,8.884578125,0.24827711284160614,0.20659196376800537,0.1981496512889862
1789064096916615200,8.894615234375,0.20212958753108978,0.19454967975616455,0.19709476828575134
1789064096926652400,8.90465234375,0.16193406283855438,0.20650765299797058,0.16351617872714996
1789064096936688400,8.9146884765625,0.13561536371707916,0.25627976655960083,0.10646487772464752
1789064096946725400,8.924725341796876,0.08604317903518677,0.10890865325927734,0.017665795981884003
1789064096956762400,8.934762451171874,0.0574759878218174,0.21109041571617126,-0.08572743833065033
1789064096966799400,8.94479931640625,0.05369044840335846,0.17940303683280945,-0.0989222526550293
1789064096976836400,8.95483642578125,0.035129547119140625,0.06852260231971741,-0.06956090033054352
1789064096986873300,8.964873291015625,-0.009217903949320316,0.08283215761184692,-0.07606066763401031
1789064096996909300,8.974909423828125,-0.09176364541053772,0.09489122033119202,-0.12166250497102737
1789064097006946300,8.9849462890625,-0.146303191781044,0.0887642577290535,-0.130740687251091
1789064097016983300,8.9949833984375,-0.1934824287891388,0.13922397792339325,-0.12814676761627197
1789064097027020500,9.0050205078125,-0.2264023721218109,0.06601112335920334,-0.07187974452972412
1789064097037057300,9.015057373046876,-0.26049908995628357,-0.015655510127544403,0.03241284191608429
1789064097047094300,9.02509423828125,-0.28362521529197693,0.00233720731921494,0.05397332087159157
1789064097057130200,9.035130126953124,-0.3185046315193176,-0.05963295325636864,0.0066492147743701935
1789064097067167200,9.045167236328124,-0.33591437339782715,-0.027559783309698105,0.04071160778403282
1789064097077204200,9.055204345703125,-0.3418196439743042,-0.05113648250699043,0.1351371854543686
1789064097087241500,9.065241455078125,-0.32384929060935974,-0.01434257160872221,0.05358150973916054
1789064097097278500,9.075278564453125,-0.33674725890159607,-0.020490745082497597,0.08812856674194336
1789064097107315200,9.085315185546875,-0.3473471999168396,-0.06351637840270996,0.07558540254831314
1789064097117352200,9.095352294921875,-0.37051641941070557,-0.08730585873126984,-0.022333700209856033
1789064097127388200,9.10538818359375,-0.3647941052913666,-0.06012175232172012,-0.07846878468990326
1789064097137425400,9.11542529296875,-0.34999731183052063,-0.11734696477651596,-0.11273381114006042
1789064097147462400,9.12546240234375,-0.3028389811515808,-0.057953376322984695,-0.09725344926118851
1789064097157499400,9.13549951171875,-0.2704938054084778,-0.0798775777220726,-0.07618492096662521
1789064097167536400,9.145536376953125,-0.2637707591056824,-0.13067544996738434,-0.03638998419046402
1789064097177573400,9.155573486328125,-0.2585882246494293,-0.04603831470012665,0.021778248250484467
1789064097187609300,9.165609375,-0.2746313214302063,-0.20984119176864624,0.11527662724256516
1789064097197646300,9.175646240234375,-0.24044352769851685,-0.05825619772076607,0.07626744359731674
1789064097207683300,9.185683349609375,-0.22476501762866974,-0.06988894194364548,0.1210128664970398
1789064097217720300,9.19572021484375,-0.19508355855941772,-0.11263187974691391,0.18528534471988678
1789064097227757600,9.205757568359376,-0.22319349646568298,-0.19424296915531158,0.15720665454864502
1789064097237794300,9.215794189453124,-0.2216653674840927,-0.16114094853401184,0.01698429323732853
1789064097247830300,9.225830322265624,-0.16002728044986725,-0.07504767179489136,-0.1127244383096695
1789064097257867300,9.2358671875,-0.12017601728439331,-0.12672044336795807,-0.11786114424467087
1789064097267904300,9.245904296875,-0.1056642085313797,-0.1504467874765396,-0.18356655538082123
1789064097277941200,9.255941162109375,-0.14131861925125122,-0.1550002545118332,-0.207754984498024
1789064097287978500,9.265978515625,-0.21305643022060394,-0.16458451747894287,-0.20634110271930695
1789064097298015200,9.27601513671875,-0.2309240996837616,-0.17340970039367676,-0.21304215490818024
1789064097308051500,9.286051513671875,-0.21025007963180542,-0.07462377846240997,-0.2601911127567291
1789064097318088200,9.296088134765625,-0.09091383218765259,0.12754502892494202,-0.1421496719121933
1789064097328125200,9.306125244140626,-0.07765832543373108,-0.35294926166534424,0.031224368140101433
1789064097338162400,9.316162353515624,-0.03831064701080322,-0.2423228770494461,0.07539475709199905
1789064097348199400,9.326199462890624,-0.06227223202586174,-0.24344319105148315,0.0196818970143795
1789064097358236400,9.336236328125,0.021483654156327248,0.16506068408489227,0.08729902654886246
1789064097368272400,9.3462724609375,0.05293324962258339,-0.19523297250270844,0.3163240849971771
1789064097378309400,9.356309326171875,0.08317876607179642,-0.16837045550346375,0.3727351725101471
1789064097388346400,9.366346435546875,0.12452826648950577,-0.021529626101255417,0.44417378306388855
1789064097398383400,9.37638330078125,0.11374006420373917,0.01131514087319374,0.5104838609695435
1789064097408420400,9.38642041015625,0.10743381828069687,-0.09571249037981033,0.28919345140457153
1789064097418457300,9.396457275390626,0.16812193393707275,0.16020770370960236,0.01898273080587387
1789064097428493300,9.406493408203126,0.20776477456092834,-0.05148841440677643,-0.13319377601146698
1789064097438530600,9.416530517578124,0.1693369448184967,-0.16661953926086426,-0.34061142802238464
1789064097448567300,9.4265673828125,0.1588202267885208,-0.10376684367656708,-0.6016600131988525
1789064097458604300,9.436604248046875,0.13124266266822815,-0.07851181924343109,-0.5902678370475769
1789064097468641300,9.446641357421875,0.14609569311141968,0.02119402214884758,-0.5073153376579285
1789064097478678300,9.45667822265625,0.10348031669855118,-0.11294860392808914,-0.5541486144065857
1789064097488715500,9.466715576171875,0.13611923158168793,0.07620271295309067,-0.3228324353694916
1789064097498751500,9.47675146484375,0.1781071573495865,-0.04357215017080307,-0.04820672795176506
1789064097508788200,9.486788330078125,0.23171624541282654,-0.032917413860559464,0.03632674366235733
1789064097518825200,9.4968251953125,0.27340003848075867,0.026989594101905823,0.1577509194612503
1789064097528862200,9.5068623046875,0.26548948884010315,0.007804199121892452,0.3732631206512451
1789064097538899500,9.5168994140625,0.2627403140068054,-0.03260048106312752,0.4542253613471985
1789064097548936400,9.5269365234375,0.270948588848114,0.037899039685726166,0.40893200039863586
1789064097558972400,9.536972412109375,0.2692556083202362,0.1481003761291504,0.35519713163375854
1789064097569009400,9.547009521484375,0.27025291323661804,0.10906706005334854,0.35906925797462463
1789064097579046100,9.557046142578125,0.29655057191848755,0.09669853746891022,0.1782773733139038
1789064097589083400,9.56708349609375,0.3278243839740753,0.1294863373041153,-0.13925234973430634
1789064097599120400,9.577120361328125,0.30869704484939575,0.09537763148546219,-0.20166565477848053
1789064097609157400,9.587157470703126,0.27884718775749207,0.05414543300867081,-0.3073427379131317
1789064097619193300,9.597193359375,0.22965088486671448,-0.010054859332740307,-0.3944520652294159
1789064097629230300,9.607230224609374,0.2503221035003662,0.22211001813411713,-0.48762431740760803
1789064097639267300,9.617267333984374,0.23576897382736206,0.08863851428031921,-0.3423113226890564
1789064097649304300,9.62730419921875,0.2734910845756531,0.19791573286056519,-0.09207191318273544
1789064097659341300,9.63734130859375,0.27267107367515564,0.17169132828712463,0.06549640744924545
1789064097669378300,9.64737841796875,0.3213108479976654,0.15757343173027039,0.21781957149505615
1789064097679414300,9.657414306640625,0.3214069902896881,0.1674865186214447,0.3508162200450897
1789064097689451500,9.667451416015625,0.33010274171829224,0.154708132147789,0.4204016923904419
1789064097699488500,9.677488525390626,0.30756548047065735,0.2622106373310089,0.3923642039299011
1789064097709525200,9.687525146484376,0.2559927999973297,0.16133899986743927,0.38837894797325134
1789064097719562200,9.697562255859374,0.2358449399471283,0.1957467645406723,0.28009775280952454
1789064097729599200,9.70759912109375,0.22975106537342072,0.11256801337003708,0.1746697723865509
1789064097739635200,9.71763525390625,0.24354703724384308,-0.10168702155351639,0.05442085117101669
1789064097749672200,9.727672119140625,0.24201428890228271,0.12283867597579956,0.023044582456350327
1789064097759709200,9.737709228515625,0.0941409319639206,0.32083457708358765,0.038671474903821945
1789064097769746200,9.74774609375,0.10025789588689804,0.16908708214759827,-0.12407317012548447
1789064097779783200,9.757783203125,0.07733713090419769,-0.00949171930551529,-0.3383364677429199
1789064097789820200,9.767820068359375,0.08752778172492981,0.06778426468372345,-0.520593523979187
1789064097799856000,9.777856201171875,0.05188669636845589,0.0045030247420072556,-0.537117600440979
1789064097809893000,9.78789306640625,0.01067664660513401,0.11191272735595703,-0.35466232895851135
1789064097819930400,9.797930419921874,-0.1399213820695877,0.11381688714027405,-0.1607048213481903
1789064097829967400,9.80796728515625,-0.2706678807735443,-0.018406307324767113,-0.0030762052629143
1789064097840004000,9.818004150390625,-0.3024708330631256,0.02167932689189911,0.23131366074085236
1789064097850041000,9.828041015625,-0.2777616083621979,-0.09550263732671738,0.35023027658462524
1789064097860077000,9.8380771484375,-0.23937693238258362,-0.05302121862769127,0.29918307065963745
1789064097870114300,9.8481142578125,-0.06797758489847183,0.5007678866386414,0.3420431315898895
1789064097880151300,9.8581513671875,-0.06929078698158264,0.18527358770370483,0.22022242844104767
1789064097890188300,9.868188232421875,-0.2022700011730194,-0.1673731803894043,-0.011320611461997032
1789064097900225300,9.878225341796876,-0.29292401671409607,0.1915293186903,-0.243566632270813
1789064097910262000,9.888261962890626,-0.4050764739513397,0.010915362276136875,-0.3099534511566162
1789064097920299300,9.89829931640625,-0.4032583236694336,-0.15235984325408936,-0.2876976728439331
1789064097930335200,9.908335205078124,-0.36676347255706787,-0.1030932143330574,-0.2674228847026825
1789064097940372200,9.918372314453125,-0.31441399455070496,-0.10589033365249634,-0.12008561939001083
1789064097950409200,9.9284091796875,-0.30276528000831604,0.002693917602300644,0.04921511188149452
1789064097960446200,9.9384462890625,-0.30864420533180237,0.06002591550350189,0.14682742953300476
1789064097970483200,9.948483154296875,-0.28124457597732544,-0.0553564690053463,0.3508690297603607
1789064097980520200,9.958520263671875,-0.2296740710735321,0.11140161752700806,0.4090580344200134
1789064097990556200,9.96855615234375,-0.18644657731056213,0.02861933410167694,0.35576117038726807
1789064098000593200,9.97859326171875,-0.18847671151161194,-0.004394809249788523,0.3193943500518799
1789064098010630100,9.988630126953124,-0.21984456479549408,-0.024880260229110718,0.22680215537548065
1789064098020667400,9.99866748046875,-0.2452351301908493,-0.085891954600811,0.18646565079689026
1789064098030704400,10.008704345703125,-0.24027635157108307,-0.10661327838897705,0.05739359185099602
1789064098040741000,10.0187412109375,-0.24920140206813812,-0.07918165624141693,-0.12747478485107422
1789064098050777000,10.028777099609375,-0.2296253889799118,0.016295060515403748,-0.2627004086971283
1789064098060814000,10.03881396484375,-0.24307887256145477,-0.043036170303821564,-0.32632893323898315
1789064098070851300,10.048851318359375,-0.19967147707939148,0.06143750995397568,-0.40766772627830505
1789064098080888300,10.058888427734376,-0.14307504892349243,-0.05372210592031479,-0.344727098941803
1789064098090925300,10.06892529296875,-0.0792219489812851,-0.08478426933288574,-0.27760642766952515
1789064098100962000,10.078962158203124,-0.07503918558359146,-0.06386993080377579,-0.20211245119571686
1789064098110998300,10.088998291015624,-0.13295379281044006,-0.08583880215883255,0.05948476120829582
1789064098121035000,10.099034912109374,-0.203358456492424,-0.10413417965173721,0.06959225982427597
1789064098131072300,10.109072265625,-0.16367144882678986,0.22800858318805695,0.231925368309021
1789064098141109200,10.119109130859375,-0.10095693916082382,0.05088280886411667,0.1760016530752182
1789064098151146200,10.129146240234375,-0.0053663095459342,0.007425346411764622,0.08374453336000443
1789064098161183200,10.139183349609375,0.04484785720705986,-0.03529734909534454,0.02902163192629814
1789064098171219200,10.14921923828125,0.05801771581172943,0.05862724408507347,-0.13139031827449799
1789064098181256200,10.159256103515625,0.0236395001411438,0.0176963210105896,-0.35827940702438354
1789064098191293200,10.169293212890626,-0.06876712292432785,0.01355061586946249,-0.30628499388694763
1789064098201330200,10.179330078125,-0.13558796048164368,-0.07736091315746307,-0.24114859104156494
1789064098211367200,10.1893671875,-0.09161204099655151,-0.08243003487586975,-0.20514152944087982
1789064098221404400,10.199404296875,-0.04065484553575516,-0.06440842151641846,-0.1192689761519432
1789064098231440400,10.2094404296875,0.04573491960763931,0.004075756296515465,0.11133866757154465
1789064098241477400,10.219477294921875,0.03535178676247597,-0.0947624072432518,0.35571086406707764
1789064098251514000,10.22951416015625,-0.01572551764547825,-0.01920468546450138,0.3494448661804199
1789064098261551000,10.239551025390625,-0.06956318765878677,0.17803381383419037,0.17036888003349304
1789064098271588400,10.24958837890625,-0.05832700803875923,0.2821030616760254,0.22011330723762512
1789064098281625300,10.259625244140626,-0.05328032001852989,-0.21429018676280975,0.2258114069700241
1789064098291661300,10.269661376953126,-0.05136531963944435,-0.23772548139095306,0.034199200570583344
1789064098301698300,10.2796982421875,-0.06351465731859207,-0.28138425946235657,-0.1954270601272583
1789064098311735000,10.289735107421874,-0.12380244582891464,0.04255843535065651,-0.12107859551906586
1789064098321772000,10.29977197265625,-0.12310070544481277,0.07555446028709412,0.06844845414161682
1789064098331809300,10.309809326171875,-0.15435321629047394,-0.06997216492891312,0.020443975925445557
1789064098341846300,10.31984619140625,-0.19338610768318176,-0.11678707599639893,-0.18850496411323547
1789064098351882200,10.32988232421875,-0.175080344080925,0.08841173350811005,-0.39247843623161316
1789064098361919200,10.339919189453125,-0.09731443971395493,0.484773188829422,-0.3192167580127716
1789064098371956200,10.349956298828126,-0.1777922511100769,-0.3113739490509033,-0.13876940310001373
1789064098381993200,10.3599931640625,-0.20345421135425568,-0.30403798818588257,-0.15085403621196747
1789064098392030200,10.3700302734375,-0.23796582221984863,-0.366537481546402,-0.1549106240272522
1789064098402067200,10.380067138671874,-0.21821580827236176,0.1874077469110489,0.002015078207477927
1789064098412103200,10.390103271484374,-0.1282629817724228,-0.1708633005619049,0.1110590323805809
1789064098422140200,10.40014013671875,-0.14219796657562256,-0.26270025968551636,0.3542437255382538
1789064098432177400,10.410177490234375,-0.18598176538944244,-0.39343732595443726,0.3189006745815277
1789064098442214100,10.420214111328125,-0.25230327248573303,-0.22479239106178284,0.3737064003944397
1789064098452251100,10.430251220703125,-0.34217801690101624,-0.02187986858189106,0.45885947346687317
1789064098462288100,10.4402880859375,-0.401481568813324,0.3895478844642639,0.5577096343040466
1789064098472324000,10.450323974609375,-0.2548481523990631,0.7078890800476074,0.6457836627960205
1789064098482361300,10.460361328125,0.008323040790855885,0.3060992956161499,0.7120665311813354
1789064098492398300,10.4703984375,-0.13335032761096954,-0.4911743700504303,0.14829276502132416
1789064098502435300,10.480435302734374,-0.24908038973808289,-0.368886262178421,-0.4797655940055847
1789064098512472000,10.49047216796875,-0.23290491104125977,-0.2131715565919876,-0.4718553125858307
1789064098522509000,10.500509033203125,-0.11305280774831772,-0.26058831810951233,-0.6282739639282227
1789064098532546300,10.51054638671875,-0.12569208443164825,0.17400577664375305,-0.6090400218963623
1789064098542582300,10.520582275390625,-0.07394260168075562,-0.10432891547679901,-0.44162067770957947
1789064098552619300,10.530619384765625,0.003618706716224551,-0.15774042904376984,-0.47522446513175964
1789064098562656300,10.54065625,0.018220286816358566,0.00009554671123623848,-0.4513883590698242
1789064098572693000,10.55069287109375,0.10362821817398071,-0.019563870504498482,-0.27009016275405884
1789064098582730200,10.560730224609374,0.19047655165195465,0.08841479569673538,0.2018318474292755
1789064098592767200,10.570767333984374,0.17453612387180328,-0.08653233200311661,0.4760535657405853
1789064098602803200,10.58080322265625,0.10233941674232483,-0.1574176847934723,0.5306841135025024
1789064098612840200,10.590840087890625,0.09752421081066132,0.01935676485300064,0.5774158835411072
1789064098622877200,10.600877197265625,0.11358653753995895,0.16619281470775604,0.622259795665741
1789064098632914400,10.61091455078125,0.1467047929763794,0.13606911897659302,0.44663169980049133
1789064098642951200,10.620951171875,0.1427265703678131,-0.1948760449886322,0.3113596439361572
1789064098652988200,10.63098828125,0.154279887676239,-0.06375999748706818,0.26566076278686523
1789064098663024000,10.641024169921875,0.12799343466758728,-0.26162993907928467,-0.0015320434467867017
1789064098673061000,10.65106103515625,0.11260662972927094,-0.15795814990997314,-0.3007407784461975
1789064098683098400,10.661098388671874,-0.03327547758817673,-0.0813099816441536,-0.34992218017578125
1789064098693135400,10.67113525390625,-0.060011886060237885,-0.07633060961961746,-0.19878287613391876
1789064098703172000,10.681172119140625,-0.027636103332042694,-0.04366294667124748,-0.01219702884554863
1789064098713209000,10.691208984375,-0.0308415275067091,-0.07198968529701233,0.06867355108261108
1789064098723245000,10.7012451171875,-0.03495371341705322,-0.02576226182281971,0.061275824904441833
1789064098733282300,10.7112822265625,-0.06485863029956818,-0.04759824275970459,0.10884600877761841
1789064098743319300,10.7213193359375,-0.08793865144252777,-0.1339576244354248,0.14082925021648407
1789064098753356000,10.73135595703125,-0.06858989596366882,-0.21273070573806763,0.035028304904699326
1789064098763393000,10.74139306640625,-0.02704671584069729,-0.035973772406578064,-0.04484708607196808
1789064098773429800,10.7514296875,-0.024736132472753525,-0.3858676254749298,-0.10246945917606354
1789064098783466000,10.761466064453124,-0.02819264866411686,-0.10191580653190613,-0.04660193249583244
1789064098793502700,10.771502685546874,0.021526774391531944,0.08402727544307709,0.09628044813871384
1789064098803540000,10.7815400390625,0.08299066871404648,0.05755465477705002,0.25399577617645264
1789064098813577000,10.791576904296875,0.1423538327217102,-0.032812923192977905,0.14289674162864685
1789064098823614000,10.801614013671875,0.10724962502717972,-0.18845364451408386,-0.20326146483421326
1789064098833651000,10.81165087890625,0.12376614660024643,-0.06626993417739868,-0.5067952871322632
1789064098843687000,10.82168701171875,0.021149221807718277,-0.10323061794042587,-0.5316553711891174
1789064098853723600,10.8317236328125,-0.024966785684227943,0.08229934424161911,-0.4174472987651825
1789064098863761000,10.841760986328126,-0.06758881360292435,-0.104765884578228,-0.339741587638855
1789064098873798000,10.8517978515625,-0.04133031889796257,-0.11211156845092773,-0.3015681803226471
1789064098883835000,10.8618349609375,-0.01966896280646324,-0.034441541880369186,-0.1507517546415329
1789064098893871900,10.871871826171875,-0.014457586221396923,-0.053594086319208145,-0.1707277148962021
1789064098903907800,10.881907958984375,0.08668367564678192,0.23174019157886505,-0.06190617382526398
1789064098913944800,10.89194482421875,0.10107140243053436,-0.12132944911718369,0.3185173273086548
1789064098923981800,10.90198193359375,0.09274876117706299,-0.05140683054924011,0.41236206889152527
1789064098934018800,10.912018798828125,0.065171979367733,-0.12853839993476868,0.31951236724853516
1789064098944055800,10.922055908203125,0.06864713877439499,0.05088008940219879,0.3126336932182312
1789064098954093000,10.932093017578126,0.10454896837472916,-0.06440647691488266,0.36044469475746155
1789064098964129000,10.94212890625,0.11300663650035858,-0.06832825392484665,0.34723302721977234
1789064098974166000,10.952166015625,0.1427556872367859,-0.04260940104722977,0.23835837841033936
1789064098984202800,10.96220263671875,0.18929335474967957,0.08066300302743912,0.2089773267507553
1789064098994239700,10.97223974609375,0.19707979261875153,0.026516921818256378,0.06040337309241295
1789064099004277000,10.982277099609375,0.1945314109325409,-0.043775349855422974,-0.18638989329338074
1789064099014314000,10.99231396484375,0.1879720389842987,0.0406896211206913,-0.3102734088897705
1789064099024350000,11.002349853515625,0.13521748781204224,-0.023622259497642517,-0.36173954606056213
1789064099034387000,11.012386962890625,0.1250990629196167,-0.03416042774915695,-0.4727115035057068
1789064099044424000,11.022423828125,0.1021474078297615,-0.11810699105262756,-0.3949333429336548
1789064099054460700,11.032460693359376,0.12229045480489731,-0.056850846856832504,-0.3123844265937805
1789064099064498000,11.042497802734376,0.13179714977741241,0.15362516045570374,-0.17447848618030548
1789064099074535000,11.052534912109374,0.17227905988693237,-0.04832633212208748,0.08336956053972244
1789064099084571000,11.06257080078125,0.18056654930114746,0.05160345882177353,0.21549297869205475
1789064099094608000,11.07260791015625,0.19900542497634888,-0.03778769075870514,0.2840608060359955
1789064099104644900,11.082644775390625,0.22198905050754547,0.04084639996290207,0.19515572488307953
1789064099114681900,11.092681884765625,0.223761186003685,-0.015521533787250519,0.17842243611812592
1789064099124718800,11.10271875,0.22789202630519867,0.13398966193199158,0.1473260372877121
1789064099134755800,11.112755859375,0.19362686574459076,0.09848491102457047,0.1060473844408989
1789064099144791800,11.122791748046875,0.16162791848182678,0.003561327699571848,0.054823342710733414
1789064099154828800,11.132828857421876,0.15090389549732208,-0.012541362084448338,-0.08696131408214569
1789064099164866000,11.142865966796874,0.14705055952072144,0.06479763239622116,-0.3744184076786041
1789064099174903000,11.152903076171874,0.14818011224269867,0.08237335830926895,-0.32792824506759644
1789064099184939800,11.162939697265625,0.12397915869951248,-0.05228858441114426,-0.18762704730033875
1789064099194976800,11.172976806640625,0.12162426114082336,-0.04329769313335419,-0.21864719688892365
1789064099205012700,11.1830126953125,0.14653226733207703,0.13816450536251068,-0.2271525263786316
1789064099215050000,11.193050048828125,0.17424727976322174,0.1286337822675705,-0.059482842683792114
1789064099225087000,11.2030869140625,0.17400972545146942,0.00065211346372962,0.1730729043483734
1789064099235124000,11.2131240234375,0.185770183801651,0.11372888088226318,0.1665855050086975
1789064099245160700,11.22316064453125,0.19528405368328094,0.1723908632993698,0.22007536888122559
1789064099255197700,11.23319775390625,0.1918703317642212,0.15756957232952118,0.2531870901584625
1789064099265234000,11.24323388671875,0.18290986120700836,0.15793922543525696,0.22099719941616058
1789064099275271000,11.25327099609375,0.1601431965827942,0.10191011428833008,0.2474622130393982
1789064099285308000,11.263307861328125,0.16597925126552582,0.10114738345146179,0.17153923213481903
1789064099295345000,11.273344970703125,0.17996631562709808,0.10412009805440903,0.060868095606565475
1789064099305382000,11.2833818359375,0.18257515132427216,-0.005957931745797396,0.033174946904182434
1789064099315419000,11.2934189453125,0.21274280548095703,0.15973880887031555,0.007014749571681023
1789064099325454800,11.303454833984375,0.19664639234542847,0.33972933888435364,-0.10873288661241531
1789064099335491800,11.313491943359375,0.24930167198181152,0.32897305488586426,-0.09129554778337479
1789064099345528800,11.32352880859375,0.22527942061424255,0.13210633397102356,-0.14605678617954254
1789064099355565800,11.33356591796875,0.2763613164424896,0.2083563208580017,-0.2179054319858551
1789064099365603000,11.34360302734375,0.2689199149608612,0.06856060773134232,-0.392555832862854
1789064099375639800,11.353639892578125,0.2648734450340271,0.2211129069328308,-0.47501125931739807
1789064099385676000,11.363676025390625,0.19674766063690186,0.09103453159332275,-0.3489052653312683
1789064099395712800,11.373712646484375,0.19166548550128937,0.21805381774902344,-0.13265375792980194
1789064099405749800,11.383749755859375,0.20277193188667297,0.22282913327217102,0.027196627110242844
1789064099415787000,11.393787109375,0.22825275361537933,0.15448930859565735,0.17848536372184753
1789064099425824000,11.403823974609375,0.25317808985710144,0.13590925931930542,0.3352941572666168
1789064099435861000,11.413861083984376,0.26295897364616394,0.10802233964204788,0.39968886971473694
1789064099445897700,11.423897705078126,0.27338871359825134,0.28352200984954834,0.23815006017684937
1789064099455933700,11.43393359375,0.22043171525001526,0.2422148585319519,0.1754058599472046
1789064099465971000,11.443970947265624,0.1892290562391281,0.30342310667037964,0.10919728130102158
1789064099476008000,11.454008056640625,0.15749146044254303,0.1554601788520813,-0.04762360826134682
1789064099486045000,11.464044921875,0.17419666051864624,0.12502025067806244,-0.17637066543102264
1789064099496082000,11.47408203125,0.17682763934135437,0.17300571501255035,-0.32504135370254517
1789064099506118000,11.484117919921875,0.16126970946788788,0.06175189092755318,-0.3399159014225006
1789064099516155000,11.49415478515625,0.09883789718151093,0.12326286733150482,-0.35349732637405396
1789064099526191900,11.50419189453125,0.022116485983133316,0.07329876720905304,-0.2935844361782074
1789064099536228900,11.514228759765626,0.009822273626923561,0.2064332664012909,-0.19370940327644348
1789064099546265900,11.524265869140624,0.008686169050633907,0.15575172007083893,-0.012872790917754173
1789064099556302800,11.534302734375,0.05706613138318062,0.1199987456202507,0.13853000104427338
1789064099566340000,11.544340087890625,0.05816974490880966,0.06526172906160355,0.2790716588497162
1789064099576376000,11.5543759765625,0.033243224024772644,0.07432254403829575,0.33476385474205017
1789064099586412800,11.564412841796875,-0.008304749615490437,0.08035354316234589,0.34530410170555115
1789064099596449800,11.57444970703125,-0.036789339035749435,0.09241197258234024,0.3456624150276184
1789064099606486800,11.58448681640625,-0.010797952301800251,0.1379922479391098,0.2787736654281616
1789064099616524000,11.59452392578125,-0.01989119127392769,0.12292717397212982,0.21854203939437866
1789064099626561000,11.60456103515625,-0.03167647495865822,0.047136805951595306,0.06903722137212753
1789064099636597000,11.614596923828126,-0.06652744114398956,0.05050743743777275,-0.12937752902507782
1789064099646634000,11.624634033203124,-0.1566070020198822,-0.008386239409446716,-0.30080628395080566
1789064099656670700,11.634670654296874,-0.18869271874427795,-0.028063785284757614,-0.39450985193252563
1789064099666708000,11.6447080078125,-0.14939618110656738,0.12412335723638535,-0.45114782452583313
1789064099676745000,11.654744873046875,-0.12459394335746765,0.03808949515223503,-0.36872097849845886
1789064099686782000,11.664781982421875,-0.08146538585424423,-0.06869766861200333,-0.2560863196849823
1789064099696818000,11.67481787109375,-0.08199131488800049,0.11318133771419525,-0.22177302837371826
1789064099706855000,11.68485498046875,-0.07964160293340683,0.13075101375579834,-0.1370120793581009
1789064099716891600,11.6948916015625,-0.10429573804140091,0.07864402234554291,-0.0022641466930508614
1789064099726929000,11.704928955078126,-0.09893159568309784,0.11143392324447632,0.2352576106786728
1789064099736966000,11.7149658203125,-0.05998711287975311,-0.10785269737243652,0.3811756372451782
1789064099747003600,11.725003662109375,-0.010991607792675495,-0.003143330803140998,0.2583511769771576
1789064099757039600,11.73503955078125,0.030904041603207588,0.10845249146223068,0.15923748910427094
1789064099767076600,11.74507666015625,0.03669402003288269,0.11742628365755081,0.3147711455821991
1789064099777113300,11.75511328125,0.0386238694190979,0.08734844624996185,0.35146284103393555
1789064099787150600,11.765150634765625,0.021939434111118317,0.11920411139726639,0.20440444350242615
1789064099797187600,11.7751875,0.02637695148587227,0.006691178306937218,0.05123964697122574
1789064099807224600,11.785224609375,0.04282676801085472,0.06068543717265129,-0.1394144594669342
1789064099817260500,11.795260498046876,0.040546901524066925,0.1312103122472763,-0.2738851308822632
1789064099827297500,11.805297607421876,0.032209612429142,0.06421875953674316,-0.34250760078430176
1789064099837334300,11.815334228515624,-0.0025322120636701584,0.09594495594501495,-0.42933470010757446
1789064099847371500,11.82537158203125,-0.026879895478487015,0.09499260783195496,-0.4693572223186493
1789064099857408500,11.835408447265625,-0.005778823047876358,0.09009656310081482,-0.3366453945636749
1789064099867445500,11.845445556640625,0.02562064491212368,-0.0008525170851498842,-0.2566749155521393
1789064099877481500,11.8554814453125,0.0334785133600235,0.06166059896349907,-0.14715847373008728
1789064099887518500,11.8655185546875,0.011619022116065025,0.14277224242687225,0.05047043412923813
1789064099897555700,11.8755556640625,-0.04325506463646889,0.0625598356127739,0.31691834330558777
1789064099907592400,11.885592529296876,-0.05156359449028969,0.17037764191627502,0.5001733899116516
1789064099917629400,11.89562939453125,-0.1296853870153427,0.07684366405010223,0.5655427575111389
1789064099927666400,11.90566650390625,-0.15844379365444183,0.04804876819252968,0.4203069806098938
1789064099937702400,11.915702392578124,-0.13659337162971497,0.10450609028339386,0.3015901446342468
1789064099947739600,11.92573974609375,-0.1518535614013672,-0.05332668125629425,0.21095240116119385
1789064099957776600,11.935776611328125,-0.1828123778104782,-0.015996165573596954,-0.028515281155705452
1789064099967813400,11.9458134765625,-0.2605646848678589,0.05202123522758484,-0.2835766077041626
1789064099977850400,11.955850341796875,-0.3164021670818329,-0.07613663375377655,-0.18869680166244507
1789064099987887600,11.9658876953125,-0.35700446367263794,-0.16863222420215607,-0.14968736469745636
1789064099997923600,11.975923583984375,-0.40089279413223267,-0.17071415483951569,-0.2503935396671295
1789064100007960600,11.985960693359376,-0.4044033885002136,-0.06614325940608978,-0.2508161664009094
1789064100017997600,11.99599755859375,-0.41780757904052734,-0.18946076929569244,0.06684949994087219
1789064100028034600,12.00603466796875,-0.42813771963119507,-0.20891490578651428,0.24973782896995544
1789064100038071300,12.0160712890625,-0.43641427159309387,-0.13114646077156067,0.21118466556072235
1789064100048108500,12.026108642578125,-0.4172632098197937,-0.07934637367725372,0.2602115869522095
1789064100058144500,12.03614453125,-0.4116043448448181,-0.14038844406604767,0.24579507112503052
1789064100068181500,12.046181396484375,-0.39356353878974915,-0.12888650596141815,0.19232092797756195
1789064100078218500,12.056218505859375,-0.41256600618362427,-0.23508740961551666,0.12615247070789337
1789064100088255500,12.06625537109375,-0.4242868423461914,-0.26059088110923767,-0.026352647691965103
1789064100098292500,12.07629248046875,-0.47382625937461853,-0.3610304892063141,-0.05854499712586403
1789064100108329500,12.08632958984375,-0.4712347388267517,-0.25275513529777527,-0.1426801085472107
1789064100118365400,12.096365478515626,-0.4442482590675354,-0.11778444796800613,-0.275233656167984
1789064100128402400,12.10640234375,-0.3985934257507324,-0.22042320668697357,-0.19598063826560974
1789064100138439400,12.116439453125,-0.35087159276008606,-0.15182560682296753,-0.19773779809474945
1789064100148476700,12.1264765625,-0.3251425325870514,-0.16357731819152832,-0.1653018295764923
1789064100158513700,12.136513671875,-0.33376839756965637,-0.20901943743228912,-0.19177347421646118
1789064100168550400,12.14655029296875,-0.35581669211387634,-0.17088349163532257,-0.07957769930362701
1789064100178586400,12.15658642578125,-0.3715784549713135,-0.20113816857337952,0.11011847108602524
1789064100188623400,12.166623291015625,-0.35429856181144714,-0.31570494174957275,0.18394502997398376
1789064100198660600,12.17666064453125,-0.30768561363220215,-0.20903606712818146,0.24545587599277496
1789064100208697600,12.186697509765626,-0.28898730874061584,-0.17771115899085999,0.3121699094772339
1789064100218734600,12.196734619140624,-0.2284601926803589,-0.09627003967761993,0.27991753816604614
1789064100228771300,12.206771240234374,-0.20357055962085724,-0.11899080127477646,0.2303454577922821
1789064100238807600,12.2168076171875,-0.17406028509140015,-0.11322754621505737,0.11869467049837112
1789064100248844500,12.226844482421875,-0.15711244940757751,-0.13379380106925964,0.05734716355800629
1789064100258881500,12.236881591796875,-0.1812136322259903,-0.2644491195678711,-0.006035775877535343
1789064100268918500,12.24691845703125,-0.1992885023355484,-0.2265150398015976,-0.1603821963071823
1789064100278955500,12.25695556640625,-0.22965000569820404,-0.1988547146320343,-0.13873052597045898
1789064100288992500,12.266992431640626,-0.24125419557094574,-0.26480603218078613,-0.017002228647470474
1789064100299028500,12.277028564453126,-0.20220422744750977,-0.21333619952201843,-0.09800508618354797
1789064100309065500,12.2870654296875,-0.10402759909629822,-0.032454561442136765,-0.10065919160842896
1789064100319102500,12.2971025390625,-0.022415561601519585,-0.06956224888563156,-0.005031999666243792
