time,seconds_elapsed,z,y,x
1789309745429857800,0.05485791015625,7.9338693379729985,5.762278163328767,-0.14230222850353455
1789309745439870000,0.064869873046875,7.882549485102295,5.832988945367932,-0.10972117930180393
1789309745449881900,0.0748818359375,7.838763534867763,5.892163018870353,-0.0811915517821908
1789309745459893800,0.084893798828125,7.805557430836558,5.936294421541691,-0.06375100319625343
1789309745469906000,0.094906005859375,7.784186726027727,5.96419423585832,-0.07217296354621648
1789309745479918600,0.104918701171875,7.77330760461688,5.977701367685198,-0.11471611977857536
1789309745489930800,0.1149306640625,7.767630728024244,5.983192366316914,-0.1889671773736365
1789309745499942700,0.124942626953125,7.760637508136034,5.988361293387412,-0.28708456511870023
1789309745509954800,0.134954833984375,7.7457450594305985,6.001139526417851,-0.4001784813897684
1789309745519966700,0.144966796875,7.720011483237147,6.025677755346894,-0.5128503728564828
1789309745529979000,0.154978759765625,7.685420646849274,6.060903382506966,-0.6083932887373492
1789309745539990800,0.16499072265625,7.648319288945197,6.102136141127348,-0.6614625790912657
1789309745550002700,0.175002685546875,7.612979680016636,6.148931794571876,-0.6352637234736234
1789309745560014800,0.185014892578125,7.575646851444244,6.20308365599811,-0.5492724797921255
1789309745570027800,0.19502783203125,7.535676660105586,6.259722658064961,-0.4470222848249599
1789309745580039700,0.205039794921875,7.496314956054091,6.3132373906314365,-0.34450171195119617
1789309745590051800,0.2150517578125,7.460022576445341,6.360598861265182,-0.24746265749474985
1789309745600063700,0.225063720703125,7.42820646546781,6.400559700253606,-0.15802591300187632
1789309745610075600,0.23507568359375,7.401177588766813,6.433256101197004,-0.0785626006512437
1789309745620087800,0.245087890625,7.378606860518455,6.459589396849275,-0.015769454160606256
1789309745630099700,0.255099609375,7.360057058349251,6.480683038282394,0.02648214095487492
1789309745640111600,0.265111572265625,7.345149412074685,6.497402702414989,0.054111063624965025
1789309745650123800,0.275123779296875,7.333192432299256,6.51075376689732,0.06895115195550024
1789309745660135700,0.2851357421875,7.322271225312352,6.523038078930973,0.06855399216434452
1789309745670148900,0.29514892578125,7.310811089143156,6.535985823309421,0.05759443049500696
1789309745680160800,0.305160888671875,7.297863344764709,6.550552108800411,0.04294527989299968
1789309745690172700,0.315172607421875,7.282192312902212,6.568036912086606,0.030842123979376627
1789309745700184800,0.325184814453125,7.2646297682046885,6.587497983881831,0.0203678433426423
1789309745710196700,0.33519677734375,7.245764908736944,6.6082683847099535,0.007622300155542325
1789309745720209000,0.345208984375,7.225724575749039,6.630178603222966,-0.00395745122601802
1789309745730220800,0.355220703125,7.204254502218961,6.653496934968233,-0.009472093882336047
1789309745740232700,0.365232666015625,7.181364040496945,6.678201168113946,-0.0052340584495366785
1789309745750244900,0.375244873046875,7.156538226798176,6.70478989983201,0.012172524505539331
1789309745760257800,0.3852578125,7.129630346128344,6.7333250894427294,0.03308520846473984
1789309745770270000,0.39527001953125,7.100714048245549,6.763718474140763,0.0484958358253818
1789309745780281900,0.40528173828125,7.07197310692966,6.793702108994126,0.056591911522112785
1789309745790293800,0.415293701171875,7.046922252303362,6.819651958286761,0.06017114911521785
1789309745800306000,0.425305908203125,7.027264781153201,6.8398840144544835,0.06262115891610738
1789309745810317800,0.43531787109375,7.008952294871211,6.858665287292003,0.06064277151522692
1789309745820330000,0.445330078125,6.986777287942171,6.881321940258145,0.05222128608929924
1789309745830342000,0.455341796875,6.957037983238696,6.911433000883459,0.04588814667817205
1789309745840353800,0.465353759765625,6.923436157888173,6.9450967855542896,0.04526907406491227
1789309745850366700,0.47536669921875,6.8927399908512825,6.975562066444755,0.04539358636057004
1789309745860378600,0.485378662109375,6.869223506185412,6.9987424510240555,0.04196546137568075
1789309745870390800,0.495390869140625,6.852245483377575,7.015386711832881,0.038255382210831156
1789309745880402700,0.505402587890625,6.838759394338727,7.028522087737917,0.04029856477649882
1789309745890414600,0.51541455078125,6.825991098180413,7.04086426743865,0.04962770766583271
1789309745900426800,0.5254267578125,6.81115125644505,7.05511198849976,0.06315005076157394
1789309745910438700,0.535438720703125,6.790964208462834,7.074360294327139,0.0813485141758807
1789309745920450800,0.545450927734375,6.760463271737098,7.103105327296257,0.11143414809899405
1789309745930462700,0.555462646484375,6.713538438954949,7.146530043002962,0.16092108645411207
1789309745940476000,0.565475830078125,6.645511781433224,7.207925299686193,0.2310275641908869
1789309745950487800,0.57548779296875,6.559754236909747,7.283069095736741,0.3113155912620947
1789309745960499700,0.585499755859375,6.466522995504737,7.362543614467978,0.3839412670118734
1789309745970512000,0.595511962890625,6.37408611934781,7.439943080490827,0.4343548917578533
1789309745980523800,0.605523681640625,6.282325535017252,7.515671398431063,0.46632743540611116
1789309745990536000,0.615535888671875,6.185718679699302,7.593897378405928,0.48989948618412016
1789309746000547800,0.6255478515625,6.084106563439965,7.674652584597468,0.5037171087322756
1789309746010559700,0.635559814453125,5.978022270202636,7.75737938312292,0.5066466228455305
1789309746020572000,0.645572021484375,5.864750695809722,7.843876347836852,0.49867831084746866
1789309746030584800,0.655584716796875,5.73360619559586,7.9409344540536395,0.48754627412147816
1789309746040597000,0.665596923828125,5.583392253252864,8.04857942073643,0.465286292322725
1789309746050609000,0.67560888671875,5.420820349118113,8.161370518136025,0.4208666838271543
1789309746060620800,0.685620849609375,5.2538393963694565,8.273287170788645,0.3468080526648089
1789309746070633000,0.695633056640625,5.091908128225803,8.377654723235965,0.24033276908220721
1789309746080644900,0.705644775390625,4.937144267493486,8.472529640194773,0.10602395048537291
1789309746090656800,0.71565673828125,4.783669277527928,8.56067729472518,-0.04133560250692535
1789309746100669000,0.7256689453125,4.624782491646707,8.645828105527162,-0.17731776571003718
1789309746110680800,0.735680908203125,4.4591380481988185,8.729522872301935,-0.28619030142640695
1789309746120694000,0.745694091796875,4.293566085465252,8.808737863314152,-0.376573003266193
1789309746130706000,0.755705810546875,4.143510256293416,8.876539479908347,-0.4569013623477891
1789309746140718000,0.765718017578125,4.025957351319492,8.926745818579196,-0.5246419694697484
1789309746150730000,0.77572998046875,3.9454327390134334,8.959372076895832,-0.5775789021482691
1789309746160742000,0.785741943359375,3.8898274639084933,8.980593728622793,-0.6233505828399211
1789309746170754000,0.795754150390625,3.8363311437815426,9.00018397975564,-0.6705617582827806
1789309746180766000,0.805765869140625,3.760717976653576,9.027938248121737,-0.7236896834887564
1789309746190777900,0.81577783203125,3.6458550414159894,9.070913466495275,-0.7724423892851918
1789309746200790800,0.825790771484375,3.492175468789041,9.12812471549213,-0.8077408624857664
1789309746210802700,0.835802734375,3.3169325913906094,9.191049081438779,-0.8324472145233303
1789309746220814800,0.84581494140625,3.1378280701279637,9.251929958859085,-0.8521814772367476
1789309746230826800,0.85582666015625,2.965242429240048,9.306911841368676,-0.8712737157195806
1789309746240838700,0.865838623046875,2.798779070624709,9.356331998097897,-0.8923407614067196
1789309746250850800,0.875850830078125,2.630355517852306,9.403188441818951,-0.9119600194383412
1789309746260862700,0.88586279296875,2.4510526975385845,9.449887064629793,-0.9286324103631078
1789309746270875000,0.895875,2.255287256593257,9.496420267745853,-0.9497790971577167
1789309746280886800,0.90588671875,2.057636878684163,9.538435701176523,-0.9771266113538295
1789309746290899700,0.915899658203125,1.892050595164299,9.569973579734564,-1.0030736111022531
1789309746300911900,0.925911865234375,1.7850490409515798,9.588771803706884,-1.0195366701252757
1789309746310923800,0.935923828125,1.73915062860772,9.597044542011618,-1.021024570595473
1789309746320936000,0.94593603515625,1.7415848700173198,9.598210663181543,-1.0057931722592561
1789309746330947800,0.95594775390625,1.7668199951693415,9.59577203785777,-0.9848309021208435
1789309746340959700,0.965959716796875,1.7890167755387723,9.593613398519159,-0.9655963325578719
1789309746350972000,0.975971923828125,1.7944021218389272,9.594941432252526,-0.9421375694286077
1789309746360984800,0.98598486328125,1.7864516012258826,9.599265140670537,-0.9127276428099721
1789309746370997000,0.9959970703125,1.7697120633490382,9.605687282672523,-0.8770761914532631
1789309746381009000,1.0060087890625,1.74493213461861,9.61399626133442,-0.8346607989195733
1789309746391020800,1.016020751953125,1.7052318462625145,9.625319034859537,-0.7847337155815214
1789309746401033000,1.026032958984375,1.6443135594412683,9.640032619866728,-0.7323826199669391
1789309746411044900,1.036044921875,1.5587024376511573,9.658106036695838,-0.6795766201917082
1789309746421057000,1.04605712890625,1.449946148725599,9.678217681354283,-0.6325683469098061
1789309746431069000,1.05606884765625,1.3228630527317524,9.698620417913794,-0.5976508358508348
1789309746441081900,1.066081787109375,1.1909434764921665,9.717264912629126,-0.5716802725637331
1789309746451094000,1.076093994140625,1.062398272056505,9.733358553817867,-0.5508600777771323
1789309746461106000,1.08610595703125,0.938457419611141,9.746889066520334,-0.5365129149295389
1789309746471118000,1.0961181640625,0.8164669705811888,9.758017778778076,-0.5337202154710888
1789309746481130000,1.1061298828125,0.687665891688317,9.767039289623499,-0.5499478217704221
1789309746491142000,1.116141845703125,0.5925214736057445,9.771128020241855,-0.5868352446628734
1789309746501154000,1.126154052734375,0.573521224255301,9.769248782366514,-0.6350176397580654
1789309746511166000,1.136166015625,0.5414915070597082,9.76697849934697,-0.6952139689803123
1789309746521179000,1.146178955078125,0.5151079059923067,9.764622291609644,-0.7464682092688977
1789309746531190800,1.156190673828125,0.49238651722688226,9.762461314183472,-0.7888500648591666
1789309746541202700,1.16620263671875,0.4688977973507717,9.760296245104074,-0.8289476819697768
1789309746551214800,1.17621484375,0.4482392228666693,9.75812065463066,-0.8651944688711315
1789309746561226800,1.186226806640625,0.4293900358920917,9.755748080280423,-0.9007854952774942
1789309746571238700,1.19623876953125,0.4086379379056394,9.753351540532707,-0.9357121394909917
1789309746581250800,1.206250732421875,0.3972315777502954,9.750414902558923,-0.9705723674047738
1789309746591263700,1.216263671875,0.3835257450135425,9.747406952914595,-1.0056513526357709
1789309746601276000,1.22627587890625,0.3630673327440396,9.744575528880953,-1.0401072375323623
1789309746611287800,1.236287841796875,0.34508477253615855,9.742324535083771,-1.0669793893016875
1789309746621300000,1.246300048828125,0.3420114660380408,9.741171273395418,-1.0784314882948993
1789309746631312000,1.256311767578125,0.35859727465789765,9.741774499985576,-1.0675215333543717
1789309746641323800,1.26632373046875,0.3867395559608936,9.743559045314788,-1.0411033358976245
1789309746651336000,1.2763359375,0.41854518207702784,9.745713593000174,-1.008108244268596
1789309746661348900,1.286348876953125,0.44782329900953916,9.748080906653403,-0.9719927555967122
1789309746671361000,1.296361083984375,0.47223125262241805,9.750870829632877,-0.9316012701060622
1789309746681373000,1.306373046875,0.49283272662442174,9.754119602295756,-0.8858151590302586
1789309746691384800,1.316384765625,0.5091690539952367,9.757606859889625,-0.836795545925945
1789309746701397000,1.32639697265625,0.5166934216180816,9.761085934177041,-0.7903294897619635
1789309746711409000,1.336408935546875,0.5129157297102734,9.764233584553002,-0.7530259603492915
1789309746721420800,1.3464208984375,0.4988374469319358,9.767035197970271,-0.725652873320505
1789309746731434000,1.35643408203125,0.47790162640903144,9.769587220540641,-0.7051007914181798
1789309746741446000,1.36644580078125,0.45201158101223404,9.771818925115465,-0.6910975466374307
1789309746751458000,1.3764580078125,0.4187762874191627,9.773716283169389,-0.6851951176606118
1789309746761470000,1.386469970703125,0.3767371077867225,9.775126734489202,-0.6894544556055218
1789309746771481900,1.39648193359375,0.32401330640222875,9.775865570157766,-0.7055890863917768
1789309746781494000,1.406493896484375,0.2604361025700345,9.775721193251012,-0.7333846366163342
1789309746791506700,1.416506591796875,0.18822852436816317,9.774480253279208,-0.771042970816046
1789309746801518800,1.426518798828125,0.10991872030105442,9.772041627955437,-0.8157843951445073
1789309746811530800,1.43653076171875,0.02678883000058122,9.768438635027408,-0.8644421161338687
1789309746821543000,1.44654296875,-0.06288900693890173,9.763237559252977,-0.9195742207691073
1789309746831554800,1.456554931640625,-0.157961341599375,9.756216282314062,-0.9806664759177715
1789309746841566700,1.466566650390625,-0.25344280961658805,9.747418643352388,-1.0459375511210411
1789309746851580000,1.476579833984375,-0.3256762711783871,9.739837978965044,-1.095389418162778
1789309746861591800,1.486591796875,-0.366882543650642,9.735410225650668,-1.1214116020392626
1789309746871604000,1.49660400390625,-0.38985209849085656,9.732875154215098,-1.1355880114298313
1789309746881616000,1.506615966796875,-0.41109636390842497,9.730317870947719,-1.1499092361185699
1789309746891627800,1.516627685546875,-0.4405453073631972,9.726365918451547,-1.1722293506067245
1789309746901640000,1.526639892578125,-0.4800375789918005,9.720601363575458,-1.204103694577515
1789309746911652600,1.536652587890625,-0.5297256294095889,9.712507488968967,-1.247787938003242
1789309746921664800,1.546664794921875,-0.5867458128137514,9.70207844941318,-1.3022291377648711
1789309746931676700,1.5566767578125,-0.648960094262287,9.689241764193772,-1.3666823207139969
1789309746941688800,1.566688720703125,-0.7146529020089656,9.674523503011464,-1.4363995616711676
1789309746951700700,1.57670068359375,-0.7765973900727927,9.660085812336206,-1.5000069414459167
1789309746961712600,1.586712646484375,-0.8218450103577226,9.64881389221549,-1.5476901913799344
1789309746971725800,1.596725830078125,-0.8478996351990848,9.640576809746026,-1.584530560260266
1789309746981737700,1.60673779296875,-0.8676821209684014,9.630991235277056,-1.631410969378799
1789309746991750000,1.61675,-0.8880654952403157,9.61619523268342,-1.706024604075402
1789309747001761800,1.62676171875,-0.9150142193771899,9.599460955503583,-1.78422778769657
1789309747011773700,1.636773681640625,-0.947288741646707,9.578756605648994,-1.8762785871453582
1789309747021785900,1.646785888671875,-0.9881981865968554,9.551420270434022,-1.9910401078350841
1789309747031798500,1.656798583984375,-1.0423056243594735,9.51652898979485,-2.1259534590631723
1789309747041810700,1.666810791015625,-1.0972014360208064,9.476645892217755,-2.2714944411590694
1789309747051822600,1.676822509765625,-1.1366708382304758,9.439157580822705,-2.4043017600186167
1789309747061834500,1.68683447265625,-1.160260315067321,9.409838547357916,-2.5058155304700134
1789309747071846700,1.6968466796875,-1.1818445164963602,9.389150564116239,-2.5724425503268837
1789309747081858600,1.706858642578125,-1.2085708300542086,9.374230642881988,-2.6140990873172876
1789309747091871700,1.716871826171875,-1.2334404098294676,9.361876188221574,-2.646557003329694
1789309747101883600,1.726883544921875,-1.2630335840605198,9.348213573572039,-2.6806732079431415
1789309747111895600,1.7368955078125,-1.2904115664601326,9.336301601982116,-2.708996216107905
1789309747121907700,1.74690771484375,-1.3093543134696781,9.327824865537881,-2.7290456091850994
1789309747131919600,1.756919677734375,-1.3152259819820522,9.322065571358799,-2.7458459373384714
1789309747141931800,1.766931884765625,-1.3078582296930252,9.31958369141519,-2.757767845800519
1789309747151943700,1.776943603515625,-1.294033702480048,9.321603214544057,-2.7574586337208746
1789309747161956600,1.78695654296875,-1.27601829944849,9.328568961903452,-2.742258726501465
1789309747171968800,1.79696875,-1.259967182227224,9.339325918239355,-2.7129060830280185
1789309747181980700,1.806980712890625,-1.2477372307293115,9.353017758983373,-2.6710674674689767
1789309747191992800,1.816992919921875,-1.2426657726839183,9.367673476323485,-2.6216172078624367
1789309747202004700,1.827004638671875,-1.2447856874473393,9.382892088243365,-2.5655826014295218
1789309747212016600,1.8370166015625,-1.247751551515609,9.399915703758596,-2.5010163134947416
1789309747222029600,1.847029541015625,-1.2480195548020303,9.41867418024242,-2.429275896146893
1789309747232041500,1.85704150390625,-1.2445746750451623,9.438021854791044,-2.3548161368377505
1789309747242053600,1.8670537109375,-1.2418585479542612,9.457616782099008,-2.2763221535764635
1789309747252065500,1.8770654296875,-1.2430989034041762,9.4767113586694,-2.194772289875895
1789309747262077700,1.88707763671875,-1.2472612837806343,9.495318443983793,-2.1103594379596413
1789309747272089600,1.897089599609375,-1.2516950284443795,9.512816106751561,-2.0273029690884052
1789309747282101500,1.9071015625,-1.2508422110073267,9.52876069485843,-1.9515324194416404
1789309747292114700,1.91711474609375,-1.2455467349477112,9.54348012508452,-1.8817476662062107
1789309747302126600,1.927126708984375,-1.2389606345556676,9.557442599463462,-1.8140196993701159
1789309747312138500,1.937138427734375,-1.2324204191319643,9.571178863871097,-1.7447274058267472
1789309747322150700,1.947150634765625,-1.2217724030632524,9.583468436601757,-1.6836914839752017
1789309747332162600,1.95716259765625,-1.2048401921585201,9.59470820801854,-1.6310416976749895
1789309747342174700,1.9671748046875,-1.1837558300103992,9.605290392309426,-1.5835134921722114
1789309747352187600,1.977187744140625,-1.1614135767556726,9.615198622861504,-1.5393112162217497
1789309747362199600,1.987199462890625,-1.1442775138419121,9.624085109150409,-1.4959981441959738
1789309747372211700,1.997211669921875,-1.1353654547203331,9.63128408074379,-1.4559170398287473
1789309747382223600,2.0072236328125,-1.1232673859737812,9.637247957584261,-1.4255306693933902
1789309747392235800,2.01723583984375,-1.1107458311181515,9.641960373058915,-1.403295602840185
1789309747402247700,2.02724755859375,-1.0981094177111983,9.645882514938712,-1.3861897158689795
1789309747412259600,2.037259521484375,-1.0847711396452038,9.648943656075,-1.3753396744221449
1789309747422272800,2.047272705078125,-1.073494470284134,9.651420859843492,-1.3667777439124882
1789309747432284700,2.05728466796875,-1.0625048011709004,9.653966452673076,-1.3573464832223952
1789309747442296800,2.067296875,-1.0476108180955053,9.656470544448494,-1.3511087578766048
1789309747452308700,2.077308837890625,-1.031913848074153,9.65839888216257,-1.3494019539587199
1789309747462320600,2.087320556640625,-1.0202068975370377,9.659506551143526,-1.3503735754698514
1789309747472332800,2.097332763671875,-1.0107632157567887,9.66032137465775,-1.3516402344048022
1789309747482345500,2.107345458984375,-1.0043556137368082,9.659290862566232,-1.3637218634732067
1789309747492357600,2.117357666015625,-0.9970589539226143,9.658199560198188,-1.3767539251342416
1789309747502369500,2.12736962890625,-0.9862680222518742,9.657193598026037,-1.3915110570222138
1789309747512381400,2.13738134765625,-0.9693605073969811,9.656356562680006,-1.4090839769832788
1789309747522393600,2.1473935546875,-0.9457366168338804,9.656334350848198,-1.4251931080020963
1789309747532405500,2.157405517578125,-0.9205597246751188,9.657171970716119,-1.4359597089491785
1789309747542417700,2.167417724609375,-0.8969277969360351,9.658631521874666,-1.4410885962702333
1789309747552430600,2.1774306640625,-0.8759472604885696,9.660297409260272,-1.4428268182396888
1789309747562442800,2.18744287109375,-0.8533267017491162,9.66257587558627,-1.4411372577175496
1789309747572454700,2.19745458984375,-0.8287289246525615,9.665513682603835,-1.4357843523822724
1789309747582466600,2.207466552734375,-0.7985260210253298,9.669508889719843,-1.4259601468518375
1789309747592478700,2.217478759765625,-0.7693188504371792,9.674007954704761,-1.4114182651497422
1789309747602490600,2.22749072265625,-0.751807232209295,9.678594113451242,-1.3892287913039325
1789309747612503800,2.23750390625,-0.7482101575654,9.683761286956072,-1.354734693288803
1789309747622515700,2.247515625,-0.7541586176410316,9.690397363969684,-1.303010643531382
1789309747632527600,2.257527587890625,-0.7616131714306771,9.69797569026947,-1.2408088927708565
1789309747642539800,2.267539794921875,-0.7681384815461934,9.705465169242023,-1.17655510485135
1789309747652551700,2.2775517578125,-0.7781654431071132,9.712569448289274,-1.1094361367590724
1789309747662563600,2.2875634765625,-0.7929813925102353,9.719068162658811,-1.0398501209661364
1789309747672575700,2.29757568359375,-0.8084415581010281,9.724858436498046,-0.9715657623562961
1789309747682588700,2.307588623046875,-0.8135159387558698,9.730321378079056,-0.9107291624691337
1789309747692600800,2.317600830078125,-0.8004465407591312,9.736052615207432,-0.8596183492392301
1789309747702612700,2.32761279296875,-0.774133703373,9.741910109063982,-0.8162770009670406
1789309747712624600,2.337624755859375,-0.7467796133056283,9.747215229734778,-0.7774974076524377
1789309747722636800,2.34763671875,-0.7271067984558641,9.751682146015762,-0.739184408936277
1789309747732648700,2.357648681640625,-0.7173037818439304,9.755505503696202,-0.6971086236204952
1789309747742661600,2.36766162109375,-0.711217155406624,9.75918682255745,-0.650245896289125
1789309747752673500,2.377673583984375,-0.7033341470718384,9.762662974235415,-0.6050889864949509
1789309747762685700,2.387685791015625,-0.6881552826404571,9.765964353868364,-0.5681355491615832
1789309747772697600,2.397697509765625,-0.6711904846403748,9.76895652142167,-0.5361014845844357
1789309747782709500,2.40770947265625,-0.6610526100508868,9.771520818951725,-0.5007880330104381
1789309747792721700,2.4177216796875,-0.6535657614268362,9.773847800594568,-0.4638501951050013
1789309747802733600,2.427733642578125,-0.6457963695343584,9.775846865457297,-0.4314580378051847
1789309747812746800,2.437746826171875,-0.6383609588366002,9.777529703977704,-0.4034741984669119
1789309747822758700,2.447758544921875,-0.633016090677306,9.778931387469171,-0.37707320787329224
1789309747832770600,2.4577705078125,-0.6303271438542754,9.780026781490445,-0.3523762447185814
1789309747842782700,2.46778271484375,-0.6314633813425898,9.78076386359334,-0.32904925474282354
1789309747852794600,2.477794677734375,-0.6363602865386754,9.78106255427897,-0.31018961943946777
1789309747862806500,2.487806640625,-0.642121553479135,9.78094798798859,-0.30188197421813384
1789309747872818700,2.497818603515625,-0.6467798276137561,9.780506089439987,-0.3061617521628737
1789309747882831600,2.50783154296875,-0.6492202065031976,9.77988649623692,-0.32048005424216386
1789309747892843800,2.51784375,-0.651633551255241,9.77910323690474,-0.33898751510698344
1789309747902855700,2.527855712890625,-0.6527019842043519,9.77841467011869,-0.35633860901091247
1789309747912867600,2.53786767578125,-0.6493816076099872,9.777814366137981,-0.37816410838253794
1789309747922879700,2.547879638671875,-0.6386691480029374,9.777039874634147,-0.41470600577294825
1789309747932891600,2.5578916015625,-0.6220621504645795,9.775759771695732,-0.46684068215787405
1789309747942904800,2.56790478515625,-0.5976335559224709,9.77412427944839,-0.5288773785497993
1789309747952916700,2.577916748046875,-0.565781606446579,9.772299402108787,-0.5936716300215572
1789309747962928600,2.5879287109375,-0.5343124092105775,9.770230194619298,-0.6538136717732995
1789309747972940800,2.59794091796875,-0.5088852686177939,9.767901459410787,-0.7067639023248106
1789309747982952700,2.60795263671875,-0.48987431521024555,9.765286892998217,-0.7547148632843047
1789309747992964600,2.617964599609375,-0.4744754513526335,9.762665312322973,-0.7972573162637651
1789309748002977500,2.6279775390625,-0.45918589308839286,9.760517194378375,-0.8317616434119641
1789309748012989400,2.637989501953125,-0.4428434282377362,9.75895885902047,-0.8584943136453628
1789309748023001600,2.648001708984375,-0.42571394119523465,9.757722010701894,-0.8809104358538985
1789309748033013500,2.658013427734375,-0.41149142764061686,9.756673378431797,-0.8990813947733491
1789309748043025700,2.668025634765625,-0.40087873861361295,9.756167766997217,-0.9093238257158547
1789309748053037600,2.67803759765625,-0.3912376345651224,9.756430217325686,-0.9106902186982333
1789309748063049500,2.688049560546875,-0.3794195152711123,9.757402861750125,-0.905262129234895
1789309748073062700,2.698062744140625,-0.3656329454483464,9.759052382522821,-0.8930973519276827
1789309748083074600,2.708074462890625,-0.35032873760424554,9.761602651527523,-0.8710830885183065
1789309748093086700,2.718086669921875,-0.33180176832135766,9.764677821189165,-0.84342789661251
1789309748103098600,2.7280986328125,-0.3105752577561885,9.767892691582441,-0.8137544236868619
1789309748113110500,2.738110595703125,-0.28901938737249,9.771023390823602,-0.7835543696038425
1789309748123122700,2.748122802734375,-0.27023584951264784,9.773801038843393,-0.7550967752739787
1789309748133135600,2.758135498046875,-0.25389893761994314,9.776135034748911,-0.7301488695655017
1789309748143147800,2.768147705078125,-0.23899945638552306,9.778156895965337,-0.7077532056231052
1789309748153159700,2.77815966796875,-0.22477036695964633,9.78003262670934,-0.6861777720224111
1789309748163171600,2.788171630859375,-0.21158461257424205,9.781514974221587,-0.6690219814948737
1789309748173183700,2.798183837890625,-0.2004798657139763,9.782536718484758,-0.6574133037004619
1789309748183195600,2.808195556640625,-0.1911220173199661,9.783107211849092,-0.651685865964368
1789309748193207600,2.81820751953125,-0.18079234648542478,9.783207165092229,-0.6531131222885102
1789309748203220500,2.828220458984375,-0.1687755810804665,9.782976278945803,-0.659752998694405
1789309748213232600,2.838232666015625,-0.15338364015398545,9.782653038340806,-0.6682684597138315
1789309748223244500,2.84824462890625,-0.1357360292552039,9.782116447246073,-0.679842723781988
1789309748233256700,2.858256591796875,-0.11907628774945624,9.781262460765243,-0.6950707611173391
1789309748243268600,2.8682685546875,-0.10238304583290592,9.780002231571078,-0.7151661122281104
1789309748253280500,2.878280517578125,-0.08508775550313294,9.778081492641567,-0.7431397224333137
1789309748263293400,2.88829345703125,-0.06783315337677485,9.775251822173594,-0.7811641865316779
1789309748273305600,2.8983056640625,-0.0493651751389727,9.771502698773146,-0.8280536557395011
1789309748283317500,2.9083173828125,-0.02922424045396037,9.767032859882711,-0.880116947388649
1789309748293329700,2.91832958984375,-0.0094979532677331,9.762543731769918,-0.9289863383673131
1789309748303341600,2.928341552734375,0.005070685152191436,9.758621005368232,-0.9693748281832784
1789309748313353500,2.938353515625,0.013621941287495427,9.755666831737756,-0.9985882093165069
1789309748323366700,2.94836669921875,0.01976544786954764,9.753885793539881,-1.0157263180568814
1789309748333378600,2.958378662109375,0.02504181052002823,9.752914318159222,-1.0249017042897641
1789309748343390700,2.968390625,0.03062351964249974,9.752521519449353,-1.0284830699078737
1789309748353402600,2.978402587890625,0.03705576519668102,9.752539639627933,-1.028109487355128
1789309748363414500,2.98841455078125,0.04513974403024185,9.752736038982867,-1.0259143884636461
1789309748373426700,2.9984267578125,0.054420211772527545,9.753053434368967,-1.0224298342835159
1789309748383438600,3.0084384765625,0.064071951379464,9.753509945964813,-1.017507940776646
1789309748393451800,3.01845166015625,0.07366083205037284,9.754134215342997,-1.0108538897149264
1789309748403463700,3.028463623046875,0.08331951285474933,9.754809338125586,-1.0035525537256151
1789309748413475600,3.0384755859375,0.09368020901521668,9.755216165360808,-0.9986729649905115
1789309748423487700,3.04848779296875,0.10414349790047854,9.755255912849307,-0.9972449780140071
1789309748433499600,3.058499755859375,0.11332062856587581,9.755023273137212,-0.9985237657781689
1789309748443511800,3.06851171875,0.12007799387159757,9.75455974727869,-1.0022651442635804
1789309748453524500,3.0785244140625,0.1238832587729208,9.753938400509952,-1.007841336960718
1789309748463536600,3.08853662109375,0.12542014035084284,9.753294841909408,-1.013858186097443
1789309748473548500,3.098548583984375,0.1264058817188721,9.752553083631396,-1.0208383273083717
1789309748483560400,3.108560546875,0.12814781174906528,9.751703773325682,-1.0287121294233947
1789309748493572600,3.118572509765625,0.12939063315070234,9.75084978684485,-1.0366283824406564
1789309748503584500,3.12858447265625,0.1276750614044722,9.750039639505744,-1.044420862947777
1789309748513596400,3.138596435546875,0.1224773192314431,9.74912895440161,-1.0535091554190963
1789309748523609600,3.148609619140625,0.11464300887659191,9.74793886783421,-1.0653319143556057
1789309748533621500,3.15862158203125,0.10460423814686946,9.746552381911874,-1.0789710750643162
1789309748543633700,3.168633544921875,0.09303599282754585,9.745379246479272,-1.090563093984872
1789309748553645600,3.1786455078125,0.07673546742247417,9.744496618425845,-1.0996792243111877
1789309748563657500,3.188657470703125,0.05745200351674575,9.74389339183569,-1.1061940130326897
1789309748573669600,3.198669677734375,0.0389359940192895,9.7433316662997,-1.111920500920713
1789309748583682600,3.2086826171875,0.022144166549493093,9.74295874133408,-1.1156473394241184
1789309748593694700,3.21869482421875,0.005428809840901522,9.742687523177265,-1.1182041843000798
1789309748603706600,3.22870654296875,-0.010360109355289023,9.742539054617286,-1.1194766153886913
1789309748613718500,3.238718505859375,-0.029459138338512273,9.74255016053319,-1.119040123667568
1789309748623730700,3.248730712890625,-0.04150485356003046,9.742331549346446,-1.1205603920374065
1789309748633742600,3.25874267578125,-0.04391063149354886,9.741830614086984,-1.1248231640484183
1789309748643755800,3.268755859375,-0.04806164565919898,9.741489837825299,-1.1275885371085255
1789309748653767700,3.278767578125,-0.05367306036676746,9.74124433863163,-1.1294508969143033
1789309748663779800,3.28877978515625,-0.0522946572861867,9.740827574524284,-1.1331040856596082
1789309748673791700,3.298791748046875,-0.030530267851497046,9.740227855065465,-1.139043631776422
1789309748683803600,3.3088037109375,0.020967099293868523,9.739055888676642,-1.1492224228981882
1789309748693815800,3.31881591796875,0.08351424997556023,9.736917707604169,-1.1644093245055527
1789309748703827700,3.32882763671875,0.1355841631617397,9.734503632199763,-1.1795980527438223
1789309748713840600,3.338840576171875,0.17115398238329216,9.732373634433745,-1.1924687863633037
1789309748723852500,3.3488525390625,0.19501991980765013,9.730536482134461,-1.2037461133114993
1789309748733864400,3.358864501953125,0.2161675199177116,9.728838446044922,-1.2138220285806804
1789309748743876600,3.368876708984375,0.24330186628717929,9.726945764166116,-1.2238186680685728
1789309748753888500,3.378888427734375,0.2803596773104742,9.724406016555427,-1.2360099680565297
1789309748763900400,3.388900390625,0.3281134717300534,9.720772043967246,-1.2527220334045588
1789309748773913600,3.39891357421875,0.38745530301481484,9.71548504347503,-1.2765702342428267
1789309748783925500,3.408925537109375,0.45383214750289913,9.708761288177966,-1.3055262796141207
1789309748793937700,3.418937744140625,0.4710201963322237,9.706381699565052,-1.3170827157646416
1789309748803949600,3.428949462890625,0.46011546555608507,9.707197692123055,-1.3149141395539043
1789309748813961500,3.43896142578125,0.45869146063495425,9.707982705020903,-1.309609749535471
1789309748823973600,3.4489736328125,0.4601939741523936,9.708775316703319,-1.3031770861394703
1789309748833986600,3.458986572265625,0.45850667865257705,9.709581372389197,-1.2977582759611308
1789309748843998700,3.468998779296875,0.4591240798985585,9.710102765914797,-1.293628628810495
1789309748854010600,3.4790107421875,0.4595242581972852,9.710558692988753,-1.2900732744164765
1789309748864022800,3.489022705078125,0.458618249268271,9.71099182370901,-1.2871243614830077
1789309748874034700,3.49903466796875,0.45883254960607733,9.711388714072108,-1.2840573751278221
1789309748884046600,3.509046630859375,0.4590603670125827,9.711759885472059,-1.2811634072519837
1789309748894058800,3.519058837890625,0.4589718850115314,9.712106506952642,-1.2785673994094133
1789309748904071700,3.52907177734375,0.45920251542963086,9.71246540339291,-1.275748980987817
1789309748914082800,3.539082763671875,0.4594635044533759,9.712738959637283,-1.273573536644876
1789309748924095000,3.549094970703125,0.4592272480120882,9.712887428197265,-1.2725211049824952
1789309748934107000,3.55910693359375,0.45928336211349813,9.712946464908123,-1.2720587481677532
1789309748944119000,3.569119140625,0.4593878454012796,9.71300783970654,-1.2715507986456156
1789309748954131000,3.579130859375,0.45903925115931776,9.71311948338747,-1.2708248224586247
1789309748964143900,3.589143798828125,0.45877099214456973,9.713197224798797,-1.2703097125433385
1789309748974155800,3.59915576171875,0.4584712420130148,9.713188456970453,-1.2704950059823692
1789309748984168000,3.60916796875,0.45821953227426854,9.713076228767633,-1.2714464614883065
1789309748994179800,3.619179931640625,0.45782731808628885,9.712929513773322,-1.2727100516833365
1789309749004192000,3.62919189453125,0.4572965356778353,9.712801503479481,-1.27387851094082
1789309749014204000,3.639203857421875,0.4568108345201239,9.712760002425313,-1.274372431937605
1789309749024216800,3.649216796875,0.4563795304307714,9.712734283462167,-1.2747183227658272
1789309749034228700,3.659228759765625,0.45667756352927535,9.712684014579652,-1.274999331664294
1789309749044241000,3.669240966796875,0.4568647201318293,9.71259867438376,-1.2755734782904387
1789309749054252800,3.679252685546875,0.45670394007954745,9.712508073490858,-1.2763158210903405
1789309749064264700,3.6892646484375,0.4564917221009731,9.712418641641735,-1.2770812525048851
1789309749074276900,3.69927685546875,0.4562074252668768,9.712322195529937,-1.277918141720444
1789309749084289800,3.709289794921875,0.4561531743289903,9.712233932724594,-1.2786071468979119
1789309749094302000,3.719302001953125,0.4560400693433359,9.712166128185391,-1.2791570358656346
1789309749104313900,3.72931396484375,0.4558247826248407,9.71205506902635,-1.2800753197543322
1789309749114325800,3.73932568359375,0.45543618516605344,9.711910692119599,-1.2813146522909402
1789309749124338000,3.749337890625,0.45516463821567593,9.711773329475522,-1.2824518396273255
1789309749134349800,3.759349853515625,0.455223236535117,9.711629537090658,-1.2835235605120658
1789309749144362000,3.769362060546875,0.45505544222015887,9.711500942274927,-1.2845534880816936
1789309749154375000,3.779375,0.45486591099742796,9.711392805725335,-1.285435677743703
1789309749164387000,3.789386962890625,0.45469365970306097,9.711281746566295,-1.2863418328031897
1789309749174399000,3.79939892578125,0.4544145139681175,9.711184715932607,-1.2871676161028445
1789309749184411000,3.809410888671875,0.45429114331677556,9.711074241295456,-1.2880457141116262
1789309749194423000,3.819423095703125,0.45415074846539644,9.710966689267755,-1.2888980931572616
1789309749204435000,3.82943505859375,0.45375572126582264,9.71089713116288,-1.2895596258059143
1789309749214447900,3.83944775390625,0.4532919762115925,9.710854461064935,-1.2900403950601815
1789309749224459800,3.849459716796875,0.45282614879813043,9.71082465044856,-1.2904273485511542
1789309749234471700,3.8594716796875,0.4528359395397827,9.710777304175496,-1.2907837607733905
1789309749244483800,3.86948388671875,0.45286560402568427,9.710715344855188,-1.2912519628070294
1789309749254495700,3.879495849609375,0.4530130862049758,9.71063584987819,-1.2917835854656994
1789309749264507600,3.889507568359375,0.4532149654526263,9.71056512272954,-1.2922428735405207
1789309749274520800,3.899520751953125,0.4530843613428995,9.710512515759467,-1.292689740525186
1789309749284532700,3.90953271484375,0.4529447702091187,9.7104879658401,-1.292922964759171
1789309749294545000,3.919544921875,0.45254298447519536,9.710492057493328,-1.293040453658998
1789309749304556800,3.929556884765625,0.4520468715213239,9.710466923052072,-1.2933967197507619
1789309749314568700,3.939568603515625,0.45182058848477896,9.710378660246729,-1.2941333634622394
1789309749324580900,3.949580810546875,0.4515838571194559,9.71028513674438,-1.294925829014182
1789309749334592800,3.9595927734375,0.45150911138281224,9.710232529774308,-1.2953525299936532
1789309749344606000,3.96960595703125,0.4507155133197084,9.710206810811162,-1.295822047201544
1789309749354617900,3.979617919921875,0.45044663325045253,9.7101536193192,-1.2963072003699838
1789309749364630000,3.989630126953125,0.45021764680016785,9.71006068033874,-1.2970781847424804
1789309749374642000,3.999641845703125,0.450079772699438,9.709936177176237,-1.2980493678621947
1789309749384653800,4.00965380859375,0.4502375570770353,9.709785370528698,-1.2991349711418152
1789309749394666000,4.019666015625,0.450344195789285,9.709604753264784,-1.30044050078243
1789309749404679000,4.029678955078125,0.4505561215069145,9.70940718486607,-1.3018383848816155
1789309749414691000,4.039691162109375,0.4509554230228066,9.709207862901687,-1.303198128927499
1789309749424703000,4.049702880859375,0.4511606998039409,9.709028999203444,-1.304446813814342
1789309749434715000,4.05971484375,0.4512328882573172,9.70873907634616,-1.3065836797125636
1789309749444727000,4.06972705078125,0.45062830996029074,9.708407652434706,-1.30925728283599
1789309749454739000,4.079739013671875,0.45036048933696,9.70812065218687,-1.3114692597970365
1789309749464750800,4.089750732421875,0.45068643335569647,9.707872230383753,-1.313207481766492
1789309749474763800,4.099763671875,0.45052547064032405,9.707610364577173,-1.3151893032334745
1789309749484775700,4.109775634765625,0.45040462073963133,9.707311089369654,-1.317446726771444
1789309749494787800,4.119787841796875,0.45020496998168524,9.706929396575688,-1.320316729249805
1789309749504799700,4.1297998046875,0.44998497055545444,9.706364163908361,-1.3245343469448387
1789309749514811600,4.139811767578125,0.44940892423316836,9.705465753763914,-1.3312877667278051
1789309749524823800,4.14982373046875,0.44963385556284335,9.704319506338239,-1.33954063128829
1789309749534835700,4.159835693359375,0.4516414690582081,9.703094932979345,-1.3477227687001228
1789309749544849000,4.169848876953125,0.45836814696472133,9.701669868612289,-1.3556922862745822
1789309749554860800,4.17986083984375,0.468488595495373,9.700115040385722,-1.3633378325916825
1789309749564873000,4.189873046875,0.4803154826177284,9.69871803306937,-1.3691544099159538
1789309749574884900,4.199884765625,0.49177894325517113,9.697179571455717,-1.3759613134518265
1789309749584896800,4.209896728515625,0.5026481643265113,9.695463999709487,-1.384086459979415
1789309749594909000,4.219908935546875,0.5109306568402797,9.69368471507728,-1.3934898097492754
1789309749604921900,4.229921875,0.5182856227129697,9.692072019183636,-1.4019694688029587
1789309749614934000,4.23993408203125,0.5253866138245911,9.690803022161125,-1.408084444551915
1789309749624946000,4.24994580078125,0.5325126663122326,9.689761988675594,-1.4125608593136072
1789309749634957800,4.259957763671875,0.5393258169258013,9.688926706895232,-1.41570310286209
1789309749644970000,4.269969970703125,0.5456140303498134,9.68825684480965,-1.4178789855964482
1789309749654982000,4.27998193359375,0.5521135849695652,9.687664139613508,-1.4194148168615996
1789309749664993800,4.289993896484375,0.5592617031585425,9.687130471128224,-1.4202563822522758
1789309749675007000,4.300007080078125,0.5663114024743438,9.686602063339947,-1.4210602459810673
1789309749685019000,4.310018798828125,0.5727625148424879,9.686037999716401,-1.4223255897417664
1789309749695031000,4.320031005859375,0.5789545744156465,9.685398532769083,-1.4241779396101832
1789309749705043000,4.33004296875,0.5852753749350086,9.684729255205392,-1.4261448557689784
1789309749715055000,4.34005517578125,0.5919700137354433,9.684106739392876,-1.4276007536657154
1789309749725067000,4.35006689453125,0.598730447781086,9.68359469821751,-1.4282577562697232
1789309749735079000,4.360078857421875,0.6063337258590384,9.683099023655057,-1.4284018409155308
1789309749745091800,4.370091796875,0.6151202954374253,9.682581721782684,-1.4281512271553276
1789309749755103700,4.380103759765625,0.6249959388941526,9.682001291546225,-1.4277993449777364
1789309749765116000,4.390115966796875,0.6354832114432006,9.681333183026313,-1.4277046524316073
1789309749775127800,4.4001279296875,0.6458801753602922,9.680525958296656,-1.4285187452934682
1789309749785139700,4.4101396484375,0.6565914659235627,9.679572603094577,-1.4300870175234972
1789309749795152000,4.42015185546875,0.6671037267833948,9.678602881279588,-1.4317797929160296
1789309749805163800,4.430163818359375,0.6789335730478168,9.677783381590247,-1.4317651798687874
1789309749815177000,4.440177001953125,0.6918445656124502,9.676880295270681,-1.4316890458926557
1789309749825188900,4.45018896484375,0.7050017880231142,9.675977208951116,-1.4313764728121459
1789309749835200800,4.46020068359375,0.7163480154890567,9.675245387545228,-1.4306911208964883
1789309749845213000,4.470212890625,0.7262056118324398,9.674449853253364,-1.4311007246106862
1789309749855224800,4.480224853515625,0.7344209208615123,9.67354442884624,-1.4330242400191724
1789309749865236700,4.49023681640625,0.7407927939809859,9.672604517647624,-1.4360783668927848
1789309749875250000,4.50025,0.7449865193437785,9.671728903856874,-1.4398064475052057
1789309749885261800,4.51026171875,0.7485280644081532,9.670887776857613,-1.443608762397617
1789309749895274000,4.52027392578125,0.7515122678507119,9.670153032842277,-1.446982622744888
1789309749905286000,4.530285888671875,0.7538599269554018,9.669549806252121,-1.4497921272076666
1789309749915298600,4.540298583984375,0.7552837492134422,9.669164606326818,-1.4516172968082128
1789309749925310700,4.550310791015625,0.7551545698758214,9.668969960537552,-1.4529802557244895
1789309749935322600,4.560322509765625,0.7544577467180789,9.668804540842771,-1.4544402452744543
1789309749945335300,4.570335205078125,0.7537430225774645,9.668575408262013,-1.4563336578056216
1789309749955347500,4.580347412109375,0.7530518985081464,9.668234632000326,-1.4589460322611032
1789309749965359400,4.590359375,0.7521572146907448,9.667768768054247,-1.4624895500868558
1789309749975371500,4.60037158203125,0.7517276641670614,9.667211134171485,-1.466398978615552
1789309749985383400,4.610383544921875,0.7510368323586881,9.666694416821002,-1.4701615460194646
1789309749995395300,4.620395263671875,0.7495932094216347,9.666341365599632,-1.4732127502836285
1789309750005407500,4.630407470703125,0.7487181801527738,9.666107556843757,-1.475197348229587
1789309750015420400,4.64042041015625,0.7479857011597603,9.665984222725033,-1.4763700452707706
1789309750025432600,4.6504326171875,0.7465691123601049,9.666125092500447,-1.476165316478908
1789309750035444500,4.660444580078125,0.745369673442468,9.666465868762135,-1.4745317239277065
1789309750045456400,4.670456298828125,0.7441874779205769,9.666725396481155,-1.4734338456884026
1789309750055468500,4.680468505859375,0.7428179431330412,9.666917119660972,-1.4728610142365097
1789309750065480400,4.69048046875,0.7411152308683842,9.66718249259889,-1.471976632617414
1789309750075492400,4.700492431640625,0.7390298759616911,9.66759341148734,-1.4703282808884977
1789309750085504500,4.71050439453125,0.7366529907625168,9.667921328267454,-1.4693695188589393
1789309750095517400,4.720517333984375,0.7349008133329451,9.668120065709948,-1.4689378494434058
1789309750105529600,4.730529541015625,0.734215972873941,9.668279055663943,-1.468228532130271
1789309750115541500,4.74054150390625,0.7345076492968946,9.668459088405966,-1.4668946531780063
1789309750125553700,4.7505537109375,0.7355239136673509,9.668718616124988,-1.4646695244744419
1789309750135565600,4.760565673828125,0.7365834326576441,9.669096801787614,-1.4616411165639758
1789309750145577500,4.770577392578125,0.7371386553876101,9.669581954956055,-1.4581469908379017
1789309750155589600,4.780589599609375,0.7372826669681817,9.6701460185796,-1.4543300628982483
1789309750165602600,4.7906025390625,0.7372218036264181,9.670864980503916,-1.4495741005428135
1789309750175614700,4.80061474609375,0.737299764233455,9.67143722743392,-1.4457093879386782
1789309750185626600,4.810626708984375,0.7374957251969725,9.671824765446782,-1.4430135729834437
1789309750195638500,4.820638427734375,0.7381324156653135,9.672139238223433,-1.4405784547910094
1789309750205650700,4.830650634765625,0.7384871473871171,9.672487028747797,-1.4380559505760668
1789309750215662600,4.84066259765625,0.7387402453653514,9.672883919110893,-1.4352457154609262
1789309750225674500,4.850674560546875,0.7386958217017352,9.673303605827689,-1.4324537466548382
1789309750235687400,4.8606875,0.7387278973404318,9.673807463696598,-1.4290239183366298
1789309750245699300,4.87069921875,0.7393249133855104,9.674242347982526,-1.4257653549320994
1789309750255711500,4.88071142578125,0.7397884392440318,9.674559743368626,-1.4233743681423365
1789309750265723400,4.890723388671875,0.7401443400096148,9.674830961525439,-1.4213469539679586
1789309750275735300,4.9007353515625,0.7404763484429567,9.675111532032489,-1.4192588956475256
1789309750285747500,4.91074755859375,0.7405909147333354,9.675434188115597,-1.4169934349335729
1789309750295759400,4.92075927734375,0.7409650087427347,9.675770288202166,-1.4145057097710667
1789309750305772500,4.9307724609375,0.7414840641807764,9.676068978887796,-1.4121930489145218
1789309750315784400,4.940784423828125,0.741863053561002,9.67632266138792,-1.4102511210665105
1789309750325796600,4.950796630859375,0.7420633984386921,9.676562315362691,-1.4084981399193406
1789309750335808500,4.96080859375,0.7423237298753113,9.676782095593213,-1.4068449658848345
1789309750345820400,4.9708203125,0.7418944716125726,9.677036947137116,-1.405320240535587
1789309750355832600,4.98083251953125,0.7410535638090222,9.67727426302433,-1.40413950631842
1789309750365844500,4.990844482421875,0.7403940769869833,9.67753203717768,-1.4027055279925464
1789309750375857700,5.000857666015625,0.7396885590661316,9.677668230777979,-1.4021286048874257
1789309750385869600,5.01086962890625,0.7388554692428558,9.677693365219234,-1.4024078602202237
1789309750395881500,5.020881591796875,0.7383818603817373,9.677754155495762,-1.4022332343056798
1789309750405893600,5.0308935546875,0.738407433214411,9.677841249257325,-1.401621678278595
1789309750415905500,5.040905517578125,0.7388632872231304,9.677840664735436,-1.4013807091295718
1789309750425917400,5.05091748046875,0.7395940857157111,9.677783381590247,-1.4013883079141378
1789309750435929600,5.0609296875,0.740761302864179,9.677755324539541,-1.4009667215012014
1789309750445942500,5.070942626953125,0.7412185451123863,9.677853524217008,-1.4000532599180937
1789309750455954400,5.080954345703125,0.7414074187479913,9.677887426486611,-1.3997149678744374
1789309750465966300,5.09096630859375,0.7410757025755942,9.677896778836846,-1.399828803512454
1789309750475978500,5.100978515625,0.7406554313369095,9.677797410115598,-1.4007289672225713
1789309750485990400,5.110990478515625,0.741082936033979,9.677682259303332,-1.401295807325095
1789309750496002600,5.12100244140625,0.7422666659258306,9.677577045363186,-1.4013989754386245
1789309750506014500,5.131014404296875,0.7435372703835368,9.677353758001328,-1.4022737124465405
1789309750516026600,5.141026611328125,0.7436715642876922,9.677170218127966,-1.40346365288347
1789309750526039600,5.15103955078125,0.7432735048808157,9.677173725259303,-1.4036496769748628
1789309750536051500,5.161051513671875,0.742707322365418,9.677376554355025,-1.4025576439544558
1789309750546063400,5.1710634765625,0.7426631178975105,9.677622053548694,-1.400879627739638
1789309750556075500,5.181075439453125,0.7431817349441349,9.677653033208847,-1.400388483221829
1789309750566087400,5.19108740234375,0.7432366800017655,9.677300566509366,-1.402791306579858
1789309750576099300,5.201099365234375,0.7420132026214152,9.67679144794345,-1.4069434578232467
1789309750586111500,5.211111572265625,0.7398088244449347,9.676412093237042,-1.4107171311430633
1789309750596124400,5.22112451171875,0.7389797532096505,9.67639689566791,-1.4112548912815748
1789309750606136600,5.231136474609375,0.7401477740757166,9.676550624924898,-1.409589296156913
1789309750616148500,5.2411484375,0.7433506617702543,9.67656582249403,-1.4078038740448653
1789309750626160400,5.251160400390625,0.7466264685705304,9.676350133916735,-1.4075385011069477
1789309750636172500,5.261172607421875,0.7479176043596119,9.676058457493781,-1.408868434536457
1789309750646184400,5.271184326171875,0.7477128025025129,9.675629418426752,-1.4119143781036139
1789309750656196600,5.281196533203125,0.7470321267619728,9.675582072153686,-1.4126077671952544
1789309750666209500,5.29120947265625,0.747256071710959,9.675712420535087,-1.41159975919649
1789309750676221700,5.3012216796875,0.7477369870956987,9.675591424503923,-1.4121626537762582
1789309750686233600,5.311233642578125,0.7475847922086716,9.675495562914014,-1.4129036814019083
1789309750696245500,5.32124560546875,0.7465384249608963,9.675531218749285,-1.4132159622214733
1789309750706257700,5.331257568359375,0.744564275343716,9.675438279768825,-1.4148898867830633
1789309750716269600,5.34126953125,0.743364032708481,9.67503495966494,-1.4182738301329314
1789309750726281500,5.351281494140625,0.7436562936533242,9.674598906335234,-1.4210921024240553
1789309750736294400,5.36129443359375,0.7423720990616828,9.674263390770554,-1.4240487602725624
1789309750746306300,5.371306396484375,0.7441559137385338,9.673832013615966,-1.4260411031335591
1789309750756318500,5.381318359375,0.74610719393678,9.673685883143543,-1.4260142151266335
1789309750766330400,5.391330322265625,0.7473315480999648,9.673087917250394,-1.4294140866979956
1789309750776342300,5.40134228515625,0.7475982362121343,9.67221756415665,-1.4351616904392837
1789309750786354400,5.4113544921875,0.7471076762162149,9.671662852883339,-1.4391528059020637
1789309750796366300,5.421366455078125,0.7461047097187489,9.671500355798006,-1.4407622869253158
1789309750806379500,5.431379638671875,0.7450896143920719,9.671422029864788,-1.4418074120640754
1789309750816391400,5.441391357421875,0.7446336873181164,9.671351302716136,-1.4425237436398863
1789309750826403300,5.4514033203125,0.7445173674620688,9.67138111333251,-1.4423830199949443
1789309750836415500,5.46141552734375,0.7450408068142831,9.671445995262264,-1.4416744333341718
1789309750846427400,5.471427490234375,0.745197093354538,9.67136065506637,-1.442164554938674
1789309750856439600,5.481439453125,0.7448307442601769,9.671033907330036,-1.4445434128992258
1789309750866451500,5.491451416015625,0.7439970699150115,9.670752167779206,-1.4468541740596295
1789309750876464600,5.501464599609375,0.7436842045735568,9.6707299559474,-1.4471706926628947
1789309750886476500,5.5114765625,0.7444982974354177,9.67096844087839,-1.4451529230996965
1789309750896488400,5.521488525390625,0.7456579157993197,9.671260117301344,-1.4426017773121595
1789309750906500600,5.53150048828125,0.7464972892329096,9.671389881160854,-1.4413032619342208
1789309750916512000,5.541511962890625,0.7467080093741416,9.67141676916778,-1.4410171384692192
1789309750926524200,5.551524169921875,0.7463112651415169,9.671457685700059,-1.440940127710253
1789309750936536000,5.5615361328125,0.7459312528479843,9.671557638943195,-1.440466372718662
1789309750946549200,5.57154931640625,0.7453687966596335,9.671590372169018,-1.4405455754347145
1789309750956561200,5.58156103515625,0.7453719384647906,9.671533089023828,-1.4409234688363968
1789309750966573300,5.5915732421875,0.7456354117065668,9.671502109363674,-1.4409974108554422
1789309750976585200,5.601585205078125,0.7459980344738811,9.671460608309507,-1.4410897653140127
1789309750986597000,5.61159716796875,0.7453367940861731,9.671573421034216,-1.4406749009028077
1789309750996609300,5.621609375,0.7450391993790865,9.671537180677056,-1.4410703299611807
1789309751006621200,5.63162109375,0.7449670109257102,9.67141443108022,-1.4419273851819336
1789309751016634000,5.641634033203125,0.7450344501387327,9.671368838372826,-1.4422009414263068
1789309751026646000,5.65164599609375,0.7451234435964376,9.67137994428873,-1.4420806760475038
1789309751036658200,5.661658203125,0.7451373259913175,9.671354809847474,-1.442238058566302
1789309751046670000,5.671670166015625,0.7450648452769965,9.671217447203396,-1.4432006199881433
1789309751056682000,5.681681884765625,0.7451050311569124,9.67100877288878,-1.4445778996907175
1789309751066694100,5.691694091796875,0.7450823078684509,9.67078314743936,-1.4461043786056338
1789309751076706000,5.7017060546875,0.7449575855102389,9.670630587226151,-1.4471753688380122
1789309751086719000,5.711718994140625,0.7447690772008151,9.670599023044108,-1.447480635394901
1789309751096731100,5.721731201171875,0.7440773686096072,9.670547585117816,-1.4481861533157527
1789309751106743000,5.731742919921875,0.7431501707620918,9.670434187871217,-1.4494262165047227
1789309751116755000,5.7417548828125,0.7429132202010601,9.67029799427092,-1.4504425539404153
1789309751126767000,5.75176708984375,0.7425466519109905,9.670189273199439,-1.451362299133837
1789309751136779000,5.761779052734375,0.7425527893908321,9.670174660152197,-1.451454069070518
1789309751146791200,5.771791259765625,0.7427900322128087,9.670137250751257,-1.4515842713214455
1789309751156804000,5.78180419921875,0.7430752788949757,9.669891751557588,-1.4530759711839258
1789309751166816300,5.791816162109375,0.7431919640772044,9.669206107380985,-1.4575709445156155
1789309751176828200,5.801828125,0.7436393425185233,9.66874901126325,-1.4603653975397348
1789309751186840000,5.811840087890625,0.7446428935378789,9.668727968475222,-1.460008108534664
1789309751196852200,5.821852294921875,0.7449089971281587,9.668670100808143,-1.4602489315532148
1789309751206864100,5.831864013671875,0.7449568548578769,9.668454996752738,-1.4616412626944482
1789309751216876000,5.8418759765625,0.7450952404152602,9.668227617737651,-1.4630844472400844
1789309751226889200,5.85188916015625,0.7457663446098566,9.66811655857861,-1.4634733004271983
1789309751236901000,5.861901123046875,0.7469554813291877,9.667882749822736,-1.4644048821888864
1789309751246913300,5.871913330078125,0.746936192106828,9.667523268860577,-1.4667862243674694
1789309751256925200,5.88192529296875,0.7476798500809818,9.666982586112617,-1.4699636853598057
1789309751266937000,5.89193701171875,0.7486603855509311,9.66651146146953,-1.4725659768126904
1789309751276949200,5.90194921875,0.7491635127674788,9.666237905225158,-1.4741051690787077
1789309751286961200,5.911961181640625,0.7487090469982475,9.665957334718108,-1.4761721846111118
1789309751296974000,5.92197412109375,0.7475060278840363,9.665602529931068,-1.4791041464097796
1789309751306986000,5.931986083984375,0.7460467689864337,9.665218499049544,-1.4823499964632092
1789309751316998000,5.941997802734375,0.7441152164019644,9.664948449936508,-1.4850832208193838
1789309751327010000,5.952010009765625,0.7427704507295042,9.664800565898418,-1.4867115526735781
1789309751337022000,5.96202197265625,0.74150539922975,9.664807580161094,-1.4872970974765718
1789309751347034000,5.9720341796875,0.7403772719826549,9.664781276676058,-1.4880362254060804
1789309751357046000,5.9820458984375,0.7392498753879219,9.664773677891493,-1.4886371139086783
1789309751367059200,5.99205908203125,0.7384324945904314,9.664724578052759,-1.4893578293986618
1789309751377071000,6.002071044921875,0.7374972595669329,9.664642160466313,-1.4903551698729396
1789309751387083000,6.0120830078125,0.7358280111804604,9.66455506670475,-1.4917534923635423
1789309751397095200,6.02209521484375,0.7343319274038076,9.66442413380146,-1.4933368160322307
1789309751407107000,6.032107177734375,0.7337548581682145,9.664286771157384,-1.4945014758974313
1789309751417119000,6.042118896484375,0.7330809774946421,9.664090956324339,-1.4961029197447
1789309751427131100,6.052131103515625,0.7325386873114854,9.663825583386421,-1.498083572167903
1789309751437144000,6.06214404296875,0.7316068863540888,9.663497082084417,-1.5006497693940997
1789309751447156200,6.07215625,0.7307232353873551,9.663238723409176,-1.5027522946313023
1789309751457168100,6.082168212890625,0.7303547674011439,9.662978026646375,-1.5046023064121603
1789309751467180000,6.092179931640625,0.7303542559444904,9.662660046738386,-1.5066425800681114
1789309751477192200,6.102192138671875,0.730261243898794,9.662299396732449,-1.509006094329059
1789309751487204000,6.1122041015625,0.7296514414373785,9.6619621276021,-1.5114548026554286
1789309751497216300,6.12221630859375,0.7284145200535654,9.66162836560309,-1.5141805743575096
1789309751507228200,6.132228271484375,0.726964978832379,9.661472882780432,-1.5158688197053969
1789309751517241000,6.142240966796875,0.7269609602443874,9.661448332861065,-1.5160251793108879
1789309751527253200,6.152253173828125,0.728483347506076,9.661054365107416,-1.5178040255516767
1789309751537265200,6.16226513671875,0.728921738923341,9.66024538681209,-1.5227321296036243
1789309751547277300,6.17227734375,0.7281271544795483,9.65938964676559,-1.5285283947922288
1789309751557289200,6.182289306640625,0.726551210399717,9.658783497565985,-1.5331072470150886
1789309751567301000,6.192301025390625,0.7255149261545389,9.658145784184336,-1.5376171256549656
1789309751577313300,6.202313232421875,0.7243742316868156,9.657502810105681,-1.542174058306962
1789309751587326000,6.212325927734375,0.7228883770432323,9.65700187484622,-1.5460041379891336
1789309751597338000,6.222338134765625,0.7217663872759789,9.656694416332245,-1.5484414481386541
1789309751607350000,6.23235009765625,0.7205985856056213,9.656623689183592,-1.5494304591760037
1789309751617362000,6.24236181640625,0.7190618044923991,9.656734748342632,-1.5494614388361572
1789309751627374000,6.2523740234375,0.7166037438157945,9.656970895186067,-1.549127969098091
1789309751637386000,6.262385986328125,0.7128500173054635,9.657376553377508,-1.5483300967186688
1789309751647398100,6.272398193359375,0.7085020512290299,9.657943539610505,-1.546785497625172
1789309751657411000,6.2824111328125,0.7046365349072963,9.658550273331999,-1.544757352798432
1789309751667423000,6.292423095703125,0.7016366955041885,9.659156422531604,-1.542337578305602
1789309751677435100,6.30243505859375,0.7000017147134989,9.65977776930034,-1.5391795526660978
1789309751687447000,6.312447021484375,0.6991063733089715,9.660509590706228,-1.5349863387599587
1789309751697459200,6.322459228515625,0.6987292105596512,9.661172438529134,-1.5309893780782817
1789309751707471000,6.33247119140625,0.6991695747382939,9.661573420545459,-1.5282478242851794
1789309751717484300,6.342484375,0.6991933209400624,9.661984923955798,-1.5256342807859182
1789309751727496200,6.35249609375,0.6981685810022056,9.662589319589733,-1.5222760563991964
1789309751737508000,6.362508056640625,0.6963963106326758,9.663353289699554,-1.5182361333586274
1789309751747520300,6.372520263671875,0.6944331938661634,9.664160514429211,-1.5139840288721025
1789309751757532200,6.3825322265625,0.6926303091626614,9.664935005933046,-1.509854089460522
1789309751767544000,6.3925439453125,0.6912252646703273,9.665649291682243,-1.5059205494038759
1789309751777556200,6.40255615234375,0.6899836671113968,9.666375267869233,-1.5018343030035495
1789309751787569200,6.412569091796875,0.688705244673416,9.667173140248655,-1.497270502219349
1789309751797581300,6.422581298828125,0.6872017813079059,9.668000823244451,-1.4926144931070506
1789309751807593200,6.43259326171875,0.68544332026802,9.66871452447176,-1.4887906970351934
1789309751817605000,6.442605224609375,0.6837902923639864,9.669417119783162,-1.4849870669685303
1789309751827617300,6.4526171875,0.6824442115172743,9.670063600993156,-1.4813924034774302
1789309751837629200,6.462629150390625,0.6813287245560437,9.670772041523456,-1.4772783922873436
1789309751847641300,6.472641357421875,0.6801799929123371,9.671538934242724,-1.47277655082345
1789309751857654000,6.482654052734375,0.678992609758675,9.67238707550466,-1.4677502470940351
1789309751867666000,6.492666015625,0.6777359607610851,9.673212420412897,-1.4628833717100322
1789309751877678000,6.502677978515625,0.6760977651000023,9.673930213293433,-1.4588848035931585
1789309751887690000,6.51268994140625,0.6745646372485905,9.67445979012549,-1.4560885970033703
1789309751897702100,6.5227021484375,0.6725263363540173,9.674949034947156,-1.453774328711629
1789309751907714000,6.532714111328125,0.6695686555922031,9.675656890955567,-1.450431740285456
1789309751917726700,6.542726806640625,0.666324339908734,9.676555885621905,-1.445914847382903
1789309751927740000,6.552739990234375,0.662568567571789,9.677575876319407,-1.4408061260670422
1789309751937751800,6.562751708984375,0.658607628051564,9.6786531501621,-1.4353740180157124
1789309751947763700,6.572763671875,0.6548465219523757,9.679652682593463,-1.430352390461415
1789309751957776000,6.58277587890625,0.6506726703338325,9.680532388037443,-1.4262883558928965
1789309751967787800,6.592787841796875,0.6453534480724483,9.681308048585057,-1.4234342816360295
1789309751977800000,6.602800048828125,0.6392690135922282,9.681870358642936,-1.4223603687942028
1789309751987811800,6.612811767578125,0.6330054231528193,9.682204705163835,-1.4228890688434241
1789309751997823700,6.62282373046875,0.6264120162371546,9.68256710873544,-1.4233365203499793
1789309752007837000,6.6328369140625,0.6203473093707114,9.683115974789857,-1.4222623152472078
1789309752017848800,6.642848876953125,0.6135782536271959,9.683788759484887,-1.4206174706496297
1789309752027861000,6.652861083984375,0.6047029828520492,9.684620534133911,-1.4187458315588533
1789309752037873000,6.662872802734375,0.5930413692940026,9.685530050194263,-1.4174614908367396
1789309752047884800,6.672884765625,0.5794152141973375,9.686348965361713,-1.4175111751973628
1789309752057897000,6.68289697265625,0.563863315202482,9.687161450788379,-1.4182219538152216
1789309752067909600,6.69290966796875,0.5470228742344304,9.68844564538002,-1.41603861842677
1789309752077921800,6.702921875,0.5338038751665503,9.690063601970673,-1.409998315349221
1789309752087933700,6.71293359375,0.5218043348910286,9.691487497293949,-1.404706492551416
1789309752097945600,6.722945556640625,0.5110442002173513,9.692740712225437,-1.4000009452089666
1789309752107957800,6.732957763671875,0.5013595492880791,9.693969961759448,-1.3949921771362424
1789309752117969700,6.7429697265625,0.4941263466315344,9.695079384306073,-1.389831287241727
1789309752127981800,6.75298193359375,0.48626134887747463,9.696189391374588,-1.3848619743965564
1789309752137994800,6.762994873046875,0.4791660933868959,9.697158528667687,-1.380544257327914
1789309752148006700,6.773006591796875,0.471310046124272,9.697515087020397,-1.3807435792922973
1789309752158018800,6.783018798828125,0.4622901061814278,9.69730290557444,-1.3852739161983132
1789309752168030700,6.79303076171875,0.453398176532425,9.696974404272437,-1.3905068484157324
1789309752178043000,6.80304296875,0.4448336156742647,9.696865683200954,-1.394024793408811
1789309752188054800,6.8130546875,0.43710123132392764,9.69683528806269,-1.3966738466128705
1789309752198066700,6.823066650390625,0.43005902119483796,9.69668623498082,-1.3998933931812643
1789309752208080000,6.833079833984375,0.4217994346326217,9.696262456610798,-1.4053325154952705
1789309752218091800,6.843091796875,0.4124508472573012,9.695595517134667,-1.4126855086065828
1789309752228104000,6.85310400390625,0.4029262822605669,9.694751467525958,-1.4212097374543546
1789309752238115800,6.86311572265625,0.39479908990636464,9.693819739633797,-1.4298101002782582
1789309752248127700,6.873127685546875,0.388909228150174,9.693149293026327,-1.4359642389938234
1789309752258140000,6.883139892578125,0.3854080881614238,9.692992641159892,-1.4379698797278104
1789309752268151800,6.89315185546875,0.38341249389741566,9.693151046591996,-1.4374389877215028
1789309752278164700,6.903164794921875,0.38141463461108505,9.693201315474509,-1.437631733814627
1789309752288177000,6.913177001953125,0.3784738319188356,9.692826052421331,-1.4409281450115143
1789309752298188800,6.923188720703125,0.37370712897367775,9.692048053786158,-1.4473944184161722
1789309752308201000,6.933200927734375,0.36760311301015314,9.690828741124271,-1.4570868142604827
1789309752318212900,6.943212890625,0.36132081787027415,9.689189157223701,-1.4694978214137255
1789309752328225000,6.95322509765625,0.3559850098002702,9.687339729964732,-1.4829402174413204
1789309752338237700,6.96323779296875,0.3518927355179563,9.68547978131175,-1.4960123188517986
1789309752348249600,6.97324951171875,0.3488789771873504,9.683769470262527,-1.507734905349463
1789309752358261800,6.98326171875,0.3466215901819989,9.682191845682263,-1.5183520148232579
1789309752368273700,6.993273681640625,0.345171574036777,9.680770288446546,-1.5277181013226508
1789309752378285800,7.003285888671875,0.34585860645286737,9.679673725381493,-1.534497386199236
1789309752388297700,7.013297607421875,0.34803967681899667,9.678924952840804,-1.5387201184608041
1789309752398309600,7.0233095703125,0.35015820334292946,9.678329325035214,-1.5419855499975383
1789309752408322800,7.03332275390625,0.3516963361630216,9.677940617978573,-1.5440806225806474
1789309752418334700,7.043334716796875,0.35348632485233245,9.677774613761901,-1.5447069377854465
1789309752428347000,7.053346923828125,0.3556239944681525,9.677489367079735,-1.5460102754689753
1789309752438358800,7.06335888671875,0.3568533536000177,9.677054482793807,-1.5484322419188916
1789309752448370700,7.07337060546875,0.3573724455706775,9.67678969437778,-1.5499762564904986
1789309752458382800,7.0833828125,0.35711620578728615,9.676556470143794,-1.5514885607495903
1789309752468395800,7.093395751953125,0.3576093961317092,9.67631973877847,-1.5528551729276776
1789309752478408000,7.103407958984375,0.35966150635592636,9.676093528807163,-1.5537899695597588
1789309752488419800,7.113419921875,0.3629901027893647,9.675916418674587,-1.5541118949905037
1789309752498431700,7.123431640625,0.36661662272345275,9.675740477585792,-1.5543515489652753
1789309752508444000,7.13344384765625,0.3685716657813638,9.675460491600631,-1.5556332593388855
1789309752518455800,7.143455810546875,0.36924101641029117,9.675104517769814,-1.5576887305639684
1789309752528468000,7.153468017578125,0.36959647878445684,9.674591307550669,-1.5607929801896214
1789309752538480600,7.163480712890625,0.3702268856424838,9.67412252099514,-1.5635510467261076
1789309752548492500,7.173492431640625,0.3712042427746579,9.673789928039907,-1.5653763624571262
1789309752558504700,7.183504638671875,0.37223073627818376,9.673657826092839,-1.5659413028635083
1789309752568516600,7.1935166015625,0.3739817811965942,9.673595866772532,-1.5659028705492615
1789309752578528800,7.20352880859375,0.3762427118659019,9.673474870741368,-1.5661118371248244
1789309752588540700,7.213540771484375,0.37881223356034605,9.673252167901396,-1.566877268539369
1789309752598552600,7.223552490234375,0.3804443282742053,9.672902039289474,-1.5686428169071673
1789309752608565800,7.233565673828125,0.3811349774194881,9.672532036933303,-1.5707476802319287
1789309752618577700,7.24357763671875,0.38139574724752456,9.67231284122467,-1.5720423962175845
1789309752628589800,7.25358984375,0.38211617047656327,9.672215226069092,-1.5724604754991829
1789309752638601700,7.263601806640625,0.38364012864083047,9.672165541708468,-1.5723931093513965
1789309752648613600,7.273613525390625,0.3854142987065017,9.672146837007999,-1.5720748371824622
1789309752658625800,7.283625732421875,0.38635643839482214,9.672180154755711,-1.571634253808111
1789309752668637700,7.2936376953125,0.3865242692423984,9.672208211806415,-1.5714266024067998
1789309752678651000,7.30365087890625,0.3867322129046544,9.672177816668153,-1.5715613347023725
1789309752688662800,7.313662841796875,0.3865707387326285,9.67193933173716,-1.573058003000915
1789309752698674700,7.3236748046875,0.3870589241083711,9.671495095100997,-1.575667016455531
1789309752708686800,7.333686767578125,0.38814730386696755,9.67102689306736,-1.5782880126088856
1789309752718698800,7.34369873046875,0.38960364015512167,9.670478027012944,-1.5812812030754984
1789309752728711000,7.3537109375,0.39134759774561967,9.669735684213041,-1.5853768018260597
1789309752738723800,7.363723876953125,0.3932937268447131,9.668837274068594,-1.5903763636790216
1789309752748736000,7.373736083984375,0.3960625339709222,9.667826051199436,-1.5958312680840492
1789309752758748000,7.383747802734375,0.39772210121359675,9.666749361878633,-1.6019228629574178
1789309752768759800,7.393759765625,0.3998104883275926,9.66554583130777,-1.6086455953411758
1789309752778772000,7.40377197265625,0.40128534665312615,9.664382632747293,-1.6152559533916413
1789309752788783900,7.413783935546875,0.40321689923759546,9.663198391398787,-1.6218508216120302
1789309752798795800,7.423795654296875,0.405392160917446,9.662067341542244,-1.6280352093353867
1789309752808808000,7.433807861328125,0.40751762863881885,9.660989483177662,-1.6338894883215427
1789309752818820600,7.443820556640625,0.4090321613876149,9.659985274571179,-1.6394463917963207
1789309752828832800,7.453832763671875,0.40895434691105037,9.6590149682343,-1.6451681304439902
1789309752838844700,7.4638447265625,0.40765217827130107,9.658025372675061,-1.651294065978378
1789309752848856600,7.473856689453125,0.4060894224666059,9.657009473630785,-1.657602372342348
1789309752858868700,7.48386865234375,0.40508601757772267,9.655925185525417,-1.6641573469437658
1789309752868880600,7.493880615234375,0.40521347988229245,9.654738021567463,-1.6709946456179021
1789309752878893800,7.503893798828125,0.40521625636126846,9.65368120599091,-1.6770847791865466
1789309752888905700,7.51390576171875,0.4049480704117566,9.652866382476686,-1.6818424951076507
1789309752898917600,7.523917724609375,0.4049176022082567,9.652182491865753,-1.6857636140741408
1789309752908929800,7.5339296875,0.40446434201542286,9.651569912925362,-1.6893755209609864
1789309752918941700,7.543941650390625,0.40392205183226615,9.651076576450466,-1.692317711892724
1789309752928953600,7.55395361328125,0.40377153744567185,9.650707743138074,-1.6944534087471663
1789309752938965800,7.5639658203125,0.403618063917011,9.650393270361423,-1.6962850080884992
1789309752948978700,7.573978759765625,0.4034310534449294,9.650051325055957,-1.6982754512533544
1789309752958990800,7.583990966796875,0.4034903093514964,9.649844988828898,-1.69943075876832
1789309752969002800,7.594002685546875,0.4043424692014232,9.649658526346087,-1.700288544641435
1789309752979014700,7.6040146484375,0.4055475341422483,9.649486676910518,-1.700972289121896
1789309752989026800,7.61402685546875,0.4062116606067866,9.649418287849425,-1.7012066823996603
1789309752999038700,7.624038818359375,0.4061684425195679,9.64926338954866,-1.7020985166728495
1789309753009051000,7.63405078125,0.405551589262858,9.648784666121005,-1.7049527370601891
1789309753019062800,7.644062744140625,0.40528515687901523,9.64827262494564,-1.7079131943009793
1789309753029076000,7.654075927734375,0.4059335743177682,9.647968089041113,-1.7094832200966774
1789309753039087900,7.664087890625,0.4062481201596558,9.647699208971858,-1.710927573686093
1789309753049099800,7.674099853515625,0.4063406572813168,9.647273677036166,-1.7133032167762516
1789309753059112000,7.68411181640625,0.40555988216716793,9.64672422645986,-1.7165758087061345
1789309753069123800,7.694123779296875,0.4035832483319565,9.646190557974576,-1.7200383702501654
1789309753079135700,7.7041357421875,0.40175866325329984,9.645794252133369,-1.7226877157151699
1789309753089148000,7.71414794921875,0.39961569640785455,9.64534417027831,-1.7256942040547727
1789309753099160600,7.72416064453125,0.39765787687096743,9.644796473267673,-1.7292080573946236
1789309753109172700,7.7341728515625,0.39665231655761596,9.644194415721296,-1.7327936607964336
1789309753119184600,7.7441845703125,0.39598318512439723,9.64362976757586,-1.7360849574267863
1789309753129196500,7.754196533203125,0.39585762251596895,9.643156889367104,-1.7387405865021048
1789309753139208700,7.764208740234375,0.3960098539356142,9.6427319419533,-1.7410563160985708
1789309753149220600,7.774220703125,0.3958639791915193,9.642525605726242,-1.7422317896187305
1789309753159232800,7.784232666015625,0.3953490519393235,9.642672320720553,-1.7415347472652791
1789309753169245700,7.79424560546875,0.3950133171789348,9.643054013514519,-1.7395048488728702
1789309753179257600,7.804257568359375,0.3947608402552083,9.643401219516992,-1.7376393472619354
1789309753189269800,7.814269775390625,0.3953582581590861,9.643539166682958,-1.7367299773320555
1789309753199281700,7.82428173828125,0.3964193480519578,9.643597618871926,-1.7361650369256734
1789309753209293800,7.8342939453125,0.3967322133934125,9.64358943556547,-1.7361374182663858
1789309753219305700,7.8443056640625,0.39553777944445606,9.643502926325798,-1.7368911592431366
1789309753229317600,7.854317626953125,0.39324448087550695,9.64344272057116,-1.7377477760724722
1789309753239330800,7.864330810546875,0.39178123992253094,9.64338602194786,-1.7383903117597101
1789309753249342700,7.8743427734375,0.3914365181380883,9.643397127863764,-1.738406532242149
1789309753259355000,7.88435498046875,0.39137949072122574,9.643408233779668,-1.7383567017510533
1789309753269366800,7.89436669921875,0.3912377076303586,9.643543842858076,-1.7376313100859522
1789309753279378700,7.904378662109375,0.3908932781068608,9.643674775761365,-1.736980737222731
1789309753289390800,7.914390869140625,0.39125531635228544,9.643709262552857,-1.736706304195523
1789309753299402800,7.92440283203125,0.3917438670542091,9.643766545698046,-1.7362844255216419
1789309753309416000,7.934416015625,0.3924962928567082,9.643809215795994,-1.7358752601988612
1789309753319427800,7.944427734375,0.39240733593162147,9.643892217904328,-1.735432923258841
1789309753329439700,7.954439697265625,0.39197895445171743,9.643933718958497,-1.7353056436173617
1789309753339452000,7.964451904296875,0.3924089068342,9.643892802426219,-1.7354405220434068
1789309753349463800,7.9744638671875,0.39352673188298937,9.643823828843235,-1.7355651713363824
1789309753359476000,7.98447607421875,0.39449477319754656,9.643822659799456,-1.7353525514990091
1789309753369488000,7.99448779296875,0.3943714756114408,9.643849547806381,-1.7352270254231987
1789309753379499800,8.004499755859374,0.3934770109897479,9.644041855508089,-1.7343622252874076
1789309753389512700,8.0145126953125,0.39151878959406167,9.644400751948355,-1.7328103196702898
1789309753399524600,8.024524658203125,0.38973800712451334,9.644806994661689,-1.730949640364945
1789309753409536800,8.034536865234376,0.3881478883888572,9.64525298486352,-1.7288142357714473
1789309753419548700,8.044548583984374,0.38675124639868735,9.645762687951326,-1.7262912931650876
1789309753429560600,8.054560546875,0.3859804081566632,9.646212185284496,-1.7239488216921686
1789309753439572700,8.06457275390625,0.3850734493795782,9.646540686586498,-1.7223112836182117
1789309753449584600,8.074584716796876,0.38466921596024184,9.64691127346456,-1.720334576717764
1789309753459597800,8.084597900390625,0.3837884876029566,9.647554247543216,-1.7169167310982942
1789309753469609700,8.094609619140625,0.3827935948140919,9.648343352094292,-1.7126928297929465
1789309753479621600,8.10462158203125,0.3811937584020197,9.64918564813733,-1.7082995632700622
1789309753489633800,8.1146337890625,0.38014633170831946,9.64987596848905,-1.7046319806732235
1789309753499645700,8.124645751953125,0.3797172195760533,9.650409052452444,-1.7017099557466804
1789309753509657900,8.134657958984375,0.3794030390603468,9.650868486657739,-1.6991655319608747
1789309753519669800,8.144669677734376,0.3795417168786749,9.651259531801939,-1.6969100081190467
1789309753529682700,8.1546826171875,0.3797001953760162,9.651609660413861,-1.6948796713352203
1789309753539694800,8.16469482421875,0.37989842136185614,9.652008304342626,-1.6925651107825337
1789309753549706800,8.174706787109375,0.37967370922788973,9.65254431091547,-1.689562860226631
1789309753559719000,8.184718994140624,0.37920382669381797,9.65315864342153,-1.6861567050449549
1789309753569730800,8.194730712890625,0.37850630941633134,9.653878774389623,-1.682178449063748
1789309753579742700,8.20474267578125,0.3778831725493073,9.654637483802437,-1.6779577626287936
1789309753589755000,8.2147548828125,0.37714820933826265,9.655388594430685,-1.6738006429493426
1789309753599766800,8.224766845703124,0.37638138968423007,9.65616016332507,-1.669515074584633
1789309753609779700,8.23477978515625,0.37561281646452843,9.656959789270163,-1.6650573645234108
1789309753619792000,8.2447919921875,0.3743926270198077,9.657800916269421,-1.660454985294491
1789309753629803800,8.2548037109375,0.3721453230170533,9.65838134650588,-1.6575748998135327
1789309753639815700,8.264815673828124,0.368966473785229,9.658719200158119,-1.6563121864013373
1789309753649827800,8.274827880859375,0.36654845285806803,9.659028996759652,-1.6550437739007173
1789309753659839700,8.28483984375,0.36564507427755744,9.659397830072045,-1.6530984850518404
1789309753669852000,8.294851806640626,0.3656787573514506,9.659704704064131,-1.6512956734135746
1789309753679864600,8.304864501953125,0.3649416387159377,9.659888243937491,-1.650382942482829
1789309753689876700,8.314876708984375,0.3623132264411077,9.659933836644887,-1.6506914239101111
1789309753699888600,8.324888671875,0.3594895838551223,9.660026191103459,-1.650769019190967
1789309753709900800,8.33490087890625,0.3575461216371506,9.660232527330518,-1.649990289903432
1789309753719912700,8.34491259765625,0.3568316532248631,9.660493808615207,-1.6486071649819611
1789309753729924600,8.354924560546875,0.3567346591237932,9.660921094116569,-1.646128061517328
1789309753739936800,8.364936767578126,0.3568345027690753,9.66156699080467,-1.642307480315864
1789309753749948700,8.37494873046875,0.3571558802105486,9.662306410995125,-1.6378806037843225
1789309753759961900,8.3849619140625,0.35696170934531835,9.6628576151371,-1.6346696789138018
1789309753769973800,8.394973876953125,0.3561663577165454,9.663018943178653,-1.6338909496262668
1789309753779985700,8.404985595703126,0.3550150687895715,9.662890932884812,-1.6348989576250315
1789309753789997800,8.414997802734375,0.3542676114231348,9.66265069438815,-1.636481258380413
1789309753800009700,8.425009765625,0.3546457605531439,9.662350834658742,-1.638168042423576
1789309753810021600,8.435021728515625,0.3556846751468256,9.66190718254447,-1.640555522082001
1789309753820033800,8.44503369140625,0.3587836275428533,9.66147638991177,-1.6424189778663216
1789309753830046700,8.455046630859375,0.36262707816325124,9.661376436668634,-1.6421652953661978
1789309753840059000,8.465058837890625,0.3667634473156184,9.6613670843184,-1.6412966958381234
1789309753850070800,8.47507080078125,0.3696657080957666,9.661302202388644,-1.6410243086375296
1789309753860082700,8.485082763671874,0.37179402536135164,9.66116016356945,-1.641383205077797
1789309753870094800,8.4950947265625,0.37306715056970713,9.66090005132854,-1.642623560527712
1789309753880106800,8.505106689453125,0.3728839029572904,9.660541154888271,-1.6447718246027827
1789309753890119000,8.515118896484376,0.37221334675196555,9.660108024168014,-1.6474601869039236
1789309753900130800,8.525130859375,0.3722940107727423,9.659691844582557,-1.649890190529823
1789309753910143700,8.535143798828125,0.37356070624031124,9.659168112969398,-1.6526728069856762
1789309753920155400,8.5451552734375,0.3759723339593038,9.65845441174209,-1.6562869058296084
1789309753930167300,8.555167236328124,0.3782178843963891,9.657772859218715,-1.659744498937577
1789309753940179500,8.565179443359375,0.3790639432990923,9.657169632628559,-1.6630600532263515
1789309753950191400,8.57519140625,0.37879878955688323,9.656680387806892,-1.6659696570627391
1789309753960203300,8.585203369140626,0.37955735283922404,9.656129768186807,-1.6689841825783251
1789309753970215400,8.59521533203125,0.3796896009167656,9.655502576199174,-1.6725677401535213
1789309753980227300,8.605227294921875,0.3788370392080396,9.655050740778446,-1.675361024133861
1789309753990240300,8.615240234375,0.37936584885511543,9.6547982273221,-1.6767038170449435
1789309754000252200,8.625252197265626,0.3802188489552587,9.654493691417574,-1.6782663901865482
1789309754010264300,8.635264404296874,0.3805889974419027,9.653912676659226,-1.6815272916786372
1789309754020276200,8.645276123046875,0.3804827605884522,9.653162735074758,-1.6858416477464138
1789309754030288100,8.6552880859375,0.3804225183011964,9.652406363749504,-1.6901868373438715
1789309754040300300,8.66530029296875,0.37984585092440243,9.651606153282522,-1.694874702899158
1789309754050312200,8.675312255859374,0.3793327137704938,9.650590838760136,-1.700762299633026
1789309754060325400,8.685325439453125,0.3793407144138589,9.649669047740101,-1.7059812033250927
1789309754070337300,8.695337158203126,0.37885731481108814,9.64918623265922,-1.7088076589226722
1789309754080349200,8.70534912109375,0.37787108025271443,9.649097969853877,-1.7095253056727349
1789309754090361300,8.715361328125,0.37720611353795974,9.649161098217963,-1.7093164852276443
1789309754100373200,8.725373291015625,0.37665344809126106,9.649090955591202,-1.7098408013626931
1789309754110385200,8.73538525390625,0.3760829912595451,9.648820906478166,-1.7114930986143648
1789309754120397300,8.745397216796874,0.3757618330137804,9.648512863442301,-1.7133002941668032
1789309754130409200,8.7554091796875,0.37609968666601923,9.6484053114146,-1.7138295787379145
1789309754140422400,8.76542236328125,0.37634686636012044,9.648613401207328,-1.712605736031383
1789309754150434300,8.775434326171874,0.3765279950806871,9.649027242705225,-1.710227462592721
1789309754160446500,8.785446533203125,0.3763509580133483,9.649604165810347,-1.7070079160243272
1789309754170458400,8.795458251953125,0.37548455044236034,9.650207392400503,-1.7037835471503435
1789309754180470300,8.80547021484375,0.3738790149418637,9.650758012020587,-1.7010184663511811
1789309754190482400,8.815482421875,0.37262824769578873,9.65124024257958,-1.6985511994548141
1789309754200494300,8.825494384765625,0.37131745735816657,9.651689155390859,-1.6962893920026718
1789309754210506200,8.83550634765625,0.3681622447302565,9.652311671203375,-1.6934272805698214
1789309754220519400,8.84551953125,0.3635220907742157,9.653117726889253,-1.6898310096435247
1789309754230531300,8.85553125,0.35769692828468974,9.654116090276837,-1.6853668698415158
1789309754240543500,8.86554345703125,0.35216252890266475,9.655235449695587,-1.6801127487055956
1789309754250555400,8.875555419921875,0.3474067126777023,9.656335519891977,-1.674770510894805
1789309754260567300,8.8855673828125,0.3443545220328495,9.657139237490297,-1.6707656591676174
1789309754270579500,8.895579345703124,0.3403824035314843,9.6577453866899,-1.6680772968664765
1789309754280591400,8.90559130859375,0.3357000178689137,9.658145199662446,-1.6667155069939792
1789309754290604300,8.915604248046876,0.33163656782228496,9.658563132813573,-1.66510558757931
1789309754300616200,8.9256162109375,0.3286056391611695,9.65912719643712,-1.662431546064466
1789309754310628000,8.935628173828125,0.3281645808627829,9.659958971086144,-1.657672661099583
1789309754320640300,8.94564013671875,0.3298996610270813,9.661066055545211,-1.650866049824655
1789309754330652200,8.955652099609376,0.3332765170490369,9.662288875338435,-1.643006860756874
1789309754340664300,8.965664306640624,0.33650998254492875,9.66339829788506,-1.635812711469084
1789309754350676200,8.97567626953125,0.3386725308736786,9.664315412729978,-1.629936659042537
1789309754360688000,8.985688232421875,0.34073333586100485,9.665214991918205,-1.6241680125132203
1789309754370701300,8.995701416015624,0.3438072634136304,9.6661391210258,-1.6180143121890722
1789309754380713200,9.005713134765625,0.3485307848041877,9.667060327523947,-1.6114768732443452
1789309754390725400,9.015725341796875,0.35488581638671457,9.668034725514053,-1.6042309937693178
1789309754400737300,9.0257373046875,0.3622605829384178,9.668989249759912,-1.5968091732054948
1789309754410749200,9.035749267578124,0.36861857366301115,9.66979530544579,-1.590463895832002
1789309754420761300,9.04576123046875,0.3729176225638017,9.670314945405721,-1.5862869024083017
1789309754430773200,9.055773193359375,0.37533889489397404,9.670619481310247,-1.5838631823927163
1789309754440785200,9.06578515625,0.37717528000827877,9.67076502726078,-1.5825355870507656
1789309754450798300,9.07579833984375,0.3795127465125173,9.670758597519994,-1.5820209155268967
1789309754460810200,9.085810302734375,0.38258868335913865,9.670603699219226,-1.582223744622618
1789309754470822400,9.095822509765625,0.38525260533876715,9.670416652214527,-1.5827236569687724
1789309754480834300,9.105834228515626,0.38744185901135203,9.670200379115343,-1.5835045782133936
1789309754490846500,9.115846435546874,0.38916002457346766,9.669928576436638,-1.5847512172736227
1789309754500858400,9.1258583984375,0.39022864018566905,9.669629301229119,-1.5863168591551482
1789309754510870300,9.135870361328125,0.3911936127603054,9.669281510704755,-1.5881939050734042
1789309754520882400,9.14588232421875,0.39252537282072003,9.66890215599835,-1.5901801104545592
1789309754530895400,9.155895263671875,0.3938899026395753,9.668588852265477,-1.5917410761609672
1789309754540907300,9.1659072265625,0.3944988648507744,9.668341599506139,-1.5930952672488987
1789309754550919200,9.175919189453126,0.3965550301956013,9.66794763175249,-1.5949555081628262
1789309754560931300,9.185931396484374,0.39636593736428766,9.667598087662459,-1.5971264224611221
1789309754570943200,9.195943115234375,0.3958774597276002,9.667402857351302,-1.5984385279729962
1789309754580955400,9.205955322265625,0.39618791391625996,9.66729647436738,-1.599006829380244
1789309754590967300,9.21596728515625,0.3965446914646774,9.667151512938737,-1.5997902348428963
1789309754600979500,9.2259794921875,0.3980419077524915,9.666890816175938,-1.6009936192832885
1789309754610992000,9.2359921875,0.4004326022813096,9.666637718197704,-1.6019266623497008
1789309754621004300,9.24600439453125,0.40247221835013475,9.666315062114595,-1.6033558183699845
1789309754631016200,9.25601611328125,0.403337676073052,9.665850367212295,-1.6059420354709029
1789309754641028400,9.2660283203125,0.4032494863329455,9.665310268986225,-1.6092073208771644
1789309754651040300,9.276040283203125,0.4029024995261803,9.664773677891493,-1.612510600206256
1789309754661052200,9.28605224609375,0.402744715148583,9.664276834285259,-1.615527902200818
1789309754671064300,9.296064208984374,0.40310744751375166,9.663834351214765,-1.618082116728276
1789309754681076200,9.306076171875,0.40431996510867024,9.663428108501433,-1.620203492796421
1789309754691089400,9.31608935546875,0.40632819965854283,9.663056352579593,-1.621916288063675
1789309754701101300,9.326101318359376,0.40816180829387155,9.662702132314443,-1.623563178487867
1789309754711113200,9.33611328125,0.40947194104436785,9.662382983362674,-1.6251305739350617
1789309754721125400,9.34612548828125,0.4101664991797879,9.662095398592948,-1.6266627519384025
1789309754731137300,9.35613720703125,0.4106829608019441,9.661764559203386,-1.6285047265432775
1789309754741149200,9.366149169921876,0.411085988644883,9.66140390919745,-1.6305470460258424
1789309754751161300,9.376161376953124,0.41181850417051463,9.66119815749228,-1.6315749277688563
1789309754761173200,9.38617333984375,0.4124902659522369,9.661053780585528,-1.632260718075931
1789309754771186400,9.3961865234375,0.4130226923285052,9.660902973937988,-1.633022496228665
1789309754781198300,9.4061982421875,0.41327020081616933,9.660771456512808,-1.6337376587606967
1789309754791210200,9.416210205078125,0.41362738022338597,9.66058440950811,-1.6347534116744995
1789309754801222400,9.426222412109375,0.41375166419018056,9.660421912422775,-1.6356851395666598
1789309754811234300,9.436234375,0.4135770017430186,9.660345924577117,-1.6361809602595865
1789309754821246500,9.44624658203125,0.41346174133289604,9.660313191351294,-1.6363992791853845
1789309754831258400,9.45625830078125,0.4135270251214504,9.66028221169114,-1.6365594381831585
1789309754841270300,9.466270263671875,0.41372046533431855,9.660287472388148,-1.6364841809898614
1789309754851283200,9.476283203125,0.41392373282145706,9.660335987704991,-1.636153049339354
1789309754861295000,9.486295166015625,0.413973271051608,9.660404961287975,-1.635724010272324
1789309754871307300,9.496307373046875,0.41373723380602895,9.660455230170488,-1.6354875711679457
1789309754881319200,9.506319091796875,0.4135553744331002,9.66047218130529,-1.6354375945463775
1789309754891331000,9.5163310546875,0.41366858901660886,9.660414898160099,-1.6357487063221632
1789309754901343200,9.52634326171875,0.41373390933778137,9.660393855372071,-1.6358511437833307
1789309754911355100,9.536355224609375,0.4136350520731881,9.660383333978057,-1.6359366301096976
1789309754921367600,9.546367431640626,0.41349005411192774,9.660370474496483,-1.636047689268738
1789309754931380700,9.556380615234374,0.413357404175587,9.660404376766085,-1.635887238010019
1789309754941392600,9.566392578125,0.4133425354000181,9.660398531547187,-1.635925670324266
1789309754951404500,9.576404541015625,0.41323691960107534,9.660368720930814,-1.6361263074629009
1789309754961416700,9.586416748046876,0.41297381168548014,9.660331311529875,-1.6364144767545163
1789309754971428600,9.5964287109375,0.41263113572765137,9.66026409151256,-1.6368955382697283
1789309754981440500,9.6064404296875,0.41245862870495764,9.6601711525321,-1.6374910199448465
1789309754991452700,9.61645263671875,0.4122523290105164,9.660074706420302,-1.6381107592783868
1789309755001464600,9.626464599609376,0.41208285419512536,9.659971246045828,-1.6387692231871187
1789309755011477800,9.636477783203125,0.41192934413384646,9.659847911927104,-1.6395302706874906
1789309755021489700,9.64648974609375,0.41177809909489005,9.659718732589482,-1.6403247820660471
1789309755031501800,9.656501708984376,0.41163043425250795,9.65959481394887,-1.6410871447406707
1789309755041513700,9.666513671875,0.4114621284808963,9.659486677399277,-1.6417672359593212
1789309755051525600,9.676525634765625,0.41152708347588773,9.659355744495988,-1.642523022762686
1789309755061537800,9.686537841796875,0.41148580161742865,9.659218966373802,-1.6433458834528922
1789309755071549700,9.6965498046875,0.41138730967901643,9.659055300244688,-1.6443329947941003
1789309755081561600,9.7065615234375,0.4110020001558587,9.658973467180132,-1.644905387854576
1789309755091574800,9.71657470703125,0.41045306103620677,9.658965283873677,-1.6450893661193549
1789309755101586700,9.726586669921875,0.409641488924995,9.659050624069572,-1.6447884834766386
1789309755111598800,9.736598876953124,0.40802879303134976,9.659391984853148,-1.643184701541811
1789309755121610800,9.74661083984375,0.40618999676425005,9.65963163882792,-1.6422206788152456
1789309755131622700,9.75662255859375,0.40306485048104074,9.660410221984982,-1.6384131032258271
1789309755141634800,9.766634765625,0.3995936307065189,9.661482235130666,-1.6329266346387563
1789309755151646700,9.776646728515624,0.39789091844186186,9.66173884024024,-1.6318310944870114
1789309755161659000,9.786658935546875,0.3970810633637011,9.66158978715837,-1.6329093912430106
1789309755171671600,9.796671630859375,0.3967759064046666,9.66125310254991,-1.634967785077542
1789309755181683700,9.80668359375,0.39648134390488265,9.660905312025546,-1.637093983451277
1789309755191695600,9.816695556640624,0.3961817033711821,9.660532971581816,-1.639366458427906
1789309755201707500,9.82670751953125,0.39581414870042353,9.660130235999823,-1.641830218192935
1789309755211719700,9.8367197265625,0.395475710526295,9.65964917448461,-1.6447472746834157
1789309755221731600,9.846731689453126,0.3950236559098586,9.659097385820745,-1.648087232761085
1789309755231743500,9.856743408203124,0.39471594166755675,9.658703418067097,-1.6504720820710062
1789309755241755600,9.866755615234375,0.3947440717834979,9.658480715227126,-1.6517553998798131
1789309755251768600,9.8767685546875,0.39426710192151365,9.65838076198399,-1.652461648453027
1789309755261780700,9.88678076171875,0.39392248973492533,9.65822995533645,-1.6534274247452616
1789309755271792600,9.896792724609375,0.3932325347093865,9.657923081344366,-1.6553816275529563
1789309755281804500,9.906804443359375,0.3926240108896047,9.657677582150697,-1.656962613134086
1789309755291816700,9.916816650390626,0.3923218861378729,9.657502810105681,-1.6580362337149679
1789309755301828600,9.92682861328125,0.3919668621551245,9.657285952484607,-1.659392032238096
1789309755311840800,9.9368408203125,0.3915059666451067,9.656962711879611,-1.6613785298801957
1789309755321852700,9.946852783203125,0.39117439660318193,9.656564652472733,-1.6637731699317693
1789309755331864600,9.956864501953126,0.39089441061802205,9.656318568757175,-1.6652594629667699
1789309755341877800,9.966877685546875,0.3905419804511592,9.65606897791028,-1.6667950019709765
1789309755351889700,9.9768896484375,0.390324976699613,9.655794837144017,-1.6684321016535162
1789309755361901800,9.98690185546875,0.3901053791321814,9.655418989568949,-1.6706620526626705
1789309755371913700,9.996913818359374,0.3899353197949007,9.65496656962633,-1.6733144668675959
1789309755381925600,10.006925537109375,0.38955136197861284,9.654532854384183,-1.6758941080972551
1789309755391937800,10.016937744140625,0.38918556087352335,9.654079265397787,-1.6785918227486312
1789309755401949700,10.02694970703125,0.3888822670780122,9.653574238485097,-1.6815623629920184
1789309755411961600,10.036961669921874,0.3885512450253591,9.653023034343123,-1.684794330650568
1789309755421974800,10.046974853515625,0.3883157923016697,9.652496380120516,-1.6878686235293745
1789309755431986700,10.056986572265625,0.38796847670134155,9.652036361393332,-1.6905825586631893
1789309755441998800,10.066998779296876,0.3875065582780167,9.651578680753707,-1.6933007315807043
1789309755452010800,10.0770107421875,0.3869899870580062,9.651079499059914,-1.6962598736472427
1789309755462022700,10.087022705078125,0.3866647736916318,9.650537062746286,-1.6994105927631258
1789309755472034800,10.097034912109375,0.38656756039485335,9.649996379998326,-1.7025002293415366
1789309755482046700,10.107046630859376,0.3865098388582468,9.649451021075247,-1.7056125161431728
1789309755492059000,10.117058837890625,0.3862982054015621,9.648895725280045,-1.7087991833552718
1789309755502071600,10.127071533203125,0.38605175635982303,9.648305942693352,-1.7121788889214395
1789309755512083700,10.137083740234376,0.38597584157939996,9.647651278176903,-1.7158767205260692
1789309755522095600,10.147095703125,0.3860352070838213,9.646993106529116,-1.71956797625944
1789309755532107500,10.157107421875,0.38621816243529317,9.646301032611728,-1.723398202072084
1789309755542119700,10.16711962890625,0.3862130844013765,9.645462828221916,-1.7280892824977636
1789309755552131600,10.177131591796876,0.38598464594036336,9.644604750087856,-1.7329231323949992
1789309755562143500,10.1871435546875,0.3857795518223196,9.643718030381201,-1.7378898148916662
1789309755572155600,10.19715576171875,0.3857168253170326,9.64280909884274,-1.7429484134554862
1789309755582167600,10.20716748046875,0.3856754338607192,9.641889645910263,-1.7480258628502487
1789309755592180700,10.2171806640625,0.3855979847103357,9.640919924095272,-1.7533910431452095
1789309755602192600,10.227192626953125,0.38537674317508935,9.639927405926585,-1.758884379864484
1789309755612204500,10.23720458984375,0.3851494372252375,9.638933134192229,-1.7643714329734443
1789309755622216700,10.247216796875,0.3849328353324905,9.637934186282754,-1.7698760217390954
1789309755632228600,10.257228515625,0.3846243904378265,9.636923547935485,-1.7754320484310389
1789309755642240800,10.26724072265625,0.38425592245161533,9.635879591840505,-1.7811714688658713
1789309755652252700,10.277252685546875,0.38381701957769687,9.634802317997814,-1.7870856613457202
1789309755662264600,10.2872646484375,0.3835085381504148,9.633708093020319,-1.7930295183114706
1789309755672277800,10.29727783203125,0.38334008624833077,9.632633741787075,-1.7988370355464518
1789309755682289700,10.30728955078125,0.38317740649990734,9.63159972256422,-1.8043961309783159
1789309755692301800,10.3173017578125,0.3828456903275102,9.63053589272499,-1.8101375972397624
1789309755702313700,10.327313720703126,0.3824479231815785,9.629452189141512,-1.8159794551357626
1789309755712325600,10.33732568359375,0.38203601791243996,9.628387774780393,-1.82169564082548
1789309755722337800,10.347337890625,0.3817681607564911,9.62736661503911,-1.8271400238364934
1789309755732349700,10.357349609375,0.38156916758567094,9.626344286254048,-1.8325667250603437
1789309755742361600,10.367361572265626,0.3813649137178436,9.625346507388352,-1.8378398431576788
1789309755752374500,10.37737451171875,0.3812599555060267,9.624380292704702,-1.8429170002914963
1789309755762386700,10.38738671875,0.3812203906806186,9.62348948134482,-1.8475725710123776
1789309755772398600,10.397398681640626,0.38107787693738937,9.622656537652015,-1.8519336888313291
1789309755782410500,10.407410400390624,0.3808533109338954,9.621858665272592,-1.8561185733005403
1789309755792422700,10.417422607421875,0.3807906574938446,9.621035658451914,-1.8603959583587943
1789309755802434600,10.4274345703125,0.38078568905778226,9.620250645554066,-1.8644526864036917
1789309755812446700,10.43744677734375,0.38080172687713054,9.619506549188493,-1.8682808663897215
1789309755822458600,10.447458740234374,0.38083694432098414,9.618809799095988,-1.8718577019631861
1789309755832471600,10.457471435546875,0.38098066364061084,9.618127662050723,-1.8753322462059556
1789309755842483700,10.467483642578125,0.3810905172232538,9.61746189161837,-1.8787264186888932
1789309755852495600,10.47749560546875,0.3810573456060141,9.61688555303514,-1.881675331622362
1789309755862507500,10.487507568359375,0.38087756859231736,9.616303953754901,-1.8846809431791305
1789309755872519700,10.497519775390625,0.3802787259163335,9.615715340211986,-1.8878005365043877
1789309755882531600,10.507531494140625,0.37999347923416643,9.615024435338377,-1.8913764952950178
1789309755892543500,10.51754345703125,0.3799644358027726,9.614416532573104,-1.8944750458322464
1789309755902555600,10.5275556640625,0.3805035841807723,9.614008536294103,-1.8964317328579723
1789309755912567600,10.537567626953125,0.3807183229099959,9.613697570648789,-1.8979621572956442
1789309755922580000,10.547580078125,0.3805657992294058,9.613367315781115,-1.8996641389079392
1789309755932592000,10.557592041015624,0.38019510275349017,9.613016602647305,-1.9015097667746246
1789309755942604000,10.56760400390625,0.3801932395899668,9.612734863096476,-1.902929862705618
1789309755952616200,10.5776162109375,0.38040764952562744,9.612515667387843,-1.9040028987646103
1789309755962628000,10.587628173828126,0.38056846611052747,9.612365445262194,-1.9047284365601838
1789309755972640000,10.597639892578124,0.3805244443057105,9.612286534807085,-1.90513614057824
1789309755982652200,10.607652099609375,0.3800060099221766,9.612243280187249,-1.9054491520501673
1789309755992664000,10.6176640625,0.37926582254674285,9.612250878971814,-1.9055597728177904
1789309756002676000,10.627676025390626,0.37892321965415027,9.612511575734615,-1.9043138644099233
1789309756012689200,10.637689208984375,0.37938729350194333,9.612996728903054,-1.9017766010172663
1789309756022701000,10.647701171875,0.3798353295303881,9.613612230452894,-1.8985737133227287
1789309756032713200,10.657713134765626,0.38043709481582044,9.614350481599569,-1.8947087084576486
1789309756042725000,10.66772509765625,0.38090551604516804,9.615200960949062,-1.8902929378420112
1789309756052737300,10.6777373046875,0.3812008091973141,9.61610170918107,-1.8856446736447512
1789309756062749200,10.687749267578125,0.3809181563310325,9.616917701739073,-1.8815427912838756
1789309756072761000,10.697760986328126,0.38002131708916276,9.617797407183051,-1.877223320649564
1789309756082773200,10.707773193359374,0.3794545500518754,9.618832595449685,-1.8720188838742673
1789309756092786200,10.7177861328125,0.38009803558718414,9.620214989718795,-1.8647721276164053
1789309756102798300,10.72779833984375,0.38151195750571787,9.62180664282441,-1.8562512597694991
1789309756112810200,10.737810302734376,0.3825362590521574,9.623482467082143,-1.8473285331234335
1789309756122822100,10.747822265625,0.38250038402117786,9.62514776994586,-1.8386454604521392
1789309756132834300,10.757834228515625,0.38210659893061966,9.626856327429413,-1.82975751285851
1789309756142846200,10.76784619140625,0.3825560597311705,9.6287840806216,-1.8194902397356927
1789309756152858000,10.777858154296876,0.38362898619230834,9.63089128203392,-1.8080730659253894
1789309756162870300,10.787870361328125,0.3842275000747293,9.633085577207803,-1.7962286066137254
1789309756172882200,10.797882080078125,0.3844245204841718,9.635248308199644,-1.78454036077708
1789309756182895000,10.80789501953125,0.3847261703118682,9.637812021207809,-1.7705834393560886
1789309756192907000,10.817906982421874,0.3860326498005539,9.640862056428194,-1.7536017632864414
1789309756202919000,10.8279189453125,0.3881291471557691,9.643974050968884,-1.735945548956096
1789309756212931000,10.83793115234375,0.3902101181482896,9.646937576949595,-1.718934792922437
1789309756222943000,10.84794287109375,0.3925593481555581,9.650239541104435,-1.6997513690248132
1789309756232955100,10.857955078125,0.39499066695570945,9.653954177713393,-1.6779625849343835
1789309756242967000,10.867967041015625,0.39688641757443544,9.657668229800462,-1.6559920145362614
1789309756252979000,10.87797900390625,0.39833829688318073,9.661152564784883,-1.6351872730471193
1789309756262992100,10.8879921875,0.3991120212020352,9.664393154141306,-1.6157412526905535
1789309756273004000,10.898004150390625,0.39989484214279797,9.667769937098026,-1.59520977518484
1789309756283016200,10.90801611328125,0.4013564756605774,9.671518475976585,-1.571946242366731
1789309756293028000,10.918028076171876,0.40397074981220066,9.675583825719356,-1.546043447086215
1789309756303040000,10.9280400390625,0.40710196051001546,9.679816933244465,-1.5184871855102478
1789309756313052200,10.93805224609375,0.41000871480219064,9.68406173120737,-1.4903740207038818
1789309756323064000,10.94806396484375,0.4123700005734339,9.68825859837532,-1.4621763924844562
1789309756333076200,10.958076171875,0.4145857038615271,9.692412795445323,-1.4337508007280528
1789309756343088000,10.968088134765624,0.41712599946148693,9.69670610872507,-1.403667797153443
1789309756353101000,10.97810107421875,0.42056532626040277,9.701189391618966,-1.3712890838570893
1789309756363113200,10.98811328125,0.42480080840568984,9.705773212277888,-1.3371183725774287
1789309756373125000,10.998125,0.42753337517473844,9.710449387395382,-1.3018318090103567
1789309756383137300,11.00813720703125,0.4310523796137422,9.715102766159177,-1.2654397684194147
1789309756393149200,11.018149169921875,0.4358184615043923,9.719573189571499,-1.2289637028068303
1789309756403161000,11.0281611328125,0.4410880359377712,9.72367244158387,-1.1941711333017795
1789309756413173200,11.03817333984375,0.44553599178995934,9.727883921799062,-1.1576605808977036
1789309756423185200,11.04818505859375,0.45026850020457054,9.732315182244777,-1.11789161121957
1789309756433197000,11.058197021484375,0.4547590165568515,9.736852241152524,-1.0757656300865113
1789309756443210200,11.068210205078126,0.45813594564404336,9.741052030929923,-1.0355676213413476
1789309756453222100,11.07822216796875,0.4617249831119552,9.74482570424974,-0.9977969858735799
1789309756463234300,11.088234375,0.4663804807676002,9.748339265328646,-0.9605912908121943
1789309756473246200,11.09824609375,0.471844810588099,9.751879714414477,-0.9211896931417286
1789309756483258000,11.108258056640626,0.47667062330935145,9.755556941622496,-0.8787779538698494
1789309756493270300,11.118270263671874,0.4807634455809369,9.759217802217602,-0.8348175238512456
1789309756503282200,11.1282822265625,0.48406621345337475,9.76254256272614,-0.7929955671660601
1789309756513294300,11.13829443359375,0.48787561567369847,9.765499074444174,-0.7532458867102861
1789309756523307000,11.14830712890625,0.4927293027825653,9.768057526755332,-0.7159966447681189
1789309756533319200,11.158319091796875,0.49800329766273493,9.770274033761025,-0.6812590933859348
1789309756543331000,11.1683310546875,0.5033594909336417,9.772344410294293,-0.6467733248077333
1789309756553343000,11.178343017578126,0.5091142550680786,9.774366856032609,-0.6106915192097425
1789309756563355100,11.188355224609374,0.5155190075438469,9.776299869921804,-0.5732195744276046
1789309756573367000,11.198366943359375,0.5227129011033103,9.778051097503305,-0.5355918180292472
1789309756583379000,11.20837890625,0.5303498987877742,9.779486683264373,-0.5007341108661144
1789309756593391000,11.21839111328125,0.5382913958441465,9.780638775908946,-0.4687488173341378
1789309756603403000,11.228403076171874,0.546476528930664,9.78152724918127,-0.4398671889059245
1789309756613416200,11.238416259765625,0.5540135733719915,9.782200033876299,-0.41472752348501235
1789309756623428000,11.248427978515625,0.5605645293854177,9.782707983398437,-0.3934338294351473
1789309756633440000,11.25843994140625,0.5666472102999687,9.783063372707366,-0.37542832674309606
1789309756643452200,11.2684521484375,0.5729529228480532,9.783292505288124,-0.35958730860855426
1789309756653464000,11.278464111328125,0.57906325895451,9.783455586895347,-0.3450590170403942
1789309756663476200,11.288476318359375,0.5849596965819597,9.783561969879269,-0.3318511604210362
1789309756673488100,11.298488037109376,0.5909074625378474,9.783598210236429,-0.3200514535665512
1789309756683500000,11.3085,0.5967751855274662,9.783553786572813,-0.310346015577577
1789309756693512200,11.31851220703125,0.6018532925093546,9.783479552292823,-0.30276325056469067
1789309756703525000,11.328525146484376,0.606030322465673,9.783399472793937,-0.29698828389244153
1789309756713537300,11.338537353515624,0.6091650768274441,9.78333575990796,-0.2926274766007438
1789309756723549200,11.348549072265625,0.6104112409636377,9.7833164706856,-0.2906953029617667
1789309756733561000,11.35856103515625,0.6104497463431209,9.783320562338828,-0.290438259460777
1789309756743573200,11.3685732421875,0.6099789504935964,9.783303026682137,-0.2920871226463467
1789309756753585200,11.378585205078124,0.6098140057228505,9.783201319873333,-0.29577903596684335
1789309756763597000,11.38859716796875,0.6092823830641806,9.78307506314516,-0.30104389769248663
1789309756773609200,11.398609130859375,0.6077459307445213,9.782990891993045,-0.30681071759089823
1789309756783621000,11.40862109375,0.6050836162000894,9.78298037059903,-0.31234212129823863
1789309756793634300,11.41863427734375,0.6019066301317885,9.783015441912411,-0.31732973698507994
1789309756803646200,11.428646240234375,0.5988590060641988,9.78307447862327,-0.32128589073233305
1789309756813658000,11.438658203125,0.5962156519485637,9.78313117724657,-0.32447259447705
1789309756823670300,11.448670166015624,0.5936670999769121,9.783173847344518,-0.3277991816164926
1789309756833682200,11.45868212890625,0.5910600227510556,9.783195474654436,-0.3318630700545385
1789309756843694300,11.4686943359375,0.5883923013791441,9.783247497102618,-0.3350649348357692
1789309756853706200,11.478706298828126,0.5858956257252023,9.783354464608431,-0.33629593793544915
1789309756863718100,11.48871826171875,0.582974660244584,9.783538004481791,-0.33605431119929996
1789309756873731000,11.49873095703125,0.5801537210723385,9.78372738957405,-0.33538375499397516
1789309756883743000,11.508742919921875,0.5778107746753841,9.783873520046471,-0.3351652899377048
1789309756893755100,11.518755126953126,0.5761589523477479,9.78397055068016,-0.3352026993386447
1789309756903767000,11.52876708984375,0.5743988473400473,9.784094469320774,-0.33457715131882576
1789309756913779200,11.538779296875,0.5714302433254197,9.784307235288619,-0.33347466996964065
1789309756923791400,11.548791259765625,0.5671776273822412,9.784619954499602,-0.33154998551737513
1789309756933803300,11.55880322265625,0.5628329127088189,9.784972421199083,-0.3285040419502184
1789309756943815400,11.5688154296875,0.5593647982068359,9.785306183198093,-0.32443266432546075
1789309756953827300,11.578827392578125,0.5573764374012127,9.785586753705143,-0.3193568954311311
1789309756963839200,11.588839111328125,0.5556804836709052,9.785843943336605,-0.3144080408520996
1789309756973852400,11.598852294921874,0.5536690707832574,9.786088858008384,-0.3103555871235206
1789309756983864300,11.6088642578125,0.5517982719426975,9.786332019114493,-0.30599870708826926
1789309756993876500,11.61887646484375,0.5509841060156002,9.786545954126119,-0.30053183825081214
1789309757003888400,11.628888427734376,0.5510347036916762,9.786724233302474,-0.29456277377856893
1789309757013900300,11.638900390625,0.5507856243014335,9.786890822041034,-0.28947765253400426
1789309757023912400,11.648912353515625,0.5504904042145237,9.787027015641332,-0.28538678475748747
1789309757033924400,11.65892431640625,0.5511128834944218,9.787125215318799,-0.2808048089957796
1789309757043936300,11.668936279296876,0.5526667618729174,9.787208801949024,-0.2747570715304464
1789309757053948400,11.678948486328125,0.5542784713858738,9.787298818320036,-0.2682515072950162
1789309757063961300,11.68896142578125,0.5545570325989276,9.787431504788994,-0.26273495409693565
1789309757073973500,11.698973388671876,0.5538576156252994,9.787605107790231,-0.25770644014412536
1789309757083985400,11.7089853515625,0.5537343180391937,9.787759421569108,-0.25202125238087025
1789309757093997600,11.71899755859375,0.555897377824597,9.787802091667055,-0.24559231531191617
1789309757104009500,11.729009521484375,0.5591931314343587,9.787785725054144,-0.2386563603025861
1789309757114021400,11.739021484375,0.5610466503465548,9.787814366626739,-0.2330476535753347
1789309757124033500,11.749033447265624,0.5607469002149998,9.78792250317633,-0.22918874965747818
1789309757134045400,11.75904541015625,0.5595843227090314,9.788085000261663,-0.22502333707371724
1789309757144057300,11.769057373046875,0.559034872132726,9.788233468821645,-0.21988354476615785
1789309757154070300,11.7790703125,0.5599667461553588,9.788303026926517,-0.21435732869058846
1789309757164082200,11.789082275390625,0.5615702723618596,9.78829776622951,-0.21036966556021944
1789309757174094300,11.79909423828125,0.5628580471500754,9.788272631788253,-0.20807808402432126
1789309757184106200,11.809106201171875,0.5637235414056108,9.788265033003688,-0.20601508707990868
1789309757194118100,11.8191181640625,0.5648603634158149,9.788273216310143,-0.20249381761858237
1789309757204130300,11.82913037109375,0.5664856630627065,9.788281984138488,-0.1975319939601235
1789309757214142200,11.83914208984375,0.5666059649741276,9.788380183815956,-0.1922891979358159
1789309757224154400,11.849154296875,0.564593529173173,9.788591196218132,-0.1874019556172192
1789309757234166300,11.859166259765624,0.5622781283702701,9.788805131229758,-0.18312102689500898
1789309757244179500,11.869179443359375,0.5620542564865202,9.78889397855699,-0.1789837078945711
1789309757254191400,11.87919140625,0.56479489696417,9.788804546707867,-0.17523626499455422
1789309757264203300,11.889203369140626,0.5691304054178297,9.788601717612147,-0.1724825093070045
1789309757274215400,11.89921533203125,0.5715080212693661,9.788495919150114,-0.1705943574728444
1789309757284227300,11.909227294921875,0.5717193989977241,9.788514039328694,-0.16882802365375682
1789309757294239200,11.9192392578125,0.5710868001826107,9.788606393787264,-0.16562299880106002
1789309757304251400,11.92925146484375,0.5712691710121929,9.788680043545364,-0.1605224059927277
1789309757314263300,11.93926318359375,0.5720208661623298,9.788734988602995,-0.1544729697606526
1789309757324275200,11.949275146484375,0.5734299292426556,9.788742587387562,-0.14865893145333975
1789309757334288400,11.959288330078126,0.5772015932684764,9.788593534305692,-0.1436804215215612
1789309757344300300,11.96930029296875,0.5821235233079641,9.788362648159264,-0.13955027204742654
1789309757354312400,11.9793125,0.5867584530996158,9.78814871314764,-0.13508962111044676
1789309757364324400,11.989324462890625,0.5887248943343758,9.7881113037467,-0.1291134693102911
1789309757374336500,11.99933642578125,0.5890537609625608,9.788193136811255,-0.12126270101098344
1789309757384348400,12.009348388671874,0.5905383734971285,9.78820482724905,-0.1126875091609545
1789309757394360300,12.0193603515625,0.5954969092199579,9.787987385106087,-0.10523031588965095
1789309757404372500,12.02937255859375,0.6026330081775784,9.787615629184245,-0.09899261794332415
1789309757414384400,12.03938427734375,0.6094109413472936,9.787256732743979,-0.09279399163206108
1789309757424397600,12.0493974609375,0.613433073002845,9.787068516695498,-0.08595116739943623
1789309757434409500,12.059409423828125,0.6160918438833206,9.786966809886694,-0.07820374074359424
1789309757444421400,12.06942138671875,0.620153101972863,9.786787946188449,-0.06763821989314164
1789309757454433500,12.07943359375,0.6255033769596368,9.786527833947538,-0.054536595560656854
1789309757464445400,12.089445556640625,0.6308298326794057,9.786260707443953,-0.03931448107601609
1789309757474457300,12.099457275390625,0.6367393489841371,9.785931621620058,-0.02271569881015457
1789309757484469500,12.109469482421876,0.644388475497812,9.785454651758075,-0.005851552168707712
1789309757494481400,12.1194814453125,0.652646235429123,9.78490403213799,0.010732762609561904
1789309757504493600,12.12949365234375,0.6594809768199921,9.784415956360101,0.025671938816842155
1789309757514506200,12.13950634765625,0.6645567457143217,9.784030171912908,0.03883230531595182
1789309757524518100,12.14951806640625,0.6663380761731416,9.783855399867893,0.05035101240512449
1789309757534530300,12.1595302734375,0.6680216453459114,9.783677120691538,0.06167541619832627
1789309757544542200,12.169542236328125,0.671743003956601,9.783339267039299,0.07370542924392502
1789309757554554400,12.179554443359375,0.6813600695423782,9.78257237432003,0.08614451628075911
1789309757564566300,12.189566162109376,0.6944894540980457,9.781510882568359,0.10062814672328531
1789309757574578200,12.199578125,0.7073343956891447,9.780499075177312,0.10921408829619177
1789309757584590300,12.20959033203125,0.706726273728162,9.780504335874319,0.11250221572192386
1789309757594602200,12.219602294921875,0.7013587553456425,9.780901226237416,0.111580908759078
1789309757604615400,12.229615478515624,0.7016282930020242,9.780870831099152,0.11251534006497822
1789309757614627300,12.23962744140625,0.7119083525411785,9.780078803938627,0.1167474520762451
1789309757624639200,12.24963916015625,0.7265212536528706,9.778947169560194,0.1215067480330821
1789309757634651400,12.2596513671875,0.7380721368454396,9.778063956984877,0.12293004056815988
1789309757644663300,12.269663330078124,0.7409121825769543,9.777920164600014,0.11707421807888894
1789309757654675500,12.279675537109375,0.7400159643895924,9.778098443776368,0.10756443052617833
1789309757664687400,12.289687255859375,0.7406485632047056,9.778131761524081,0.09981003527343273
1789309757674699300,12.29969921875,0.7429560364294797,9.777997321489453,0.09561195339593105
1789309757684711400,12.30971142578125,0.7466039644777774,9.777727272376417,0.09502510255184024
1789309757694723300,12.319723388671875,0.7506104967053979,9.777408707946538,0.09608758068419992
1789309757704736500,12.329736572265626,0.7541082026280462,9.77714508857429,0.0954935511806514
1789309757714748400,12.33974853515625,0.7540469739601016,9.777190096759796,0.09143147110720165
1789309757724760300,12.34976025390625,0.7513650413997471,9.777453716132044,0.08509582921173423
1789309757734772500,12.3597724609375,0.7499328897047788,9.777600431126356,0.08064389130417257
1789309757744784400,12.369784423828126,0.7506664646763354,9.777548993200064,0.08021735472148284
1789309757754796300,12.37979638671875,0.7528769803326576,9.777355516454577,0.08297236165120266
1789309757764808400,12.389808349609375,0.754438749756664,9.777217569288611,0.08516006268751806
1789309757774820400,12.3998203125,0.7536822323009371,9.777285373827814,0.08397068850616923
1789309757784832500,12.40983251953125,0.750597710289061,9.777565359812975,0.07879510336602107
1789309757794845400,12.419845458984375,0.7471793532129377,9.77787164928317,0.07305745019658934
1789309757804857300,12.429857421875,0.7446712428495288,9.778086753338576,0.06968500092169269
1789309757814869500,12.439869384765625,0.7424454565588384,9.778259187296033,0.06932563412396703
1789309757824881400,12.44988134765625,0.7388177675809711,9.778533912584185,0.06942137698286678
1789309757834893600,12.4598935546875,0.7354478527564555,9.778796362912654,0.06816264562604483
1789309757844905500,12.469905517578125,0.7321072370916605,9.779070503678918,0.06457406481585931
1789309757854917400,12.47991748046875,0.7302640934430062,9.779238845983148,0.05984049695532303
1789309757864929500,12.489929443359374,0.727296329678595,9.779490190395713,0.05484618209963664
1789309757874941400,12.49994140625,0.7242891837518661,9.779732766979933,0.0511492044449551
1789309757884953300,12.509953369140625,0.7211433600068092,9.779977681651712,0.04871150613636709
1789309757894966300,12.51996630859375,0.7226807256419211,9.779860777273774,0.049336392002482896
1789309757904978200,12.529978271484374,0.7260503482054919,9.779597742423414,0.05188244148979429
1789309757914990300,12.539990234375,0.7290824824430048,9.77936451818943,0.05350517472026404
1789309757925002200,12.550002197265625,0.7276445585943758,9.779500127267838,0.04785731415955815
1789309757935014400,12.560014404296876,0.722228744090721,9.779950793644785,0.036474207015638235
1789309757945026300,12.5700263671875,0.7178819470580667,9.780305598431825,0.024927502241265026
1789309757955038200,12.5800380859375,0.7166538665678351,9.780410227850078,0.019377323051507116
1789309757965050400,12.59005029296875,0.718722124209255,9.780255914071201,0.020106548358220604
1789309757975062300,12.600062255859376,0.720521209520474,9.780120889514684,0.022042914115125312
1789309757985075500,12.610075439453125,0.7192858955718576,9.780208567798137,0.022556402895483187
1789309757995087400,12.62008740234375,0.7159951103981584,9.780459912210702,0.018958142083144048
1789309758005099300,12.630099365234376,0.7122556316088885,9.780742236283421,0.012366283237171592
1789309758015111400,12.640111328125,0.7092910096496343,9.780965523645282,0.005498899381203228
1789309758025123300,12.650123291015625,0.7077364736840128,9.781078920891881,0.0002610566840089632
1789309758035135200,12.66013525390625,0.7094014842867851,9.780956755816936,-0.0040484222970888365
1789309758045147400,12.6701474609375,0.7119951540417969,9.78076444811523,-0.010122389325988478
1789309758055159300,12.6801591796875,0.711975061101839,9.780749835067986,-0.020313866399391554
1789309758065171500,12.69017138671875,0.7080306343249976,9.781001179480553,-0.03311664706590818
1789309758075183400,12.700183349609375,0.7010827879484742,9.78145359942317,-0.04504132059048861
1789309758085196300,12.7101962890625,0.6954400328211486,9.781808988732099,-0.054122155841137276
1789309758095208400,12.72020849609375,0.6946241133283824,9.781823017257452,-0.061782566367229445
1789309758105220400,12.730220458984375,0.6964646996937692,9.781626033380627,-0.0713401796836173
1789309758115232500,12.740232421875,0.6959387761235236,9.781578102585673,-0.08229197817160748
1789309758125244400,12.750244384765624,0.6885847600989043,9.782008895218372,-0.09237177503146231
1789309758135256300,12.76025634765625,0.6777846952736377,9.782674665650724,-0.10126377774570136
1789309758145268500,12.7702685546875,0.6700130383588373,9.783102535673976,-0.1112500693695154
1789309758155280400,12.7802802734375,0.664869099599123,9.783308287379144,-0.12330560501543804
1789309758165292300,12.790292236328124,0.659344052567333,9.783507024821638,-0.13649830059828236
1789309758175305500,12.800305419921875,0.6539431433718651,9.783694656348228,-0.14846934543168172
