time,seconds_elapsed,z,y,x
1790592435983235000,0.038235107421875,6.818686328125,7.299322311401367,-1.7197849800109861
1790592435993248000,0.048248046875,6.796988875579833,7.314136434173584,-1.8037316757202146
1790592436003261000,0.058260986328125,6.762272951507568,7.320570851135254,-1.7696143020629882
1790592436013273000,0.068273193359375,6.619518677520752,7.3660606826782224,-1.716044039916992
1790592436023285800,0.07828564453125,6.456862602233886,7.321917589569091,-1.7061679580688476
1790592436033299000,0.088298828125,6.2964510910034175,7.267150226593017,-1.613991194152832
1790592436043311900,0.098311767578125,6.198887373352051,7.292438981628417,-1.4691419937133787
1790592436053325000,0.108324951171875,6.089951197814941,7.39913059310913,-1.6127940933227538
1790592436063338000,0.118337890625,6.07768091430664,7.321019763946532,-1.6102502540588377
1790592436073351000,0.128350830078125,6.216394972991943,7.349600546264648,-1.4944307487487791
1790592436083364000,0.138364013671875,6.354660118865967,7.4317515907287595,-1.472882933807373
1790592436093376000,0.1483759765625,6.515969455718993,7.615207292938232,-1.406443837738037
1790592436103389000,0.158388916015625,6.63971975402832,7.720552165985107,-1.3275848205566405
1790592436113401900,0.16840185546875,6.623858168029785,7.592911289978027,-1.3397054664611816
1790592436123415000,0.1784150390625,6.440252828216552,7.41828420639038,-1.2388497215270995
1790592436133428000,0.188427978515625,6.531980679321289,7.242011109161377,-1.1737573638916015
1790592436143441000,0.19844091796875,6.657376991271972,7.089380753326416,-1.0375871444702147
1790592436153453800,0.208453857421875,6.761524763488769,6.813598649597168,-0.8928875816345214
1790592436163467000,0.218467041015625,6.826916396331787,6.69104545211792,-0.8592191207885742
1790592436173479000,0.22847900390625,6.905176863098144,6.966677918243408,-0.8301894256591796
1790592436183491800,0.238491943359375,7.019799267578125,7.211036125183105,-0.787841983795166
1790592436193504800,0.2485048828125,6.864924347686767,7.310395494079589,-0.8711901290893554
1790592436203518000,0.25851806640625,6.443694493103027,7.329848382568359,-0.9132382957458496
1790592436213531100,0.26853125,5.784989761352539,7.541884867095947,-0.6678326255798339
1790592436223543800,0.278543701171875,5.781398458862304,7.3748893013000485,-0.7089829666137695
1790592436233557000,0.288556884765625,5.929539686584472,7.18245534286499,-0.5683236190795898
1790592436243570000,0.29856982421875,6.308721374511719,7.157765138244629,-0.3130418670654297
1790592436253582000,0.30858203125,6.804321118164062,6.838887404632568,-0.6813000099182128
1790592436263594800,0.3185947265625,7.10584088973999,6.8590884811401365,-0.7841010437011718
1790592436273608000,0.32860791015625,7.13112964477539,7.083395249176025,-0.812083275604248
1790592436283620900,0.338620849609375,6.574627396392822,6.92088881149292,-0.8678981018066406
1790592436293634000,0.348634033203125,5.986401976013183,6.886771437835693,-0.785896694946289
1790592436303647000,0.35864697265625,6.020818624877929,7.02279201965332,-0.7426514274597168
1790592436313660000,0.368659912109375,6.310217750549316,7.11197603149414,-0.8505401397705078
1790592436323673000,0.378673095703125,6.523750611114502,7.308300567626953,-0.9159317726135253
1790592436333685000,0.38868505859375,6.5309332160949705,7.451653392028808,-0.9621697921752929
1790592436343698000,0.398697998046875,6.363937650299072,7.505522929382324,-1.0365396812438965
1790592436353710800,0.4087109375,6.145017835998535,7.3469070693969725,-1.0377367820739745
1790592436363724000,0.41872412109375,6.190956580352783,7.266252400970458,-1.0109516510009764
1790592436373737000,0.428737060546875,6.319644919586182,7.273285368347167,-1.0184335311889647
1790592436383750000,0.43875,6.493374177551269,7.322366502380371,-1.1209352897644043
1790592436393762800,0.4487626953125,6.647800184631348,7.193528525543212,-1.3652934967041015
1790592436403776000,0.45877587890625,6.8216790802001945,6.947075392150879,-1.3902829765319824
1790592436413788000,0.468787841796875,7.24021545791626,7.141903552246093,-1.0338462043762207
1790592436423800800,0.47880078125,7.5822870201110835,7.454197231292724,-0.9141361213684082
1790592436433813800,0.488813720703125,7.190685411071777,7.6099699768066404,-1.0019733947753906
1790592436443827000,0.498826904296875,6.623708530426025,7.352742935943603,-1.1028291397094725
1790592436453840100,0.508840087890625,6.310217750549316,7.197568740844726,-0.9071031539916992
1790592436463852800,0.518852783203125,6.126462773132324,7.130680731964111,-0.9479542198181152
1790592436473866000,0.528865966796875,6.02665449142456,7.065139461517334,-1.2808978881835937
1790592436483879000,0.53887890625,6.10985299911499,7.30381143951416,-1.3199533027648924
1790592436493891000,0.54889111328125,6.559813273620605,7.404218271636963,-1.1514613609313964
1790592436503903700,0.55890380859375,6.826766758728027,7.359326990509032,-1.0835258888244628
1790592436513917000,0.5689169921875,6.555324145507812,7.361421916961669,-0.9832686943054199
1790592436523929900,0.578929931640625,6.32039310760498,7.346458156585693,-0.9413701652526855
1790592436533943000,0.588943115234375,6.241085177612304,7.236474517822265,-1.0102034629821777
1790592436543956000,0.5989560546875,6.273257262420654,7.097910096740722,-1.0766425590515136
1790592436553969000,0.608968994140625,6.387580391693115,7.094318794250488,-1.1285668075561524
1790592436563982000,0.618982177734375,6.6154784622192375,7.263409286499023,-0.996586441040039
1790592436573994000,0.628993896484375,6.836792478179931,7.387907772827148,-1.0155904167175291
1790592436584007000,0.6390068359375,6.9892731964111325,7.314286071777343,-1.0284592506408692
1790592436594019800,0.649019775390625,6.96533117980957,7.220463294219971,-1.0079588989257813
1790592436604033000,0.659032958984375,6.771849758148193,7.155071661376953,-0.9304466201782225
1790592436614046000,0.6690458984375,6.439205364990234,7.142053189849853,-0.9237129280090332
1790592436624059000,0.679058837890625,6.354360843658447,7.1315785575866695,-0.9204209007263183
1790592436634071800,0.68907177734375,6.3329626663208005,7.230489013671875,-0.7908347358703612
1790592436644085000,0.6990849609375,6.341043096923828,7.3419690284729,-0.9662100074768066
1790592436654097000,0.709096923828125,6.268917771911621,7.521683790588378,-0.9543886367797851
1790592436664109800,0.71910986328125,6.304531521606445,7.540837403869628,-0.9045593147277832
1790592436674122800,0.729122802734375,6.36513475112915,7.4040686340332025,-0.8822633117675781
1790592436684136000,0.739135986328125,6.39087241897583,7.393893276977539,-0.7806593788146973
1790592436694149000,0.749149169921875,6.328473538208008,7.395688928222656,-0.8732850555419921
1790592436704161800,0.759161865234375,6.2128036705017085,7.280467973327636,-0.9277531433105468
1790592436714175000,0.769175048828125,6.245574305725097,7.17632020111084,-0.842758984375
1790592436724188000,0.77918798828125,6.351068816375732,7.300220137023925,-0.814627114868164
1790592436734200000,0.789199951171875,6.275202551269531,7.407659936523437,-0.781407566833496
1790592436744213000,0.799212890625,6.151601890563964,7.546373995208739,-0.8466495620727539
1790592436754226000,0.809225830078125,6.034734922027588,7.609521063995361,-0.9500491462707519
1790592436764238800,0.81923876953125,6.222979027557373,7.523479441833496,-0.7697358337402344
1790592436774252000,0.829251953125,6.572831745147704,7.455543969726562,-0.6304232246398925
1790592436784265000,0.839264892578125,6.63298606185913,7.473949394989013,-0.6808510971069336
1790592436794278000,0.84927783203125,6.412569871520995,7.434295429992676,-0.8930372192382812
1790592436804291000,0.859291015625,6.2858268211364745,7.474847220611572,-0.817769504547119
1790592436814303000,0.869302978515625,6.348524977111816,7.2152259780883785,-0.7757213378906249
1790592436824316000,0.87931591796875,6.443095942687988,7.230189738464355,-0.7588122886657714
1790592436834328800,0.889328857421875,6.402095239257812,7.461230198669433,-0.8367734802246093
1790592436844342000,0.899342041015625,6.291513050079345,7.406762110900878,-0.8883984535217284
1790592436854355000,0.90935498046875,6.228814894104003,7.420977683258056,-0.8298901504516601
1790592436864367900,0.919367919921875,6.169558403015136,7.486967866516113,-0.8147767524719238
1790592436874380800,0.929380859375,6.114042852020264,7.433696879577636,-0.858022019958496
1790592436884394000,0.93939404296875,6.119878718566894,7.415890004730224,-0.8086416107177734
1790592436894406000,0.949406005859375,6.394164446258545,7.513752997589111,-0.719457598876953
1790592436904419000,0.959419189453125,6.520159308624267,7.6997525390625,-0.7779659019470214
1790592436914431700,0.969431640625,6.404639078521728,7.8341271072387695,-0.7366659233093261
1790592436924445000,0.97944482421875,6.2307601829528805,7.805695962524414,-0.7145195579528808
1790592436934458000,0.9894580078125,6.146663849639892,7.62268917312622,-0.7558195365905761
1790592436944470800,0.999470703125,6.099528004455566,7.5528084121704095,-0.752078596496582
1790592436954484000,1.00948388671875,6.173000067901611,7.661744587707519,-0.7748235122680663
1790592436964497000,1.019496826171875,6.382492713165282,7.696610149383544,-0.7499836700439453
1790592436974509000,1.029509033203125,6.309020649719238,7.632565254974365,-0.7344213592529296
1790592436984522000,1.03952197265625,6.128408061981201,7.6231380859375,-0.7661445312499999
1790592436994535700,1.04953564453125,6.1626750732421876,7.647678652954101,-0.7989151664733887
1790592437004548600,1.059548583984375,6.129455525207519,7.6759601600646965,-0.8387187690734863
1790592437014561500,1.0695615234375,6.18646745223999,7.759158667755126,-0.7806593788146973
1790592437024574500,1.079574462890625,6.264428643798828,7.792827128601074,-0.7511807708740234
1790592437034587600,1.089587646484375,6.458358978271484,7.716362313079833,-0.74699091796875
1790592437044600600,1.0996005859375,6.3435869361877435,7.6196964210510245,-0.7710825721740722
1790592437054612700,1.10961279296875,6.021716450500488,7.508366043853759,-0.8592191207885742
1790592437064625400,1.11962548828125,5.7611973823547356,7.586177597808837,-0.8873509902954101
1790592437074638600,1.129638671875,5.782595559692383,7.669974655914306,-0.8875006278991698
1790592437084651800,1.13965185546875,5.997175883483886,7.616853306579589,-0.8990227233886718
1790592437094664400,1.14966455078125,6.277147840118408,7.62283881072998,-0.6441898841857909
1790592437104677600,1.159677734375,6.507889025115967,7.6223898979187,-0.647332273864746
1790592437114690600,1.169690673828125,6.110451549530029,7.66787972946167,-0.7983166160583496
1790592437124703700,1.179703857421875,5.9874494392395015,7.681496751403808,-0.7357680976867675
1790592437134715600,1.189715576171875,6.052990709686279,7.608623238372802,-0.6977601463317871
1790592437144728600,1.199728515625,6.277746390533447,7.5457754447937,-0.5708674583435058
1790592437154741500,1.209741455078125,6.179733760070801,7.593060927581787,-0.6370072792053222
1790592437164754700,1.219754638671875,5.922955632019042,7.541585591888428,-0.7915829238891601
1790592437174767600,1.229767578125,5.839008936309814,7.487267141723632,-0.7959224143981933
1790592437184780500,1.239780517578125,5.899761803436279,7.688978631591796,-0.7272387542724609
1790592437194793700,1.249793701171875,5.9105357109069825,7.879467301177978,-0.8366238426208495
1790592437204805600,1.2598056640625,5.642684400177002,7.962516171264648,-1.0570400329589844
1790592437214818600,1.269818603515625,5.561730456542969,7.999027746582031,-0.9907505744934082
1790592437224831500,1.27983154296875,5.828085391235351,8.043470114898682,-0.7588122886657714
1790592437234844700,1.2898447265625,6.349123527526855,8.059930251312256,-0.5765536872863769
1790592437244857600,1.299857666015625,6.296900003814697,8.24802471923828,-0.6009446166992187
1790592437254870500,1.30987060546875,5.869535007476807,8.194903369903564,-0.3534440200805664
1790592437264883500,1.319883544921875,5.330390721130371,7.929895173645019,-0.7006032608032227
1790592437274896600,1.329896728515625,4.713434880828857,7.736114476776122,-0.7594108390808105
1790592437284908500,1.339908447265625,4.368370566558838,7.73761085281372,-0.6590040069580078
1790592437294921700,1.349921630859375,3.1994016059875485,7.294683545684814,0.304512523651123
1790592437304934400,1.359934326171875,2.9020716873168944,6.755838534545898,0.5033808990478515
1790592437314947600,1.369947509765625,2.6509797882080077,6.752696144866943,-0.4574421546936035
1790592437324960800,1.379960693359375,3.1515175727844236,7.609221788787841,-0.8919897560119628
1790592437334973700,1.3899736328125,3.586065174102783,7.946804222869873,-1.4945803863525389
1790592437344986600,1.399986572265625,3.828627729797363,8.502707920837402,-1.8529624473571775
1790592437354998500,1.40999853515625,5.3499932472229,9.044545684051513,-2.0519804603576657
1790592437365011700,1.42001171875,7.1212535629272455,9.146448892211913,-1.8216881881713867
1790592437375024600,1.430024658203125,7.37354256286621,8.910171115875244,-1.2633902885437012
1790592437385037600,1.44003759765625,6.206668528747558,8.456469901275634,-0.7453449043273925
1790592437395050500,1.450050537109375,4.651933825683593,7.7976155319213865,-0.6765116065979003
1790592437405063700,1.460063720703125,3.6643256408691403,7.203404607391357,-0.2127846725463867
1790592437415076600,1.47007666015625,3.383006945800781,6.983287692260742,0.4975450325012207
1790592437425089500,1.480089599609375,3.905242182922363,7.659200748443603,1.2096703887939453
1790592437435101400,1.490101318359375,4.327519500732421,7.848641954803466,1.0830769760131835
1790592437445114600,1.500114501953125,4.140322858428955,7.433846517181396,0.9316437210083007
1790592437455127600,1.51012744140625,4.14361488571167,7.550414210510254,1.3576619789123534
1790592437465140500,1.520140380859375,4.40548069229126,8.188618590545653,1.4782698875427245
1790592437475153700,1.530153564453125,4.71762473373413,8.48460177078247,0.9415198028564452
1790592437485166600,1.54016650390625,5.182997681427001,8.614038298034668,0.08948328704833984
1790592437495179800,1.5501796875,5.294627333831786,8.968829056549072,-0.6410474945068358
1790592437505192400,1.5601923828125,5.172523049163818,9.335141910552977,-1.2699743431091308
1790592437515204600,1.57020458984375,4.802618892669678,9.531167171478272,-1.5087959587097166
1790592437525217500,1.580217529296875,3.189525524139404,9.14914236907959,-1.61533793258667
1790592437535230700,1.590230712890625,-1.2654852149963378,8.093897987365722,-3.4976293502807616
1790592437545243400,1.600243408203125,-0.7794622779846191,8.610147720336913,-4.24551809387207
1790592437555256600,1.610256591796875,-0.6501753883361816,8.795249436187744,-5.345204843902588
1790592437565269800,1.620269775390625,0.8051999458312988,9.354744436645507,-5.208884986877441
1790592437575282700,1.63028271484375,2.4060230308532713,8.655936827087402,-3.6227263870239255
1790592437585295600,1.640295654296875,3.899555953979492,6.145167473602295,-1.8200421745300293
1790592437595307500,1.6503076171875,3.0246248847961423,6.085611707305908,0.572663109588623
1790592437605320700,1.66032080078125,3.884741831207275,6.788010619354248,1.4220061485290527
1790592437615333600,1.670333740234375,3.261650849151611,7.56537797088623,0.3796306007385254
1790592437625346600,1.6803466796875,1.9008464805603027,8.910320753479004,-0.9723451492309569
1790592437635359500,1.690359375,1.8734627990722654,9.300126711273192,-0.7662941688537597
1790592437645372700,1.70037255859375,2.306514024353027,8.90613090057373,-0.309001651763916
1790592437655385600,1.710385498046875,3.097648035430908,8.558672384643554,-0.4613327323913574
1790592437665397800,1.720397705078125,3.488202181243896,8.693196590423584,-0.7015010864257812
1790592437675410400,1.730410400390625,3.271078018188476,9.160664464569091,-0.8225579078674315
1790592437685423600,1.740423583984375,2.0241478660583496,9.59610989151001,-0.9639654434204101
1790592437695436500,1.7504365234375,0.728435855102539,9.849745629882811,-0.849791951751709
1790592437705449500,1.760449462890625,-0.1475426773071289,9.548674771118163,-0.7131728195190429
1790592437715462700,1.770462646484375,-0.36272155151367186,9.281122735595703,-0.7435492530822754
1790592437725475600,1.7804755859375,0.7751227874755859,9.546729482269287,-0.8470984748840331
1790592437735488800,1.79048876953125,2.5438392639160154,10.008960040283203,-0.5283703788757323
1790592437745500700,1.800500732421875,4.1103953376770015,10.4065471534729,-0.36062662506103516
1790592437755513600,1.810513671875,4.573822996520996,10.921599785614013,-0.4025251541137695
1790592437765526500,1.820526611328125,3.871274446868896,11.488726303863524,-0.49889177093505854
1790592437775539700,1.830539794921875,2.5526678825378415,12.032359718322754,-0.49739539489746093
1790592437785552400,1.840552490234375,1.8134581199645996,12.249932794189453,-0.591218172454834
1790592437795565600,1.850565673828125,2.296937217712402,11.911003621673583,-0.6494272003173828
1790592437805578800,1.860578857421875,2.667439924621582,11.169250019836426,-0.464774397277832
1790592437815591700,1.870591796875,2.0400094520568848,10.71958902053833,-0.4896142395019531
1790592437825603600,1.880603515625,1.5331868881225585,10.656142676544189,-0.7787140899658203
1790592437835616500,1.890616455078125,1.742380258178711,10.625616605377196,-0.984465795135498
1790592437845629700,1.900629638671875,2.2993314193725585,10.709862576293945,-0.9512462471008301
1790592437855642600,1.910642578125,2.373102758026123,10.76388175125122,-1.0518027168273925
1790592437865655600,1.920655517578125,1.8478747688293455,11.239280418395996,-1.1347019493103028
1790592437875668500,1.93066845703125,1.4333786064147949,11.213542750549315,-1.180341418457031
1790592437885681700,1.940681640625,1.1985972061157226,10.947936003875732,-0.9048585899353027
1790592437895694600,1.950694580078125,1.2478279777526855,10.945841077423095,-0.8171709541320801
1790592437905706800,1.960706787109375,2.01112939453125,11.023802268981933,-0.6745663177490234
1790592437915719400,1.970719482421875,2.014271784210205,11.059416018676757,-0.14335282440185546
1790592437925732600,1.980732666015625,1.6638205162048338,10.75101291732788,-0.2154781494140625
1790592437935745500,1.99074560546875,0.8137292892456054,10.299406629180908,-0.4595370811462402
1790592437945758500,2.000758544921875,0.5460276161193848,10.054749147033691,-0.45415012741088867
1790592437955771600,2.010771728515625,1.084124439239502,9.738864165496826,-0.6783072578430175
1790592437965784600,2.02078466796875,1.0672153900146484,9.600449382019042,-0.7185597732543945
1790592437975797800,2.0307978515625,1.4112322410583495,9.738714527893066,-1.0920552322387695
1790592437985809700,2.0408095703125,1.539322029876709,10.054300234222412,-0.8632593360900879
1790592437995821600,2.050821533203125,0.9009680122375487,10.01105496673584,-0.20380641632080077
1790592438005834500,2.06083447265625,0.3447650390625,9.401281731414795,0.1135749412536621
1790592438015847700,2.07084765625,0.4321533996582031,8.859892881011962,-0.17986439971923826
1790592438025860600,2.080860595703125,-0.261117618560791,8.517970956420898,0.1261444999694824
1790592438035873500,2.09087353515625,-0.38037878875732417,8.481459381103516,0.32486323776245113
1790592438045886500,2.100886474609375,0.44981063690185547,8.902090685272217,0.020201076507568357
1790592438055898600,2.110898681640625,0.9660603698730468,9.32810894317627,-0.1610100616455078
1790592438065911600,2.12091162109375,1.2981062126159668,9.036465253448485,0.06928221054077148
1790592438075924700,2.1309248046875,1.3245920684814452,8.603862940979003,0.4100070343017578
1790592438085937400,2.1409375,1.0205284576416016,8.440309040069579,0.553509496307373
1790592438095950600,2.15095068359375,0.6150105514526367,8.315361640930176,0.4034229797363281
1790592438105963800,2.1609638671875,0.5632359405517577,8.102726605987549,0.14170681076049804
1790592438115976400,2.1709765625,1.2083236503601074,7.6354083694458,-0.37978023834228514
1790592438125989600,2.18098974609375,1.6781857261657713,8.201936337280273,0.014514847564697266
1790592438136002600,2.19100244140625,1.4190133964538574,9.063549659729004,0.687584789276123
1790592438146014700,2.2010146484375,1.201589958190918,9.533711010742186,0.43888709182739255
1790592438156027600,2.211027587890625,0.8774749084472656,9.515155947875977,-0.2305915473937988
1790592438166040600,2.22104052734375,0.4107552223205566,8.840439992523192,-0.5276221908569335
1790592438176053500,2.231053466796875,0.5017348854064941,8.227075454711914,0.5445312400817871
1790592438186066700,2.241066650390625,0.4860229370117187,9.11697028427124,-0.020350714111328123
1790592438196079600,2.25107958984375,0.3193266464233398,10.044723427581786,-2.4039281044006344
1790592438206092500,2.261092529296875,1.5141829124450683,11.851597492980956,-4.158728283691406
1790592438216105700,2.271105712890625,1.9853917266845702,12.998120812988281,-5.685331117248535
1790592438226117600,2.28111767578125,2.2182278381347653,12.778303173065185,-5.12044916305542
1790592438236130600,2.291130615234375,1.434575707244873,15.039028090667724,-2.1389199081420895
1790592438246143500,2.3011435546875,-0.26051906814575193,14.620192437744139,-0.49320554199218747
1790592438256156700,2.31115673828125,-1.903091044616699,13.003058853912353,0.7902361854553223
1790592438266169600,2.321169677734375,-2.253093399810791,11.76046819229126,2.311900978088379
1790592438276182500,2.3311826171875,-1.40464818649292,10.962750126647949,2.2297499336242677
1790592438286195500,2.341195556640625,-0.37768531188964843,10.279654465484619,1.4395137481689453
1790592438296208600,2.351208740234375,0.7230489013671875,10.026766915130615,1.8891747474670408
1790592438306221600,2.3612216796875,1.3305775726318358,10.353725079345702,2.620304079437256
1790592438316233700,2.371233642578125,0.725293465423584,10.741885023498535,1.8531120849609375
1790592438326246400,2.381246337890625,1.0242693977355957,9.704297879028319,0.716315209197998
1790592438336259600,2.391259521484375,1.2747627464294433,9.638606970977783,1.1742062767028807
1790592438346272800,2.401272705078125,1.4719851081848143,9.689334118652344,1.299153675842285
1790592438356285700,2.41128564453125,1.8025345748901367,9.542090716552734,0.9050082275390624
1790592438366298600,2.421298583984375,1.7863737136840818,9.629927989959716,1.0497077903747558
1790592438376311600,2.4313115234375,1.6277578536987303,10.122983894348144,0.9189245246887207
1790592438386324700,2.44132470703125,1.2675801414489745,10.054300234222412,0.177470198059082
1790592438396337400,2.45133740234375,1.0121487518310546,9.906159006500243,-0.6112696113586426
1790592438406349600,2.461349609375,0.43619361495971676,9.661800799560547,-0.48766895065307614
1790592438416362500,2.471362548828125,-0.15861585998535155,9.370755660247802,-0.34700960311889645
1790592438426375700,2.481375732421875,-0.8358756546020507,9.360580303192139,-0.6959644950866699
1790592438436388600,2.491388671875,-1.523310806274414,9.31464155883789,-1.3787608810424803
1790592438446401500,2.501401611328125,-2.380734275817871,9.840168823242188,-0.6657376991271973
1790592438456414700,2.511414794921875,-2.9522002845764157,9.999682508850096,0.1249473991394043
1790592438466427600,2.521427734375,-2.6791116577148437,9.706243167877197,0.2624643569946289
1790592438476440600,2.531440673828125,-1.7188871543884277,9.64070189743042,0.45714287948608395
1790592438486453500,2.54145361328125,-0.6410474945068358,9.727042794799804,0.7351695472717285
1790592438496466700,2.551466796875,0.3673603172302246,9.87069489440918,1.0072107109069823
1790592438506478600,2.561478515625,1.096843635559082,9.789441675567627,1.0866682785034179
1790592438516491800,2.57149169921875,1.5912462783813475,9.765649296569825,0.97683427734375
1790592438526504400,2.58150439453125,1.8390461502075195,9.90166987838745,0.663343497467041
1790592438536517600,2.591517578125,1.7769465446472168,9.884760829162596,0.21143793411254883
1790592438546530600,2.601530517578125,1.1400889030456542,9.765350021362304,-0.18210896377563476
1790592438556543500,2.61154345703125,0.2654571090698242,9.7683427734375,-0.1304839904785156
1790592438566556700,2.621556640625,-0.39489363632202146,9.766846397399902,0.2454056701660156
1790592438576569600,2.631569580078125,-0.6889315277099609,9.724498955535887,0.513256980895996
1790592438586582800,2.641582763671875,-0.6862380508422851,9.878326412200927,0.4016273284912109
1790592438596594700,2.6515947265625,-0.4037222549438476,9.917381826782226,0.08858546142578125
1790592438606607600,2.661607666015625,0.15068506698608397,9.857975698089598,0.13437456817626953
1790592438616620500,2.67162060546875,0.6573579933166503,9.845256501770018,0.3459621398925781
1790592438626633700,2.6816337890625,0.8108861747741699,9.707440268707275,0.4513070129394531
1790592438636646400,2.691646484375,0.6006453414916992,9.789292037963866,0.4695628005981445
1790592438646659600,2.70165966796875,0.19288287124633788,9.88850176925659,0.2554313896179199
1790592438656672500,2.711672607421875,-0.10130465774536132,9.829694190979003,0.2991255699157715
1790592438666685700,2.721685791015625,-0.1892915687561035,9.866205766296385,0.43290158767700193
1790592438676698600,2.73169873046875,-0.06599018325805664,9.8572275100708,0.31319150466918944
1790592438686710500,2.74171044921875,0.2302922721862793,9.714473236083984,0.3220201232910156
1790592438696723700,2.7517236328125,0.48407764816284177,9.803507610321045,0.4782417816162109
1790592438706736600,2.761736572265625,0.45669396667480466,9.812036953735351,0.3133411422729492
1790592438716749600,2.77174951171875,0.203656778717041,9.817872820281982,0.3113958534240722
1790592438726762500,2.781762451171875,-0.020350714111328123,9.852139831542969,0.45594577865600583
1790592438736775700,2.791775634765625,-0.1580173095703125,9.753977563476562,0.4927566291809082
1790592438746788600,2.80178857421875,0.03336918563842773,9.674370358276366,0.4317044868469238
1790592438756801500,2.811801513671875,-0.014814122772216796,10.287136345672607,0.02633621826171875
1790592438766814700,2.821814697265625,0.22819734573364256,9.275286869049072,0.5303156677246094
1790592438776826600,2.83182666015625,0.43514615173339843,10.283844318389892,0.5268740028381347
1790592438786839600,2.841839599609375,0.40057986526489253,9.651176529693602,0.0757166275024414
1790592438796852500,2.8518525390625,0.27877485580444333,9.848249253845214,0.5367500846862793
1790592438806865700,2.86186572265625,0.053420624542236325,9.8442090385437,0.6786065330505371
1790592438816878600,2.871878662109375,-0.23867197799682616,9.748291334533691,0.2072480812072754
1790592438826891800,2.881891845703125,-1.6328455322265625,10.050260018920898,-0.1096843635559082
1790592438836904400,2.891904541015625,-0.6335656143188476,9.588029460906982,0.6744166801452637
1790592438846917600,2.901917724609375,0.5437830520629883,9.942670581817627,0.636558366394043
1790592438856930600,2.9119306640625,0.6486790122985839,9.660454061126709,0.05491700057983398
1790592438866942700,2.921942626953125,0.8885480911254883,9.790040225982665,0.35464112091064454
1790592438876955400,2.931955322265625,0.9358335739135741,9.888052856445311,0.5834370170593262
1790592438886968600,2.941968505859375,0.6890811653137207,9.762506906890868,0.07990648040771484
1790592438896981500,2.9519814453125,0.32411504974365235,9.82550433807373,-0.23702596435546874
1790592438906994700,2.96199462890625,-0.007032967376708984,9.900772052764893,0.3576338729858398
1790592438917007600,2.972007568359375,-0.08529343414306641,9.796923555755615,0.6871358764648438
1790592438927020500,2.9820205078125,0.47539866714477536,9.76744494781494,0.6208464179992675
1790592438937033700,2.99203369140625,0.8875006278991698,9.78121160736084,0.5940612869262695
1790592438947046400,3.00204638671875,0.8224082702636718,9.805153623962402,0.7249941902160644
1790592438957058600,3.01205859375,0.35134909362792965,9.829095640563965,0.8354267417907715
1790592438967071500,3.022071533203125,-0.3477577911376953,9.848698166656494,0.6524199523925781
1790592438977084700,3.032084716796875,-0.9169792358398436,9.805602536773682,0.496048656463623
1790592438987097600,3.04209765625,-1.28957686920166,9.674968908691406,1.285087741088867
1790592438997110300,3.0521103515625,-0.12165537185668944,10.05564697265625,0.3051110740661621
1790592439007123500,3.06212353515625,0.6711246528625487,9.765050746154785,0.2976291938781738
1790592439017136600,3.07213671875,0.5220855995178222,9.773729727172851,0.9701005851745604
1790592439027149300,3.0821494140625,0.3506009056091308,9.85124200592041,0.9276035057067871
1790592439037162500,3.09216259765625,-0.05835866546630859,9.634866030883789,0.5651812294006348
1790592439047174400,3.10217431640625,0.09546879119873046,9.695169985198975,0.423923331451416
1790592439057187600,3.1121875,0.38037878875732417,9.770587337493897,0.33578678283691404
1790592439067200500,3.122200439453125,0.8418611587524414,9.756222127532958,0.4508581001281738
1790592439077213400,3.13221337890625,1.377713417816162,9.734225399780273,0.8032546569824218
1790592439087226400,3.142226318359375,1.4624083015441893,9.70968483276367,1.0534487304687499
1790592439097239600,3.152239501953125,1.2179004570007324,9.699808750915526,1.1487678840637205
1790592439107252500,3.16225244140625,0.4969464820861816,9.636212769317627,1.0752958206176757
1790592439117265400,3.172265380859375,0.1632546257019043,9.683348614501952,0.8277952239990234
1790592439127278600,3.182278564453125,0.2397194412231445,9.760411980438231,0.47584757995605464
1790592439137290500,3.19229052734375,-0.1500865165710449,9.92112276687622,0.23358429946899412
1790592439147303700,3.2023037109375,-0.8399158699035644,9.9208234916687,0.21039047088623045
1790592439157316400,3.21231640625,-0.9400234268188477,9.765050746154785,0.7055413017272949
1790592439167329500,3.22232958984375,0.15397709426879883,9.49914472427368,1.5670049865722655
1790592439177342500,3.232342529296875,1.4923358222961425,9.64055225982666,1.365592771911621
1790592439187355400,3.24235546875,1.982847887420654,9.919626390838623,0.3354875076293945
1790592439197368300,3.252368408203125,1.077540384674072,10.002375985717773,-0.39279870986938475
1790592439207381500,3.262381591796875,-0.42796354675292964,9.78106196975708,-0.5807435401916503
1790592439217394400,3.27239453125,-1.0904092185974121,9.477596909332275,0.05955576629638672
1790592439227406600,3.282406494140625,-0.5948094749450683,9.286360051727295,0.8798691101074219
1790592439237419300,3.292419189453125,0.40402153015136716,9.240870220184325,1.1852794593811034
1790592439247432400,3.302432373046875,0.44547114639282226,9.739163440704345,0.3429693878173828
1790592439257445600,3.312445556640625,0.34237083740234375,10.08063645248413,-0.5389946487426758
1790592439267458600,3.32245849609375,1.1100117446899413,10.033051694488524,-0.31064766540527344
1790592439277471500,3.332471435546875,3.10273571395874,9.44198315963745,0.013467384338378905
1790592439287484400,3.342484375,3.7069723579406735,9.386617246246338,-0.28057050704956055
1790592439297497600,3.35249755859375,2.729389892578125,9.414449840545654,-0.3054103492736816
1790592439307510300,3.36251025390625,0.6471826362609863,9.580397943115234,0.20919337005615232
1790592439317522400,3.3725224609375,-1.7589900321960448,9.582043956756591,0.2871545616149902
1790592439327535400,3.382535400390625,-2.1850082901000976,9.444676636505127,0.4132990615844726
1790592439337548500,3.392548583984375,-0.35778351058959956,9.417143317413329,0.002992752075195312
1790592439347561500,3.4025615234375,1.1577461402893066,9.55780266494751,-0.29837738189697266
1790592439357574400,3.412574462890625,2.044947492980957,10.007613301849364,-0.2953846298217773
1790592439367587600,3.422587646484375,2.260575279998779,10.185682050323486,-0.4317044868469238
1790592439377600500,3.4326005859375,0.9373299499511718,9.935936889648437,-0.31663316955566406
1790592439387613400,3.442613525390625,-1.009455274963379,9.750086985778808,-0.18121113815307616
1790592439397626400,3.45262646484375,-1.5973814201354979,9.727790982818602,-0.2302922721862793
1790592439407638500,3.462638427734375,-0.08259995727539061,9.852439106750488,-0.6009446166992187
1790592439417651500,3.4726513671875,2.394800210571289,9.92680899581909,-1.1225813034057617
1790592439427664600,3.48266455078125,2.972550998687744,9.810839852905273,-1.1763012031555176
1790592439437677300,3.49267724609375,2.306065111541748,9.740061266326904,-0.8032546569824218
1790592439447690500,3.5026904296875,0.678007982635498,9.725097505950927,-0.55545478515625
1790592439457703400,3.512703369140625,-1.1763012031555176,9.726294606781005,-0.8418611587524414
1790592439467716400,3.52271630859375,-1.462557939147949,9.925761532592773,-1.1712135246276856
1790592439477729500,3.5327294921875,-0.08798691101074219,10.261548315429687,-1.6135422813415525
1790592439487742500,3.542742431640625,0.26755203552246093,10.401758750152588,-2.0401590896606443
1790592439497754600,3.552754638671875,-0.5891232460021972,10.05519805984497,-1.703923394012451
1790592439507767600,3.562767578125,-1.3959692054748534,9.443778810882568,-1.502211904144287
1790592439517780500,3.572780517578125,-1.121084927368164,9.311199893951416,-1.502960092163086
1790592439527793400,3.58279345703125,-0.24166473007202147,9.56318961868286,-1.376516316986084
1790592439537806600,3.592806640625,-0.3886088569641113,9.489717555236815,-1.3848960227966307
1790592439547819300,3.6028193359375,-0.5226841499328613,9.654618194580078,-1.0963947227478026
1790592439557832400,3.61283251953125,0.40836102066040036,9.907206469726562,-0.7474398307800293
1790592439567845600,3.622845703125,1.7063175956726073,10.157999093627929,-0.4939537300109863
1790592439577858600,3.632858642578125,1.3082815696716308,10.096348400878906,-0.7423521522521972
1790592439587871500,3.64287158203125,-0.6298246742248534,9.872191270446777,-0.967257470703125
1790592439597883400,3.65288330078125,-1.1677718597412108,9.79333225326538,-1.1647791076660157
1790592439607896600,3.662896484375,-0.6455366226196289,10.098293689727782,-1.3037924415588378
1790592439617909500,3.672909423828125,-0.16864157943725586,10.06821653137207,-1.6606781265258788
1790592439627922400,3.68292236328125,0.4294599227905273,9.935787252044678,-1.6536451591491699
1790592439637935400,3.692935302734375,0.805050308227539,9.85124200592041,-1.4546271461486815
1790592439647948500,3.702948486328125,0.984465795135498,9.816077169036864,-1.421108322906494
1790592439657961500,3.71296142578125,0.948702407836914,9.682750064086914,-1.2629413757324217
1790592439667974400,3.722974365234375,0.31393969268798827,9.763255094909667,-1.286434479522705
1790592439677987600,3.732987548828125,-0.6018424423217773,9.843311212921142,-1.195155541229248
1790592439687999500,3.74299951171875,-0.7384615745544433,10.062380664825438,-0.9536404487609863
1790592439698012400,3.753012451171875,-0.010474632263183592,10.094552749633788,-0.7733271362304687
1790592439708025300,3.763025390625,0.34177228698730466,10.063577765655516,-0.7836521308898925
1790592439718038500,3.77303857421875,0.1815104133605957,10.057891536712646,-0.9066542411804198
1790592439728051500,3.783051513671875,-0.07481880187988281,10.064924504089355,-0.8892962791442871
1790592439738064600,3.793064697265625,-0.28476035995483395,10.001777435302733,-1.1124059463500975
1790592439748077300,3.803077392578125,-0.8099883491516113,10.120440055084227,-1.2505214546203614
1790592439758090500,3.813090576171875,-1.5885528015136718,10.261997228240967,-1.3798083442687987
1790592439768103400,3.823103515625,-2.271648462677002,10.35537109298706,-1.2114660400390624
1790592439778115600,3.833115478515625,-2.20895030670166,10.270526571655273,-1.0271125122070313
1790592439788128300,3.843128173828125,-1.2786533241271971,10.193463205718993,-1.0096049125671387
1790592439798141400,3.853141357421875,-0.10848726272583008,10.143334608459472,-1.1234791290283201
1790592439808154600,3.863154541015625,1.2458826889038086,10.203937837982178,-1.1139023223876952
1790592439818167600,3.87316748046875,2.5602994003295896,10.015394457244872,-1.005564697265625
1790592439828180500,3.883180419921875,3.9169139160156248,10.076596237182617,-1.041926634979248
1790592439838193400,3.893193359375,5.432593204498291,10.372579417419432,-1.6641197914123533
1790592439848206600,3.90320654296875,5.0571524566650385,9.555109188079834,-1.7522563400268554
1790592439858219300,3.91321923828125,2.638559867095947,8.51063871383667,-0.18166005096435545
1790592439868231400,3.9232314453125,0.6009446166992187,8.32463917236328,1.5249568199157715
1790592439878244400,3.933244384765625,-0.7234978141784667,7.038503968048095,0.4879682258605957
1790592439888257500,3.943257568359375,-2.012925045776367,8.228422193145752,0.24959552307128904
1790592439898270500,3.9532705078125,-3.2225954345703123,10.626215155792236,1.3257891693115234
1790592439908283400,3.963283447265625,-3.5181297019958495,10.051606757354735,0.8517372406005859
1790592439918296600,3.973296630859375,-2.7889456588745114,9.575310264587403,-0.39594109954833984
1790592439928309500,3.9833095703125,-0.9823708686828613,10.0487636428833,-0.9332897346496581
1790592439938322400,3.993322509765625,0.5333084197998047,9.6779616607666,-0.5156511825561523
1790592439948335400,4.00333544921875,1.3603554557800293,9.664494276428222,-0.3000233955383301
1790592439958347500,4.013347412109375,1.7473182991027831,9.758765966796874,-0.15592238311767578
1790592439968360400,4.0233603515625,1.6635212409973144,9.815179343414306,-0.003890577697753906
1790592439978373600,4.03337353515625,0.9567828384399414,9.881618439483642,-0.2346317626953125
1790592439988386300,4.04338623046875,-0.01631049880981445,9.864260477447509,-0.4761468551635742
1790592439998400300,4.053400146484375,-0.639700756072998,9.833285493469237,-0.4037222549438476
1790592440008413200,4.0634130859375,-0.764199242401123,9.7162688873291,-0.34970307998657224
1790592440018426000,4.073426025390625,-0.23912089080810545,9.721805478668212,-0.3618237258911133
1790592440028439300,4.083439208984375,0.46312838363647457,9.744101481628418,-0.31094694061279293
1790592440038452200,4.0934521484375,0.781407566833496,9.814880068206786,-0.1958756233215332
1790592440048464100,4.103464111328125,0.6060322952270507,9.90271734161377,-0.07646481552124022
1790592440058477000,4.11347705078125,0.09756371765136718,9.895385099029541,-0.11537059249877929
1790592440068490200,4.123490234375,-0.28057050704956055,9.809044201660155,-0.23268647384643554
1790592440078503200,4.133503173828125,-0.21158757171630857,9.796923555755615,-0.46731823654174803
1790592440088516400,4.143516357421875,0.18180968856811522,9.72973627166748,-0.884208600616455
1790592440098529000,4.153529052734375,0.5668272430419922,9.764152920532226,-1.0947487091064452
1790592440108542200,4.163542236328125,0.6576572685241698,9.807996738433838,-1.0115502014160156
1790592440118555100,4.17355517578125,0.4176385520935058,9.855880771636963,-0.9635165306091308
1790592440128568000,4.183568115234375,0.18659809188842771,9.83747534637451,-1.133205573272705
1790592440138580000,4.193580078125,0.19961656341552733,9.78166052017212,-1.2292729148864745
1790592440148593200,4.20359326171875,0.32620997619628905,9.713725048065186,-0.9210194511413574
1790592440158606300,4.2136064453125,0.38037878875732417,9.751433724212646,-0.613514175415039
1790592440168619300,4.223619384765625,0.3037643356323242,9.809493114471435,-0.6527192276000976
1790592440178632200,4.233632080078125,0.22071546554565427,9.84510686416626,-0.7978677032470702
1790592440188645000,4.24364501953125,0.17791911087036133,9.849446354675292,-0.9913491249084472
1790592440198658300,4.253658203125,0.17791911087036133,9.824157599639893,-1.0913070442199706
1790592440208671000,4.2636708984375,0.2145803237915039,9.819818109130859,-1.0404302589416503
1790592440218684200,4.27368408203125,0.21338322296142576,9.749937348175049,-1.014542953491211
1790592440228697000,4.283697021484375,0.15113397979736326,9.765499658966064,-1.1552023010253905
1790592440238709200,4.293709228515625,0.13467384338378904,9.760711255645752,-1.1568483146667479
1790592440248722200,4.30372216796875,0.1666962905883789,9.78121160736084,-0.9889549232482909
1790592440258735000,4.313735107421875,0.18136077575683593,9.806949275207518,-0.8409633331298828
1790592440268748300,4.323748291015625,0.1227028350830078,9.8319387550354,-0.8494926765441894
1790592440278761200,4.33376123046875,0.06000467910766601,9.839121360015868,-0.9494505958557128
1790592440288774100,4.343774169921875,0.02858078231811523,9.794828629302978,-0.9769839149475097
1790592440298787000,4.353787109375,-0.025139117431640625,9.795726454925537,-0.8105868995666503
1790592440308800300,4.36380029296875,-0.06509235763549805,9.766696759796142,-0.6872855140686035
1790592440318813200,4.373813232421875,-0.03456628646850586,9.7683427734375,-0.7249941902160644
1790592440328825300,4.383825439453125,0.060902504730224606,9.778518130493163,-0.8084919731140137
1790592440338838000,4.393838134765625,0.0474351203918457,9.81906992111206,-0.689530078125
1790592440348851200,4.403851318359375,-0.07900865478515624,9.887304668426513,-0.5398924743652344
1790592440358864100,4.413864013671875,-0.1375169578552246,9.880122063446045,-0.512658430480957
1790592440368877000,4.423876953125,-0.09023147506713866,9.808445651245117,-0.5382464607238769
1790592440378890200,4.43389013671875,-0.0032920272827148436,9.740360541534423,-0.656909080505371
1790592440388903200,4.443903076171875,0.05401917495727539,9.73661960144043,-0.6862380508422851
1790592440398916400,4.453916259765625,0.03621230010986328,9.820715934753418,-0.6290764862060546
1790592440408929000,4.463928955078125,-0.03366846084594726,9.852738381958007,-0.6293757614135742
1790592440418941200,4.473941162109375,-0.05835866546630859,9.852439106750488,-0.7187094108581542
1790592440428954000,4.4839541015625,0.0378583137512207,9.759813430023193,-0.7864952453613281
1790592440438967300,4.49396728515625,0.12449848632812499,9.693374333953857,-0.7562684494018554
1790592440448980000,4.50397998046875,0.09681552963256836,9.730783734893798,-0.5888239707946777
1790592440458993200,4.5139931640625,-0.02319382858276367,9.808146376037596,-0.39100305862426754
1790592440469006000,4.524006103515625,-0.06778583450317383,9.864559752655028,-0.2668038475036621
1790592440479019300,4.534019287109375,0.019602526092529295,9.819219558715819,-0.35299510726928707
1790592440489032200,4.5440322265625,0.13257891693115234,9.796624280548095,-0.5280711036682129
1790592440499045000,4.554045166015625,0.12389993591308593,9.751433724212646,-0.5240308883666992
1790592440509058300,4.564058349609375,0.016460136413574217,9.765350021362304,-0.49365445480346676
1790592440519070200,4.5740703125,-0.006883329772949218,9.797222830963134,-0.4267664459228515
1790592440529083100,4.584083251953125,0.06808510971069336,9.802759422302245,-0.4574421546936035
1790592440539096000,4.594095947265625,0.20290859069824219,9.80006594543457,-0.5617395645141601
1790592440549109200,4.604109130859375,0.28221652069091796,9.776722479248047,-0.6181529411315918
1790592440559122200,4.6141220703125,0.22909517135620117,9.762506906890868,-0.515202269744873
1790592440569135000,4.624135009765625,0.09516951599121093,9.74290438079834,-0.426467170715332
1790592440579148300,4.634148193359375,-0.03232172241210937,9.712079034423828,-0.2861070983886719
1790592440589161200,4.6441611328125,0.5620388397216797,10.2533182472229,0.5641337661743163
1790592440599174100,4.654174072265625,0.8999205490112304,9.649380878448486,1.6668132682800292
1790592440609186000,4.66418603515625,0.6552630668640136,9.548225858306884,1.950975077819824
1790592440619199200,4.67419921875,0.016909049224853513,9.783456171417235,0.32456396255493164
1790592440629212200,4.684212158203125,-0.1349731185913086,9.970652813720703,-2.4595932929992674
1790592440639225300,4.694225341796875,0.08589198455810547,9.689334118652344,-3.1733646629333494
1790592440649238000,4.704238037109375,0.3799298759460449,9.584438158416747,0.07317278823852538
1790592440659251200,4.714251220703125,0.5249287139892578,9.8442090385437,2.2322937728881835
1790592440669264100,4.72426416015625,0.17238251953125,9.20540610809326,0.833182177734375
1790592440679277000,4.734277099609375,-0.1379658706665039,9.879673150634765,-2.0979192047119137
1790592440689290200,4.744290283203125,-0.035763387298583985,10.040832849884033,-2.539649411010742
1790592440699303200,4.75430322265625,0.18076222534179687,9.961824195098876,-0.21787235107421873
1790592440709315000,4.764315185546875,-0.11297639083862304,9.769988787078857,0.35778351058959956
1790592440719328300,4.774328369140625,-0.6072293960571289,9.74859060974121,-1.8242320274353025
1790592440729341200,4.784341064453125,-0.6980594215393066,9.454403080749511,-2.5092729774475098
1790592440739354000,4.79435400390625,-0.625036270904541,9.335291548156738,-0.16519991455078123
1790592440749367300,4.8043671875,-0.21817162628173828,9.810241302490233,1.7580922065734863
1790592440759380200,4.814380126953125,0.05357026214599609,9.75502502670288,1.8031331253051757
1790592440769393200,4.82439306640625,-0.09157821350097656,9.85094273071289,0.018854338073730468
1790592440779406000,4.834406005859375,-0.616058014678955,9.853037657165526,-0.9874585472106933
1790592440789419300,4.844419189453125,-1.046415763092041,9.785102185058593,0.6408978569030761
1790592440799431200,4.85443115234375,-0.8370727554321289,9.828347452545165,2.0790648666381837
1790592440809444000,4.864444091796875,-0.4993406837463379,9.503484214782715,2.2815245445251464
1790592440819457300,4.874457275390625,-0.3800795135498047,9.51291138381958,2.07502465133667
1790592440829470200,4.88447021484375,-0.72140288772583,9.897629663085937,1.5325883377075193
1790592440839483100,4.894483154296875,-0.9277531433105468,10.08153427810669,1.9867384651184081
1790592440849496000,4.90449609375,-0.7583633758544921,9.918130014801024,2.6695348510742187
1790592440859509200,4.91450927734375,-0.5562029731750487,9.589825112152099,2.7639561790466307
1790592440869522200,4.924522216796875,-0.46208092041015625,9.356240812683104,2.6440964584350586
1790592440879535000,4.93453515625,-0.5599439132690429,9.614365679168701,2.130390564727783
1790592440889548000,4.944548095703125,-0.7603086647033691,9.817124632263184,2.031480108642578
1790592440899560200,4.954560302734375,-0.8339303657531738,10.056844073486328,2.7314848190307615
1790592440909573000,4.964572998046875,-0.7519289588928222,10.09395419921875,3.034052053833008
1790592440919586300,4.97458642578125,-0.6884826148986816,9.826252526092528,2.9568390502929685
1790592440929599200,4.98459912109375,-0.7365162857055664,9.611522564697266,2.8196213676452637
1790592440939612200,4.994612060546875,-0.8560767311096191,9.643245736694336,2.9062615402221676
1790592440949625300,5.004625244140625,-0.9305962577819824,9.707889181518555,2.8661586624145508
1790592440959638000,5.014637939453125,-1.004966146850586,9.86366192703247,2.4651298843383787
1790592440969651200,5.024651123046875,-0.9832686943054199,9.90271734161377,2.2227169662475585
1790592440979664100,5.0346640625,-0.859967308807373,9.860968450164794,2.4090157829284666
1790592440989676300,5.04467626953125,-0.6341641647338867,9.85094273071289,2.135478243255615
1790592440999689200,5.054689208984375,-0.4557961410522461,9.813533329772948,1.141585279083252
1790592441009702000,5.064701904296875,-0.41464580001831053,9.847949978637695,0.2316390106201172
1790592441019715000,5.074715087890625,-0.42886137237548827,9.823559049224853,-0.07107786178588867
1790592441029728000,5.08472802734375,-0.565031591796875,9.733177936553954,0.18091186294555664
1790592441039741000,5.094740966796875,-0.6479308242797851,9.750086985778808,0.4147954376220703
1790592441049754000,5.104754150390625,-0.47420156631469723,9.790339501190186,0.2952349922180176
1790592441059767000,5.11476708984375,-0.21188684692382811,9.788992762756347,0.04115034103393554
1790592441069780200,5.1247802734375,-0.20335750350952148,9.746645320892334,-0.15547347030639647
1790592441079793000,5.13479296875,-0.4950011932373047,9.815927531433104,-0.21966800231933592
1790592441089805000,5.14480517578125,-0.8150760276794433,9.840318460845946,-0.21248539733886718
1790592441099818000,5.15481787109375,-0.761655403137207,9.836427883148193,-0.2950853546142578
1790592441109831200,5.1648310546875,-0.29613281784057616,9.721655841064452,-0.19018939437866209
1790592441119843800,5.17484375,0.0326209976196289,9.633220017242431,0.18046295013427732
1790592441129857000,5.18485693359375,0.005237316131591796,9.689483756256102,0.43843817901611326
1790592441139870200,5.1948701171875,-0.3012204963684082,9.70444751663208,0.455197590637207
1790592441149883100,5.204883056640625,-0.5425859512329101,9.981426721191406,0.1731307075500488
1790592441159896000,5.21489599609375,-0.5220855995178222,9.9215716796875,-0.014963760375976562
1790592441169909000,5.224908935546875,-0.48811786346435543,9.787646024322509,0.16609774017333984
1790592441179921200,5.234921142578125,-0.6417956825256347,9.671527243804931,0.4682160621643066
1790592441189934000,5.24493408203125,-0.6350619903564453,9.76175871887207,0.7697358337402344
1790592441199947000,5.254947021484375,-0.4159925384521484,9.642198273468017,1.1595417915344237
1790592441209960000,5.2649599609375,-0.1649006393432617,9.720309102630615,1.3727753768920898
1790592441219973000,5.27497314453125,-0.1988683753967285,9.64578957595825,1.3633482078552246
1790592441229986000,5.284986083984375,-0.6126163497924805,9.835230782318115,1.0697592292785645
1790592441239999000,5.2949990234375,-1.0152911415100097,10.079289714050292,0.8617629600524902
1790592441250012200,5.30501220703125,-1.0483610519409179,10.207529140472412,0.7887398094177246
1790592441260025000,5.315025146484375,-0.5972036766052246,9.892990897369383,0.8381202186584472
1790592441270038000,5.3250380859375,-0.044592005920410155,9.460538222503661,1.0435726486206054
1790592441280050000,5.3350498046875,0.14589666366577148,9.124901077270508,1.2081740127563476
1790592441290063000,5.34506298828125,-0.15427636947631834,9.268553176879882,1.1658265708923339
1790592441300076000,5.355075927734375,-0.5446808776855468,9.77417863998413,0.943614729309082
1790592441310089200,5.365089111328125,-0.6886322525024413,10.036942272186279,0.8071452346801757
1790592441320102000,5.375101806640625,-0.4144961624145508,10.555885482025145,0.6884826148986816
1790592441330115000,5.385114990234375,0.09756371765136718,10.126874472045898,0.7746738746643066
1790592441340128000,5.3951279296875,0.2659060218811035,9.589376199340819,0.8873509902954101
1790592441350141000,5.405140869140625,-0.14948796615600585,9.198223503112793,0.7077858657836914
1790592441360154000,5.415154052734375,-0.4613327323913574,9.536404487609863,0.7116764434814453
1790592441370167000,5.4251669921875,-0.2876034744262695,9.577554828643798,0.9714473236083984
1790592441380179200,5.43517919921875,-0.016460136413574217,9.740360541534423,0.845901374053955
1790592441390192000,5.445192138671875,0.13631985702514648,9.923965881347655,0.7082347785949706
1790592441400205000,5.455205078125,0.117465518951416,9.922768780517577,0.8975263473510742
1790592441410218000,5.465218017578125,0.019901801300048826,10.101136804199218,0.8313865264892578
1790592441420231200,5.475231201171875,0.09112930068969725,10.068964719390868,0.8192658805847167
1790592441430244000,5.485244140625,0.22565350646972654,9.462782786560059,1.0516530792236327
1790592441440257000,5.495257080078125,-0.030825346374511717,9.01461816329956,1.2424410240173338
1790592441450270000,5.50527001953125,-0.4873696754455566,9.408464336395262,1.163881282043457
1790592441460283100,5.515283203125,-0.436043977355957,9.708936644744872,1.0271125122070313
1790592441470295000,5.525294921875,0.2602197929382324,9.957933617401123,1.2313678413391111
1790592441480308000,5.535307861328125,0.7384615745544433,9.91438907470703,1.5102923347473143
1790592441490321200,5.545321044921875,0.7459434547424316,9.963170933532714,1.7949030570983886
1790592441500334000,5.555333984375,0.2654571090698242,9.790040225982665,1.8249802154541015
1790592441510347000,5.565346923828125,-0.36571430358886714,9.811288765716553,1.2955623733520507
1790592441520360000,5.57535986328125,-0.46148236999511716,9.699509475708007,1.1086650062561034
1790592441530373000,5.585373046875,0.08349778289794921,9.55121861038208,1.4854524925231933
1790592441540386000,5.595385986328125,0.5446808776855468,9.567978022003173,1.6133926437377928
1790592441550399000,5.60539892578125,0.685040950012207,9.559747953796386,1.5774796188354492
1790592441560412200,5.615412109375,0.5400421119689941,9.835679695129395,1.563563321685791
1790592441570424000,5.625424072265625,0.28790274963378903,9.772083713531494,1.5951368560791015
1790592441580437000,5.63543701171875,-0.21966800231933592,9.559149403381348,1.6150386573791502
1790592441590450200,5.6454501953125,-0.6528688652038573,9.494206683349608,1.3971663063049315
1790592441600463000,5.655463134765625,-0.557998624420166,9.682301151275635,1.5803227333068848
1790592441610476000,5.66547607421875,0.23223756103515625,9.958831443023682,1.8535609977722167
1790592441620489200,5.6754892578125,1.0516530792236327,9.887005393218994,1.698835715484619
1790592441630502000,5.685501953125,1.1055226165771483,9.611971477508545,1.6314987937927246
1790592441640515000,5.69551513671875,0.29134441452026366,9.446322650146485,1.7847277000427244
1790592441650528000,5.705528076171875,-0.888697728729248,9.513360296630859,1.6533458839416504
1790592441660541200,5.715541259765625,-1.462557939147949,9.863213014221191,1.556380716705322
1790592441670553000,5.725552978515625,-0.9449614677429199,10.051157844543457,1.8471265808105468
1790592441680566000,5.73556591796875,0.2862567359924316,9.86441011505127,2.0956746406555173
1790592441690579000,5.745578857421875,1.0685621284484863,9.593865327453612,1.9615993476867675
1790592441700592000,5.755592041015625,0.843357534790039,9.264961874389648,1.925536685180664
1790592441710605000,5.76560498046875,-0.33309330596923825,9.4879219039917,1.918503717803955
1790592441720618000,5.775617919921875,-1.4136264427185057,9.929951385498047,1.703324843597412
1790592441730631200,5.785631103515625,-1.5260042831420897,10.115950926971434,1.7290625114440916
1790592441740644000,5.79564404296875,-0.5092167655944824,9.715371061706543,2.1733365570068357
1790592441750657000,5.805656982421875,0.5738602104187012,9.337536112213135,2.3636755889892576
1790592441760670000,5.815669921875,0.8943839576721191,9.265710062408447,2.2948422912597657
1790592441770682000,5.82568212890625,0.32351649932861326,9.405621221923827,2.231096672058105
1790592441780695000,5.835695068359375,-0.8429086219787597,10.55379055557251,1.7287632362365721
1790592441790708000,5.8457080078125,-1.2333131301879883,10.570998880004883,1.0158896919250489
1790592441800721200,5.85572119140625,-1.2958616485595702,9.602993221282958,0.8825625869750976
1790592441810734000,5.865734130859375,-1.087865379333496,9.228151023864745,1.5086463211059569
1790592441820747300,5.875747314453125,-0.745644179534912,8.868871137237548,2.710236279296875
1790592441830760000,5.885760009765625,-0.4038718925476074,9.020753305053711,2.955193036651611
1790592441840773000,5.895773193359375,-0.41748891448974607,9.624989949035644,2.793135511779785
1790592441850786000,5.9057861328125,-0.9400234268188477,10.837054539489746,2.0368670623779295
1790592441860798200,5.915798095703125,0.5850830307006836,12.325050871276854,0.39534254913330075
1790592441870811000,5.925810791015625,-0.21158757171630857,8.078485314178467,0.7993640792846679
1790592441880824000,5.935823974609375,-1.8604443275451659,9.782558345794676,2.2391771026611327
1790592441890837000,5.9458369140625,-2.268356435394287,9.558850128173827,3.0400375579833985
1790592441900850200,5.95585009765625,-2.4926632034301757,9.07836378250122,3.074005294036865
1790592441910863000,5.965863037109375,-0.7115268058776855,9.580846855926513,2.63032979888916
1790592441920876000,5.9758759765625,-0.303913973236084,9.376591526794433,1.1103110198974608
1790592441930889200,5.98588916015625,-0.7013514488220215,10.818349839019774,1.2407950103759764
1790592441940902000,5.99590185546875,-1.811961743927002,9.711330846405028,2.869151414489746
1790592441950915000,6.0059150390625,-1.852064621734619,9.928604647064208,3.1636382186889644
1790592441960927000,6.015927001953125,-0.7266402038574218,8.725518312835693,1.8160019592285155
1790592441970940200,6.025940185546875,0.09591770401000976,9.603442134094237,1.6623241401672362
1790592441980953000,6.035953125,0.5096656784057617,9.862015913391113,2.6623522460937497
1790592441990966000,6.045966064453125,0.4574421546936035,9.753678288269043,3.4597710365295407
1790592442000978700,6.055978759765625,0.6973112335205077,10.098144052124022,3.6213796485900875
1790592442010991900,6.065991943359375,0.4474164352416992,8.98932940826416,3.2276831130981445
1790592442021004800,6.0760048828125,-0.2510918991088867,9.687538467407226,2.8348844032287595
1790592442031017700,6.086017822265625,-0.958279214477539,10.340257695007324,3.050961103057861
1790592442041030700,6.09603076171875,-0.7293336807250976,10.556932945251464,3.7906197784423825
1790592442051043800,6.1060439453125,0.09771335525512695,9.453505255126952,3.8046857131958007
1790592442061055700,6.1160556640625,0.7389104873657226,8.351573941040039,3.0692168907165525
1790592442071068700,6.126068603515625,0.6024409927368164,9.004143531036377,2.1912930694580077
1790592442081081600,6.13608154296875,-0.26485855865478514,10.78917050628662,1.9809025985717772
1790592442091094800,6.1460947265625,-1.3819032707214354,10.798148762512206,2.2426187675476075
1790592442101107700,6.156107666015625,-1.9539678298950194,9.5001921875,2.2221184158325196
1790592442111120600,6.16612060546875,-1.6811784782409667,8.131307388305663,1.6973393394470213
1790592442121133800,6.1761337890625,-0.1253963119506836,7.505074016571045,2.1110873138427735
1790592442131146800,6.186146728515625,0.8225579078674315,8.844629845428466,3.5371336776733395
1790592442141159700,6.19615966796875,0.953790086364746,13.329717742919922,4.266766633605957
1790592442151171600,6.206171630859375,-0.20515315475463866,13.111845391845703,4.105756571960449
1790592442161184800,6.216184814453125,-2.4628853202819823,10.733355680084228,1.2271779884338379
1790592442171197700,6.22619775390625,-3.753210377502441,9.699509475708007,-1.3159130874633789
1790592442181211000,6.2362109375,-5.061192671966553,8.50405465927124,-2.417096213531494
1790592442191223600,6.2462236328125,-5.307496167755127,7.454646144104004,-1.6103998916625977
1790592442201236700,6.25623681640625,-4.209754706573486,7.027131510162353,1.5346832641601562
1790592442211250000,6.26625,-2.947711156463623,6.97176559677124,3.546560846710205
1790592442221262600,6.2762626953125,-2.266860059356689,10.236858110809326,4.377947373199462
1790592442231275800,6.28627587890625,-1.543062969970703,14.53729320526123,4.254945262908936
1790592442241288700,6.296288818359375,-0.39444472351074217,12.056301734924316,3.0720600051879883
1790592442251300900,6.30630078125,0.2780266677856445,6.762422589111328,1.8402432510375974
1790592442261313800,6.316313720703125,-0.0896329246520996,6.030245793914794,1.5810709213256835
1790592442271326700,6.32632666015625,-1.3507786491394043,8.2613424659729,1.5925930168151854
1790592442281339600,6.336339599609375,-2.266860059356689,11.404929245758057,1.0119991142272948
1790592442291352800,6.346352783203125,-1.5755343299865723,12.399869673156738,0.505026912689209
1790592442301365500,6.356365478515625,0.04055179061889648,10.87236901397705,1.3102268585205077
1790592442311378700,6.366378662109375,0.364517202758789,7.811980741882324,2.3597850112915038
1790592442321391900,6.376391845703125,-0.2979284690856933,8.071302709197997,2.5158570320129394
1790592442331404800,6.38640478515625,-0.5777507881164551,10.014346994018554,1.158793603515625
1790592442341417000,6.3964169921875,-0.165349552154541,10.018836122131347,0.011222820281982421
1790592442351429600,6.4064296875,0.6419453201293945,9.98501802368164,-0.3321954803466797
1790592442361442800,6.41644287109375,1.0673650276184081,10.72018757095337,-0.6836942115783691
1790592442371455700,6.426455810546875,0.8813654861450195,9.67885948638916,-1.535431452178955
1790592442381468700,6.43646875,0.4074631950378418,9.757419228363036,-2.170044529724121
1790592442391481600,6.446481689453125,-0.026485855865478514,9.224110808563232,-2.142062297821045
1790592442401494800,6.456494873046875,-0.5704185455322265,8.728959977722168,-1.5198691413879393
1790592442411507700,6.4665078125,-0.8405144203186035,9.091681529235839,-1.342698218536377
1790592442421520600,6.476520751953125,-0.9350853858947753,9.42253027114868,-1.9276316116333008
1790592442431533800,6.486533935546875,-0.9377788627624511,11.055076528167724,-2.5149592063903805
1790592442441545700,6.496545654296875,-0.5668272430419922,12.220753461456297,-2.507178050994873
1790592442451559000,6.506558837890625,-0.24615385818481444,10.15096612625122,-1.8742109870910644
1790592442461571600,6.516571533203125,-0.8355763793945312,8.238597550201415,-1.4561235221862792
1790592442471584800,6.526584716796875,-1.3394061912536621,8.19744720916748,-1.3940239166259765
1790592442481597700,6.53659765625,-1.571194839477539,9.140463388061523,-1.0489596023559569
1790592442491611000,6.54661083984375,-1.4606126502990722,10.851120474243164,-0.9560346504211426
1790592442501623600,6.55662353515625,-0.5731120223999023,11.847706915283203,-1.1429320175170898
1790592442511636700,6.56663671875,0.14784195251464843,10.211718993377685,-0.4230255058288574
1790592442521650000,6.57664990234375,-0.48632221221923827,8.975263473510742,0.3253121505737305
1790592442531661800,6.586661865234375,-1.4012065216064453,9.147945268249511,0.28730419921875
1790592442541674500,6.596674560546875,-1.4407108489990235,9.2190231300354,0.6832452987670898
1790592442551687700,6.606687744140625,-0.6070797584533691,9.858574248504638,1.1409867286682127
1790592442561700900,6.616700927734375,0.3042132484436035,9.713575410461425,1.6941969497680662
1790592442571713800,6.6267138671875,0.9404723396301269,8.81649797592163,2.6795605705261227
1790592442581726700,6.636726806640625,0.9371803123474121,10.665420207977295,3.131915046691894
1790592442591739600,6.64673974609375,0.9570821136474609,12.25846213760376,3.3131261848449705
1790592442601752800,6.6567529296875,0.5834370170593262,10.542717372894286,3.7873277511596677
1790592442611765500,6.666765625,-0.2510918991088867,8.345289161682128,2.703652224731445
1790592442621778700,6.67677880859375,-0.5235819755554199,8.414272097015381,1.5523405014038085
1790592442631790600,6.68679052734375,-0.3224690361022949,8.100482041931151,2.5104700782775877
1790592442641803800,6.6968037109375,-0.13168109130859373,8.780884226226807,3.4688989303588866
1790592442651816700,6.706816650390625,0.030974983978271482,11.10296056137085,2.1262007118225097
1790592442661829600,6.71682958984375,0.4563946914672851,13.526790467071532,1.1695675109863282
1790592442671842800,6.7268427734375,0.36855741806030273,10.567856490325926,2.062754367828369
1790592442681855700,6.736855712890625,-0.9995791931152344,7.980921596527099,3.143137866973877
1790592442691868700,6.74686865234375,-1.9505261650085448,7.648875753784179,3.061435735321045
1790592442701881600,6.756881591796875,-2.2267571815490723,8.233809146881104,3.4126351913452146
1790592442711894800,6.766894775390625,-2.2284031951904297,9.82505542526245,3.311629808807373
1790592442721906700,6.77690673828125,-1.4244003501892089,11.438148793792724,2.4781483558654784
1790592442731920000,6.786919921875,0.057610477447509766,12.956371921539306,2.647687760925293
1790592442741932500,6.7969326171875,0.6358101783752441,9.810091664886475,3.614795594024658
1790592442751945700,6.80694580078125,-0.6280290229797363,7.142352465057373,3.9817069984436033
1790592442761959000,6.816958984375,-2.0120272201538083,7.792976766204833,4.409221632385254
1790592442771971600,6.8269716796875,-2.053027923583984,9.42297918395996,5.2061915100097655
1790592442781984800,6.83698486328125,-1.1783961296081542,9.771036250305174,4.907365215301513
1790592442791997700,6.846997802734375,-0.14200608596801756,10.39981346130371,3.056796969604492
1790592442802011000,6.857010986328125,0.2680009483337402,10.410138455963134,1.2933178092956543
1790592442812022800,6.867022705078125,0.3721487205505371,9.888651406860351,1.605611488342285
1790592442822035700,6.87703564453125,0.09307458953857421,8.755445833587647,3.0353987922668457
1790592442832048600,6.887048583984375,-0.3989338516235351,8.539967684173584,3.3789667304992674
1790592442842061800,6.897061767578125,-0.438587816619873,9.156175336456299,2.5975591636657716
1790592442852074500,6.907074462890625,-0.15906477279663084,10.765228489685057,1.6410756004333495
1790592442862087700,6.917087646484375,0.003890577697753906,10.19645595779419,0.8940846824645996
1790592442872100900,6.927100830078125,0.2723404388427734,9.576806640625,0.8981248977661133
1790592442882113800,6.93711376953125,0.6286275733947754,9.268403539276122,0.953191535949707
1790592442892126700,6.947126708984375,0.507570751953125,9.751882637023925,0.30735563812255856
1790592442902138600,6.957138671875,0.6708253776550293,10.28593924484253,-0.5653308670043945
1790592442912151800,6.96715185546875,0.9911994873046874,9.834033681488037,-1.8130092071533201
1790592442922164700,6.977164794921875,1.0066121604919434,8.550143041229248,-2.8274025230407713
1790592442932177700,6.987177734375,0.921917276763916,9.01536635131836,-3.0934581825256346
1790592442942190600,6.997190673828125,0.8277952239990234,11.023054080963135,-2.5698762069702146
1790592442952203800,7.007203857421875,0.5602431884765625,10.464456906127928,-2.6856957122802734
1790592442962216700,7.017216796875,0.34865561676025386,10.071807833862303,-3.5845687980651855
1790592442972229600,7.027229736328125,0.2380734275817871,10.048614005279541,-4.339640146636962
1790592442982242800,7.037242919921875,0.013168109130859374,8.705616511535643,-4.662258820343017
1790592442992254700,7.047254638671875,-0.15771803436279297,8.89341170425415,-5.119252062225342
1790592443002268000,7.057267822265625,0.1740285331726074,10.77091471862793,-5.3758805526733395
1790592443012280800,7.06728076171875,0.9175777862548827,11.52957736968994,-4.70535445022583
1790592443022293800,7.077293701171875,1.008108536529541,9.007285920715331,-4.179677548217773
1790592443032307000,7.087306884765625,0.48332946014404293,8.500313719177246,-3.988291053009033
1790592443042320000,7.09731982421875,-0.2823661582946777,9.55121861038208,-3.3467946456909177
1790592443052332800,7.107332763671875,0.5027823486328125,10.702231058502196,-2.634669289398193
1790592443062345700,7.117345703125,1.3856442108154297,9.096769207763671,-1.7905635665893553
1790592443072359000,7.12735888671875,1.3202525779724121,10.637737251281738,-1.2479776153564452
1790592443082370800,7.137370849609375,0.8189666053771972,10.678139404296875,-0.4842272857666015
1790592443092383700,7.1473837890625,0.09427169036865234,9.80724855041504,0.05386953735351562
1790592443102396700,7.157396728515625,-0.06988076095581054,9.077615594482422,-0.40940848388671874
1790592443112409900,7.167409912109375,-0.2380734275817871,8.935908783721922,0.2518400871276855
1790592443122423000,7.177423095703125,0.0016460136413574218,10.461314516448974,1.2779051361083984
1790592443132435700,7.187435791015625,0.47494975433349607,10.630105733489989,1.85146607131958
1790592443142449000,7.197448974609375,0.4164414512634277,8.977508037567139,2.3391350219726563
1790592443152461800,7.2074619140625,-0.45489831542968745,9.202712631225586,2.325069087219238
1790592443162474800,7.217474853515625,-0.6889315277099609,10.317961692047119,1.6162357582092284
1790592443172486700,7.227486572265625,-0.010474632263183592,9.901071327972412,1.0519523544311522
1790592443182499800,7.237499755859375,0.6401496688842773,10.206631314849853,1.1323077476501464
1790592443192512800,7.2475126953125,0.9500491462707519,10.282048667144775,1.8017863868713377
1790592443202526000,7.25752587890625,0.42242695541381836,9.024494245147704,2.3693618179321287
1790592443212539000,7.267538818359375,-0.5042787246704101,9.012822512054443,2.3620295753479
1790592443222551800,7.2775517578125,-0.48811786346435543,9.325714741516112,2.514211018371582
1790592443232565000,7.28756494140625,-0.2275987953186035,9.611223289489745,2.629132698059082
1790592443242577700,7.29757763671875,0.26665420989990235,10.84034656677246,1.8727146110534667
1790592443252590800,7.3075908203125,0.4704606262207031,10.316465316009522,1.11075993270874
1790592443262602800,7.317602783203125,-0.20694880599975585,10.307038146972655,0.8557774559020995
1790592443272616000,7.327615966796875,-0.4993406837463379,9.280823460388183,0.9816226806640624
1790592443282628900,7.33762890625,-0.6866869636535644,8.156745780944824,1.5114894355773925
1790592443292641800,7.347641845703125,-0.5672761558532714,8.948179067230225,1.830367169189453
1790592443302654700,7.35765478515625,-0.3321954803466797,10.144082796478271,1.0009259315490722
1790592443312668000,7.36766796875,0.364517202758789,11.2117470993042,-0.09741408004760742
1790592443322680800,7.377680908203125,1.0613795234680174,10.976217510986327,-0.9745897132873534
1790592443332693800,7.38769384765625,1.0989385620117187,8.988581220245361,-1.1013327636718748
1790592443342707000,7.39770703125,0.7261912910461426,9.437494031524658,-0.19512743530273435
1790592443352718800,7.40771875,-0.06344634399414062,8.915707707214356,0.685040950012207
1790592443362732000,7.41773193359375,-0.5591957252502441,10.251372958374024,1.0462661254882812
1790592443372744700,7.42774462890625,-0.2910451393127441,10.12552773361206,1.2062287239074707
1790592443382758000,7.4377578125,-0.005087678527832031,9.76160908126831,1.4215572357177733
1790592443392770800,7.447770751953125,-0.06718728408813476,10.151863951873779,0.8156745780944824
1790592443402783700,7.45778369140625,0.08933364944458007,10.777947686004637,0.9566332008361815
1790592443412796700,7.467796630859375,0.7091326042175292,9.62843161392212,1.6971897018432616
1790592443422809900,7.477809814453125,0.8396165946960449,8.905382712554932,2.0956746406555173
1790592443432823000,7.487822998046875,0.19931728820800781,9.083301823425293,2.1287445510864256
1790592443442835000,7.4978349609375,-0.6238391700744629,10.085424855804442,2.254889051055908
1790592443452847900,7.507847900390625,-0.977432827758789,10.96903490600586,1.8994997421264648
1790592443462860800,7.51786083984375,-0.8907926551818847,9.532513909912108,1.6334440826416015
1790592443472874000,7.5278740234375,-0.46417584686279295,9.543437454986572,2.2789807052612305
1790592443482887000,7.537886962890625,-0.598251139831543,9.259574920654297,2.606088507080078
1790592443492899800,7.54789990234375,-1.0835258888244628,9.855880771636963,2.0869956596374513
1790592443502912800,7.557912841796875,-1.1858780097961426,9.85094273071289,0.778265177154541
1790592443512926000,7.567926025390625,-0.4159925384521484,11.042357331848144,-0.08364742050170898
1790592443522938600,7.577938720703125,0.6356605407714844,9.828646727752686,-0.09202712631225586
1790592443532950800,7.58795068359375,0.3947439987182617,8.341248946380615,0.15786767196655271
1790592443542963700,7.597963623046875,-0.44367549514770505,9.537302313232422,-0.6373065544128418
1790592443552977000,7.607976806640625,-0.8696937530517578,10.116100564575195,-0.6212953308105469
1790592443562989800,7.61798974609375,-0.273238264465332,10.497826091766356,0.2609679809570312
1790592443573002800,7.628002685546875,0.32710780181884763,9.731083010101317,0.7636006919860839
1790592443583016000,7.638015869140625,-0.04803367080688476,9.106196376800536,0.5337573326110839
1790592443593028900,7.64802880859375,-1.101183126068115,10.039486111450195,-0.24765023422241209
1790592443603041800,7.658041748046875,-1.3795090690612792,10.468347483825683,-0.9715969612121581
1790592443613054700,7.6680546875,-1.147870058441162,10.109217234802246,-1.6946458625793457
1790592443623067000,7.67806689453125,-0.6854898628234863,10.290129097747801,-2.456750178527832
1790592443633079800,7.688079833984375,-0.7223007133483886,9.259126007843017,-2.9976901161193847
1790592443643093000,7.698093017578125,-1.0586860466003418,8.847323322296143,-2.7111341049194335
1790592443653105700,7.708105712890625,-1.1938088027954101,9.83178911743164,-1.8345570220947265
1790592443663118800,7.718118896484375,-0.2871545616149902,11.060313844299316,-0.8626607856750488
1790592443673132000,7.728132080078125,0.1183633445739746,9.696367086029053,-0.13572130661010742
1790592443683144700,7.738144775390625,-1.0925041450500488,9.185953219604492,-0.7927800247192383
1790592443693158000,7.748157958984375,-1.8435352783203125,10.070610733032225,-1.7898153785705566
1790592443703169800,7.758169677734375,-1.9291279876708982,10.098293689727782,-1.0935516082763672
1790592443713183000,7.768182861328125,-1.7170915031433105,9.573065700531005,-0.5729623847961426
1790592443723196000,7.77819580078125,-1.7576432937622068,9.364321243286133,-0.9392752388000488
1790592443733208800,7.788208740234375,-1.8516157089233398,9.9851676612854,-1.211166764831543
1790592443743221800,7.7982216796875,-1.1047744285583496,10.484957257843018,-0.4230255058288574
1790592443753235000,7.80823486328125,-0.6221931564331055,9.520991814422606,0.8717886795043944
1790592443763247600,7.81824755859375,-1.291671795654297,9.496900160217285,0.7770680763244628
1790592443773260800,7.8282607421875,-1.7679682884216308,9.975441217041014,-0.2871545616149902
1790592443783274000,7.83827392578125,-1.7878700897216795,9.514258122253418,-0.476895043182373
1790592443793286000,7.848285888671875,-1.567304261779785,9.52578021774292,-0.02289455337524414
1790592443803299000,7.858299072265625,-1.2020388710021972,10.186579875946045,0.3672106796264648
1790592443813311700,7.868311767578125,-0.8852560638427733,10.088118332672119,0.5241805259704589
1790592443823325000,7.878324951171875,-1.280748250579834,9.542689266967773,1.116595799255371
1790592443833337900,7.888337890625,-1.305588092803955,10.595090534210204,1.504157192993164
1790592443843350800,7.898350830078125,-1.0016741195678711,9.14300722732544,1.8248305778503418
1790592443853363700,7.90836376953125,-1.4618097511291503,9.639055883789062,1.9651906501770018
1790592443863377000,7.918376953125,-1.5975310577392576,10.383502962493896,1.8599954147338866
1790592443873390000,7.92839013671875,-0.7390601249694824,10.29761097793579,2.0623054550170896
1790592443883402000,7.938402099609375,-0.699705435180664,9.132382957458496,2.3409306732177733
1790592443893414700,7.94841455078125,-1.7293617866516113,9.312995545196532,1.9681834022521971
1790592443903427800,7.958427734375,-2.2698528114318846,8.626907131958008,1.7842787872314452
1790592443913441000,7.96844091796875,-1.7802385719299316,9.18086554107666,2.408716507720947
1790592443923453700,7.97845361328125,-1.1423334671020506,10.379911660003662,2.859424970245361
1790592443933467000,7.988466796875,-0.2946364418029785,11.50548571548462,2.9607296279907227
1790592443943479800,7.998479736328125,-0.05805939025878906,9.181913004302977,3.320458427429199
1790592443953493000,8.008492919921874,-1.1569979522705078,8.366238426208495,3.245190712738037
1790592443963505700,8.018505615234375,-1.4959271247863768,10.11265889968872,3.5187282524108885
1790592443973517800,8.028517822265625,-0.9500491462707519,10.826280632019042,4.077325427246094
1790592443983530800,8.03853076171875,-0.743100340270996,9.950451737213134,4.41790061340332
1790592443993543700,8.048543701171875,-1.1972504676818847,9.092579354858398,4.14975002746582
1790592444003556600,8.058556640625,-2.0657471199035644,8.80482624282837,3.332130160522461
1790592444013569500,8.068569580078124,-2.185157927703857,10.343699359893797,3.4030583847045897
1790592444023582500,8.07858251953125,-1.1379939765930176,10.25975266418457,3.493439497375488
1790592444033595600,8.088595703125,-0.49245735397338863,8.201487424468993,3.1530139488220215
1790592444043608600,8.098608642578125,-0.7080851409912109,10.047117629241942,3.08358210067749
1790592444053620500,8.108620361328125,-0.6893804405212401,11.378742665100097,3.6725557090759273
1790592444063633400,8.11863330078125,-0.4765957679748535,9.861267725372313,3.737498429107666
1790592444073646600,8.128646484375,-0.8846575134277344,8.137592167663573,2.9496564453125
1790592444083659800,8.13865966796875,-0.8601169464111328,10.532392378234862,2.952050646972656
1790592444093672400,8.14867236328125,-0.7873930709838867,8.867075485992432,3.7894226776123046
1790592444103685600,8.158685546875,-1.5713444770812988,10.159196194458007,4.06700043258667
1790592444113698600,8.168698486328125,-1.4673463424682616,9.306561128234863,2.9759926635742184
1790592444123711500,8.17871142578125,-1.073799444580078,9.011924686431884,2.6632500717163086
1790592444133724400,8.188724365234375,-0.30735563812255856,9.711031571197509,2.6458921096801755
1790592444143736600,8.198736572265625,-0.607827946472168,8.14612151107788,2.8854619132995603
1790592444153749500,8.20874951171875,-1.6313491561889648,8.515127841949463,1.9231424835205078
1790592444163762700,8.2187626953125,-2.0810101554870606,9.118017747497557,0.8852560638427733
1790592444173775400,8.228775390625,-1.3063362808227539,11.735777987670899,1.4182652084350584
1790592444183788500,8.23878857421875,-0.26276363220214843,9.909899946594237,1.7024270179748535
1790592444193801700,8.2488017578125,-1.2882301307678221,7.129333993530273,0.349852717590332
1790592444203814400,8.258814453125,-1.959354783630371,10.314819302368164,-1.7311574378967285
1790592444213827600,8.26882763671875,-1.3491326354980469,10.777199497985839,-2.655169641113281
1790592444223840500,8.278840576171875,-0.8839093254089355,10.446350756072997,-2.4461259086608886
1790592444233852700,8.288852783203126,-0.3167828071594238,11.044302620697021,-2.384026303100586
1790592444243865600,8.298865478515625,-0.16026187362670896,8.888324025726318,-2.775029361724853
1790592444253878500,8.30887841796875,-0.9798270294189453,8.60655641784668,-3.397072880554199
1790592444263891500,8.318891357421874,-1.605611488342285,9.083900373840331,-3.7734114540100094
1790592444273904600,8.328904541015625,-1.2147580673217773,11.01287872390747,-3.6290111663818356
1790592444283917600,8.33891748046875,0.26695348510742184,11.004648655700683,-3.1304186706542967
1790592444293930500,8.348930419921874,0.2651578338623047,8.96374137802124,-3.1084219429016113
1790592444303943700,8.358943603515625,-0.8258499351501465,9.579051204681395,-3.684377079772949
1790592444313956600,8.36895654296875,-2.0569185012817384,8.717737157440185,-3.5045126800537107
1790592444323968800,8.37896875,-2.051082634735107,10.202441461944579,-3.9516298400878904
1790592444333981400,8.3889814453125,-0.5452794281005859,11.602450882720946,-4.437802414703369
1790592444343994600,8.39899462890625,0.7869441581726073,11.255890192413329,-3.552845626068115
1790592444354007600,8.409007568359375,0.44547114639282226,7.690475007629394,-3.1515175727844236
1790592444364020500,8.4190205078125,-0.7272387542724609,9.18759923324585,-3.9954736579895016
1790592444374033400,8.429033447265626,-0.7119757186889648,10.236708473205566,-3.9481881752014156
1790592444384046600,8.439046630859375,-0.12315174789428711,9.73632032623291,-2.067393133544922
1790592444394059800,8.449059814453125,0.1666962905883789,10.140192218780516,-2.016217073059082
1790592444404072400,8.459072509765624,0.45669396667480466,10.243591802978514,-2.5884312698364256
1790592444414084400,8.46908447265625,-0.2705447875976562,9.05292538986206,-1.867477294921875
1790592444424097500,8.47909765625,-1.056591120147705,10.677540853881835,-1.9752163696289062
1790592444434110700,8.48911083984375,-0.36002807464599607,9.56917512283325,-1.5415665939331054
1790592444444123400,8.499123291015625,0.2041056915283203,8.539069858551025,-0.5243301635742187
1790592444454136600,8.509136474609376,0.2528875503540039,9.764152920532226,-0.7752724250793457
1790592444464149500,8.5191494140625,0.46686932373046874,11.174936248779296,-1.0778396598815918
1790592444474162700,8.52916259765625,0.10429740982055663,8.780136038208008,-0.42586862030029293
1790592444484175400,8.53917529296875,-0.3528454696655273,9.242965146636962,-0.761655403137207
1790592444494187500,8.5491875,0.8511386901855468,10.383203687286377,-0.8759785324096679
1790592444504200400,8.559200439453125,1.1885714866638184,8.173355554962157,0.3887584945678711
1790592444514213600,8.569213623046876,0.503680174255371,8.93725552215576,0.8496423141479492
1790592444524226600,8.5792265625,0.23852234039306638,10.246285279846191,0.07751227874755859
1790592444534239500,8.589239501953125,1.0319009155273438,11.428871262359618,0.3028665100097656
1790592444544252700,8.599252685546874,1.4531307701110838,10.15680199279785,1.795950520324707
1790592444554265600,8.609265625,0.924461116027832,7.746738746643066,2.5061305877685545
1790592444564278500,8.619278564453126,-0.08903437423706054,8.799888201904297,2.233191598510742
1790592444574291500,8.62929150390625,-0.2193687271118164,11.263521710205078,1.5695488258361816
1790592444584303600,8.6393037109375,0.43679216537475585,11.285817713165283,1.4395137481689453
1790592444594316500,8.649316650390626,1.3795090690612792,10.250026219940185,1.8309657196044922
1790592444604329500,8.65932958984375,1.0723030685424804,8.895356993103027,2.147748526763916
1790592444614342400,8.66934228515625,0.18180968856811522,10.565163013458251,2.0810101554870606
1790592444624355600,8.67935546875,-0.4248211570739746,9.222015882110595,2.2417209419250486
1790592444634368800,8.68936865234375,-0.7618050407409668,8.836250139617919,2.6090812591552734
1790592444644381400,8.69938134765625,-0.036062662506103516,10.889726976013183,2.646191384887695
1790592444654394600,8.70939453125,0.6290764862060546,9.62783306350708,3.0916625312805173
1790592444664406500,8.719406494140625,-0.01331774673461914,9.379733916473388,3.5549405525207516
1790592444674419700,8.729419677734375,-0.7115268058776855,11.406275984191893,3.1860838592529297
1790592444684432400,8.739432373046874,-0.8970774345397948,11.268759026336669,2.9321488456726073
1790592444694445600,8.749445556640625,-0.9578303016662597,8.79120922088623,3.0228292335510254
1790592444704458500,8.75945849609375,-0.9982324546813964,8.58066911239624,2.7726351600646972
1790592444714471700,8.7694716796875,-0.21906945190429686,9.71581997451782,2.8118402122497557
1790592444724484400,8.779484375,-0.5208884986877441,9.501239650726317,3.4281975021362303
1790592444734497500,8.78949755859375,-1.426944189453125,9.217975666809082,3.3265935691833493
1790592444744510700,8.7995107421875,-1.2069769119262694,11.144260540008544,2.505083124542236
1790592444754522600,8.809522705078125,0.052073886108398436,10.158747281646727,2.5987562644958495
1790592444764535600,8.81953564453125,0.23358429946899412,7.822006461334228,3.149273008728027
1790592444774548500,8.829548583984375,-0.7428010650634765,7.946654585266113,2.1197662948608396
1790592444784561700,8.839561767578125,-1.050156703186035,9.98606548690796,0.8768763580322265
1790592444794574600,8.84957470703125,0.07930792999267577,11.60604218521118,1.6588824752807616
1790592444804587500,8.85958740234375,1.0654197387695312,9.833285493469237,2.638110954284668
1790592444814600400,8.869600341796875,0.8271966735839843,8.992771073150633,2.0425532913208007
1790592444824613600,8.879613525390624,-0.556053335571289,9.602993221282958,1.4167688323974608
1790592444834626600,8.88962646484375,-1.770362490081787,10.027066190338134,2.1306898399353025
1790592444844638500,8.899638427734375,-1.1866261978149413,10.499771380615234,2.576609899139404
1790592444854651400,8.9096513671875,-0.11941080780029296,8.341997134399413,2.165405764007568
1790592444864664600,8.91966455078125,0.0026934768676757813,9.731232647705077,1.5994763465881348
1790592444874677800,8.929677734375,-0.24735095901489257,9.81278514175415,1.1993453941345213
1790592444884690400,8.9396904296875,-0.4408323806762695,10.443657279205322,1.3452420578002928
1790592444894703600,8.94970361328125,0.08918401184082031,10.249876582336425,1.1432312927246093
1790592444904716500,8.959716552734376,0.23418284988403318,9.670629418182372,1.4576198982238768
1790592444914729500,8.9697294921875,0.5226841499328613,10.18224038543701,1.7893664657592772
1790592444924741600,8.97974169921875,-0.028431144714355466,8.299350417327881,1.8332102836608886
1790592444934754600,8.989754638671876,-1.284489190673828,8.570044842529297,1.3690344367980956
1790592444944767500,8.999767578125,-1.961300072479248,8.750208517456054,0.2624643569946289
1790592444954780700,9.00978076171875,-0.8851064262390136,12.20638825149536,-0.14320318679809568
1790592444964793300,9.01979345703125,1.039981346130371,10.870423725128173,0.7836521308898925
1790592444974806500,9.029806640625,1.3416507553100585,8.415618835449218,1.5732897659301757
1790592444984819700,9.03981982421875,0.8512883277893066,9.794230078887939,1.0624269866943359
1790592444994832600,9.04983251953125,-0.09382277755737305,9.260622383880614,1.5604209320068358
1790592445004845600,9.059845458984375,-0.6311714126586914,9.287706790161133,2.415150924682617
1790592445014857700,9.069857666015626,-0.8658031753540039,8.99561418762207,1.4905401710510253
1790592445024870700,9.07987060546875,-0.4873696754455566,9.693823246765136,0.31708208236694335
1790592445034883800,9.0898837890625,-0.2693476867675781,10.06118356399536,1.2804489753723143
1790592445044896500,9.099896484375,-0.6168062026977539,8.672995513916016,2.335394081878662
1790592445054909700,9.10990966796875,-0.12090718383789062,11.26217497177124,1.6092027908325195
1790592445064923000,9.1199228515625,0.9229647399902343,9.485677339935302,1.000477018737793
1790592445074935600,9.129935546875,0.690128628540039,9.562591068267821,0.9897031112670898
1790592445084948700,9.13994873046875,-0.39279870986938475,10.969483818817139,1.0395324333190918
1790592445094961700,9.149961669921876,-0.8071452346801757,9.648632690429688,1.4368202713012694
1790592445104973800,9.159973876953124,-0.9349357482910156,8.783428065490723,1.0712556053161622
1790592445114986800,9.16998681640625,0.03666121292114258,11.201122829437255,0.6316203254699707
1790592445124999700,9.179999755859376,0.6504746635437011,7.902212216949462,0.5779004257202148
1790592445135012600,9.1900126953125,0.03815758895874023,10.644620581054687,0.005985504150390624
1790592445145025800,9.20002587890625,-0.3779845870971679,10.64297456741333,-0.4267664459228515
1790592445155038700,9.210038818359376,-0.5593453628540038,10.944793614196776,1.0102034629821777
1790592445165051600,9.2200517578125,-0.4969464820861816,9.899574951934813,1.617133583831787
1790592445175064800,9.23006494140625,-0.7276876670837402,7.702146740722656,0.8364742050170898
1790592445185077800,9.240077880859374,-1.0998363876342774,9.60867945022583,0.0056862289428710935
1790592445195090000,9.25008984375,-0.5943605621337891,11.429020899963378,0.19288287124633788
1790592445205102600,9.2601025390625,0.6703764648437499,10.527304699707031,0.4970961196899414
1790592445215115800,9.27011572265625,1.18108960647583,9.521889640045165,-0.04713584518432617
1790592445225128700,9.280128662109375,1.0498574279785156,10.100837528991699,-0.24974516067504882
1790592445235141600,9.2901416015625,0.12853870162963865,9.678260935974121,0.7674912696838379
1790592445245154600,9.300154541015624,-1.0437222862243651,10.924891812896728,0.32127193527221676
1790592445255167700,9.310167724609375,-0.10953472595214843,11.180622477722167,-1.395071379852295
1790592445265181000,9.320180908203126,1.002871220397949,8.697984993743896,-2.0968717414855957
1790592445275192800,9.33019287109375,1.3204022155761719,8.591293382263183,-2.6337714637756346
1790592445285205500,9.34020556640625,0.9739911628723144,9.16186156539917,-2.7795184898376464
1790592445295218700,9.35021875,0.6560112548828124,11.15398698425293,-2.222268053436279
1790592445305232000,9.36023193359375,0.9250596664428711,11.662904474639891,-2.0444985801696776
1790592445315244800,9.370244873046875,1.139639990234375,9.838672447204589,-2.460042205810547
1790592445325257700,9.3802578125,0.09501987838745117,9.401431369018555,-2.8923452430725094
1790592445335270700,9.390270751953125,-0.672920304107666,9.168744895172118,-3.4289456901550293
1790592445345283800,9.400283935546875,-0.8946832328796386,8.611644096374512,-3.2493805656433103
1790592445355296500,9.410296630859374,-0.455197590637207,8.664166895294189,-3.197306679534912
1790592445365308700,9.42030859375,-0.04055179061889648,10.41298157043457,-3.063231386566162
1790592445375321600,9.430321533203125,0.10953472595214843,11.01332763671875,-3.4220623603820797
1790592445385334800,9.440334716796874,-0.24899697265624998,12.06019231262207,-4.114435552978516
1790592445395347700,9.45034765625,0.4493617240905761,12.07306114654541,-4.802918167877197
1790592445405360600,9.460360595703126,0.5169979209899902,8.13983673171997,-4.626645070648193
1790592445415373800,9.470373779296875,-0.4173392768859863,7.470657367706298,-3.261052298736572
1790592445425386800,9.48038671875,-0.4342483261108398,10.34878703842163,-2.5899276458740235
1790592445435399700,9.490399658203126,0.08903437423706054,10.110563973236083,-2.233939786529541
1790592445445412600,9.50041259765625,0.4026747917175293,9.916184725952148,-4.06700043258667
1790592445455424800,9.5104248046875,0.8080430603027343,9.42911432571411,-5.199607455444336
1790592445465437700,9.520437744140626,0.04384381790161133,8.097788565063476,-3.9278374610900877
1790592445475451000,9.530450927734375,-0.47704468078613277,10.433332284545898,-2.7437551025390623
1790592445485463600,9.540463623046875,-1.0378864196777342,8.310273962402343,-2.2252608055114744
1790592445495476700,9.550476806640624,-1.1022305892944335,9.067290599822998,-3.602674948120117
1790592445505490000,9.560489990234375,-0.07197568740844726,11.659911722564697,-4.640112454986572
1790592445515502600,9.570502685546876,1.3129203353881835,11.147552567291259,-3.2740707702636715
1790592445525515800,9.580515869140624,1.9809025985717772,9.700407301330566,-1.9355624046325683
1790592445535528700,9.59052880859375,1.2924199836730956,7.678653636932372,-2.7521348083496093
1790592445545540900,9.600540771484376,0.15547347030639647,8.77220524520874,-4.262427143096923
1790592445555553800,9.6105537109375,-0.6557119796752929,10.253916797637938,-3.5199253532409664
1790592445565566700,9.620566650390625,0.1683423042297363,10.685322009277343,-2.371756019592285
1790592445575579600,9.63057958984375,0.9855132583618164,8.07609111251831,-2.977788314819336
1790592445585592800,9.6405927734375,0.6857891380310058,9.605985973358154,-4.81982721710205
1790592445595605500,9.65060546875,0.9195230751037597,10.593594158172607,-4.485836085510254
1790592445605618700,9.66061865234375,0.17911621170043945,7.639448584747314,-2.041655465698242
1790592445615632000,9.6706318359375,-0.7525275093078613,9.379285003662108,-2.157175695800781
1790592445625643800,9.680643798828125,0.29388825378417965,10.175207418060301,-3.9086838478088377
1790592445635657000,9.690656982421874,1.128117894744873,8.073247998046874,-3.092410719299316
1790592445645669600,9.700669677734375,0.9653121818542479,10.383353324890136,-2.3159411933898926
1790592445655682800,9.710682861328126,1.0631751747131346,10.541969184875487,-2.089539498901367
1790592445665695700,9.72069580078125,0.9145850341796874,8.201637062072754,-0.9888052856445312
1790592445675708700,9.730708740234375,0.22879589614868162,8.411279344940185,-0.8649053497314453
1790592445685721600,9.7407216796875,-0.6304232246398925,8.494328215026854,-0.4477157104492187
1790592445695734800,9.75073486328125,-0.6181529411315918,10.423905115509033,0.4221276802062988
1790592445705747700,9.760747802734375,0.04668693237304687,10.582072062683105,0.9261071296691894
1790592445715759900,9.770759765625,0.2910451393127441,8.167968601226805,0.7725789482116698
1790592445725772500,9.7807724609375,0.1788169364929199,10.415675047302246,0.6768108818054199
1790592445735785700,9.79078564453125,0.9268553176879882,9.915735813140868,1.3346177879333496
1790592445745799000,9.800798828125,0.689530078125,8.852261363220215,2.3514053054809567
1790592445755811600,9.8108115234375,-0.11252747802734374,9.197475315093994,2.7534815467834473
1790592445765824800,9.82082470703125,-1.0362404060363768,10.622324578094481,1.6961422386169434
1790592445775837700,9.830837646484374,-0.32875381546020505,12.431742482757567,0.2723404388427734
1790592445785851000,9.840850830078125,0.3479074287414551,9.032574675750732,0.5686228942871093
1790592445795863600,9.850863525390626,-0.37978023834228514,6.654084963989257,1.1273697067260742
1790592445805875700,9.860875732421874,-0.7035960128784179,8.313565989685058,0.8999205490112304
1790592445815888600,9.870888671875,-0.1696890426635742,9.818770645904541,1.4387655601501463
1790592445825901800,9.88090185546875,0.4875193130493164,11.448623426055908,1.0090063621520995
1790592445835914500,9.89091455078125,1.3338695999145507,11.103858386993407,0.012419921112060545
1790592445845927700,9.900927734375,1.2798504249572753,7.734019550323486,0.6775590698242188
1790592445855940900,9.91094091796875,-0.4294599227905273,9.169044170379639,2.288856787109375
1790592445865953800,9.920953857421875,-1.6373346603393553,10.486154358673096,2.5704747573852536
1790592445875966700,9.930966796875,-1.0723030685424804,11.199327178192139,1.4522329444885254
1790592445885979600,9.940979736328124,0.5066729263305664,9.594314240264891,0.1005564697265625
1790592445895991800,9.95099169921875,1.2259808876037597,9.289502441406249,0.7647977928161621
1790592445906004700,9.961004638671875,0.934037922668457,11.107599327087401,1.8932149627685546
1790592445916017700,9.971017578125,0.17896657409667968,9.179069889831542,1.7422306205749511
1790592445926030600,9.981030517578125,-0.5340566078186035,9.871592720031737,1.2568062339782715
1790592445936043800,9.991043701171876,0.63206923828125,13.50269881286621,0.9198223503112792
1790592445946056700,10.001056640625,1.2497732666015624,9.11023659210205,1.3863923988342284
1790592445956069600,10.011069580078125,-0.751480046081543,5.268740028381347,0.7362170104980469
1790592445966082800,10.021082763671876,-1.7767969070434568,9.541192890930175,-1.9238906715393065
1790592445976095700,10.031095703125,-0.29089550170898437,12.009465164947509,-2.7531822715759278
1790592445986108000,10.04110791015625,0.00014963760375976562,9.580547580718994,-1.2765583976745605
1790592445996120600,10.05112060546875,-0.7800608283996582,8.107365371704102,-1.4713865577697753
1790592446006133800,10.0611337890625,-0.22774843292236327,12.259958513641356,-2.3418284988403317
1790592446016147000,10.07114697265625,0.9558850128173828,8.594884684753417,-0.4471171600341797
1790592446026159900,10.081159912109374,0.7749731498718261,9.257779269409179,1.6837223175048828
1790592446036172800,10.0911728515625,1.2297218276977537,14.783147788238525,1.0114005638122558
1790592446046185700,10.101185791015626,1.5219640678405761,12.153566177368162,1.3066355560302734
1790592446056199000,10.111198974609374,0.41748891448974607,7.523778717041015,2.140565921783447
1790592446066211600,10.121211669921875,-0.9720458740234375,6.443395217895508,1.5242086318969725
1790592446076223700,10.1312236328125,-1.905784521484375,6.586748042297363,1.922992845916748
1790592446086236700,10.141236572265624,-2.5719711334228514,7.567772172546387,2.9508535461425778
1790592446096249900,10.151249755859375,-2.4512135871887204,11.28102930984497,3.319111688995361
1790592446106263000,10.161262939453126,-0.895730696105957,14.457237087249755,2.3783400741577148
1790592446116275700,10.171275634765625,1.3931260910034178,13.250260175323486,2.0109797569274903
1790592446126289000,10.181288818359375,1.7313070755004882,8.736591495513915,2.433705987548828
1790592446136301800,10.1913017578125,0.7037456504821777,7.124395952606201,2.091484787750244
1790592446146314800,10.201314697265625,-0.9787795661926268,8.56839882888794,1.8161515968322752
1790592446156327700,10.21132763671875,-1.7675193756103516,8.678382467651367,1.510441972351074
1790592446166339800,10.22133984375,-2.035969236755371,10.088866520690917,0.7471405555725097
1790592446176352800,10.231352783203125,-0.8951321456909179,12.597391310119628,-0.39579146194458004
1790592446186366000,10.241365966796875,0.299424845123291,8.889670764160156,-0.2171241630554199
1790592446196378600,10.251378662109374,0.6738181297302246,8.737638958740234,0.7541735229492187
1790592446206391800,10.261391845703125,-0.009427169036865234,9.749787710571288,-0.08080430603027343
1790592446216405000,10.271405029296876,-0.1637035385131836,11.085602599334717,-0.40462008056640625
1790592446226417700,10.281417724609375,0.7083844161987304,10.983849028778076,0.19797054977416992
1790592446236430800,10.291430908203125,0.23074118499755858,8.093449074554442,0.8224082702636718
1790592446246442800,10.30144287109375,-1.1918635139465332,10.201094723510742,1.0690110412597655
1790592446256456000,10.3114560546875,-1.7513585144042967,10.923844349670409,0.4333505004882812
1790592446266468900,10.32146875,-0.9617208793640136,9.913491249084473,-0.3446154014587402
1790592446276481800,10.331481689453126,0.31543606872558594,10.664971295166016,-0.24645313339233396
1790592446286494700,10.34149462890625,0.9189245246887207,8.671948050689696,0.7601590270996094
1790592446296508000,10.3515078125,-0.4267664459228515,7.550414210510254,0.5587468124389648
1790592446306520600,10.3615205078125,-1.0350433052062988,11.253944903564452,-1.0482114143371581
1790592446316533800,10.37153369140625,-0.2700958747863769,10.741585748291016,-0.3494038047790527
1790592446326547000,10.381546875,0.038756139373779294,10.356867469024657,1.4270938270568847
1790592446336558800,10.391558837890624,-0.2659060218811035,9.814131880187988,0.9006687370300293
1790592446346572000,10.401572021484375,-0.37828386230468747,10.053103133392334,0.591218172454834
1790592446356584700,10.411584716796876,0.4750993919372558,10.54092172164917,1.3628992950439451
1790592446366598000,10.421597900390625,0.8007108177185058,10.360608409118651,2.158522434234619
1790592446376610800,10.43161083984375,0.10788871231079102,9.043647858428955,1.7438766342163086
1790592446386623700,10.441623779296876,-0.6398503936767578,10.574590182495117,0.9877578224182129
1790592446396636700,10.45163671875,0.4176385520935058,10.45128879699707,1.288978318786621
1790592446406649900,10.46164990234375,0.3682581428527832,7.720103253173828,2.421435704040527
1790592446416662800,10.471662841796874,-0.7564180870056152,10.832266136169434,2.511517541503906
1790592446426675000,10.481675048828125,-0.3419219245910644,11.716774011993408,1.3989619575500487
1790592446436687600,10.4916875,-0.4869207626342773,7.093720243835449,1.4691419937133787
1790592446446700800,10.50170068359375,-1.0673650276184081,9.362974504852295,1.9176058921813963
1790592446456714000,10.5117138671875,-0.11297639083862304,10.260949765014647,2.907907553863525
1790592446466726700,10.5217265625,0.06239888076782226,9.41654476699829,3.6017771224975585
1790592446476739800,10.53173974609375,0.061650692749023434,10.094552749633788,1.5830162101745604
1790592446486752800,10.541752685546875,0.6637924102783203,9.8825162651062,1.1336544860839843
1790592446496766000,10.551765869140626,0.7905354606628417,9.220519506072998,2.6898855651855467
1790592446506778600,10.561778564453125,0.2314893730163574,11.442637921905517,2.551171506500244
1790592446516790800,10.571790771484375,0.3972878379821777,10.609006831359862,1.4673463424682616
1790592446526803700,10.5818037109375,-0.21577742462158203,7.849839055633544,1.8914193115234375
1790592446536817000,10.59181689453125,-1.7265186721801757,8.454524612426757,2.5800515640258785
1790592446546829800,10.601829833984375,-1.8781015647888182,10.452186622619628,2.8104934738159177
1790592446556842800,10.6118427734375,-0.7167641220092773,9.81951883392334,2.359036823272705
1790592446566856000,10.62185595703125,0.5009866973876953,9.95389340209961,1.5447089836120604
1790592446576868900,10.631868896484375,1.0983400115966797,10.191667554473876,1.9291279876708982
1790592446586881800,10.6418818359375,1.3316250358581543,10.34983450164795,2.261922018432617
1790592446596893700,10.651893798828125,0.9970353538513183,8.669104936218261,1.8754080879211426
1790592446606907000,10.661906982421876,-0.03860650177001953,8.667907835388183,1.8130092071533201
1790592446616919800,10.671919921875,-1.0494085151672363,9.345466905212401,2.216731462097168
1790592446626932700,10.6819326171875,-1.2150573425292968,10.771213993835449,2.414103461456299
1790592446636945700,10.691945556640626,-0.7876923461914062,10.884489659881591,1.2699743431091308
1790592446646958800,10.701958740234375,0.1883937431335449,9.09138225402832,1.0975918235778808
1790592446656971800,10.7119716796875,0.8134300140380859,9.529521157836914,1.7471686614990234
1790592446666984700,10.721984619140626,0.3387795349121094,8.505401397705077,1.6994342658996582
1790592446676998000,10.731997802734375,-0.7240963645935058,10.260650489807128,1.7016788299560546
1790592446687009800,10.742009765625,-0.4786906944274902,11.061510945129394,1.8944120635986328
1790592446697023000,10.75202294921875,-0.6055833824157715,9.01431888809204,2.3382371963500974
1790592446707036000,10.762035888671875,-1.1391910774230956,9.872041632843017,1.9342156661987304
1790592446717048800,10.772048828125,-0.5692214447021484,10.31152727508545,1.0613795234680174
1790592446727061800,10.782061767578124,-0.07272387542724609,7.38641139678955,1.356015965270996
1790592446737075000,10.792074951171875,-1.4266449142456055,7.297825935363769,1.8462287551879881
1790592446747087600,10.802087646484376,-1.284489190673828,12.300959217071533,1.6946458625793457
1790592446757100800,10.812100830078125,0.9753379013061523,11.877185523223876,1.9192519058227537
1790592446767113700,10.82211376953125,1.0199299072265624,8.463951781463622,1.5345336265563965
1790592446777126000,10.8321259765625,0.8352771041870116,11.144110902404785,0.512059880065918
1790592446787138800,10.842138916015625,0.26351182022094727,8.485349958801269,0.994641152191162
1790592446797151700,10.85215185546875,-1.171512799835205,7.823353199768066,1.0308534523010253
1790592446807165000,10.8621650390625,-1.8605939651489256,9.489717555236815,-0.7023989120483398
1790592446817177900,10.872177734375,-1.6482582054138182,10.346692111968993,-0.22565350646972654
1790592446827190800,10.882190673828125,-0.6866869636535644,11.419294455718994,1.1827356201171875
1790592446837203700,10.89220361328125,0.2953846298217773,10.57878003540039,1.2330138549804688
1790592446847217000,10.902216796875,0.7766191635131835,8.481609018707275,0.706738402557373
1790592446857229800,10.912229736328126,0.6489782875061034,9.519944351196289,0.7484872940063476
1790592446867242000,10.922241943359374,-0.03277063522338867,8.903437423706054,1.0389338829040526
1790592446877254700,10.932254638671875,-1.2603975364685058,9.895385099029541,0.5850830307006836
1790592446887267800,10.942267822265626,-1.6187795974731445,8.859593605804443,-0.18779519271850584
1790592446897280800,10.95228076171875,-0.8773252708435058,8.398260873413085,0.7740753242492675
1790592446907293700,10.962293701171875,-0.45025954971313475,9.009680122375487,1.7066168708801268
1790592446917307000,10.972306884765626,-0.33399113159179683,11.318438710784912,1.5887024391174316
1790592446927319800,10.98231982421875,0.5294178421020508,10.51473514099121,1.444751064300537
1790592446937333000,10.9923330078125,0.7022492744445801,9.591171850585937,1.7081132469177245
1790592446947345700,11.002345703125,0.11162965240478515,9.897779300689697,1.7815853103637693
1790592446957357800,11.01235791015625,-0.7655459808349608,9.764003282928467,2.240224565887451
1790592446967370800,11.022370849609375,-0.009127893829345703,11.461043347167967,1.3316250358581543
1790592446977384000,11.032384033203124,0.6069301208496093,8.58111802520752,1.1080664558410644
1790592446987396600,11.042396728515625,-0.3447650390625,10.300903005218505,2.1467010635375976
1790592446997409800,11.052409912109376,-0.13587094421386717,12.03445464477539,1.8977040908813476
1790592447007422700,11.062422607421874,0.31693244476318355,8.181286347961425,2.172588368988037
1790592447017436000,11.072435791015625,-1.0769418342590331,8.043470114898682,2.63661457824707
1790592447027448800,11.08244873046875,-1.2081740127563476,11.391012948608397,3.1387983764648437
1790592447037461800,11.092461669921875,-0.3790320503234863,9.55106897277832,3.614795594024658
1790592447047474000,11.102473876953125,-0.41105449752807616,9.341127414703369,2.705747151184082
1790592447057486800,11.11248681640625,-0.11821370697021484,9.615562779998779,1.2211924842834472
1790592447067499800,11.122499755859375,-0.8116343627929687,7.5905170883178705,1.5562310791015623
1790592447077512700,11.1325126953125,-1.8537106353759765,11.154286259460449,1.4597148246765135
1790592447087526000,11.14252587890625,-1.8507178833007811,9.834332956695556,1.3422493057250975
1790592447097538800,11.152538818359375,-1.7202338928222656,8.14073455734253,1.8605939651489256
1790592447107551700,11.1625517578125,-1.4903905334472656,11.328015517425536,0.7092822418212891
1790592447117565000,11.17256494140625,-0.8629600608825683,10.04277813873291,0.07855974197387695
1790592447127577900,11.182577880859375,-0.7074865905761718,8.291120349121094,0.0900818374633789
1790592447137589800,11.19258984375,-0.5113116920471191,8.430582595825195,-0.6362590911865234
1790592447147602700,11.202602783203124,-0.43080666122436523,8.52934341430664,-0.8029553817749023
1790592447157615900,11.212615966796875,-0.6929717430114746,11.168052919006348,-0.15472528228759766
1790592447167628800,11.22262890625,0.0004489128112792969,12.53244859008789,-0.718260498046875
1790592447177642000,11.23264208984375,0.8750807067871094,10.479719941711425,-1.5087959587097166
1790592447187654700,11.242654541015625,0.6756137809753417,9.374945513153076,-1.362450382232666
1790592447197667800,11.252667724609376,-0.3016694091796875,9.216030377960205,-1.3747206657409667
1790592447207680800,11.2626806640625,-1.2026374214172362,8.202684525299071,-1.8619407035827635
1790592447217693700,11.272693603515625,-0.6221931564331055,8.878148668670654,-2.858826419830322
1790592447227705600,11.28270556640625,0.438587816619873,10.194211393737792,-3.024325609588623
1790592447237718800,11.29271875,1.4170681076049805,11.533767222595214,-2.614767488098144
1790592447247731700,11.302731689453125,1.4772224243164063,10.651503910827635,-3.1479262702941893
1790592447257745000,11.312744873046874,0.7006032608032227,9.050980101013183,-3.8066310020446776
1790592447267757800,11.3227578125,-0.2902969512939453,9.145401428985595,-4.115183740997314
1790592447277770800,11.332770751953126,-1.1776479415893555,8.724021936798096,-3.5652655471801755
1790592447287784000,11.342783935546874,-1.7254712089538573,9.827299989318847,-3.501968840789795
1790592447297796600,11.352796630859375,-1.3884873252868652,12.037148121643066,-4.001159886932373
1790592447307809800,11.362809814453126,-0.7416039642333984,11.124508376312255,-3.5003228271484375
1790592447317821700,11.37282177734375,-0.07272387542724609,11.033079800415038,-2.800168479156494
1790592447327835000,11.3828349609375,0.0665887336730957,8.311321425628662,-2.0691887847900388
1790592447337847800,11.392847900390626,-0.9349357482910156,7.885303167724609,-1.488894157409668
1790592447347860700,11.40286083984375,-1.6350900962829589,10.267982732391356,-2.0979192047119137
1790592447357874000,11.4128740234375,-1.246780514526367,9.252392315673827,-2.2273557319641113
1790592447367886800,11.422886962890624,-0.054767362976074214,10.050260018920898,-1.543661520385742
1790592447377899800,11.432899658203125,0.44981063690185547,9.885209741973876,-0.854879630279541
1790592447387912700,11.44291259765625,-0.2885013000488281,9.05876125640869,0.1988683753967285
1790592447397926000,11.45292578125,-0.6251859085083007,11.108197877502441,0.244507844543457
1790592447407937800,11.462937744140625,-0.2653074714660644,8.698134631347656,0.7772177139282226
1790592447417951000,11.472950927734376,-0.7447463539123534,9.150788382720947,1.34718734664917
1790592447427963600,11.482963623046874,-0.49530046844482417,12.071564770507813,0.39668928756713867
1790592447437976800,11.492976806640625,-0.04967968444824218,8.559121297454833,-0.1571194839477539
1790592447447989800,11.50298974609375,-0.46372693405151366,8.936058421325683,0.09217676391601562
1790592447458002700,11.513002685546875,-0.020949264526367185,11.284620612335205,0.821660082244873
1790592447468015900,11.523015869140625,0.5952583877563477,9.667337390899657,2.418891864776611
1790592447478028800,11.53302880859375,-0.13572130661010742,8.41352390899658,3.0334535034179684
1790592447488042000,11.5430419921875,-0.7921814743041992,9.813533329772948,2.3425766868591307
1790592447498054000,11.553053955078125,-0.46851533737182616,10.005069462585448,1.4176666580200195
1790592447508066800,11.56306689453125,0.09965864410400391,8.194604094696045,1.5264531959533691
1790592447518079700,11.573079833984375,0.5038298118591308,10.091260722351073,1.9632453613281249
1790592447528093000,11.583093017578125,1.4749778602600097,11.947066284179687,1.277605860900879
1790592447538105600,11.593105712890624,1.8959084396362305,9.833285493469237,0.898274535369873
1790592447548118800,11.603118896484375,1.507449220275879,10.478223565673828,0.9835679695129393
1790592447558131700,11.613131591796876,0.47854105682373044,10.199448709869385,1.6090531532287597
1790592447568145000,11.623144775390625,-0.939125601196289,8.392125731658934,2.34287596206665
1790592447578157800,11.63315771484375,-1.958157682800293,11.801169620513916,1.623568000793457
1790592447588170800,11.643170654296876,-1.1150994232177733,10.019135397338866,0.7534253349304199
1790592447598183000,11.653182861328125,-0.826149210357666,6.779182000732422,1.5664064361572265
1790592447608195800,11.66319580078125,-0.8918401184082031,9.23144305114746,1.268029054260254
1790592447618208800,11.673208740234376,-0.3538929328918457,8.874557366180419,0.853532891845703
1790592447628221700,11.6832216796875,0.438587816619873,10.94898346710205,0.8948328704833984
1790592447638235000,11.69323486328125,0.8125321884155273,12.26399872894287,-0.13512275619506836
1790592447648247800,11.703247802734374,0.4879682258605957,9.686790279388427,-0.6602011077880859
1790592447658260700,11.7132607421875,-0.634014527130127,9.510666819763182,-1.1142015975952149
1790592447668273700,11.723273681640626,-1.371428638458252,8.72087954711914,-1.142183829498291
1790592447678286800,11.733286865234374,-1.7443255470275878,9.277830708312989,-0.8462006492614745
1790592447688298800,11.743298828125,-0.8289923248291016,11.464784287261962,-1.3615525566101074
1790592447698311700,11.753311767578126,1.32788409576416,11.104008024597167,-1.304989542388916
1790592447708324900,11.763324951171874,1.6684592819213866,7.997381732940673,-0.9334393722534179
1790592447718337800,11.773337890625,0.6741174049377441,10.358663120269775,-1.2421417488098143
1790592447728351000,11.78335107421875,1.1653776580810546,11.31948617401123,-1.105073703765869
1790592447738363600,11.79336376953125,0.4568436042785644,6.635080988311767,0.22056582794189453
1790592447748376800,11.803376953125,-1.281945351409912,9.737816702270507,0.026036943054199218
1790592447758389800,11.8133896484375,-0.7336731712341308,13.326276078033446,-0.7649474304199219
1790592447768402700,11.823402587890625,0.6910264541625977,10.324695384216309,-0.35523967132568357
1790592447778415900,11.833415771484376,1.2834417274475096,9.04005655593872,-0.7829039428710937
1790592447788427800,11.843427734375,1.1414356414794922,8.488492348480223,-0.7050923889160156
1790592447798440700,11.853440673828125,-0.15098434219360352,7.512106983947754,0.5545569595336913
1790592447808454000,11.863453857421876,-1.290923607635498,8.130708837890625,0.8677484642028808
1790592447818466800,11.873466796875,-2.037764888000488,11.284770249938964,0.971746598815918
1790592447828479700,11.883479736328125,-0.5556044227600098,13.300089497375488,1.3536217636108399
1790592447838493000,11.893492919921876,1.1031284149169922,9.960327819061279,1.982847887420654
1790592447848505900,11.903505859375,1.3965677558898926,9.208997410583496,1.5973814201354979
1790592447858518800,11.913518798828125,0.33309330596923825,8.48400322036743,1.464652865600586
1790592447868531700,11.92353173828125,-1.5325883377075193,8.898349745178223,2.2780828796386716
1790592447878545000,11.933544921875,-1.874959175109863,9.789740950775146,2.436698739624023
1790592447888556800,11.943556884765625,-1.6322469818115233,8.885630548858643,2.7307366310119625
1790592447898569700,11.95356982421875,-1.3902829765319824,11.28087967224121,2.8540380165100094
1790592447908582700,11.963582763671875,-0.42706572113037106,11.143811627197264,2.371756019592285
1790592447918595800,11.973595947265625,0.28266543350219725,9.585784896850585,2.4349030883789062
1790592447928608800,11.98360888671875,0.3229179489135742,8.85495484008789,2.825756509399414
1790592447938621700,11.99362158203125,-0.5713163711547852,9.772233351135254,3.189675161743164
1790592447948635000,12.003634765625,-0.6625953094482422,10.826729544830322,2.541445062255859
1790592447958647800,12.013647705078125,-0.4282628219604492,10.714052429199219,2.564788528442383
1790592447968660700,12.02366064453125,-0.40671500701904295,9.706841718292235,3.352480874633789
1790592447978672600,12.033672607421876,-1.0402806213378906,8.480411917877197,3.2978631492614743
1790592447988685800,12.043685791015625,-1.8920178619384764,8.933813857269287,3.305943579864502
1790592447998699000,12.053698974609375,-1.298555125427246,10.906336750030517,4.026299004364013
1790592448008712000,12.0637119140625,-0.08364742050170898,12.295572263336181,3.9619548347473144
1790592448018724900,12.073724853515625,0.36361937713623044,10.238204849243164,3.13460852355957
1790592448028737800,12.08373779296875,0.18390461502075195,8.482057931518554,2.2942437408447263
1790592448038751000,12.0937509765625,-0.45235447616577146,8.398111235809326,2.595164962005615
1790592448048763600,12.103763671875,-1.8043302261352538,7.004985144805908,2.6699837638854977
1790592448058776800,12.11377685546875,-2.685396437072754,9.873986921691895,2.1459528755187987
1790592448068790000,12.1237900390625,-1.4037503608703612,10.739939734649658,1.6187795974731445
1790592448078802000,12.133802001953125,0.08903437423706054,9.312995545196532,1.8587983139038085
1790592448088814800,12.14381494140625,0.586729044342041,9.645041387939452,1.7709610404968261
1790592448098827800,12.153827880859374,0.08035539321899414,7.580341731262207,1.8896236602783203
1790592448108841000,12.163841064453125,-1.1809399688720703,8.531737615966797,1.4079402137756347
1790592448118854000,12.17385400390625,-0.953790086364746,11.162665965270996,0.45489831542968745
1790592448128866800,12.18386669921875,0.3827729904174804,11.611728414154053,1.0527005424499511
1790592448138879700,12.193879638671875,1.1849801841735839,10.56576156387329,1.3423989433288575
1790592448148893000,12.203892822265624,0.6869862388610839,9.752032274627686,0.9355342987060546
1790592448158905900,12.21390576171875,-0.3616740882873535,9.241169495391846,0.5992986030578613
1790592448168918800,12.223918701171876,-0.7398083129882812,7.813776393127441,0.8889970039367675
1790592448178930700,12.2339306640625,-1.5222633430480956,8.160636358642577,1.0449193870544433
1790592448188944000,12.24394384765625,-1.1073182678222655,11.590928787231444,0.5969044013977051
1790592448198956800,12.253956787109376,0.0469862075805664,10.669759698486327,0.8099883491516113
1790592448208969700,12.2639697265625,0.7248445526123046,9.120711224365234,0.7603086647033691
1790592448218983000,12.27398291015625,0.8710404914855957,10.181492197418212,0.629525399017334
1790592448228995800,12.283995849609376,-0.09023147506713866,8.401103987884522,1.1294646331787108
1790592448239009000,12.294009033203125,-0.8776245460510254,9.258377819824219,0.6443395217895508
1790592448249021700,12.304021728515625,-0.9796773918151855,9.028833735656738,-0.05102642288208008
1790592448259035000,12.314034912109374,-0.8387187690734863,11.655272956848144,-0.2834136215209961
1790592448269046800,12.324046875,0.7107786178588866,12.97896719970703,-0.2516904495239258
1790592448279060000,12.33406005859375,1.2297218276977537,9.351751684570312,-0.3181295455932617
1790592448289072600,12.34407275390625,0.8897451919555663,10.73245785446167,-0.9635165306091308
1790592448299085800,12.3540859375,0.18390461502075195,8.094496537780762,-0.8194155181884765
1790592448309099000,12.36409912109375,-1.5893009895324706,7.114370233154297,-0.8565256439208984
1790592448319112000,12.37411181640625,-1.3465887962341307,10.707169099426268,-2.3383868339538574
1790592448329124900,12.384124755859375,0.29358897857666016,10.461913066864014,-1.7133505630493162
1790592448339137800,12.3941376953125,1.0371382316589355,10.366593913269043,-1.2466308769226073
1790592448349151000,12.40415087890625,1.2774562232971192,9.679158761596678,-1.6704045707702635
1790592448359163600,12.41416357421875,0.049530046844482416,8.349030101776123,-1.4867992309570313
1790592448369175800,12.42417578125,-0.43933600463867184,11.871948207092284,-1.8997990173339843
1790592448379188700,12.434188720703125,0.41883565292358393,10.247482380676269,-1.1225813034057617
1790592448389202000,12.444201904296875,0.6338648895263671,9.922768780517577,-0.10145429534912109
1790592448399214800,12.45421484375,0.5609913764953613,10.519074631500244,-1.1773486663818358
1790592448409227800,12.464227783203125,-0.1361702194213867,8.213308795166014,-1.4016554344177246
1790592448419241000,12.474240966796875,0.039354689788818356,9.124302526855468,-1.1474211456298828
1790592448429254000,12.48425390625,-0.08634089736938476,9.219920955657958,-0.3360860580444336
1790592448439266800,12.494266845703125,-0.028131869506835935,11.378144114685059,-0.5690718070983887
1790592448449279700,12.50427978515625,0.5289689292907714,9.669133042144775,-1.0570400329589844
1790592448459293000,12.51429296875,0.6646902359008788,9.062502196502685,-0.9823708686828613
1790592448469304800,12.524304931640625,0.4560954162597656,9.420884257507323,-0.39234979705810547
1790592448479318000,12.534318115234376,0.004489128112792969,10.842591130828858,0.40057986526489253
1790592448489330700,12.54433056640625,0.2925415153503418,9.730334822082519,0.5876268699645996
1790592448499344000,12.55434375,-0.381126976776123,9.406967960357665,0.7059902145385741
1790592448509356800,12.564356689453126,-0.8851064262390136,9.909151758575439,0.5330091445922851
1790592448519369700,12.57436962890625,-0.4927566291809082,10.14483098449707,0.9299977073669433
1790592448529383000,12.5843828125,-0.08514379653930663,9.047388798522949,0.8259995727539062
1790592448539395800,12.594395751953124,-0.24794950942993163,9.593566052246093,0.5946598373413086
1790592448549409000,12.604408935546875,0.5933130989074706,9.930699573516845,0.33803134689331055
1790592448559421000,12.6144208984375,0.6670844375610351,10.549899977874755,0.18375497741699218
1790592448569433900,12.624433837890624,0.6452373474121094,12.69794777984619,0.47539866714477536
1790592448579446800,12.63444677734375,0.22400749282836913,8.953715658569335,0.8672995513916015
1790592448589460000,12.6444599609375,-1.2077250999450684,7.062745259857177,-0.3893570449829101
1790592448599472600,12.65447265625,-1.8939631507873533,7.880814039611816,-1.1454758567810057
1790592448609485800,12.66448583984375,-1.8825906929016112,9.963769483947754,0.5699696327209473
1790592448619498800,12.674498779296876,-0.5238812507629395,12.78832889251709,0.9071031539916992
1790592448629512000,12.684511962890625,1.3117232345581054,11.48513500137329,-0.3625719139099121
1790592448639524900,12.69452490234375,2.24067347869873,10.420164175415039,-1.4823101028442383
1790592448649537800,12.704537841796874,1.8128595695495604,9.756970315551758,-1.3718775512695311
1790592448659550000,12.714550048828125,0.1236006607055664,7.369801622772217,-0.13587094421386717
1790592448669563000,12.72456298828125,-1.8996493797302245,8.284237019348144,0.10025719451904297
1790592448679575800,12.734575927734374,-2.797624639892578,10.398017810058594,-0.39160160903930663
1790592448689588700,12.744588623046875,-1.7606360458374022,10.546308675384521,0.025438392639160156
1790592448699602000,12.754601806640625,-0.28805238723754883,9.7162688873291,0.6826467483520507
1790592448709614800,12.76461474609375,0.843956085205078,11.020959154510498,0.3510498184204101
1790592448719627800,12.774627685546875,1.3727753768920898,9.212289437866211,-0.15023615417480468
1790592448729641000,12.784640869140626,0.9062053283691406,8.828020071411132,-0.8556278182983398
1790592448739654000,12.79465380859375,-0.34117373657226563,7.486369316101074,-0.229843359375
