time,seconds_elapsed,z,y,x
1790592435988241000,0.043240966796875,0.3346475496739149,0.13646774106323717,-0.04015826125666499
1790592435998253800,0.05325390625,0.321405790784955,0.13960954622030258,-0.14139204572290182
1790592436008267000,0.06326708984375,0.2997369798123836,0.1282797584325075,-0.13346885150820015
1790592436018280000,0.073280029296875,0.17127894220352172,0.15326163947582244,-0.11413199061453341
1790592436028292900,0.08329296875,0.021655951490998266,0.08918985705971717,-0.14214841704815626
1790592436038306000,0.09330615234375,-0.12860416808128355,0.017602292186021804,-0.08653817350715398
1790592436048319000,0.103319091796875,-0.22021686837375162,0.030785014364123342,0.025470249082148073
1790592436058331100,0.1133310546875,-0.32871932866871356,0.13131868773698807,-0.14651640299931168
1790592436068343800,0.12334375,-0.3457067038267851,0.05278232663869858,-0.16691592468842864
1790592436078357000,0.13335693359375,-0.2152688905775547,0.08480945001840591,-0.07073971587270497
1790592436088370000,0.143369873046875,-0.08777999026179313,0.17292437132298946,-0.0676141311980784
1790592436098382800,0.1533828125,0.06083002401590347,0.36401977463066576,-0.020136925230175254
1790592436108395800,0.163395751953125,0.17068448344171047,0.4774234509706497,0.03588964402675628
1790592436118409000,0.173408935546875,0.13932605310380458,0.35823826861977576,-0.005260258615761995
1790592436128422100,0.183422119140625,-0.06177285782396793,0.19257891986370085,0.05854381277486682
1790592436138434000,0.19343408203125,0.011623802298307418,0.025329087045788762,0.0811639331229031
1790592436148447000,0.203447021484375,0.11867021856606005,-0.11837094335854052,0.1723792315956205
1790592436158460000,0.2134599609375,0.2052817495703697,-0.3863566941231489,0.2675904678367078
1790592436168473000,0.22347314453125,0.2528308517307043,-0.5012076466619968,0.24680603848323224
1790592436178485800,0.23348583984375,0.31143793900012967,-0.21634733346402643,0.21725261174067853
1790592436188499000,0.2434990234375,0.40498599126935003,0.0385597400188446,0.19715170767195522
1790592436198511900,0.253511962890625,0.22906536073982714,0.14893150131702423,0.05032974585480988
1790592436208525000,0.263525146484375,-0.21192717893421648,0.18003917176425455,-0.045300227255001664
1790592436218537000,0.273536865234375,-0.8889373827040195,0.40485739645361896,0.1639818439979106
1790592436228550000,0.2835498046875,-0.9086895464003085,0.2512047118335962,0.10724237723127007
1790592436238562800,0.293562744140625,-0.774333682924509,0.07262333766222,0.255546832691133
1790592436248576000,0.303575927734375,-0.4042693674325943,0.05910509991943836,0.5326391422361135
1790592436258589000,0.3135888671875,0.08868950632214545,-0.2546785254240036,0.18588161418214438
1790592436268601900,0.323601806640625,0.3954536082923412,-0.23771745375096798,0.09705591425970196
1790592436278615000,0.333614990234375,0.43275253459513185,-0.02398468669950962,0.07520641295798122
1790592436288628000,0.3436279296875,-0.11001987912058829,-0.19898644881844518,0.022747911446169018
1790592436298640100,0.35364013671875,-0.6867781490683555,-0.24299159476161003,0.11162344185970723
1790592436308652800,0.36365283203125,-0.6436813501417636,-0.11349135462343692,0.16744740121662616
1790592436318666000,0.373666015625,-0.347290173625946,-0.02892681927680969,0.07438004513643681
1790592436328679000,0.383678955078125,-0.12808277455568312,0.1639122128278017,0.02279693821966648
1790592436338691800,0.39369189453125,-0.11721709714829921,0.3056044105410576,-0.010080079987645148
1790592436348704800,0.403704833984375,-0.2845411642462015,0.3620300621181726,-0.06770802002660929
1790592436358718000,0.413718017578125,-0.5097960267871618,0.21262626711428165,-0.04481872734837234
1790592436368731100,0.423731201171875,-0.476190109783411,0.14798983655273915,0.013688552808389067
1790592436378743000,0.433742919921875,-0.36448213144540786,0.17586919260323047,0.03964205536283552
1790592436388756000,0.443755859375,-0.21016309187114238,0.24736031136512754,-0.035914705402776595
1790592436398769000,0.453768798828125,-0.07536591436862945,0.13901216484904289,-0.26838125288821757
1790592436408782000,0.463781982421875,0.08306991287469863,-0.09321136766076088,-0.2967105446632951
1790592436418794800,0.473794677734375,0.4971124863028526,0.10411445446908474,0.04803900456912815
1790592436428808000,0.483807861328125,0.8472989658921957,0.4062853834301233,0.15228957957327366
1790592436438820900,0.49382080078125,0.471740144637227,0.5441776043385267,0.04719334752522409
1790592436448833000,0.5038330078125,-0.07662029834389686,0.26726737336218354,-0.06744498517625033
1790592436458846000,0.513845947265625,-0.3713298053830862,0.09366144951581955,0.12334120605178177
1790592436468859000,0.52385888671875,-0.5385352145373821,0.011309914043545722,0.08294241403751075
1790592436478871800,0.533871826171875,-0.6255769536525011,-0.06610650311410426,-0.24961795409880577
1790592436488885000,0.543885009765625,-0.5328139142811298,0.1632628090083599,-0.29139234531521796
1790592436498898000,0.55389794921875,-0.07443009482324123,0.25481997972130777,-0.1300343470148742
1790592436508910800,0.563910888671875,0.20023849470615385,0.20151450599133966,-0.0709841921530664
1790592436518924000,0.573924072265625,-0.06530395455956459,0.19700199700295923,0.02110036343485117
1790592436528936000,0.58393603515625,-0.2967407206058502,0.17790449782311915,0.056513183730095624
1790592436538949000,0.59394921875,-0.37484570454955096,0.06593582272231578,-0.018625863080099225
1790592436548961800,0.6039619140625,-0.3421802832663059,-0.07383622058331966,-0.09052775459997356
1790592436558975000,0.61397509765625,-0.22498598247170448,-0.08029518746435642,-0.14405498132184147
1790592436568988000,0.62398779296875,0.011202362015843391,0.08145780150294303,-0.009924377969279885
1790592436579000800,0.634000732421875,0.2468658058464527,0.19287176533043385,-0.02831767440252006
1790592436589013800,0.644013671875,0.41901919279694555,0.10048281996846198,-0.0470347959626466
1790592436599027000,0.65402685546875,0.4186316547840833,-0.016229250267148016,-0.037702538667619225
1790592436609040100,0.6640400390625,0.24930326212644577,-0.10515841056406497,0.026549203425273296
1790592436619052000,0.674052001953125,-0.061550154983997345,-0.13958850343227386,0.018762056680396197
1790592436629065000,0.68406494140625,-0.12811784586906433,-0.16797113282978535,0.009327873380854725
1790592436639078000,0.694077880859375,-0.13408464531898498,-0.08398410511016845,0.1290390523672104
1790592436649091000,0.704091064453125,-0.11258359212875366,0.014679682737588882,-0.05411342911198735
1790592436659103700,0.714103759765625,-0.17273732431828975,0.18309855933487415,-0.04849690440446138
1790592436669117000,0.724116943359375,-0.1259229661732912,0.1916530371904373,-0.00504142823331058
1790592436679129900,0.7341298828125,-0.05466974782049656,0.0447644398778677,0.0105658176779747
1790592436689142000,0.74414208984375,-0.0195195239841938,0.025465865167975422,0.10451960120387374
1790592436699155000,0.754155029296875,-0.07534487158060073,0.020230302602052688,0.0008447802610695362
1790592436709167900,0.76416796875,-0.18825579596757888,-0.09895780235826969,-0.06699979869201779
1790592436719180800,0.774180908203125,-0.15504092410802842,-0.204898887732625,0.005833017002418637
1790592436729194000,0.784194091796875,-0.049396775853633876,-0.08223287752866744,0.024305589216947553
1790592436739207000,0.79420703125,-0.1247989305794239,0.023952537995576857,0.049998029682412744
1790592436749219800,0.8042197265625,-0.2483691961467266,0.16188859804570674,-0.02194550902210176
1790592436759233000,0.81423291015625,-0.3659843527019024,0.22509937971830365,-0.13060374440066516
1790592436769246000,0.824245849609375,-0.17704583516716957,0.13833353493511677,0.04860884034633636
1790592436779258000,0.834258056640625,0.17677753961980341,0.06730477298796177,0.1910365127272904
1790592436789270800,0.844270751953125,0.24254677360355853,0.08116846316754818,0.14343655716255307
1790592436799284000,0.854283935546875,0.026109423768520355,0.038080432069301604,-0.06870411839187145
1790592436809297000,0.864296875,-0.09881459449529648,0.07701777322888374,0.006165902218595146
1790592436819309800,0.874309814453125,-0.034602526825666426,-0.1837579000264406,0.04956979433298111
1790592436829322800,0.88432275390625,0.06410217755436896,-0.1722609389781952,0.06735401895716786
1790592436839336000,0.8943359375,0.030116905844211575,0.05240531001985073,-0.013613807071745395
1790592436849349000,0.90434912109375,-0.07134557281136512,-0.01061550203859806,-0.07174377834871411
1790592436859361000,0.914361083984375,-0.12376023518145084,-0.006074351477622986,-0.02114317966327071
1790592436869374000,0.9243740234375,-0.17361819880604742,0.05087152458131313,-0.015424655885994433
1790592436879387000,0.934386962890625,-0.22236732440590856,-0.00902384893298149,-0.06668839465528727
1790592436889400000,0.944400146484375,-0.21200959652066229,-0.031205870124697683,-0.02229534537307918
1790592436899413000,0.9544130859375,0.06690846714675426,0.06232581553161144,0.06313683965355157
1790592436909426000,0.964426025390625,0.19966390968859193,0.24233634572327137,0.002203282197937369
1790592436919438800,0.97443896484375,0.09232698604166507,0.3697919282913208,0.04359831870794296
1790592436929451000,0.984450927734375,-0.07442132699489593,0.3355979822665453,0.06823635474964976
1790592436939464000,0.9944638671875,-0.15479951656758784,0.14995441462397574,0.03170359051376581
1790592436949476900,1.004476806640625,-0.20215046580731869,0.08100128990709782,0.04249174570553004
1790592436959489800,1.01448974609375,-0.13058745085299014,0.19235797058939932,0.027318361166864633
1790592436969503000,1.0245029296875,0.0774900669157505,0.22918401868343352,0.0592579523935914
1790592436979516000,1.034515869140625,0.002828501424193382,0.1669797837048769,0.08250299970693886
1790592436989529600,1.044529541015625,-0.1789782645344734,0.1593202088624239,0.057684346401318906
1790592436999542800,1.054542724609375,-0.1447451555430889,0.18430851964652537,0.028698855739831924
1790592437009555500,1.064555419921875,-0.17577274649143218,0.21077391724586486,-0.010789762626960873
1790592437019567600,1.074567626953125,-0.11360767447948455,0.28949440273940563,0.046118338704854246
1790592437029580500,1.08458056640625,-0.027267946153879164,0.31581016273498536,0.07293401104658842
1790592437039593700,1.09459375,0.17773966265022753,0.22945582136213777,0.07181472469307482
1790592437049606700,1.104606689453125,0.07385901693701744,0.1228472119897604,0.040189094786345955
1790592437059619600,1.11461962890625,-0.2408048983722925,0.0047428106129169464,-0.05494425391294062
1790592437069632500,1.124632568359375,-0.4982137255430221,0.07952712570130825,-0.08712810222432017
1790592437079645700,1.134645751953125,-0.474752185934782,0.1614285793185234,-0.08892711447030305
1790592437089657600,1.14465771484375,-0.25526421635746954,0.10415244839191436,-0.1010864118847996
1790592437099670500,1.15467041015625,0.03643967912495136,0.10014613536000251,0.15145444392338395
1790592437109683500,1.164683349609375,0.285787949436903,0.08353519229888916,0.14102584275901317
1790592437119696600,1.174696533203125,-0.09012333851754664,0.11025193431079387,-0.020167831825092433
1790592437129709600,1.18470947265625,-0.19122282907962798,0.10509762028753757,0.034014863130822776
1790592437139722500,1.194722412109375,-0.10326514416337013,0.013402502408623694,0.06612440409697593
1790592437149735700,1.204735595703125,0.14596271463930607,-0.06941606605350971,0.19102284952811896
1790592437159748600,1.21474853515625,0.07404431037604808,-0.042967619588971134,0.12589585897065697
1790592437169760800,1.2247607421875,-0.157005502179265,-0.11494096890985965,-0.028646760226413607
1790592437179773700,1.234773681640625,-0.21494038927555084,-0.18999708667695522,-0.03454122509248554
1790592437189786600,1.24478662109375,-0.1256704527169466,-0.011062661284208297,0.030331717638671398
1790592437199799600,1.254799560546875,-0.08406827626228332,0.1545925958186388,-0.08734021060504019
1790592437209812700,1.264812744140625,-0.32032793242037294,0.2119230872809887,-0.3213943926081061
1790592437219825400,1.274825439453125,-0.366814958307147,0.22041735938191412,-0.2724455066524446
1790592437229838600,1.284838623046875,-0.05699672946333885,0.22988369138538836,-0.06306779300533234
1790592437239851800,1.294851806640625,0.5231260484814644,0.19952713156640528,0.08843699286580085
1790592437249863700,1.30486376953125,0.5485182638913393,0.3272182764559984,0.021411402145400642
1790592437259876600,1.314876708984375,0.21734686589539048,0.20120354034602642,0.2156977469814941
1790592437269889500,1.3248896484375,-0.21109306619763374,-0.1450941151112318,-0.19375895996112374
1790592437279902700,1.33490283203125,-0.7079495319128036,-0.42370179765522475,-0.3162662724720314
1790592437289915600,1.34491552734375,-0.9310627062499522,-0.5036269827634096,-0.248640706564486
1790592437299928600,1.354928466796875,-1.985721981552243,-1.0177648381471633,0.7381896257452666
1790592437309941500,1.36494140625,-2.1819775441020726,-1.614507911503315,1.0134076658509672
1790592437319953700,1.37495361328125,-2.345404019239545,-1.6631085685431957,0.15961970326565206
1790592437329966600,1.384966552734375,-1.7676771965205669,-0.8426677989602088,-0.15886515857130287
1790592437339979800,1.394979736328125,-1.2671417500317097,-0.5331885928124189,-0.6540458000287414
1790592437349992400,1.404992431640625,-0.9699185066059232,-0.0003156418204307556,-0.9348485083989798
1790592437360005600,1.415005615234375,0.6061892393544316,0.5133873292773962,-1.110674300251901
1790592437370018600,1.4250185546875,2.445597793133557,0.5742419032126664,-0.9128983962669968
1790592437380031500,1.435031494140625,2.784405969618261,0.28446166926920413,-0.42234965239390726
1790592437390044700,1.445044677734375,1.7166691860780119,-0.22864742758870124,0.015596870647743344
1790592437400056600,1.455056640625,0.26403788992166516,-0.9454624030023813,0.012946575334668158
1790592437410069800,1.46506982421875,-0.6266887142866849,-1.591125866872072,0.43050322129838164
1790592437420082700,1.475082763671875,-0.8208896823942661,-1.8541537029683588,1.1278474803056566
1790592437430095600,1.485095703125,-0.22082535566091535,-1.2137696408063172,1.8549306786902249
1790592437440108500,1.495108642578125,0.27000059771835805,-1.0531845265746116,1.7645488353669643
1790592437450121700,1.505121826171875,0.14182050026804208,-1.4898720625311135,1.6730045241355895
1790592437460134400,1.515134521484375,0.20121932243704796,-1.390070795086026,2.1917032576940954
1790592437470147600,1.525147705078125,0.5243953377649188,-0.7665496049195527,2.433536476200819
1790592437480159500,1.535159423828125,0.9096946317896246,-0.4872206223636865,2.026166074012965
1790592437490172700,1.545172607421875,1.462295196558535,-0.37983810600936413,1.2882101108931003
1790592437500185600,1.555185546875,1.6719956393539905,-0.05289689292907714,0.6455697942368686
1790592437510198500,1.565198486328125,1.652232954263687,0.2819903107196092,0.0785053814381361
1790592437520211700,1.575211669921875,1.3826394760414957,0.4457996476948261,-0.11946925998926163
1790592437530224600,1.585224609375,-0.14911211858093737,0.04022971905767917,-0.18299743704795837
1790592437540237600,1.595237548828125,-4.5516982584744685,-1.0273054044306278,-2.022897281475365
1790592437550249500,1.60524951171875,-4.042789243654907,-0.5160141706496477,-2.750777548521757
1790592437560262700,1.6152626953125,-3.911162220621109,-0.3368359996289015,-3.881863645422458
1790592437570275600,1.625275634765625,-2.457714055123925,0.20842063211798667,-3.8419372932255267
1790592437580288800,1.635288818359375,-0.8369517594009638,-0.5189800347179174,-2.408471446918696
1790592437590301400,1.645301513671875,0.7106932776629924,-3.069932345509529,-0.7791426906414329
1790592437600314600,1.655314697265625,-0.0725686848655343,-3.176108993205428,1.4661457345068454
1790592437610327600,1.66532763671875,0.9153595256835222,-2.5234622463196517,2.2280064509578046
1790592437620340500,1.675340576171875,0.4427180482923984,-1.7961679624676703,1.1447819562327115
1790592437630352400,1.685352294921875,-0.7558098919793963,-0.4999538472086191,-0.2244901617787778
1790592437640365600,1.695365478515625,-0.6148372407123446,-0.15561024842858315,-0.012774725899100304
1790592437650378800,1.705378662109375,-0.0066810851991176605,-0.5915209547936916,0.4746601968023926
1790592437660391700,1.7153916015625,0.9641676879942417,-0.9774819275975227,0.3635364480931312
1790592437670404600,1.725404541015625,1.532571240442246,-0.8779916257977485,0.15771576934047044
1790592437680417500,1.73541748046875,1.4795178417772055,-0.4410772953480482,0.05337948881424963
1790592437690430700,1.7454306640625,0.3662039868019521,-0.029814123505353927,-0.09035283642448484
1790592437700443400,1.755443359375,-0.841772311425209,0.2070388223707676,0.0005238046783953904
1790592437710455600,1.76545556640625,-1.6901931209541856,-0.10255436554551124,0.08956833498328924
1790592437720468500,1.775468505859375,-1.9367343710213898,-0.370668126603961,-0.011560089412331581
1790592437730481700,1.785481689453125,-0.8689367972046136,-0.09963993940353393,-0.20288528288789093
1790592437740494600,1.79549462890625,0.8194178562760353,0.37090018179416656,0.023500227650813756
1790592437750507500,1.805507568359375,2.3149736635319886,0.7771142535537481,0.10934468327276409
1790592437760520700,1.815520751953125,2.721349793985486,1.300265436476469,0.008152107599750161
1790592437770533600,1.82553369140625,1.9719358866535126,1.8752572812736032,-0.11926138939224183
1790592437780546600,1.835546630859375,0.6185773040235042,2.425762919589877,-0.11926179125104099
1790592437790558500,1.845558349609375,-0.13360372993424535,2.647028420233726,-0.18679138597082345
1790592437800571600,1.855571533203125,0.367161872048676,2.3066660000443457,-0.19882026193868368
1790592437810584600,1.86558447265625,0.7724671584002674,1.5605945350080728,0.0384206603417173
1790592437820597800,1.87559765625,0.17259148610681294,1.1079869608640671,0.05832505545765161
1790592437830610400,1.8856103515625,-0.3236173293545842,1.044032082825899,-0.20426658117845653
1790592437840623600,1.89562353515625,-0.10560732337534427,1.0119698881328105,-0.40729609484262763
1790592437850636500,1.905636474609375,0.48176469504535196,1.0893915659874678,-0.39145021786987777
1790592437860648700,1.915648681640625,0.6161123752146959,1.1305769783347845,-0.5200066743519157
1790592437870661400,1.925661376953125,0.17514204737246036,1.5893044966638088,-0.6343875982262194
1790592437880674600,1.935674560546875,-0.14866802807524798,1.5468413194656372,-0.708746089117974
1790592437890687700,1.945687744140625,-0.31071488542258735,1.268789517238736,-0.4504537936436012
1790592437900700700,1.95570068359375,-0.21715163558423517,1.2598229514509438,-0.36409415504112835
1790592437910713600,1.965713623046875,0.5693192059881985,1.3350100021213291,-0.20673015828039495
1790592437920726500,1.9757265625,0.594429535716772,1.368808226826787,0.3531902279825881
1790592437930739700,1.98573974609375,0.2832598922640085,1.0565513726592064,0.3154295293869451
1790592437940751600,1.995751708984375,-0.5083906900338828,0.5983411562025547,0.09876918445099145
1790592437950764500,2.0057646484375,-0.6990585155792534,0.3439320953696966,0.11169172132294625
1790592437960777500,2.015777587890625,-0.07935176913440227,0.017222352957725524,-0.12478724014163016
1790592437970790700,2.025790771484375,-0.02925882771015167,-0.13040741811096668,-0.19076299301553518
1790592437980803600,2.035803466796875,0.3590507540464401,0.0012175590962171553,-0.5976286970842629
1790592437990815700,2.045815673828125,0.5132423678487539,0.3125269032806158,-0.3991436219166964
1790592438000828400,2.055828369140625,-0.10353175921030341,0.26613398541808125,0.24103191206119953
1790592438010841600,2.065841552734375,-0.6289976488161831,-0.3475380109071731,0.5409905352676287
1790592438020853500,2.075853515625,-0.5083787073351442,-0.8932587530344724,0.22240411275234073
1790592438030866700,2.08586669921875,-1.184398000371456,-1.2380962728112934,0.4964183665588498
1790592438040879400,2.09587939453125,-1.3013029628306627,-1.2761036396443843,0.6598987638406455
1790592438050892500,2.105892578125,-0.47275589755102987,-0.8564426418125629,0.32068576941471544
1790592438060905700,2.11590576171875,0.04058350093141198,-0.43086452889144417,0.11524099303605034
1790592438070918700,2.125918701171875,0.3649012336403131,-0.7219716275244951,0.33839996100999414
1790592438080931600,2.135931640625,0.3784194713830948,-1.1531623196303844,0.6849710996463895
1790592438090944500,2.145944580078125,0.05952113337442279,-1.3150912496864795,0.8346115529503673
1790592438100956700,2.155956787109375,-0.3593611351698637,-1.4386831425637006,0.6855559137970209
1790592438110969600,2.165969482421875,-0.4216425270378589,-1.6503572235196828,0.42057621298059816
1790592438120982500,2.175982421875,0.21972294737696646,-2.1174837368816135,-0.10747700797105207
1790592438130995500,2.185995361328125,0.6907733561843633,-1.5511714576244353,0.28341648933151736
1790592438141008600,2.196008544921875,0.4372871823500842,-0.6898182474166155,0.9676294458206742
1790592438151021600,2.206021484375,0.2325309910237789,-0.2200087785810232,0.7491665084421634
1790592438161034500,2.216034423828125,-0.07392455645389855,-0.238853179782629,0.12230704069845377
1790592438171047700,2.226047607421875,-0.5240811572492122,-0.9131523710280657,-0.12276888605654239
1790592438181059600,2.2360595703125,-0.41147944494187827,-1.5256184986948966,1.0150644931472836
1790592438191072800,2.24607275390625,-0.3972878379821777,-0.6349474240660667,0.5184081165814772
1790592438201085400,2.25608544921875,-0.5200924529392272,0.2916770074754953,-1.8175379366241395
1790592438211098600,2.2660986328125,0.7311667413711548,2.0934248159021136,-3.5796430321007966
1790592438221111600,2.276111572265625,1.2584119156092404,3.2313463117808103,-5.183326767250895
1790592438231124700,2.286124755859375,1.549954483050108,3.001962386611104,-4.7370942810967565
1790592438241137400,2.296137451171875,0.8292909424494952,5.254362543460727,-1.8852697028525172
1790592438251150600,2.306150634765625,-0.8120236543714999,4.8298617043823,-0.3680639354549348
1790592438261163800,2.316163818359375,-2.42885328682065,3.2105157051980493,0.7982921392042189
1790592438271175700,2.32617578125,-2.7777310218989846,1.9682640662729738,2.223080684993416
1790592438281188600,2.336188720703125,-1.9431822319865226,1.1723229471743106,2.062717542949319
1790592438291201500,2.346201416015625,-0.9348207436092197,0.49152328799366946,1.2104274177063257
1790592438301214700,2.356214599609375,0.15237254514899104,0.24048808750808237,1.618123763912916
1790592438311227600,2.3662275390625,0.7513456791121512,0.5685621040105819,2.3279745994023977
1790592438321240600,2.376240478515625,0.13974223268926142,0.9574047697305679,1.5506977026328443
1790592438331253500,2.38625341796875,0.4371983715554699,-0.08000117295384407,0.4109945109691471
1790592438341266700,2.3962666015625,0.6946510744005441,-0.14632161107957362,0.8758063907131552
1790592438351279600,2.406279541015625,0.9107593384116888,-0.09714753806591034,1.0159716711200772
1790592438361291500,2.41629150390625,1.2737030082434415,-0.24677754304111002,0.6427378587465733
1790592438371304400,2.426304443359375,1.3040467085808516,-0.16199673459529876,0.8131658101439475
1790592438381317600,2.436317626953125,1.2043319503754377,0.32770985936522484,0.7098918250869959
1790592438391330600,2.44633056640625,0.9130489106535911,0.2558130824118853,-0.007859335198253393
1790592438401343500,2.456343505859375,0.7320283266365528,0.10498831469416618,-0.7815143151436
1790592438411356700,2.466356689453125,0.23265081801116466,-0.14138824633061886,-0.6503050791304558
1790592438421369600,2.47636962890625,-0.289819963165652,-0.43365795900225634,-0.5102215952554717
1790592438431382800,2.4863828125,-0.9053700465887784,-0.44425417181849475,-0.8714039179705083
1790592438441395500,2.4963955078125,-1.5497674360454081,-0.4899421562820673,-1.5783173848338423
1790592438451407600,2.50640771484375,-2.388975449940562,0.03619125732183456,-0.8945445550613105
1790592438461420500,2.516420654296875,-2.9696482629835605,0.1964724201709032,-0.13419183202050625
1790592438471433700,2.526433837890625,-2.728698987704515,-0.0960246715158224,-0.026465251468867062
1790592438481446400,2.5364462890625,-1.8139672385305166,-0.1604004053145647,0.14132763871718199
1790592438491459600,2.54645947265625,-0.7852075436383485,-0.07275777769684791,0.39825167804565276
1790592438501472800,2.55647265625,0.17846330074965952,0.07213876901566982,0.6564939238332211
1790592438511485700,2.566485595703125,0.8738280763775109,-0.008165186277031899,0.7295342447984963
1790592438521498600,2.57649853515625,1.3491110081881283,-0.031471243062615395,0.6188079709742218
1790592438531511600,2.586511474609375,1.5934113474607468,0.10456804345548153,0.30718711315523833
1790592438541524700,2.596524658203125,1.5412889460355041,0.08736907137334346,-0.143476048922725
1790592438551536600,2.60653662109375,0.9212515063315629,-0.032387188863754274,-0.53825102730114
1790592438561549600,2.616549560546875,0.06268997266888618,-0.029635844328999517,-0.48949543542787427
1790592438571562500,2.6265625,-0.5874234563469887,-0.03126023066043854,-0.11574055832233279
1790592438581575700,2.63657568359375,-0.8789473190873861,-0.07365092714428902,0.15196137053221465
1790592438591588600,2.646588623046875,-0.8806172981262207,0.08025076380074024,0.04063099333494902
1790592438601601500,2.6566015625,-0.6065151103079318,0.11951134556531906,-0.2733503465376794
1790592438611614700,2.66661474609375,-0.05966446910155937,0.060325581625103944,-0.22921667884401975
1790592438621627600,2.676627685546875,0.4444143308162689,0.047716275420784944,-0.019067359769903123
1790592438631640600,2.686640625,0.600572860777378,-0.09013210634589194,0.08562047414034604
1790592438641652500,2.696652587890625,0.3954056774973869,-0.00837561415731907,0.10354951406270264
1790592438651665700,2.706665771484375,-0.008139485580194741,0.0907873553842306,-0.11168189404867589
1790592438661678600,2.7166787109375,-0.30098318048119543,0.03198737589120865,-0.06892064721938222
1790592438671691800,2.72669189453125,-0.39080373665988444,0.06856792479157447,0.06401431660782546
1790592438681704400,2.736704345703125,-0.2709212196946144,0.059717094337940216,-0.05718651641439646
1790592438691717600,2.746717529296875,0.02314412595583126,-0.08293547284007072,-0.049810471221059555
1790592438701730600,2.75673046875,0.2777186247497797,0.006122866794466972,0.10534666314516215
1790592438711743500,2.766743408203125,0.2530073590750806,0.014658055427670479,-0.06117686469219625
1790592438721756700,2.776756591796875,0.002680014597903937,0.02050561241209507,-0.06489679853077977
1790592438731768600,2.7867685546875,-0.22031450179563833,0.054796589070558545,0.07849825757760553
1790592438741781800,2.79678173828125,-0.35891806757748124,-0.043349312382936475,0.11537596279364079
1790592438751794700,2.806794677734375,-0.1695896739423275,-0.12287234643101691,0.05324526797533035
1790592438761807600,2.8168076171875,-0.2210807917267084,0.4900467857003212,-0.354291248027049
1790592438771820500,2.826820556640625,0.02029750435305759,-0.521748330387473,0.1491716667484492
1790592438781833700,2.836833740234375,0.2280085086306557,0.48685704974830146,0.1440847919382155
1790592438791846400,2.846846435546875,0.1960468699689023,-0.14576105458736419,-0.30973325397409496
1790592438801859600,2.856859619140625,0.07793605711758136,0.05126899946630001,0.15044449969585985
1790592438811872500,2.86687255859375,-0.14520636158036068,0.04717267006337642,0.2925813724366948
1790592438821884700,2.876884765625,-0.4439046277284622,-0.048504210928082464,-0.18140691645350307
1790592438831897600,2.886897705078125,-1.8587685032874344,0.25409575709998605,-0.5027699275426566
1790592438841910500,2.89691064453125,-0.8841542400807142,-0.20745850908756255,0.2794415760848671
1790592438851923700,2.906923828125,0.27085162505712357,0.14785422747433186,0.23972506724633275
1790592438861936600,2.9169365234375,0.35872393324486906,-0.1337257488787174,-0.3455314568577334
1790592438871949600,2.926949462890625,0.588377359538339,-0.0036959319084882733,-0.04910619540922343
1790592438881962500,2.93696240234375,0.6317202787131071,0.09456628940105438,0.17657701207902282
1790592438891975700,2.9469755859375,0.38419750679526476,-0.03065758859217167,-0.3340413639416918
1790592438901988600,2.956988525390625,0.018758476483821868,0.03280746010243892,-0.6615767069902271
1790592438912001500,2.96700146484375,-0.31513094829916954,0.10861761110723019,-0.07731335864197462
1790592438922013400,2.977013427734375,-0.3972913451135158,0.0052712184011936185,0.24375899893753228
1790592438932026600,2.987026611328125,0.16269111006762832,-0.023864275190234183,0.17044187032487243
1790592438942039600,2.99703955078125,0.579744628814794,-0.009994739791750907,0.1380576771358028
1790592438952052500,3.007052490234375,0.5235697005957365,0.013806407034397124,0.2660690304230898
1790592438962065700,3.017065673828125,0.06021744507551193,0.037545594540238376,0.37588502100203186
1790592438972078600,3.02707861328125,-0.6382575715273618,0.05713116949796676,0.19284224697500466
1790592438982091800,3.037091796875,-1.219492110106349,0.014292729246616363,0.038749344306811685
1790592438992104400,3.0471044921875,-1.6142887157946824,-0.11588146463036536,0.8332133035250008
1790592439002117400,3.057117431640625,-0.4701379701375961,0.26550387082099913,-0.14438183865603058
1790592439012129500,3.067129638671875,0.300623626453802,-0.024386837759613988,-0.1496220773970708
1790592439022142500,3.077142578125,0.13155132744908332,-0.015146715727448462,0.5276304472286254
1790592439032155400,3.0871552734375,-0.061217562028765674,0.06296878961026668,0.4911348366653546
1790592439042168300,3.097168212890625,-0.49363403306994585,-0.15260755948126314,0.13358100664578376
1790592439052181500,3.107181396484375,-0.3645774450460449,-0.09129530490636825,-0.004843640638887882
1790592439062194700,3.117194580078125,-0.10258596626017243,-0.014801263290643692,-0.09235259540695696
1790592439072207400,3.127207275390625,0.34237850925214586,-0.028337036690115926,0.022724603635817766
1790592439082220500,3.137220458984375,0.8712538419753313,-0.050064299851655954,0.37715153380651023
1790592439092232400,3.147232421875,0.9584989216428249,-0.07498539061844349,0.6330998965032398
1790592439102245600,3.15724560546875,0.7216887189298867,-0.08571662799119949,0.7393110309906303
1790592439112258600,3.167258544921875,0.008615268132090568,-0.15037176325321197,0.6819860924862324
1790592439122271500,3.177271484375,-0.31825287971198557,-0.10429974790811539,0.45298236227314914
1790592439132284400,3.187284423828125,-0.23759181807730345,-0.02807984705865383,0.1181014057021588
1790592439142297600,3.197297607421875,-0.6307949805617332,0.1322667822420597,-0.10937076756209134
1790592439152310300,3.207310302734375,-1.3366566002845763,0.13223404901623725,-0.11696947906278073
1790592439162323500,3.217323486328125,-1.4622270997583866,-0.02296644956767559,0.4015374947832897
1790592439172336600,3.227336669921875,-0.39147421979997304,-0.28861352825164793,1.297443364793062
1790592439182348500,3.2373486328125,0.9353203636944294,-0.14754793800413607,1.134913180908188
1790592439192361500,3.247361572265625,1.4250672896653414,0.13079144899249076,0.14059415507717057
1790592439202374400,3.25737451171875,0.5195884854724631,0.2130243265211582,-0.5591321584947407
1790592439212387600,3.2673876953125,-0.995713749858737,-0.00810322695672512,-0.7232404784165323
1790592439222400500,3.277400390625,-1.6802987727969885,-0.3105880441725254,-0.058153196888929226
1790592439232413400,3.287413330078125,-1.2114719583231954,-0.500498621609807,0.7931742847338318
1790592439242426400,3.29742626953125,-0.24004048987105486,-0.5444727878928184,1.133937540809065
1790592439252439600,3.307439453125,-0.22841529933325944,-0.04428630097210407,0.32368297846931965
1790592439262452500,3.317452392578125,-0.3621323534488678,0.2993283990114927,-0.5302656545704231
1790592439272464600,3.327464599609375,0.3880693432599306,0.2530816116213798,-0.2736337665889412
1790592439282477300,3.337477294921875,2.389092938840389,-0.33844752647876736,0.07890641825338825
1790592439292490500,3.347490478515625,3.026069238385558,-0.3959755863398313,-0.19318240218218416
1790592439302503700,3.357503662109375,2.0952327421069143,-0.37107553836107254,-0.1971009638654068
1790592439312516400,3.367516357421875,0.05442950932383537,-0.20741174733638762,0.3426487044956535
1790592439322529500,3.377529541015625,-2.333582648542523,-0.20637422098219393,0.4517632322743535
1790592439332542500,3.38754248046875,-2.759667541942,-0.34301381148099896,0.6164664493493736
1790592439342555600,3.3975556640625,-0.9371194490056485,-0.3693424309581518,0.24681029453324152
1790592439352568300,3.407568359375,0.5815180316954851,-0.2276952414304018,-0.011344930557999759
1790592439362580500,3.41758056640625,1.4863801287621259,0.22251696200966833,0.03669215604867786
1790592439372593400,3.427593505859375,1.7307804212778806,0.40071079816818234,-0.052171720459684726
1790592439382606600,3.437606689453125,0.43400750309228897,0.15165186619162557,0.11327566604614257
1790592439392619300,3.447619384765625,-1.5017220748007296,-0.03238192816674709,0.2997985372738913
1790592439402632400,3.457632568359375,-2.091397109466791,-0.05194412224888801,0.3018019495181739
1790592439412645600,3.467645751953125,-0.5736357540130614,0.07530220148265361,-0.020533194538764656
1790592439422658600,3.477658447265625,1.926038204962015,0.15135376002788542,-0.497181240690127
1790592439432671500,3.48767138671875,2.5484534797132015,0.036216391763091084,-0.5075256707023829
1790592439442684400,3.497684326171875,1.939546505832672,-0.033877135160565376,-0.09179112559929489
1790592439452696600,3.507696533203125,0.3670242171436548,-0.04752513676285743,0.19921010150648652
1790592439462709500,3.51770947265625,-1.4459230306893587,-0.04415127641558647,-0.044315234805643554
1790592439472722400,3.527722412109375,-1.7001982360094785,0.15799334417283534,-0.3317973478745669
1790592439482735400,3.5377353515625,-0.29514207150386645,0.4962415486872196,-0.7381807848516851
1790592439492748500,3.54774853515625,0.08769055841267108,0.6384989790678024,-1.1363935556590556
1790592439502761500,3.557761474609375,-0.7515893516749144,0.29377953271269797,-0.7772637450270354
1790592439512774400,3.5677744140625,-1.554585065460205,-0.3160369572281837,-0.5581669667243957
1790592439522787600,3.57778759765625,-1.2830746477007866,-0.44726972024738787,-0.5456662354610861
1790592439532800500,3.587800537109375,-0.4107780186742544,-0.19424656081497668,-0.4099637066166848
1790592439542812700,3.597812744140625,-0.5704226371854544,-0.26680560106933116,-0.4114558448705822
1790592439552825300,3.607825439453125,-0.7192699673503636,-0.10090952094793319,-0.11587642312906682
1790592439562838500,3.617838623046875,0.2045130850191228,0.15278057796061037,0.24251535555198786
1790592439572851500,3.6278515625,1.5089146166533232,0.4046282638728618,0.5076338803172111
1790592439582864600,3.63786474609375,1.1217384228408336,0.3440969305425882,0.27213556392043825
1790592439592877300,3.647877197265625,-0.8133025882661342,0.12114566876888275,0.05931187453791499
1790592439602890500,3.657890380859375,-1.3573264633476734,0.043453357279300685,-0.12828626123853026
1790592439612903400,3.6679033203125,-0.8464315354079007,0.3492173422962427,-0.2618976630225777
1790592439622916400,3.677916259765625,-0.3812105634063482,0.3192822227597236,-0.6197744048535824
1790592439632929500,3.687929443359375,0.20904839036120101,0.18637831165790555,-0.6188344205897301
1790592439642941400,3.69794140625,0.5836825162529945,0.10081541292369366,-0.42965464164502915
1790592439652954600,3.70795458984375,0.7704109565228223,0.06425999846458434,-0.40788105512373146
1790592439662967600,3.717967529296875,0.7486088745594024,-0.07066343576610087,-0.26230288282260295
1790592439672980500,3.72798046875,0.12747720987796782,0.00820084211230278,-0.29924430092461407
1790592439682993400,3.737993408203125,-0.7808774054795503,0.08682429697215556,-0.22083668077252805
1790592439693006600,3.748006591796875,-0.9150456374287604,0.30479426320195196,0.01006510161422193
1790592439703019300,3.758019287109375,-0.184258835285902,0.3361842577219009,0.1829322628572583
1790592439713032400,3.768032470703125,0.1723509553492069,0.3046083852410316,0.1672424532290548
1790592439723045600,3.778045654296875,0.016807945204246787,0.298436418607831,0.040077962562069296
1790592439733057500,3.7880576171875,-0.236212309885025,0.30501638152003285,0.053321986473351714
1790592439743070500,3.798070556640625,-0.4467401434153318,0.2412970658034086,-0.17583287918083368
1790592439753083400,3.80808349609375,-0.9822972189247607,0.35922377252578735,-0.32350765843503176
1790592439763096600,3.8180966796875,-1.788355827412009,0.5000140529632568,-0.4664845621965825
1790592439773109500,3.828109619140625,-2.520359604129195,0.59294134298563,-0.3150860131788999
1790592439783122400,3.838122314453125,-2.525211135813594,0.5082616568267345,-0.15043796035721896
1790592439793135400,3.84813525390625,-1.6736013209849594,0.43201136083900926,-0.15609985857643185
1790592439803148500,3.8581484375,-0.5827401939015835,0.38299569325745103,-0.2980997339993715
1790592439813161500,3.868161376953125,0.7042816570550203,0.44435938575863837,-0.32163689612708984
1790592439823173600,3.878173583984375,1.9755700053721665,0.25527298418581484,-0.2515725952979177
1790592439833186300,3.888186279296875,3.327332404851913,0.3132423580735922,-0.33502873101122677
1790592439843199500,3.898199462890625,4.884366617029905,0.6027315001159906,-1.01611122572124
1790592439853212400,3.90821240234375,4.586449253860116,-0.22265315560996532,-1.1655825330033898
1790592439863225300,3.918225341796875,2.262286175569892,-1.2741209413945673,0.35432610014472155
1790592439873238500,3.928238525390625,0.3188397396892309,-1.4651613996446131,2.025576583687216
1790592439883251500,3.93825146484375,-0.9242880975484847,-2.754738853368163,0.9596328210435807
1790592439893264600,3.9482646484375,-2.1555174071997403,-1.566657196047902,0.7039863273702561
1790592439903277300,3.95827734375,-3.3385540560901164,0.8305985909819602,1.7761625546626745
1790592439913289500,3.96828955078125,-3.640284840068221,0.2562508893072605,1.3061264374643564
1790592439923302400,3.978302490234375,-2.9392203914940356,-0.21955343602895735,0.06061795216780155
1790592439933315600,3.988315673828125,-1.1670172419816256,0.25439269421994687,-0.47877018940448757
1790592439943328300,3.998328369140625,0.3196931416481733,-0.11597674169838428,-0.06451192739903927
1790592439953341400,4.008341552734375,1.129574523293972,-0.1291904435366392,0.14817198818661273
1790592439963354600,4.018354736328125,1.5135036980092524,-0.03488485089838505,0.2914257726607844
1790592439973367600,4.028367431640625,1.4381588264286518,0.02140051542520523,0.4449802210707217
1790592439983380500,4.03838037109375,0.743840929505229,0.08764087405204772,0.21597660045549272
1790592439993394200,4.048394287109375,-0.22025077064335344,0.07014321128427982,-0.02439724955577403
1790592440003406300,4.05840625,-0.8421867374449968,0.0391916081815958,0.04918386375531554
1790592440013419300,4.068419189453125,-0.9721411510914564,-0.0776554866105318,0.10437869489584117
1790592440023432200,4.07843212890625,-0.45415071193277834,-0.07192834113538264,0.0930684155261144
1790592440033445000,4.088445068359375,0.24464286909997462,-0.049530046844482416,0.14451050653699785
1790592440043458300,4.098458251953125,0.5646574977874755,0.02125496947467327,0.2605363115414977
1790592440053471000,4.108470947265625,0.39374271272122857,0.10907529174685478,0.38168143232110885
1790592440063484200,4.118484130859375,-0.11189677890837192,0.10178805734813212,0.34503680520858615
1790592440073497300,4.128497314453125,-0.4911556237250566,0.015609657064080237,0.23065712344329803
1790592440083510300,4.13851025390625,-0.4261585431575775,0.003728665134310722,-0.0007495762582868337
1790592440093523200,4.148523193359375,-0.03635024727582931,-0.063281508821249,-0.41558779357615855
1790592440103535000,4.15853515625,0.34779344697296616,-0.028809330376982686,-0.6253916602134704
1790592440113548300,4.16854833984375,0.44008477717936034,0.01501344473659992,-0.541950320210494
1790592440123561200,4.178561279296875,0.20155598877919836,0.06287760419547557,-0.49364415260516104
1790592440133574100,4.18857421875,-0.02964753476679325,0.044449382579326624,-0.6638754123866558
1790592440143587000,4.198587158203125,-0.017546159818302837,-0.011446107643842697,-0.7620671988084912
1790592440153600300,4.208600341796875,0.1087602344483137,-0.07950023769438266,-0.456425853790529
1790592440163613200,4.21861328125,0.16353346090959384,-0.04192424801588058,-0.15144998694397507
1790592440173626000,4.228626220703125,0.08779343426525592,0.01599427246749401,-0.19323654352221636
1790592440183639300,4.238639404296875,0.005287585014104843,0.05146130716800689,-0.3412647027913481
1790592440193651200,4.248651123046875,-0.03724164315760135,0.055633624416589735,-0.5382264408491552
1790592440203664100,4.2586640625,-0.03703236605478451,0.030139702197909353,-0.6425455510448664
1790592440213677000,4.268677001953125,0.0000602240209467709,0.02556757197678089,-0.5965509483175352
1790592440223690200,4.278690185546875,-0.0004366378515958786,-0.04456862504482269,-0.5759880527602508
1790592440233703200,4.288703125,-0.06219371358454227,-0.029286884760856627,-0.7227240533269942
1790592440243716400,4.29871630859375,-0.07833937722146511,-0.03439852868616581,-0.73160454826653
1790592440253729000,4.30872900390625,-0.045558805125951764,-0.014251228192448616,-0.5715188349243253
1790592440263742200,4.3187421875,-0.029641689547896383,0.011118190863728523,-0.43161048842053856
1790592440273755100,4.328755126953125,-0.08689560864269733,0.03572130172252655,-0.44877044366654006
1790592440283767300,4.338767333984375,-0.1481266512075439,0.04249298781454563,-0.5581138848302886
1790592440293780000,4.348780029296875,-0.17804480134295297,-0.0022281974434852597,-0.5957143513629213
1790592440303793200,4.358793212890625,-0.23065469402419403,-0.0017436287969350814,-0.4394606173990294
1790592440313806300,4.368806396484375,-0.2701186894063838,-0.031159108373522756,-0.326207528510876
1790592440323819300,4.3788193359375,-0.2389531695583835,-0.029914076748490333,-0.3746030183674767
1790592440333832200,4.388832275390625,-0.1420715706859715,-0.02017185041308403,-0.4695798613307997
1790592440343845000,4.39884521484375,-0.15363808983908966,0.019942717832326887,-0.3623330271201208
1790592440353858300,4.4088583984375,-0.2786228983794339,0.08776420817077159,-0.22437208835706113
1790592440363871000,4.41887109375,-0.33642332717478274,0.08019406517744064,-0.20897030189000068
1790592440373883100,4.428883056640625,-0.28871289697289465,0.008138882791996002,-0.2467122409862466
1790592440383896000,4.43889599609375,-0.2009013607953675,-0.06033961015045643,-0.37830928900688887
1790592440393909200,4.4489091796875,-0.14207624686108902,-0.0644885465234518,-0.4212541122421622
1790592440403922200,4.458922119140625,-0.15815469048069788,0.019215572601556777,-0.3776866270639002
1790592440413935000,4.46893505859375,-0.22687576000737025,0.050879707887768744,-0.3914098127942532
1790592440423948300,4.4789482421875,-0.2510924836307764,0.05025134685635566,-0.4942905972825363
1790592440433961200,4.488961181640625,-0.15412030213177202,-0.04270750734806061,-0.5764546838913113
1790592440443974100,4.49897412109375,-0.06580547434091567,-0.10949848559498786,-0.5616884188488126
1790592440453987000,4.508987060546875,-0.09134265117943287,-0.07243629065752029,-0.410323187578842
1790592440464000300,4.519000244140625,-0.2098743380576372,0.0046200610160827636,-0.22848436424778773
1790592440474012200,4.52901220703125,-0.25374387492239475,0.06077800156772136,-0.11953742985464631
1790592440484025300,4.539025390625,-0.16551614089310168,0.015204583394527434,-0.22102226647250353
1790592440494038000,4.5490380859375,-0.05100247575091198,-0.007621580919623374,-0.41210437190718946
1790592440504051200,4.55905126953125,-0.0577028501723893,-0.05303425557315349,-0.42492816111240533
1790592440514064100,4.569064208984375,-0.1636474061454646,-0.039305589950084686,-0.41196854363307356
1790592440524077000,4.5790771484375,-0.18642271705521268,-0.007573065602779388,-0.3625337007913738
1790592440534090200,4.58909033203125,-0.11114917541146278,-0.002140519160032272,-0.4105801945472136
1790592440544103200,4.599103271484375,0.02464459364665672,-0.004921674311161041,-0.5329191282212734
1790592440554116400,4.609116455078125,0.1060176394755952,-0.02833995929956436,-0.6085683165106922
1790592440564128300,4.619128173828125,0.055471711853146546,-0.04260112436413765,-0.5257737865112722
1790592440574141200,4.62914111328125,-0.07864334687041118,-0.06215279705226421,-0.4586174455506727
1790592440584154000,4.639154052734375,-0.21120237179100512,-0.09275894771814346,-0.34560591033343224
1790592440594167300,4.649167236328125,0.38154724801480766,0.4487678498506546,0.4713922445150092
1790592440604180200,4.65918017578125,0.7251753920018672,-0.15494155538678167,1.5438896300531924
1790592440614193200,4.669193115234375,0.4899573538511991,-0.25604396855831146,1.8118518538117407
1790592440624206000,4.6792060546875,-0.14373510171771048,-0.02077566152513027,0.1775213802570477
1790592440634219300,4.68921923828125,-0.2963818241655826,0.16673720712065696,-2.625658299946785
1790592440644232200,4.699232177734375,-0.07780631152438,-0.11387889263629912,-3.3748610487461086
1790592440654245000,4.7092451171875,0.21846914792358874,-0.2180447850316763,-0.1627430959831923
1790592440664257300,4.71925732421875,0.3717722884535789,0.04212473902404308,1.9752377046778797
1790592440674270200,4.729270263671875,0.02747135063833557,-0.5963730709999799,0.560202125813812
1790592440684283100,4.739283203125,-0.2779722889835946,0.07861234894394874,-2.397914835460484
1790592440694296000,4.749296142578125,-0.17096503568245097,0.24086101247370242,-2.8752921092018484
1790592440704309200,4.759309326171875,0.054537636740272864,0.16274609165787696,-0.5819080173937603
1790592440714322200,4.769322265625,-0.2301221763163805,-0.028400749576091764,-0.027220453750342127
1790592440724335000,4.779335205078125,-0.7194616905301809,-0.04871230072081089,-2.237325191184133
1790592440734348300,4.789348388671875,-0.8096259455800056,-0.3411971174478531,-2.9611154124379158
1790592440744361200,4.799361328125,-0.7375432906657456,-0.45840193963646886,-0.6564271422073245
1790592440754373000,4.809373046875,-0.32862755873203275,0.018137714236974717,1.235703386325389
1790592440764386300,4.81938623046875,-0.05043547125160694,-0.0358802916765213,1.257476388324797
1790592440774399200,4.829399169921875,-0.18768296451568603,0.061471244528889656,-0.5533353453168646
1790592440784412200,4.839412109375,-0.7076946803689003,0.06555120731890202,-1.5933438351824878
1790592440794425300,4.84942529296875,-1.1378799948245286,-0.00022387188374996183,0.0010400105722248555
1790592440804438000,4.85943798828125,-0.9297674057424068,0.04503331994712353,1.4093147169992326
1790592440814451200,4.869451171875,-0.5913514434456825,-0.2781915029585361,1.5881681861102581
1790592440824464100,4.879464111328125,-0.46989071737825866,-0.26730361371934414,1.3610802629232406
1790592440834477300,4.889477294921875,-0.8113660672456026,0.1190998421549797,0.7959449184909463
1790592440844489200,4.8994892578125,-1.0207295331716537,0.3047872489392757,1.2271595759943128
1790592440854502100,4.909502197265625,-0.8551023331195116,0.1429758077830076,1.8901801251173018
1790592440864515000,4.91951513671875,-0.6558955195486545,-0.18418986170291898,1.9708130201034246
1790592440874528300,4.9295283203125,-0.5632990689158439,-0.4170207124561071,1.8419129378154873
1790592440884541200,4.939541259765625,-0.6618377690792083,-0.15804887375235557,1.3180360709667205
1790592440894554000,4.94955419921875,-0.8633627964645624,0.045780923444032666,1.2064870095174758
1790592440904567300,4.9595673828125,-0.9383879345715045,0.28655133502483365,1.894313717790693
1790592440914580200,4.969580322265625,-0.8573106568187475,0.3245025877565145,2.187236487543583
1790592440924593200,4.97959326171875,-0.793506000906229,0.05743219827115535,2.102730404385924
1790592440934606000,4.989606201171875,-0.840384656459093,-0.15685177292227745,1.9602868037834762
1790592440944618200,4.9996181640625,-0.9587731354743242,-0.12493044800460337,2.0445245913937686
1790592440954631200,5.009631103515625,-1.0327122319102287,-0.06025719256401062,2.0040221928745505
1790592440964644000,5.01964404296875,-1.1074094532370566,0.09561433714926243,1.601916287086159
1790592440974657300,5.0296572265625,-1.086767062702775,0.134838094034791,1.3577259840592741
1790592440984670200,5.039670166015625,-0.9645423665255307,0.09303659561574458,1.5447513614490627
1790592440994683100,5.04968310546875,-0.7388076115131378,0.08266776181459426,1.2751058607786894
1790592441004696000,5.059696044921875,-0.5592880797088146,0.04485094911754131,0.28570750461183486
1790592441014709000,5.069708984375,-0.5162970792442559,0.07908464263081551,-0.622366978630051
1790592441024722200,5.07972216796875,-0.5285018963009118,0.05481938542425632,-0.9267566065538674
1790592441034734800,5.08973486328125,-0.6633306379854679,-0.03528700195848942,-0.6780507988639175
1790592441044747000,5.0997470703125,-0.7459966462343931,-0.018099720314145088,-0.4473550604432821
1790592441054760000,5.109760009765625,-0.5716460415005683,0.022381927677989005,-0.5695766148153693
1790592441064773000,5.119773193359375,-0.30666297968328,0.021241525471210478,-0.8262836503922939
1790592441074786000,5.1297861328125,-0.293984699895978,-0.020843466064333915,-1.0262996614541857
1790592441084799000,5.139799072265625,-0.5827805989772081,0.04881400752961635,-1.094979376057163
1790592441094812200,5.149812255859375,-0.9038052814900874,0.07373217568695545,-1.0935646869536488
1790592441104825000,5.1598251953125,-0.8539876498758793,0.07053425642848014,-1.1834398228637872
1790592441114838000,5.169838134765625,-0.39088206259310243,-0.043484336939454075,-1.086544286797568
1790592441124851000,5.179850830078125,-0.061127554790908464,-0.13121405831873417,-0.7236533700663595
1790592441134863000,5.189863037109375,-0.08522855221331119,-0.07431845114231109,-0.4728087237168103
1790592441144876000,5.1998759765625,-0.38862463905513284,-0.05871463929712772,-0.4631757299095392
1790592441154889200,5.20988916015625,-0.6285241130203009,0.2190630221635103,-0.753835011709854
1790592441164902000,5.21990185546875,-0.6070540394902229,0.1602121892660856,-0.9525321952581405
1790592441174915000,5.2299150390625,-0.572327594023943,0.02740238618850708,-0.7830782034594566
1790592441184928000,5.239927978515625,-0.7267980247676372,-0.08754267437458038,-0.4928917998678982
1790592441194941000,5.24994091796875,-0.7219827334403991,0.0038473230779170987,-0.20289076278060675
1790592441204954000,5.2599541015625,-0.5039437936276198,-0.11467618049383163,0.17665690891481936
1790592441214967000,5.269967041015625,-0.2505921511595137,-0.03567512449324131,0.38089791726060207
1790592441224980200,5.279980224609375,-0.2792161698311567,-0.10930325528383254,0.36230186479687687
1790592441234992000,5.2899921875,-0.68794485476017,0.08119535117447375,0.058077656567841765
1790592441245005000,5.300005126953125,-1.0900216805845497,0.32646833487153054,-0.1616034244287759
1790592441255018000,5.31001806640625,-1.1272662463515997,0.45600949154198167,-0.24664836370348928
1790592441265031200,5.32003125,-0.6808961052924394,0.14274258354902267,-0.20880203265100716
1790592441275043800,5.3300439453125,-0.12917174796932376,-0.2885673510223627,-0.013862009679153561
1790592441285057000,5.34005712890625,0.06515840860903263,-0.623159955638647,0.14084822116978465
1790592441295070200,5.3500703125,-0.229970200625062,-0.4783487491220236,0.08760711791291832
1790592441305083100,5.360083251953125,-0.6179279002040624,0.028650924944877622,-0.14712328285127876
1790592441315096000,5.370095947265625,-0.7633855879306792,0.2929582794576883,-0.29720388113819063
1790592441325109000,5.38010888671875,-0.4921364514559507,0.813500741186738,-0.42968971295841035
1790592441335121200,5.39012109375,0.019593758264183997,0.3858914146989584,-0.3556173455316573
1790592441345134000,5.400134033203125,0.19095334622217341,-0.15038929890990257,-0.2535899264696985
1790592441355147000,5.41014697265625,-0.2227449255466461,-0.540225067320466,-0.44445042504295706
1790592441365160000,5.420159912109375,-0.5352776740461588,-0.20053601634800433,-0.4531869814671576
1790592441375173000,5.430173095703125,-0.36261224592030045,-0.1577858389019966,-0.20665040757507083
1790592441385186000,5.44018603515625,-0.09213935451507568,0.006812602624297142,-0.3468760398671031
1790592441395199000,5.450198974609375,0.060617267181212076,0.19224808047413824,-0.49938284238763153
1790592441405212200,5.460212158203125,0.04189152392321266,0.19278057991564274,-0.3239480226136744
1790592441415225000,5.47022509765625,-0.05678747062683105,0.37285540751516816,-0.4035417838104069
1790592441425237000,5.480237060546875,0.0137421096265316,0.34241759915351866,-0.42920492511615155
1790592441435250000,5.49025,0.14993512540161608,-0.262048177409172,-0.2102171601459384
1790592441445263000,5.50026318359375,-0.10503859270983375,-0.7084796932667493,-0.03280263779684901
1790592441455276000,5.510276123046875,-0.5651999341011047,-0.3127040134131908,-0.1257750821352005
1790592441465289200,5.520289306640625,-0.5214595765739679,-0.010044424152374267,-0.27844971550330516
1790592441475302000,5.530302001953125,0.1688397323578596,0.24119945064783094,-0.09041896046325563
1790592441485315000,5.540315185546875,0.6462690285474062,0.19977613789141177,0.17306538722887635
1790592441495328000,5.550327880859375,0.6580845540255308,0.2503086397767067,0.4447307032890618
1790592441505341000,5.5603408203125,0.18164309982955454,0.07871230218708515,0.46355493848547336
1790592441515353000,5.57035302734375,-0.4511667276859283,0.10174830985963344,-0.07844839055389165
1790592441525366000,5.580365966796875,-0.5528770436227322,-0.00800736536681652,-0.27919600382596255
1790592441535379200,5.590379150390625,-0.01371989779472351,-0.1542570802539587,0.08377996084019541
1790592441545392000,5.60039208984375,0.4446352800905704,-0.13547054671943187,0.1979554983355105
1790592441555405000,5.610405029296875,0.5858604448139667,-0.14174948085844516,0.14866919711902737
1790592441565418000,5.62041796875,0.44411564013063903,0.1360311032116413,0.12203268073648213
1790592441575431200,5.63043115234375,0.19626608394384382,0.07411971369981765,0.1420407188899815
1790592441585444000,5.640444091796875,-0.3100222269833088,-0.13704934034347532,0.1501322554089129
1790592441595457000,5.65045703125,-0.7483323957055806,-0.19989713392257688,-0.08121902431100607
1790592441605470000,5.660469970703125,-0.6639391252726317,-0.00962298386991024,0.08842033399194478
1790592441615482000,5.670482177734375,0.11756371862888336,0.2689250774413347,0.3492471529126167
1790592441625495000,5.6804951171875,0.9366378760337829,0.19892682758569716,0.1828255876123905
1790592441635508000,5.690508056640625,0.9993751949757337,-0.0745318016320467,0.10481237360537052
1790592441645521200,5.700521240234375,0.19593933620750903,-0.23870821835398673,0.24802301305755972
1790592441655534000,5.7105341796875,-0.9812263748228549,-0.16993278829157352,0.10555413188338279
1790592441665547000,5.720547119140625,-1.5644950495779513,0.18193302268683909,-0.0033671383455395696
1790592441675560000,5.730559814453125,-1.0622504610836505,0.37178514793515205,0.27665304134488106
1790592441685573000,5.740572998046875,0.15855448518693446,0.1866033525854349,0.5163919179208576
1790592441695586000,5.7505859375,0.942361514377594,-0.08270107956230639,0.37461364935934544
1790592441705599000,5.760598876953125,0.7273661800444126,-0.41063597985506056,0.331877792699635
1790592441715611000,5.77061083984375,-0.4412573280900717,-0.1866688190370798,0.3181944275230169
1790592441725624000,5.7806240234375,-1.5262877762585878,0.2567699447453022,0.09482990877330302
1790592441735637000,5.790636962890625,-1.653779014661908,0.44441666890382764,0.1118149458438158
1790592441745650200,5.800650146484375,-0.6516542287170887,0.04524140973985195,0.5489287443883717
1790592441755663000,5.8106630859375,0.42528935910761356,-0.33161972628533837,0.7340311908915639
1790592441765676000,5.820676025390625,0.7518769364446402,-0.40305239285826683,0.6623224838562309
1790592441775689200,5.830689208984375,0.19100187980532646,-0.2631950093567371,0.5980566401727497
1790592441785702000,5.840701904296875,-0.9710282214134931,0.8851391594648361,0.0943976548358798
1790592441795715000,5.850715087890625,-1.3637047662079333,0.9032458940416574,-0.6236024387091398
1790592441805728000,5.86072802734375,-1.4329723637014626,-0.06283318053185939,-0.7677066660001873
1790592441815740200,5.870740234375,-1.232164544674754,-0.4354138627588749,-0.15420622684955596
1790592441825753000,5.880753173828125,-0.8960995294183492,-0.7931652246445416,1.0390689074605703
1790592441835766000,5.89076611328125,-0.5535346307486295,-0.640980274489522,1.2822051713898777
1790592441845779000,5.900779052734375,-0.5687058963954449,-0.03778291042745113,1.1262981319718062
1790592441855792000,5.910792236328125,-1.0965782626211642,1.1731681658267974,0.3769958683207631
1790592441865805000,5.92080517578125,0.44398529174923895,2.661770646813512,-1.26943482940495
1790592441875818000,5.93081787109375,-0.3353665115982294,-1.582239380583167,-0.8815484414964914
1790592441885831200,5.9408310546875,-1.9669839633345603,0.1246247430562973,0.5411329759456217
1790592441895844000,5.950843994140625,-2.3733500107854604,-0.09732698628604411,1.3319343940682709
1790592441905856300,5.960856201171875,-2.609357738009095,-0.5786036055535078,1.371140323036164
1790592441915869000,5.970868896484375,-0.8330436460465193,-0.0778735132753849,0.9377787166319786
1790592441925882000,5.980882080078125,-0.4222323096245527,-0.282080327090621,-0.5827447970114648
1790592441935895000,5.99089501953125,-0.813875419718027,1.1614163532346486,-0.46254736887812614
1790592441945908000,6.000907958984375,-1.929203390994668,0.05544248575866222,1.1602135533161462
1790592441955921000,6.0109208984375,-1.9818547847300767,0.2725461905479431,1.4565718504756688
1790592441965934000,6.02093408203125,-0.8707143282711506,-0.9306178850919008,0.1105241753809154
1790592441975947300,6.030947265625,-0.06048108271406963,-0.0521972202271223,-0.04488441299572587
1790592441985960000,6.0409599609375,0.3453396240800619,0.2068336551874876,0.953306248370558
1790592441995972600,6.05097265625,0.29116555082201956,0.09821312147080898,1.752512360614538
1790592442005984800,6.06098486328125,0.53749476557374,0.44147593927681444,1.920318366010487
1790592442015997700,6.070997802734375,0.2971329347938299,-0.6689180827289819,1.5347399627834557
1790592442026010600,6.0810107421875,-0.3955284270942211,0.02817395508289337,1.1478164285577832
1790592442036023600,6.0910234375,-1.1066115808576344,0.6799380739152431,1.3697070753626523
1790592442046036700,6.10103662109375,-0.8865086942523718,0.8946756340950727,2.121348449485749
1790592442056050000,6.1110498046875,-0.06646134443376213,-0.2121528043836355,2.1559004151679573
1790592442066062600,6.1210625,0.5783996074140072,-1.318348790177703,1.4452658819548785
1790592442076075800,6.13107568359375,0.4553992506891489,-0.6695750853329897,0.5888147645749151
1790592442086088700,6.141088623046875,-0.39660044023990626,1.1125386328190565,0.39476708733290433
1790592442096102000,6.151101806640625,-1.5068834030866622,1.1190788482427596,0.6708779846251011
1790592442106113800,6.16111376953125,-2.0868401768147944,-0.18090777129232882,0.6635837359637021
1790592442116126700,6.171126708984375,-1.836288960453868,-1.550653571230173,0.1462242881849408
1790592442126139600,6.1811396484375,-0.28194296444654465,-2.177612334629893,0.5646488760896027
1790592442136152800,6.19115283203125,0.6913432650268078,-0.8397329145520925,1.9988592571534216
1790592442146165500,6.20116552734375,0.8846960918724537,3.6398774283111095,2.759247855225205
1790592442156178700,6.2111787109375,-0.1917921534001827,3.4126761078774925,2.6578879601612684
1790592442166191900,6.22119189453125,-2.358514260703325,1.0245832859903574,-0.15094839409738778
1790592442176204800,6.231204833984375,-3.5725112805247305,-0.015053776746988295,-2.64444775609076
1790592442186217700,6.2412177734375,-4.84603250246048,-1.2099924603551626,-3.744263685458898
1790592442196229600,6.251229736328125,-5.0883144876480095,-2.2541011155486106,-2.975161765708029
1790592442206242800,6.261242919921875,-3.996114293980598,-2.6759885572582482,0.12961948260366915
1790592442216255700,6.271255859375,-2.749132703924179,-2.7297172248363495,2.128045316775888
1790592442226268700,6.2812685546875,-2.096234612625837,0.5323001195400953,2.9769322825118896
1790592442236281600,6.291281494140625,-1.4069430194318293,4.827050154092908,2.890009785862267
1790592442246294800,6.301294677734375,-0.2799508955801837,2.3406577014952896,1.744077417485416
1790592442256307700,6.3113076171875,0.395017554962635,-2.9571172827124594,0.5413029256850481
1790592442266320600,6.321320556640625,0.047864159458875656,-3.692646310946345,0.3095169078096747
1790592442276333800,6.331333740234375,-1.198372749710083,-1.4652496624499558,0.351396001509577
1790592442286346800,6.3413466796875,-2.121300080299377,1.6746844400465488,-0.20107202292084692
1790592442296359000,6.35135888671875,-1.4483774381041525,2.6666742009460926,-0.6862429462131112
1790592442306371600,6.36137158203125,0.1577624397601001,1.1362871726751327,0.14174407403096556
1790592442316384800,6.371384765625,0.4808300445437431,-1.9277771575838327,1.2222558757312596
1790592442326397700,6.381397705078125,-0.1832487814605236,-1.6725637946307659,1.4139046751379967
1790592442336411000,6.391410888671875,-0.47302901540398595,0.2669400411039591,0.08759045903906226
1790592442346423600,6.401423583984375,-0.07397475227117538,0.2685726107418537,-1.0349128837596624
1790592442356436700,6.411436767578125,0.7250538114488124,0.23219021476209162,-1.3548574428856373
1790592442366450000,6.421449951171875,1.1505249568641185,0.9648375500798225,-1.6820073302805423
1790592442376462600,6.431462646484375,0.9687246206462383,-0.07875088063180447,-2.511029465726018
1790592442386475800,6.441475830078125,0.501731378275156,-0.0019815292060375213,-3.1269162154912946
1790592442396487700,6.45148779296875,0.07549683813876472,-0.5367091681540012,-3.083537384752929
1790592442406500900,6.4615009765625,-0.4620061016082763,-1.0332283647388218,-2.4463185086235404
1790592442416513800,6.471513671875,-0.7266951489150524,-0.6717834090322256,-2.2549356666766105
1790592442426526700,6.481526611328125,-0.8182628410220145,-0.34185178196430205,-2.8296228294387458
1790592442436539600,6.49153955078125,-0.8221370521068573,1.2903233036547899,-3.4130738750234246
1790592442446552800,6.501552734375,-0.4512368703126907,2.4559786096334455,-3.4050627102643247
1790592442456565500,6.5115654296875,-0.12762567843794823,0.3860603415250778,-2.7702880124166605
1790592442466578700,6.52157861328125,-0.7127998945534229,-1.5264800839602946,-2.3497541772730646
1790592442476591900,6.531591796875,-1.2135866854548454,-1.5675696347177028,-2.2878929105132815
1790592442486603800,6.541603759765625,-1.4469558808684349,-0.6242898364514112,-1.9459270006500184
1790592442496616700,6.55161669921875,-1.343908178848028,1.0869260526567697,-1.860069356752932
1790592442506629600,6.561629638671875,-0.4613713108360767,2.084494490471482,-2.058128753854334
1790592442516642800,6.571642822265625,0.26294015781283375,0.4494780439466238,-1.3481139599747956
1790592442526655700,6.58165576171875,-0.36746319308280945,-0.7862392247736454,-0.6070655837975442
1790592442536668700,6.591668701171875,-1.2855378229439258,-0.6129086107373237,-0.6522347320187837
1790592442546681600,6.601681640625,-1.3370809631764888,-0.5411135405927896,-0.2651155290905386
1790592442556694800,6.61169482421875,-0.5220715709924697,0.09960253000259399,0.17888620233684777
1790592442566707700,6.621707763671875,0.37292613466382024,-0.0438753820836544,0.7155153640571982
1790592442576720000,6.631719970703125,1.0009271005928515,-0.9395406117379664,1.6863631874024867
1790592442586732500,6.641732666015625,0.9963058705329895,0.9105997639358043,2.126743878788501
1790592442596745700,6.651745849609375,1.019837552767992,2.503970194864273,2.3049933906570077
1790592442606759000,6.661759033203125,0.649894817829132,0.7872475250333547,2.7889368910461663
1790592442616771600,6.671771484375,-0.1851262657701969,-1.4112906932473182,1.7161336178965865
1790592442626784800,6.68178466796875,-0.46046296381950375,-1.3427823896884918,0.5693365955144166
1790592442636797700,6.691797607421875,-0.2614332603812218,-1.657410649162531,1.535694194768369
1790592442646811000,6.701810791015625,-0.07069674438065848,-0.9786474642455577,2.510663847284019
1790592442656823600,6.711823486328125,0.09234393717646598,1.3420821324646472,1.181811491009593
1790592442666836700,6.721836669921875,0.5262368739783764,3.765453188481927,0.23051460970006882
1790592442676848600,6.7318486328125,0.4568938731610775,0.806193633043766,1.1286636189941317
1790592442686861800,6.74186181640625,-0.8925660945951938,-1.7813029862910508,2.2169068186640737
1790592442696874500,6.75187451171875,-1.8305390186250208,-2.1142519153535364,2.1463763616278766
1790592442706887700,6.7618876953125,-2.1025416038155553,-1.5307991162031889,2.5140812545120714
1790592442716900900,6.77190087890625,-2.113432415664196,0.058662616848945616,2.431439796182513
1790592442726913800,6.781913818359375,-1.3266191903948783,1.6703215686619282,1.6119067890942096
1790592442736926700,6.7919267578125,0.15088848973684943,3.1875872495532036,1.7918036297783255
1790592442746939600,6.801939697265625,0.7416869663417339,0.04037584953010082,2.7710978674948215
1790592442756952800,6.811952880859375,-0.5064473008811473,-2.6283739886462687,3.151945735068619
1790592442766964700,6.82196484375,-1.885161420172453,-1.9791829351723194,3.5973186817839737
1790592442776977700,6.831977783203125,-1.931767688524723,-0.35145956826508046,4.421317143848539
1790592442786990600,6.841990478515625,-1.065845270705223,-0.006293547186255455,4.15800201524347
1790592442797003800,6.852003662109375,-0.03621346915364265,0.6198743580967188,2.3412582977369425
1790592442807016700,6.8620166015625,0.3704091834068298,0.6283002411365509,0.6037189767833798
1790592442817029600,6.872029541015625,0.47667643199563026,0.10513853681981562,0.9405221701212226
1790592442827042800,6.882042724609375,0.20059271497130393,-1.0301023416727781,2.401468728549778
1790592442837055700,6.8920556640625,-0.2902864298999309,-1.2479454666525125,2.78285990922004
1790592442847068700,6.902068603515625,-0.33138416396379466,-0.6340419996589421,2.040292360651493
1790592442857080600,6.91208056640625,-0.054855032126372674,0.9730150113165378,1.119466093994677
1790592442867093800,6.92209375,0.10110124412775039,0.40255321116447446,0.40375794731173664
1790592442877106700,6.932106689453125,0.3637421267330646,-0.21864625805616378,0.4386305597830564
1790592442887120000,6.942119873046875,0.7158183655917644,-0.5286076947629451,0.5273361404571681
1790592442897132500,6.952132568359375,0.5855015483736992,-0.04681260457932949,-0.07980528505556285
1790592442907145700,6.962145751953125,0.7379647309482097,0.4855366147994995,-0.9088291010014712
1790592442917158700,6.97215869140625,1.0501672245800495,0.032249826219677924,-2.1162384129956364
1790592442927171600,6.982171630859375,1.062831475841999,-1.2525257801800966,-3.1010812247499824
1790592442937184800,6.992184814453125,0.9789245276212691,-0.7878250326603651,-3.3475784895449876
1790592442947196700,7.00219677734375,0.8872387620925902,1.219407938954234,-2.805196244190633
1790592442957209900,7.0122099609375,0.6228536661684513,0.6603261954724788,-2.898972552257776
1790592442967222800,7.022222900390625,0.4153495643734932,0.26723288657069205,-3.774960729278624
1790592442977235700,7.032235595703125,0.30850714624524117,0.24371231025159357,-4.510882263961434
1790592442987248600,7.04224853515625,0.0847919143617153,-1.0994979494601487,-4.820335166624188
1790592442997261800,7.05226171875,-0.08976852459735236,-0.9117565327554941,-5.275612252238393
1790592443007274800,7.062274658203125,0.23634207374453542,0.9658534491240978,-5.5410617625236505
1790592443017287700,7.07228759765625,0.9790729961812495,1.7247475708544253,-4.884005382502079
1790592443027300900,7.08230078125,1.0753449204564094,-0.7971820590704679,-4.375304457475245
1790592443037312800,7.092312744140625,0.5558382315158844,-1.303663262221217,-4.205470745643973
1790592443047326000,7.102325927734375,-0.21732989649428053,-0.25221476565897466,-3.58939051913321
1790592443057339000,7.1123388671875,0.5605939016103744,0.8994728052437305,-2.9048057884559033
1790592443067351800,7.122351806640625,1.443876619553566,-0.7051274602293968,-2.0902710280463097
1790592443077365000,7.132364990234375,1.3866273766338824,0.8369283785253763,-1.5798232593521475
1790592443087377700,7.142377685546875,0.8927811986505985,0.8783826709419489,-0.8443702189639211
1790592443097390800,7.152390869140625,0.17356909896731376,0.008479074531793593,-0.33112178670056164
1790592443107403800,7.16240380859375,0.011613280904293059,-0.7200052958875894,-0.8221751921601593
1790592443117417000,7.1724169921875,-0.15898995399475097,-0.8604699976325034,-0.18986092960927634
1790592443127428900,7.182428955078125,0.07723170824050903,0.6662433105617761,0.8075245163213461
1790592443137441800,7.19244189453125,0.5543734196603298,0.8363684065550565,1.3546815017968414
1790592443147454700,7.202454833984375,0.5036638076424599,-0.8150812883764504,1.8214792215958238
1790592443157468000,7.212468017578125,-0.36688217832446096,-0.5890010809272528,1.7912237840637564
1790592443167480800,7.222480712890625,-0.6070026015639305,0.5270277320951223,1.0673374820243566
1790592443177493800,7.23249365234375,0.06497077708244324,0.11096738910377026,0.48753951558712866
1790592443187507000,7.2425068359375,0.7133025833785533,0.4174532586544752,0.5517668173585086
1790592443197520000,7.252519775390625,1.0271978524029255,0.49374622474014757,1.2071699502803384
1790592443207532800,7.26253271484375,0.5044458979308605,-0.7630506568878889,1.7630444221533834
1790592443217544700,7.272544677734375,-0.4204723142147064,-0.7740560350269079,1.7452812403172253
1790592443227558000,7.282557861328125,-0.4043044387459755,-0.4606827440500259,1.889879388605058
1790592443237570800,7.29257080078125,-0.14617722503966651,-0.17495383132398126,2.0010440538465977
1790592443247583700,7.302583740234375,0.3511129467844963,1.0543646762698888,1.2419845124214888
1790592443257596700,7.3125966796875,0.5596352857112884,0.5306693034678698,0.47780755491741
1790592443267609900,7.32260986328125,-0.11414894174933433,0.5213830042064189,0.22116481674835084
1790592443277623000,7.332623046875,-0.40740357380509373,-0.5048007027179002,0.3464114910952747
1790592443287635700,7.3426357421875,-0.5970142915129661,-1.6290835493445395,0.8791198991753161
1790592443297649000,7.35264892578125,-0.4823638299822807,-0.8381091127425432,1.2044669749319552
1790592443307660800,7.362660888671875,-0.25545827762484546,0.35731589307785033,0.38149500637091693
1790592443317674000,7.372674072265625,0.43306759189367294,1.4247814584612846,-0.7146577243145554
1790592443327687000,7.38268701171875,1.1258803449511527,1.1895616667449473,-1.5971625166878103
1790592443337699800,7.392699951171875,1.1647709243595599,-0.7973942405164242,-1.7343652940273284
1790592443347712800,7.402712646484375,0.7999275583863258,-0.34780864454209803,-0.8376305354453623
1790592443357726000,7.412725830078125,0.01734509342140518,-0.8691852190077304,0.037177784141153095
1790592443367739000,7.42273876953125,-0.47787820900082584,0.4667097492545843,0.39500235739350315
1790592443377751800,7.432751708984375,-0.21221067205071448,0.3409381742507219,0.5535603497117757
1790592443387765000,7.442764892578125,0.07099370433350559,-0.022910335466265676,0.7675094629276543
1790592443397777000,7.45277685546875,0.004328982814750634,0.3676905720978975,0.15595686990916727
1790592443407789800,7.462789794921875,0.15578092882037162,0.9943319401115178,0.28817499070391056
1790592443417802800,7.472802734375,0.7773790419697761,-0.1546656610548496,1.0213730917721986
1790592443427816000,7.48281591796875,0.9185878400802612,-0.8773059816211461,1.4151228187561034
1790592443437828900,7.492828857421875,0.29023031579852104,-0.6991898868739604,1.4468527127549051
1790592443447841800,7.502841796875,-0.5261234767317772,0.3026864772677421,1.5774965699702501
1790592443457854700,7.512854736328125,-0.8805693673312663,1.1858102052569388,1.2290374986954034
1790592443467868000,7.522867919921875,-0.7964215960919857,-0.2512503045409918,0.9705455524630844
1790592443477880800,7.532880859375,-0.3674059099376201,-0.2409229717940092,1.6252891254976392
1790592443487893000,7.54289306640625,-0.4965548524200916,-0.5255377857983112,1.964509682175517
1790592443497905700,7.55290576171875,-0.9820587339937686,0.06989362043738365,1.4588593768909572
1790592443507918800,7.5629189453125,-1.0925964995086193,0.06417348922491073,0.16114391715824603
1790592443517932000,7.57293212890625,-0.3304384075462818,1.255080140838027,-0.6937986222896725
1790592443527944700,7.58294482421875,0.7229296589016914,0.04089841209948063,-0.6943189198367298
1790592443537958000,7.5929580078125,0.4886497783839702,-1.4469903676599263,-0.4353789741085842
1790592443547970800,7.602970703125,-0.3470703933954239,-0.25116145721375943,-1.2263960442759096
1790592443557984000,7.61298388671875,-0.7776631196081638,0.327577172896266,-1.2101309920430183
1790592443567996000,7.622995849609375,-0.183466223603487,0.7092319729387759,-0.32703864557277407
1790592443578008800,7.6330087890625,0.42417701395153995,-0.05765314754545688,0.17912450460474938
1790592443588021800,7.643021728515625,0.0609551117002964,-0.6827127993255854,-0.04569561978075653
1790592443598035000,7.653034912109375,-0.983861399501562,0.2503735217064619,-0.8220159830104559
1790592443608047900,7.6630478515625,-1.2608791825056076,0.6788964559078217,-1.539886239630729
1790592443618060800,7.673060791015625,-1.030701476609707,0.3193576260834932,-2.2561722227342424
1790592443628074000,7.683073974609375,-0.5690694690108299,0.5000532159298658,-3.0146544026628135
1790592443638087000,7.6930869140625,-0.6054360828995704,-0.5307610734045505,-3.558801027341187
1790592443648099800,7.703099853515625,-0.9453332236647606,-0.9420248297691345,-3.2822789188995953
1790592443658111700,7.71311181640625,-1.0878162794947623,0.04319616764783859,-2.4198726925075054
1790592443668125000,7.723125,-0.1793582037627697,1.2724942169755697,-1.460456290693581
1790592443678137900,7.733137939453125,0.23865444234013555,-0.09087620271146298,-0.7405268365211785
1790592443688150800,7.74315087890625,-0.9608370822668075,-0.6006067630469799,-1.4062190890714525
1790592443698163700,7.753163818359375,-1.7068378201544283,0.28498306279480456,-2.4168697112992406
1790592443708177000,7.763177001953125,-1.79206578784585,0.3135626760691404,-1.7343704085938632
1790592443718190000,7.773190185546875,-1.5788871475458144,-0.21082593969404695,-1.2262227335356175
1790592443728202800,7.78320263671875,-1.6224176617145538,-0.4185644347667694,-1.608041638098657
1790592443738216000,7.7932158203125,-1.7250211270987987,0.20362287644743918,-1.9009123854033647
1790592443748227800,7.803227783203125,-0.9814403098344803,0.7048164945840835,-1.1329756369743496
1790592443758241000,7.813240966796875,-0.4948386961519718,-0.25806349168717857,0.14773608098737895
1790592443768253700,7.823253662109375,-1.1603671364426613,-0.28129180706143375,0.04214424744211137
1790592443778267000,7.833266845703125,-1.6360136408686636,0.19823416914641856,-1.0349464207030832
1790592443788279800,7.84327978515625,-1.6595079137027262,-0.26186989823281764,-1.2392815370731054
1790592443798293000,7.85329296875,-1.4441384853601456,-0.24934710126817225,-0.7988503576088696
1790592443808305700,7.8633056640625,-1.0816694473028183,0.41252690816819665,-0.4225898178253323
1790592443818318800,7.87331884765625,-0.7645803506731986,0.31525720502734184,-0.2801896179731935
1790592443828332000,7.88333203125,-1.1619687264204024,-0.22907763569951056,0.29876462764889
1790592443838344000,7.893343994140625,-1.1882032378733158,0.8242237952530383,0.675441273952648
1790592443848356900,7.90335693359375,-0.8824714015603065,-0.627210692334175,0.9887564780667424
1790592443858369800,7.913369873046875,-1.3456781111299991,-0.13073182775974274,1.1236749438613653
1790592443868383000,7.923383056640625,-1.4873697243213653,0.6141022044360638,1.013199722188711
1790592443878396000,7.93339599609375,-0.6262684430480003,0.5285124176949262,1.2123774557955562
1790592443888408800,7.943408935546875,-0.5772270565032959,-0.6366156495392322,1.4911942510455847
1790592443898421800,7.953421875,-1.6033096411406993,-0.4559036930799484,1.117830967073515
1790592443908435000,7.96343505859375,-2.1495184590458867,-1.141937161260843,0.9324576677396893
1790592443918446800,7.97344677734375,-1.66819157089591,-0.5879851818829774,1.5558461714372038
1790592443928459800,7.983459716796875,-1.0406254892528057,0.6110264502525329,2.0056588541656732
1790592443938472700,7.99347265625,-0.19362053787112235,1.7364783406585453,2.108275471292436
1790592443948486000,8.00348583984375,0.04978606743216514,-0.5874661264449358,2.47310919265449
1790592443958499000,8.0134990234375,-1.0450047272503376,-1.4036971693783997,2.4048308984592555
1790592443968511700,8.02351171875,-1.3818845660209655,0.3420499348849058,2.6865163810133934
1790592443978525000,8.03352490234375,-0.8300853807628155,1.0547995605558156,3.2562580501973626
1790592443988537900,8.043537841796875,-0.6119125854372978,0.17766133671700954,3.6143154092922805
1790592443998550500,8.053550537109375,-1.0545184055268764,-0.6818506295382976,3.3683787009894846
1790592444008563500,8.0635634765625,-1.921379565501213,-0.9714403093457221,2.574392223089933
1790592444018575600,8.07357568359375,-2.048919903743267,0.5653022254317999,2.671765971127152
1790592444028588500,8.083588623046875,-1.0055167664706706,0.47911096566617484,2.792098277686536
1790592444038601700,8.093601806640624,-0.3591793488621712,-1.581210037535429,2.4811042830616232
1790592444048614400,8.103614501953125,-0.5742027402460574,0.26254443649351594,2.439694706569612
1790592444058627600,8.113627685546875,-0.5548305157780647,1.592194957408309,3.0595483141392465
1790592444068640500,8.123640625,-0.338828634750843,0.07265197923481465,3.1592160183325406
1790592444078653700,8.13365380859375,-0.7444646143615246,-1.65291742939651,2.4049982178501783
1790592444088666400,8.143666259765626,-0.7127776827216148,0.7402607329308987,2.439375557617843
1790592444098678500,8.153678466796874,-0.63285249761343,-0.9267319835692643,3.3120983031019566
1790592444108691500,8.16369140625,-1.4184896648406982,0.36353988215923305,3.6286680520325896
1790592444118704600,8.17370458984375,-1.3209820612907408,-0.4908779758274555,2.577057935167849
1790592444128717600,8.183717529296874,-0.9323954161584377,-0.7870634006381034,2.3023835004195567
1790592444138730500,8.19373046875,-0.16289105308651924,-0.08930793048143386,2.3251738627679646
1790592444148743700,8.20374365234375,-0.4561550374925136,-1.6554653603136538,2.609275320422649
1790592444158756600,8.213756591796875,-1.4788941569209098,-1.2875363032847642,1.688797282681614
1790592444168769500,8.22376953125,-1.9378373638272284,-0.6855740339756011,0.686544705638662
1790592444178782500,8.233782470703124,-1.1679437091767788,1.9314386027008295,1.2564992138557136
1790592444188794600,8.243794677734375,-0.11903554474711417,0.10498948373794555,1.5863735577784477
1790592444198807600,8.2538076171875,-1.144649342828989,-2.6760423332720995,0.28370727070532736
1790592444208820500,8.263820556640624,-1.8248539587259291,0.5091191504389048,-1.7545026576489209
1790592444218833400,8.27383349609375,-1.2260954538941382,0.9713280811429024,-2.6434213356524703
1790592444228846600,8.2838466796875,-0.7720493713796138,0.6404390072196722,-2.4017690266706047
1790592444238859800,8.29385986328125,-0.2096750160932541,1.2385375868380069,-2.3072489144988357
1790592444248872400,8.30387255859375,-0.0505459458887577,-0.9171399793595075,-2.6690470675572753
1790592444258885600,8.3138857421875,-0.8680898249864578,-1.198642798823118,-3.2706723599970338
1790592444268898600,8.323898681640625,-1.5027543404579162,-0.7212468203812837,-3.635936873991787
1790592444278910700,8.33391064453125,-1.1233633936941623,1.2077099023759363,-3.4851603293299673
1790592444288923400,8.34392333984375,0.3609866905450821,1.199596154025197,-2.9804423364594577
1790592444298936600,8.3539365234375,0.3733575118184089,-0.8411047874271869,-2.9545611684888597
1790592444308949500,8.363949462890625,-0.7040402495145798,-0.22563071011602878,-3.530208262324333
1790592444318962700,8.373962646484374,-1.937093851983547,-1.0869599549263715,-3.349797042377293
1790592444328975400,8.383975341796875,-1.946773534476757,0.39749534325301644,-3.8015187735974787
1790592444338988500,8.393988525390625,-0.45449850245714185,1.7972183483034372,-4.297939478243888
1790592444349001700,8.404001708984374,0.8788707467198371,1.4505226334393024,-3.423580655990541
1790592444359013600,8.414013671875,0.5458288786768913,-2.1149621094495057,-3.0343732486113906
1790592444369026600,8.424026611328125,-0.6234171452701092,-0.6180494807571172,-3.9013793700143693
1790592444379039500,8.43403955078125,-0.608016162520647,0.43083179566562174,-3.882099207744002
1790592444389052700,8.444052734375,-0.019535890597105025,-0.06968786873221397,-2.0242361288636923
1790592444399065600,8.454065673828126,0.27224457725286483,0.33413083232343194,-1.9960528214305637
1790592444409078500,8.46407861328125,0.5707517230093478,0.4376058198451996,-2.592706755198538
1790592444419091500,8.474091552734375,-0.15064062505615874,-0.7529489495903253,-1.8964270566828547
1790592444429104600,8.484104736328124,-0.9389175114035606,0.8717693902820348,-2.033490425551683
1790592444439117600,8.49411767578125,-0.24574936903715133,-0.23641572350263595,-1.6294617350071667
1790592444449129500,8.50412939453125,0.31730653877258297,-1.2662591219782828,-0.6387533191550523
1790592444459142400,8.514142333984376,0.3653437167108059,-0.04083294564783573,-0.9167010764855891
1790592444469155600,8.524155517578125,0.5819499933719635,1.3703946192353964,-1.2455017267622053
1790592444479168800,8.534168701171875,0.2142880628466606,-1.0240472794175148,-0.6163555363208055
1790592444489181400,8.544181396484374,-0.25476386561989783,-0.5608037449687719,-0.9781872993879019
1790592444499194600,8.554194580078125,0.9432803827881813,0.5800736781060696,-1.1220226466096936
1790592444509207600,8.56420751953125,1.2820599177002907,-1.6290876409977673,0.11718872957034036
1790592444519220500,8.574220458984374,0.5951110882401466,-0.8645470378130674,0.5552011757213622
1790592444529233400,8.5842333984375,0.32199791145920753,0.4452957898259163,-0.2450140404999256
1790592444539245600,8.59424560546875,1.1081693316936492,1.6289058546900748,-0.051033327546902
1790592444549258500,8.604258544921874,1.5308932242274282,0.35777298919558526,1.4173108303196726
1790592444559271700,8.614271728515625,1.0082277789950371,-2.0516823541939258,2.1133099583283066
1790592444569284400,8.624284423828126,-0.004347673815488815,-0.9981453609198331,1.8310047364406286
1790592444579297500,8.634297607421875,-0.14306640867590903,1.4658920520067213,1.156008941233158
1790592444589310700,8.644310791015625,0.5046691852927208,1.4886656093508004,1.0133763939298688
1790592444599323400,8.654323486328124,1.4506360306859016,0.45333530389666554,1.3948765879325569
1790592444609336600,8.664336669921875,1.15404728577137,-0.9009376170992851,1.7046810805119572
1790592444619348500,8.674348388671875,0.27344284712672234,0.769264709097147,1.6311581636615096
1790592444629361700,8.684361572265624,-0.32996962099075317,-0.5736573813229799,1.787643587489426
1790592444639374600,8.69437451171875,-0.6711866121828556,-0.9593599954515695,2.1527895896710456
1790592444649387500,8.704387451171876,0.05400514643192291,1.0942080263584852,2.1878379605680705
1790592444659400400,8.714400390625,0.7255167527854443,-0.16768705519139765,2.6346447394788264
1790592444669413600,8.72441357421875,0.09275777867436409,-0.41597032662034034,3.104021077594161
1790592444679426600,8.734426513671876,-0.5977157177805901,1.61032098120749,2.74258430519402
1790592444689439500,8.744439453125,-0.7780605944931507,1.4724346055179833,2.4982716909617184
1790592444699452700,8.75445263671875,-0.8388707447648048,-1.0057014753878115,2.602386437691748
1790592444709464600,8.764464599609376,-0.8799766621351242,-1.21686059255898,2.3666674642816186
1790592444719477800,8.774477783203125,-0.09417465060180984,-0.08221767995953559,2.420366467373818
1790592444729490400,8.784490478515625,-0.3903191680133343,-0.29745792896449563,3.0555557373717424
1790592444739503600,8.794503662109374,-1.2995184175014496,-0.5815940195411443,2.97647430961132
1790592444749516500,8.8045166015625,-1.0888567284584045,1.3438532337903977,2.175755308586359
1790592444759529500,8.814529541015625,0.16686346384882925,0.357549701833725,2.292583844808489
1790592444769542400,8.82454248046875,0.35010756913423535,-1.9800895286232232,2.874082441151142
1790592444779555600,8.8345556640625,-0.6298375337064266,-1.8562655805557966,1.8740416218735276
1790592444789568800,8.84456884765625,-0.9494926814317702,0.18251111483573912,0.6520045034594834
1790592444799580700,8.85458056640625,0.16881576696038245,1.8019120590776203,1.4553924314327538
1790592444809593300,8.86459326171875,1.1560393363714216,0.028607670325040815,2.463564242456853
1790592444819606500,8.8746064453125,0.9304828605353832,-0.812260385736823,1.8973450483106076
1790592444829619700,8.88461962890625,-0.4460533301949501,-0.2023147164583206,1.2974652843639254
1790592444839632400,8.89463232421875,-1.6687807689607141,0.22137772884666918,2.03826465421617
1790592444849645600,8.9046455078125,-1.0951567053854465,0.6937421428620815,2.5147809272140265
1790592444859658500,8.914658447265625,-0.033027824854850764,-1.4642279181867837,2.135724180840701
1790592444869671700,8.924671630859375,0.08574467590874991,-0.07506547011733054,1.6008394516348838
1790592444879684400,8.934684326171874,-0.17051088044047355,0.006489362019300461,1.2318456879839301
1790592444889696500,8.944696533203125,-0.37242461488246914,0.6374532694071531,1.409066295196116
1790592444899709400,8.95470947265625,0.1501028740508016,0.4438713099807501,1.2377696712054311
1790592444909722600,8.96472265625,0.29141806427836414,-0.13504793739318846,1.5833644390903412
1790592444919735600,8.974735595703125,0.5853858130395412,0.3770733174711466,1.9479871480502187
1790592444929748500,8.98474853515625,0.04301846386021934,-1.5051023648887871,2.0280949962489307
1790592444939761700,8.99476171875,-1.2140753457546234,-1.2336001304358244,1.601341702068597
1790592444949774600,9.004774658203125,-1.91179925172925,-1.052762501770258,0.5264851496510208
1790592444959787500,9.01478759765625,-0.8608359083354472,2.4040327338188887,0.14597898992067201
1790592444969799400,9.02479931640625,1.0487994433581829,1.0689099189728497,1.1008780056416987
1790592444979812600,9.0348125,1.3477555019259453,-1.384829971823096,1.9219319386869669
1790592444989825500,9.044825439453126,0.8607739490151405,-0.005215688821673393,1.438150935383141
1790592444999838700,9.054838623046875,-0.08274842583537101,-0.5377244826763868,1.963749365327507
1790592445009851600,9.0648515625,-0.6237970844984054,-0.5092120894193649,2.8518501510769125
1790592445019864800,9.07486474609375,-0.8673568345367908,-0.7997931183516979,1.959991474098712
1790592445029877800,9.084877685546875,-0.4978180042237043,-0.100277652785182,0.812936531432718
1790592445039890700,9.094890625,-0.2912228339672088,0.26856033578217026,1.8043229196116328
1790592445049903600,9.104903564453124,-0.6563198824405669,-1.1177040527582167,2.893099860832095
1790592445059915800,9.114915771484375,-0.17614508693516254,1.473539351889491,2.200775768074393
1790592445069928700,9.1249287109375,0.8615098620742558,-0.3008651070594787,1.625132765892148
1790592445079941600,9.134941650390624,0.6275193198919296,-0.22194120794832706,1.644993066138029
1790592445089954600,9.14495458984375,-0.4622685519367456,1.1870564059257507,1.7248698820598423
1790592445099967700,9.1549677734375,-0.8903659542024135,-0.13137421731650828,2.1543986323028803
1790592445109981000,9.16498095703125,-1.0381056153863668,-0.9940338339477777,1.8202461726695298
1790592445119993600,9.17499365234375,-0.08072190671013668,1.4262813416302202,1.4120572937056421
1790592445130006800,9.1850068359375,0.5248638320595026,-1.8698393478780984,1.3912994600981472
1790592445140019700,9.195019775390625,-0.09377132136477156,0.8749047656983137,0.8460014003623276
1790592445150032000,9.205031982421875,-0.5174281291007995,0.8751280530601739,0.4335311177521944
1790592445160044500,9.21504443359375,-0.7070142968893051,1.1790607309967278,1.892839115193486
1790592445170057700,9.2250576171875,-0.6536036092191935,0.13655541934669016,2.527794138044119
1790592445180070700,9.235070556640625,-0.8954682457774877,-2.0579080968409778,1.7764561307817697
1790592445190083800,9.245083740234374,-1.2862895180940628,-0.14859072505533694,0.9707248545527457
1790592445200096500,9.255096435546875,-0.803291481861472,1.6745318798333406,1.1811476933386176
1790592445210109700,9.265109619140626,0.44621115110516546,0.7755413051486015,1.5086558195866644
1790592445220123000,9.275122802734375,0.9504553889840841,-0.227799286326766,0.9827938433352857
1790592445230135600,9.285135498046875,0.8208236314207314,0.3527624675571918,0.7957051183857023
1790592445240147700,9.295147705078126,-0.1038239470899105,-0.06725216601788997,1.835839463120699
1790592445250160600,9.30516064453125,-1.2926830185234546,1.182856031626463,1.417240249301493
1790592445260173800,9.315173828125,-0.3793424314469099,1.4422434653937817,-0.27187764363661404
1790592445270186800,9.325186767578124,0.718849696111679,-1.0373048203974962,-0.9506395864445716
1790592445280199700,9.33519970703125,1.0312205320477486,-1.1422294222056866,-1.4739010248087345
1790592445290212600,9.345212646484375,0.6829530378222465,-0.571038723257184,-1.6148983721256256
1790592445300225800,9.355225830078124,0.3612754078259691,1.42137661845386,-1.0561562358617782
1790592445310238700,9.36523876953125,0.6311848566621542,1.9304858320206402,-0.8765709453448652
1790592445320250600,9.375250732421875,0.8557078977972269,0.10641279453933239,-1.2883356369689105
1790592445330263600,9.385263671875,-0.17953186156293377,-0.3307558029323816,-1.717803158544004
1790592445340276700,9.39527685546875,-0.9436638291478157,-0.5637076497167348,-2.255723163792491
1790592445350290000,9.4052900390625,-1.1643179198950528,-1.121713288399577,-2.0834319758065045
1790592445360302600,9.415302490234374,-0.722057552242279,-1.0707190142214298,-2.0435455172285435
1790592445370315800,9.425315673828125,-0.3007768807867542,0.6763795046508312,-1.9225047701388596
1790592445380328700,9.43532861328125,-0.14458559933351353,1.2753110279619693,-2.292088024115562
1790592445390341600,9.445341552734375,-0.5003220959991216,2.320933010327816,-2.9945906887993217
1790592445400354600,9.4553544921875,0.20826745085027068,2.3317355593711135,-3.698905079080164
1790592445410366700,9.46536669921875,0.2917728507990949,-1.6045090800583361,-3.5461867527008053
1790592445420379600,9.475379638671875,-0.632669542261958,-2.277232400289178,-2.210973190831393
1790592445430392800,9.485392822265625,-0.6412064844608306,0.5975163958162069,-1.5699879479058085
1790592445440405500,9.495405517578124,-0.11014847393631934,0.356553676533699,-1.2389528896406292
1790592445450418700,9.505418701171875,0.21675766783058642,0.15888649362027643,-3.1021359944999216
1790592445460432000,9.515431884765626,0.6424409946918487,-0.33230127880871296,-4.273468177071213
1790592445470444800,9.52544482421875,-0.09924364269548096,-1.6679285360455511,-3.044274757161736
1790592445480457700,9.535457763671875,-0.599360562378168,0.6640133595526218,-1.8976915236607192
1790592445490470700,9.545470703125,-1.1478361561715602,-1.461907366284728,-1.4111556686908007
1790592445500482800,9.55548291015625,-1.2107803958624601,-0.7081535300523042,-2.828536787767708
1790592445510495700,9.565495849609375,-0.1854489218533039,1.8805781840354203,-3.9175171426057815
1790592445520508700,9.5755087890625,1.2039204469650984,1.3645792109549044,-2.601801039019227
1790592445530521600,9.585521484375,1.8931196857005357,-0.08545593122839927,-1.3034502039924263
1790592445540534800,9.59553466796875,1.2345862188637255,-2.1100153006970883,-2.1613713939249513
1790592445550547700,9.605547607421874,0.11903320665955543,-1.0195546441733836,-3.7234576287955043
1790592445560560600,9.615560546875,-0.6844377234220504,0.4593541257947683,-3.0340023694723843
1790592445570573800,9.62557373046875,0.149521283903718,0.8886246634930371,-1.930428841136396
1790592445580586800,9.635586669921874,0.9812637842237949,-1.7224772878348826,-2.579747320382297
1790592445590599000,9.645598876953125,0.6970505367577076,-0.19471534737050533,-4.478483384659886
1790592445600611600,9.655611572265625,0.9511819496929645,0.7909493021607399,-4.207363135261834
1790592445610624800,9.665624755859374,0.22719196808338163,-2.1645447632640598,-1.8185097042657434
1790592445620637700,9.6756376953125,-0.7032827091455459,-0.42577509679794306,-1.9875809072919188
1790592445630651000,9.68565087890625,0.3446937273919582,0.3693155429512262,-3.7978219649061558
1790592445640663600,9.69566357421875,1.1864929268240927,-1.733099804136157,-3.0421368683502075
1790592445650676700,9.7056767578125,1.0321557670712471,0.5769394717335701,-2.329372775762528
1790592445660690000,9.71568994140625,1.1403402474582194,0.7359282566845416,-2.1669617612779137
1790592445670701800,9.725701904296875,1.0095791936039924,-1.6035580629438162,-1.1285032408006488
1790592445680714500,9.735714599609375,0.34098435148000716,-1.3926234021782875,-1.068115261463821
1790592445690727700,9.745727783203124,-0.5109025267243384,-1.307978787332773,-0.7139449729353189
1790592445700740900,9.755740966796875,-0.5007236625373364,0.6233236217677592,0.09778506878446787
1790592445710753800,9.76575390625,0.16210662471055984,0.783313692715764,0.550067356496863
1790592445720766700,9.7757666015625,0.4009913686752319,-1.628814084753394,0.34673674099426716
1790592445730779600,9.785779541015625,0.2840297075927257,0.621261428540945,0.1984985557036474
1790592445740792800,9.795792724609376,1.0363958888590334,0.12407061630487441,0.8038759306859224
1790592445750805500,9.805805419921874,0.8124000864684582,-0.9366717783033848,1.7751438791394232
1790592445760817700,9.815817626953125,0.01906594413095154,-0.5892138468950987,2.1421058447018266
1790592445770830600,9.82583056640625,-0.9087561818957328,0.8376403261870146,1.052640848151967
1790592445780843800,9.83584375,-0.20538345637917518,2.6493589090079066,-0.4060004290089011
1790592445790857000,9.84585693359375,0.4717302077651024,-0.747479578268528,-0.14243074112087487
1790592445800869600,9.85586962890625,-0.2593968226501718,-3.123558137235045,0.38334012278094887
1790592445810882800,9.8658828125,-0.5917863277316093,-1.46153034966588,0.12186419230177997
1790592445820895700,9.875895751953125,-0.06919453225731849,0.04594692766070366,0.6311747736595571
1790592445830908700,9.88590869140625,0.576801524567604,1.6780606384813785,0.1732299301408231
1790592445840921600,9.895921630859375,1.4249229127585887,1.3361083187520504,-0.8554256467897444
1790592445850933800,9.905933837890625,1.3879904816806317,-2.030620276942849,-0.22272278678007423
1790592445860946700,9.91594677734375,-0.3110439712464809,-0.5930716913670301,1.3628651005133985
1790592445870959900,9.9259599609375,-1.527997502785921,0.7255658526241779,1.6274255530044435
1790592445880972500,9.93597265625,-0.9808324070692062,1.4401380175471306,0.4929362235315144
1790592445890985700,9.94598583984375,0.5857926402747631,-0.16282558663487434,-0.8804387266889214
1790592445900999000,9.9559990234375,1.3018681954979896,-0.4654325689256191,-0.2381342909235507
1790592445911011600,9.966011474609376,1.012491281658411,1.354488609573245,0.8728879459831863
1790592445921024800,9.976024658203125,0.25690672286748883,-0.5726403132349253,0.7085713901381939
1790592445931037700,9.98603759765625,-0.4659469481885433,0.12129647541642188,0.20920228401497004
1790592445941049900,9.9960498046875,0.7009516358494758,3.7539258322954177,-0.14181480117961764
1790592445951062800,10.006062744140625,1.3372808696627616,-0.6381465123683214,0.3225511614277959
1790592445961075700,10.01607568359375,-0.655383478373289,-4.479971577391028,-0.3238693313542753
1790592445971088600,10.026088623046874,-1.6864976274371146,-0.2063444103658199,-2.9952172962650656
1790592445981101800,10.036101806640625,-0.20355039573311803,2.264330248618126,-3.846390180981159
1790592445991114500,10.046114501953125,0.0832674812734127,-0.16258710170388221,-2.3877760110229254
1790592446001127700,10.056127685546874,-0.7132219193577766,-1.6332815855562686,-2.605280990089476
1790592446011140900,10.066140869140625,-0.17736849125027657,2.5233985334336757,-3.5111247916698454
1790592446021153800,10.07615380859375,0.9972937125265597,-1.1376549538969993,-1.6497595498874782
1790592446031166000,10.086166015625,0.8101450010180473,-0.47150867396891116,0.45485959085449573
1790592446041178600,10.0961787109375,1.2636287734746932,5.057347686976194,-0.24480682749003171
1790592446051191800,10.10619189453125,1.5683213298678398,2.4306898545980453,0.02838701331168413
1790592446061205000,10.116205078125,0.48523383246064183,-2.1964561513096093,0.8433265551298856
1790592446071217700,10.1262177734375,-0.8804384344279765,-3.27364465380609,0.20468802146092055
1790592446081230800,10.13623095703125,-1.8001415422737597,-3.1272090609580276,0.581997631905973
1790592446091243800,10.146243896484375,-2.471082655262947,-2.1444670208752155,1.5971106403701008
1790592446101257000,10.156257080078126,-2.381517535150051,1.5693249539524317,1.9595780709922312
1790592446111269600,10.16626953125,-0.862953046619892,4.74632943469286,1.0117417784653604
1790592446121281800,10.17628173828125,1.4091712168753145,3.539973285013437,0.6396838049381971
1790592446131294700,10.186294677734375,1.7548843504428862,-0.9738467859655618,1.063586678123474
1790592446141308000,10.196307861328124,0.7471861482799053,-2.5865046856880185,0.7251344754695892
1790592446151320600,10.206320556640625,-0.9190180481910705,-1.1430185267567634,0.45409635139703747
1790592446161333800,10.216333740234376,-1.7026444601178168,-1.0340414346873759,0.15582023791745303
1790592446171347000,10.226346923828125,-1.9808838938713074,0.3757862002700567,-0.6032023324981332
1790592446181359900,10.23635986328125,-0.8545593122839927,2.8850100778788326,-1.7516650961354374
1790592446191372800,10.246372802734374,0.33208208310008047,-0.8219570193648338,-1.578598978254199
1790592446201384700,10.256384765625,0.7077765134334564,-0.9738584764033555,-0.6081945878274738
1790592446211398000,10.26639794921875,0.02171031202673912,0.0385772756755352,-1.445284440524876
1790592446221410800,10.276410888671874,-0.13585808473229408,1.3751076192319391,-1.7742570133022963
1790592446231423700,10.286423828125,0.7460556829452514,1.274326693099737,-1.178308743585646
1790592446241436700,10.296436767578125,0.28232991793751716,-1.6153256576269863,-0.5586852915100753
1790592446251449900,10.306449951171874,-1.1385703151762485,0.4925888713985681,-0.31390666720122096
1790592446261462800,10.316462890625,-1.709145512574911,1.2154045485317706,-0.950412718886137
1790592446271475700,10.326475830078126,-0.9348141677379608,0.2055038678884506,-1.73193295231387
1790592446281489000,10.336489013671875,0.33627310504913327,0.9575678513377904,-1.6379527922376989
1790592446291500800,10.346500732421875,0.946969884955883,-1.0356447782307863,-0.6298882409803569
1790592446301514000,10.356513916015626,-0.3954325655043125,-2.157246422949433,-0.8307638645462692
1790592446311526700,10.366526611328124,-1.0075894810914994,1.5476532203704119,-2.4473339692763982
1790592446321539800,10.376539794921875,-0.2469534841299057,1.0366741212785244,-1.7581398451074957
1790592446331552800,10.386552734375,0.05904606320858001,0.6523825429916381,0.015374387003481387
1790592446341566000,10.39656591796875,-0.25108605388998984,0.11005319686830044,-0.5139106224991381
1790592446351578600,10.40657861328125,-0.3724374743640423,0.3498357664555311,-0.8289780040428042
1790592446361591800,10.416591796875,0.47801264903545376,0.8382774550467729,-0.06155775376856327
1790592446371605000,10.42660498046875,0.8091723565936088,0.657798722821474,0.7352158706314861
1790592446381617000,10.436616943359375,0.11830138525366782,-0.6595785919755697,0.323428382653743
1790592446391629600,10.446629638671874,-0.6340390770494938,0.8715227220445871,-0.43380248203948135
1790592446401642800,10.456642822265625,0.4292985947489738,0.7483236278772354,-0.13324614866822956
1790592446411656000,10.466656005859376,0.38983050771355626,-1.9837784462690353,1.0055933388382197
1790592446421668900,10.4766689453125,-0.7322492759108543,1.1270400363802908,1.1049680514343083
1790592446431681800,10.486681884765625,-0.31211481534838675,2.0105425345540047,-0.0005262158311903477
1790592446441694700,10.49669482421875,-0.45549686584472654,-2.6132354562252758,0.07472454772517084
1790592446451708000,10.5067080078125,-1.0413047036886214,-0.3444868066430092,0.5265973778538405
1790592446461720800,10.516720947265625,-0.08910217877626418,0.5518500386625528,1.5283404710046946
1790592446471732700,10.526732666015626,0.08360182779431342,-0.2951870614230633,2.2408177094750106
1790592446481745700,10.53674560546875,0.07885667909383773,0.3811246386885643,0.23416356066167354
1790592446491758800,10.5467587890625,0.6837468185484409,0.16788345454633236,-0.20645970730856059
1790592446501771800,10.556771728515624,0.8180325393974781,-0.49611704552471636,1.3645185668088495
1790592446511784700,10.56678466796875,0.2687035436451435,1.7237457003355026,1.2426824315577745
1790592446521798000,10.5767978515625,0.45256022787094113,0.888335909679532,0.1727842321999371
1790592446531810800,10.586810791015624,-0.14189735576338133,-1.8725252259612082,0.6105724228747189
1790592446541823700,10.59682373046875,-1.6500573637902736,-1.2699544693648814,1.3155169277526437
1790592446551836700,10.606836669921876,-1.8117443017840384,0.7249719783842563,1.5665980132065713
1790592446561848800,10.616848876953124,-0.6637105772137641,0.08966565787792205,1.1352983808334915
1790592446571861800,10.62686181640625,0.5448527271211147,0.22186171297132967,0.3380522435508668
1790592446581875000,10.636875,1.1397428660869597,0.4573462931036949,0.7409929927282035
1790592446591887600,10.6468876953125,1.3815899669885634,0.6130237615495919,1.094701435898617
1790592446601900800,10.65690087890625,1.0653028343915938,-1.0700684413582087,0.7290081020325422
1790592446611914000,10.6669140625,0.047201320769125595,-1.0733359187215565,0.6855357477918267
1790592446621927000,10.676927001953125,-0.9553975215613841,-0.39821372065544125,1.1111790349036454
1790592446631939800,10.68693994140625,-1.1221955189585686,1.0247697484731673,1.3330854637995362
1790592446641952800,10.696952880859374,-0.7038146240651607,1.1355991904109717,0.2105021145671606
1790592446651965000,10.70696484375,0.2682768426656723,-0.6598866350114345,0.059916270171850916
1790592446661977900,10.716977783203125,0.9007365415692329,-0.22413842573165893,0.7328283179078251
1790592446671990800,10.72699072265625,0.4372843328058719,-1.2505471735835074,0.7083962527669966
1790592446682003700,10.737003662109375,-0.6192600255906582,0.5027040226995945,0.7311750708080827
1790592446692017000,10.747016845703126,-0.3656464990496635,1.3016402319610119,0.9443974771846085
1790592446702029800,10.75702978515625,-0.48733343508839605,-0.747861855584383,1.4129124492302536
1790592446712042800,10.767042724609375,-1.02181791293025,0.10740648175179958,1.0350392866183071
1790592446722056000,10.777055908203126,-0.44891865649819374,0.5447615417063236,0.18605068713873624
1790592446732067800,10.78706787109375,0.05753800586634315,-2.3823843811124563,0.5051071383185685
1790592446742080800,10.797080810546875,-1.307188513737917,-2.473137834227085,1.018952440496534
1790592446752093700,10.80709375,-1.1815665763378143,2.52797826243937,0.8892683682240545
1790592446762107000,10.81710693359375,1.0755448269426822,2.102180369287729,1.1384635668661445
1790592446772119800,10.827119873046875,1.125646536195278,-1.312846685630083,0.7772813537489622
1790592446782132700,10.8371328125,0.956891559511423,1.365946992176771,-0.22489684288352726
1790592446792145700,10.847145751953125,0.4072364005446434,-1.2944862685531378,0.28433212460540236
1790592446802158800,10.857158935546876,-1.0131669889628887,-1.9582886157035826,0.3490898434590548
1790592446812171800,10.867171875,-1.7031506560742855,-0.2933101616352796,-1.364192257463932
1790592446822184000,10.877183837890625,-1.5031412939488886,0.5624006587713957,-0.8713860169876366
1790592446832196600,10.887196533203126,-0.557224717438221,1.6335323454469441,0.5562435243811458
1790592446842209800,10.897209716796874,0.41724575338363645,0.7915507751852273,0.6282962225485593
1790592446852223000,10.907222900390625,0.8994880028128623,-1.3068570898264646,0.12260302797034382
1790592446862236000,10.91723583984375,0.7826970221221446,-0.2695779883921146,0.18477895016986876
1790592446872248800,10.927248779296875,0.11640989068495108,-0.8870897090107202,0.4969821744540706
1790592446882261800,10.93726171875,-1.1068518193542958,0.10397533825933933,0.06057626845054328
1790592446892275000,10.94727490234375,-1.4716215355694293,-0.9325573287218809,-0.7001531058829278
1790592446902287600,10.95728759765625,-0.7359785255670547,-1.3946826727956532,0.2754077174589038
1790592446912299800,10.9672998046875,-0.31651509613394735,-0.784205088597536,1.2246317380171268
1790592446922312700,10.977312744140624,-0.2123427922640927,1.5235732566028832,1.1237316424846648
1790592446932326000,10.987325927734375,0.6476198586344718,0.7189981646716594,0.9975832700576632
1790592446942338800,10.9973388671875,0.8247814291357993,-0.20523557234108447,1.2770932352036237
1790592446952351700,11.007351806640624,0.23723989936709403,0.10070318472087382,1.3669630373515187
1790592446962365000,11.017364990234375,-0.645540129750967,-0.03390869934260845,1.844097296117246
1790592446972377900,11.0273779296875,0.11136661755442619,1.6625567798793315,0.9501531911671162
1790592446982390800,11.037390869140625,0.732956547397375,-1.2178531107276678,0.7410954301893711
1790592446992403700,11.04740380859375,-0.22070496241794899,0.5012947404235601,1.7964480945833026
1790592447002415900,11.057415771484376,-0.00939324850095436,2.23429576036036,1.5641218323513864
1790592447012428800,11.0674287109375,0.45301264781355854,-1.619295145779848,1.855610039256513
1790592447022442000,11.07744189453125,-0.9426420848846435,-1.7576532306343315,2.336055468396842
1790592447032454700,11.08745458984375,-1.0776105273008345,1.589261242043972,2.8577178740665317
1790592447042467800,11.0974677734375,-0.24971710362434385,-0.2514490419834852,3.3612001876622437
1790592447052480800,11.107480712890625,-0.28135961160063744,-0.46206981449425216,2.480159403426945
1790592447062493700,11.11749365234375,0.019524200159311292,-0.18808277748823166,1.0213410161335021
1790592447072507000,11.1275068359375,-0.662425798100233,-2.2134423574239013,1.3815844140306115
1790592447082519800,11.137519775390626,-1.6999895616948604,1.3500491658210754,1.3057888760730623
1790592447092532000,11.147531982421874,-1.6974807937443255,0.029767361754179,1.2103588825147598
1790592447102545000,11.157544921875,-1.5733984870016573,-1.66423786483407,1.7540657275363802
1790592447112557800,11.167557861328126,-1.351204181075096,1.5227145939469338,0.6250994723338633
1790592447122570800,11.17757080078125,-0.7326373984456062,0.23719255309402942,0.01607672201998066
1790592447132584000,11.187583984375,-0.585516745942831,-1.5146856012701988,0.048930806876276614
1790592447142596600,11.1975966796875,-0.3944949923932552,-1.375339089900255,-0.6615927813421935
1790592447152609800,11.20760986328125,-0.3187316031396389,-1.2766577663958072,-0.8159341788787394
1790592447162622700,11.217622802734375,-0.5917337207615375,1.3619248970538378,-0.15534763370333238
1790592447172636000,11.227635986328124,0.09306288996762596,2.7262399041146037,-0.7094968344200402
1790592447182647800,11.237647705078125,0.9687351420402527,0.6735270378291607,-1.4946943681210278
1790592447192660700,11.24766064453125,0.7780687777996063,-0.4311509446173906,-1.3432931156896053
1790592447202674000,11.257673828125,-0.1937140613734722,-0.5899912610083818,-1.348615625886619
1790592447212686800,11.267686767578125,-1.1004513046622275,-1.603386798030138,-1.8318163450844585
1790592447222699800,11.27769970703125,-0.5324690463662147,-0.9280553411275148,-2.832520596706867
1790592447232712700,11.287712646484374,0.517815082591772,0.3878974938243627,-3.006217705968022
1790592447242726000,11.297725830078125,1.4969851094067095,1.727448646506667,-2.603804195535183
1790592447252738800,11.30773876953125,1.5692226626217365,0.845285872504115,-3.144829181061685
1790592447262751700,11.317751708984375,0.812521667021513,-0.7550275094300508,-3.8153351175040005
1790592447272763600,11.327763671875,-0.155735317846667,-0.660290539637208,-4.1413121617272495
1790592447282776800,11.33777685546875,-1.026622682863474,-1.0813608197450637,-3.6105946352034803
1790592447292789800,11.347789794921875,-1.5694856974720954,0.022137013006210324,-3.5714702470391986
1790592447302802700,11.357802734375,-1.2349860318362713,2.2322136933892964,-4.101625755766034
1790592447312815900,11.36781591796875,-0.5922960308194161,1.3199194004952908,-3.6349595533922314
1790592447322828800,11.377828857421875,0.07911972307735123,1.2290753464877604,-2.9699753029808402
1790592447332842000,11.387842041015626,0.2279214879343286,-1.4919173046231269,-2.271360585646331
1790592447342854700,11.397854736328124,-0.7657762824594974,-1.9171447044104337,-1.7208265980184076
1790592447352867800,11.407867919921875,-1.4691092604875564,0.46632338028550147,-2.3630904825776815
1790592447362879700,11.417879638671875,-1.090004729449749,-0.5483505061089993,-2.529436644554138
1790592447372893000,11.427892822265624,0.09775545909749343,0.25076865850389,-1.885848379523307
1790592447382905600,11.437905517578125,0.607160459006764,0.08724924438595771,-1.2364625341296196
1790592447392918800,11.447918701171876,-0.1280722348953597,-0.7376607795655727,-0.21918770798910409
1790592447402931700,11.457931640625,-0.46252398800253863,1.3133768469840288,-0.20870850914865732
1790592447412945000,11.46794482421875,-0.09908345629824325,-1.0952484753221272,0.2951368290731683
1790592447422957800,11.477957763671874,-0.5798550669193268,-0.6415425845474004,0.8437501143041998
1790592447432970800,11.487970703125,-0.3327320714414119,2.2803309508264062,-0.12838402252458037
1790592447442984000,11.49798388671875,0.11052024812446906,-1.2307803968399762,-0.7071588199265301
1790592447452996600,11.50799658203125,-0.3106079179167747,-0.8521271167010068,-0.489522725293599
1790592447463008800,11.5180087890625,0.13055764936977066,1.498431801083684,0.20688414326570928
1790592447473021700,11.528021728515625,0.7534779419004917,-0.11717559609413146,1.7796281849466262
1790592447483035000,11.538034912109374,0.026227497190237044,-1.3700468287110328,2.380833352278173
1790592447493047800,11.5480478515625,-0.6356032576262951,0.030541853258013722,1.6800488896891475
1790592447503060700,11.558060791015626,-0.32251579785346984,0.22271160779893398,0.7434642051473259
1790592447513074000,11.568073974609375,0.23057985695600508,-1.5872382117837667,0.8417594519436359
1790592447523086800,11.5780869140625,0.6182523098528385,0.3098077074497938,1.2700880326166748
1790592447533099800,11.588099853515626,1.58219671048522,2.1662065589964388,0.5749862187739462
1790592447543112700,11.59811279296875,2.0107751742661,0.05327917024493217,0.18506174916662274
1790592447553124900,11.608124755859375,1.642264517956972,0.6994008992761374,0.2577285606443882
1790592447563137800,11.6181376953125,0.638751492524147,0.4216542174756527,0.8745720266126096
1790592447573151000,11.62815087890625,-0.7654758382081985,-1.3853624712646007,1.6073726527959107
1790592447583163600,11.63816357421875,-1.7877064235925673,2.023826379019022,0.8853987602490931
1790592447593176800,11.6481767578125,-0.9499626370310783,0.24201485868394373,0.011105842838808893
1790592447603189800,11.658189697265625,-0.66595631031394,-2.9978841773867604,0.8223005721054971
1790592447613202700,11.66820263671875,-0.7402922971129416,-0.545558829563856,0.5212670496765524
1790592447623215900,11.6782158203125,-0.21245034429179505,-0.9025169952452182,0.10574600119367242
1790592447633228800,11.688228759765625,0.5773790321946144,1.1717828489482403,0.1481923003222793
1790592447643240700,11.69824072265625,0.9593827918052673,2.486853055846691,-0.8809444111887365
1790592447653254000,11.70825390625,0.6472936954200268,-0.09024842620193958,-1.4048612447217106
1790592447663266800,11.718266845703125,-0.46599721707105635,-0.26611878784894943,-1.860274523936212
1790592447673279700,11.72827978515625,-1.2039829908072948,-1.0557692823708056,-1.8901709188975393
1790592447683293000,11.73829296875,-1.5945862364590166,-0.4988941090226173,-1.5969421519353986
1790592447693305900,11.748305908203125,-0.7040694756090641,1.6882096920520067,-2.1187676392123103
1790592447703318800,11.75831884765625,1.4444178868234157,1.3279863870948552,-2.070633576770872
1790592447713331700,11.768331787109375,1.7868997833848,-1.7779910852640866,-1.7070348040312529
1790592447723345000,11.778344970703126,0.7939163352727889,0.5842647000551223,-2.0277432602018117
1790592447733357800,11.78835791015625,1.2993453990221022,1.5461907466024158,-1.9020330599963664
1790592447743369700,11.79836962890625,0.605970335906744,-3.1374948926508424,-0.582497763447836
1790592447753383000,11.8083828125,-1.1394015053033828,-0.03423486255705356,-0.784566907647252
1790592447763395800,11.818395751953124,-0.6063397537410259,3.554785069698095,-1.584785265673697
1790592447773408800,11.82840869140625,0.8092366540014744,0.5537468121945858,-1.1828730558265
1790592447783421700,11.838421630859376,1.4063316095352172,-0.7298778706043958,-1.621759197805822
1790592447793435000,11.848434814453125,1.278950261247158,-1.2801830179125069,-1.5562445231050253
1790592447803447800,11.85844775390625,0.003033686873782426,-2.2554209659755227,-0.3068757456511259
1790592447813460700,11.868460693359374,-1.1322925500810146,-1.6357915225505828,-0.0044317719023674726
1790592447823473700,11.8784736328125,-1.8978572356164454,1.5190794523149729,0.0873855841167271
1790592447833486800,11.88848681640625,-0.4369125768840313,3.5348511196941135,0.46119398150779306
1790592447843498800,11.898498779296874,1.2157166832208632,0.19516601374745368,1.0887992261175066
1790592447853512000,11.908511962890625,1.5225427445113657,-0.5558499219536781,0.7016837495163083
1790592447863524900,11.91852490234375,0.47915363576412195,-1.2804238409310578,0.5674262318484485
1790592447873537800,11.928537841796874,-1.3769839344978332,-0.8659276785165071,1.3808319882281124
1790592447883551000,11.938551025390625,-1.7163585126936434,0.025412089154124257,1.540527460143715
1790592447893563600,11.948563720703126,-1.4793781410455702,-0.8791706064492464,1.8387226173415778
1790592447903576800,11.958576904296875,-1.2497685904264448,1.5152379744559525,1.9692244357377289
1790592447913589800,11.96858984375,-0.2977040126800537,1.377208390903473,1.4959021364755927
1790592447923603000,11.97860302734375,0.41063481081128117,-0.18178630769252777,1.5697060622245071
1790592447933614800,11.98861474609375,0.45662966926693915,-0.9138730865180492,1.9757552988111973
1790592447943627800,11.998627685546875,-0.43388709158301353,0.0018938509225845336,2.3578248171344396
1790592447953640700,12.008640625,-0.5224398197829723,1.0551526117771863,1.7247309119805692
1790592447963654000,12.01865380859375,-0.2844447181344032,0.9413596438586711,1.7621780145823955
1790592447973666800,12.028666748046875,-0.2522574357569218,-0.06713935329318046,2.567733349722624
1790592447983679700,12.0386796875,-0.8769242888271808,-1.2948632851719855,2.5312527540653944
1790592447993693000,12.04869287109375,-1.734379322552681,-0.8430401394039392,2.5585078407377004
1790592448003705900,12.058705810546876,-1.1511398738920688,1.1274813504070043,3.3033611621558663
1790592448013718800,12.06871875,0.06100070440769195,2.5144337212115526,3.270008050869405
1790592448023732000,12.07873193359375,0.5128583369672298,0.4549105903893709,2.474856036321819
1790592448033744000,12.088743896484376,0.34638650278449057,-1.3029688502162695,1.6639757067665457
1790592448043757000,12.098757080078125,-0.2690928352236748,-1.3884481623202563,1.9951117411881685
1790592448053769700,12.108769775390625,-1.6113199291169642,-2.7833319106459617,2.102548471947759
1790592448063783000,12.118782958984376,-2.5050690960168835,0.08364040623903274,1.6102458701446651
1790592448073795800,12.1287958984375,-1.2404992422997951,0.9476315637350082,1.114359710766375
1790592448083809000,12.13880908203125,0.24274025034904478,-0.48103754981458186,1.385848501215875
1790592448093821700,12.14882177734375,0.7420142985999584,-0.15045184275209902,1.3298352298319338
1790592448103835000,12.1588349609375,0.2401543437753804,-2.2166449528574943,1.4847715245217084
1790592448113847800,12.168847900390626,-1.0272317546725271,-1.2667051121801136,1.0374377260621637
1790592448123860000,12.17885986328125,-0.8148410498797893,1.3629507329702377,0.11333788109477609
1790592448133872600,12.18887255859375,0.5108300460100174,1.8109324008792638,0.7390414202690124
1790592448143885800,12.1988857421875,1.3153005085229872,0.7641144867271185,1.0575766240537166
1790592448153899000,12.20889892578125,0.8248772907257079,-0.05027238964438438,0.6782399647604673
1790592448163912000,12.218911865234375,-0.21505612460970877,-0.5616442874461413,0.3674982643961906
1790592448173924900,12.2289248046875,-0.5867056634664535,-1.9895266345322131,0.6835636440012604
1790592448183937800,12.238937744140625,-1.3749918838977813,-1.6432400849908588,0.8640594734918325
1790592448193951000,12.248950927734375,-0.9728186119616031,1.7864993858903646,0.4373551330197602
1790592448203963600,12.258963623046874,0.16950197739256545,0.864838714236021,0.6724955028243362
1790592448213976800,12.268976806640625,0.8443594053089618,-0.6845265707492828,0.6444860906533897
1790592448223988700,12.27898876953125,0.9976631303608416,0.3761094408750534,0.5355724922742694
1790592448234002000,12.289001953125,0.04154197983318008,-1.4044091170400381,1.059154029438272
1790592448244014800,12.299014892578125,-0.7443968098223209,-0.54724868234694,0.596044533165358
1790592448254027800,12.30902783203125,-0.8549532800376415,-0.7769786444753408,-0.08053001913353801
1790592448264041000,12.319041015625,-0.7313947049081325,1.849218584653735,-0.29654766398547217
1790592448274054000,12.329053955078125,0.8097288214325904,3.1728175504446026,-0.24696177703421562
1790592448284066800,12.33906689453125,1.327391928333044,-0.45438159807920453,-0.29360519905909893
1790592448294079700,12.349079833984375,0.9988847811102867,0.9265098652511835,-0.920402780547738
1790592448304093000,12.359093017578125,0.30687399208545685,-1.7111644511818884,-0.7539474591083825
1790592448314105900,12.36910595703125,-1.471821442055702,-2.6912340571850537,-0.7746401185251772
1790592448324118000,12.379117919921875,-1.2436334486722946,0.9014484892308712,-2.2510183471024034
1790592448334130700,12.389130615234375,0.3843745803952217,0.6561117926478386,-1.6216218351617455
1790592448344144000,12.399143798828124,1.1258476117253302,0.5608142663627863,-1.1507085698027164
1790592448354156800,12.40915673828125,1.3735761718809605,-0.1265022273659706,-1.5696043554157018
1790592448364169700,12.419169677734375,0.14816811572909355,-1.4565695123881102,-1.3825119041390717
1790592448374183000,12.429182861328124,-0.34503158104419707,2.0662784503012896,-1.7981600130677222
1790592448384195800,12.43919580078125,0.5097276377260684,0.4417693692654371,-1.0219558600962162
1790592448394209000,12.449208984375,0.7268518007814884,0.11708850233256816,0.0004054755283519625
1790592448404221700,12.4592216796875,0.6593874533176421,0.7134323472380638,-1.0769001140091568
1790592448414233900,12.46923388671875,-0.036163200271129604,-1.5923726520627737,-1.3067485148854554
