time,seconds_elapsed,z,y,x
1790592435988241000,0.043240966796875,6.484038778451085,7.16285457033813,-1.6796265726238488
1790592435998253800,0.05325390625,6.475583084794879,7.17452747247517,-1.6623397761277854
1790592436008267000,0.06326708984375,6.462535387173294,7.192291092702746,-1.636145450554788
1790592436018280000,0.073280029296875,6.44824031983912,7.212799043202399,-1.6019120493024586
1790592436028292900,0.08329296875,6.435206650742888,7.232727732509375,-1.5640195410206914
1790592436038306000,0.09330615234375,6.425055259084701,7.249547934406995,-1.527453020645678
1790592436048319000,0.103319091796875,6.419104241725802,7.261653967264294,-1.4946120966650545
1790592436058331100,0.1133310546875,6.418669941961765,7.267811320850253,-1.4662776903234422
1790592436068343800,0.12334375,6.423387618133425,7.268236852785945,-1.4433341832399367
1790592436078357000,0.13335693359375,6.431663863569498,7.264791096246242,-1.4236908867456017
1790592436088370000,0.143369873046875,6.44243952460587,7.25882780392766,-1.4052688026092945
1790592436098382800,0.1533828125,6.455138847181201,7.2511875183075665,-1.3863067663773894
1790592436108395800,0.163395751953125,6.46903527058661,7.243128130492567,-1.363474464583397
1790592436118409000,0.173408935546875,6.4845321149259805,7.234673021358251,-1.3344450617149473
1790592436128422100,0.183422119140625,6.50202568604052,7.225705286526679,-1.2973935343019662
1790592436138434000,0.19343408203125,6.520356877022981,7.216682022115588,-1.2549212970145045
1790592436148447000,0.203447021484375,6.538706772705912,7.207751696684956,-1.2099663030005992
1790592436158460000,0.2134599609375,6.55624242939651,7.199955928242206,-1.1604780494712292
1790592436168473000,0.22347314453125,6.574084960079193,7.192252514258026,-1.1060251592718064
1790592436178485800,0.23348583984375,6.593738924098014,7.183025251707434,-1.047442037399858
1790592436188499000,0.2434990234375,6.614813276308775,7.172475800642371,-0.9849937645323574
1790592436198511900,0.253511962890625,6.63585898694694,7.161463408240675,-0.9215199480094015
1790592436208525000,0.263525146484375,6.655621672037244,7.149809210804104,-0.8679380684908479
1790592436218537000,0.273536865234375,6.673927144056559,7.137027470642328,-0.8318143965125083
1790592436228550000,0.2835498046875,6.690088005262613,7.123684589466452,-0.8162254169102757
1790592436238562800,0.293562744140625,6.703873369508981,7.10983142068088,-0.8238704517707228
1790592436248576000,0.303575927734375,6.712990157422423,7.0986594538033,-0.8456808631710707
1790592436258589000,0.3135888671875,6.715631611841917,7.093566514578462,-0.8671815510351211
1790592436268601900,0.323601806640625,6.710387281447648,7.096805934891104,-0.88115703102611
1790592436278615000,0.333614990234375,6.698376525658369,7.107379935875534,-0.887289615496993
1790592436288628000,0.3436279296875,6.68464727551341,7.119875260311365,-0.8906460863180458
1790592436298640100,0.35364013671875,6.673179540559649,7.129762448075414,-0.8975201368059963
1790592436308652800,0.36365283203125,6.664499975019693,7.136283374276757,-0.9100989017415791
1790592436318666000,0.373666015625,6.657507924175262,7.14090285077095,-0.9249201849069446
1790592436328679000,0.383678955078125,6.651833385670185,7.144387770277262,-0.9387288569636643
1790592436338691800,0.39369189453125,6.64814972872138,7.146048396965861,-0.9520897121876478
1790592436348704800,0.403704833984375,6.648478814545274,7.143492867264151,-0.968831588152051
1790592436358718000,0.413718017578125,6.654813862785697,7.1342808022826905,-0.992917981660366
1790592436368731100,0.423731201171875,6.667146105614304,7.11826197989583,-1.0246402768746017
1790592436378743000,0.433742919921875,6.684127051031589,7.097415591222047,-1.0580756596170364
1790592436388756000,0.443755859375,6.703537269422411,7.075006191015243,-1.0850205843616276
1790592436398769000,0.453768798828125,6.723165514478087,7.05451694521606,-1.0969123168811201
1790592436408782000,0.463781982421875,6.738609167325496,7.040286759811639,-1.0935724318686872
1790592436418794800,0.473794677734375,6.743102971613407,7.037788513255119,-1.081885282010585
1790592436428808000,0.483807861328125,6.734987469696998,7.047911847862601,-1.0664256278764457
1790592436438820900,0.49382080078125,6.71894468191266,7.065791787946224,-1.0491667423006146
1790592436448833000,0.5038330078125,6.700328828769922,7.085475562581419,-1.0353841545332223
1790592436458846000,0.513845947265625,6.6815475559324025,7.103906706807017,-1.030444360043481
1790592436468859000,0.52385888671875,6.664997987669706,7.119370817920565,-1.030896633855626
1790592436478871800,0.533871826171875,6.652230860555171,7.131245380109548,-1.0312798610195517
1790592436488885000,0.543885009765625,6.64266691339612,7.1405486305057995,-1.0285608843844383
1790592436498898000,0.55389794921875,6.634243368443847,7.149397707393765,-1.021426940851286
1790592436508910800,0.563910888671875,6.626527679499984,7.157811899995804,-1.0125416966713965
1790592436518924000,0.573924072265625,6.620627515545487,7.164419919958711,-1.0043691308055072
1790592436528936000,0.58393603515625,6.6171338282108305,7.1685536587625736,-0.9978832759175449
1790592436538949000,0.59394921875,6.615930297639966,7.17053869509995,-0.9915775268368422
1790592436548961800,0.6039619140625,6.61543696116507,7.171746317324042,-0.9861148775167763
1790592436558975000,0.61397509765625,6.612566374164819,7.174613981714844,-0.9845118262343108
1790592436568988000,0.62398779296875,6.6042761002033945,7.18195090047419,-0.9866620630707591
1790592436579000800,0.634000732421875,6.589926672333479,7.195036007496714,-0.9872727423150092
1790592436589013800,0.644013671875,6.570254588136076,7.213803251808882,-0.9814244546782225
1790592436599027000,0.65402685546875,6.546698940503597,7.236691959965229,-0.9702562871929258
1790592436609040100,0.6640400390625,6.522546496021747,7.2602300719410175,-0.9569956774730235
1790592436619052000,0.674052001953125,6.500754935452342,7.281641693282127,-0.9424749116241932
1790592436629065000,0.68406494140625,6.482479274049401,7.2995496904164545,-0.9297487010419369
1790592436639078000,0.694077880859375,6.467047311639785,7.314473118782043,-0.9198737882375717
1790592436649091000,0.704091064453125,6.453626689052581,7.327288761213421,-0.9120966514300555
1790592436659103700,0.714103759765625,6.441653927186131,7.3385852312535045,-0.9058915862448513
1790592436669117000,0.724116943359375,6.430453903257846,7.349183782157302,-0.8995178864944726
1790592436679129900,0.7341298828125,6.4198039144277566,7.359303609633446,-0.8928290563803165
1790592436689142000,0.74414208984375,6.410391942960024,7.368427411809563,-0.8851789069533348
1790592436699155000,0.754155029296875,6.403818409788609,7.375458625620603,-0.8741299088682979
1790592436709167900,0.76416796875,6.401059466469287,7.3794251911640165,-0.8607534176837652
1790592436719180800,0.774180908203125,6.400615229833126,7.381219088843465,-0.8485920013774186
1790592436729194000,0.784194091796875,6.400466176751255,7.382453014552593,-0.8389327771503478
1790592436739207000,0.79420703125,6.400001481848955,7.38370739852786,-0.8314055234506725
1790592436749219800,0.8042197265625,6.399971086710691,7.384485397163033,-0.8247039799854159
1790592436759233000,0.81423291015625,6.40071927472949,7.384421684277057,-0.8194454018700867
1790592436769246000,0.824245849609375,6.400024278202652,7.385146491420269,-0.8183446740865707
1790592436779258000,0.834258056640625,6.396054205527902,7.3882391967386,-0.8214597373671829
1790592436789270800,0.844270751953125,6.390439288255572,7.392782100865245,-0.8242876542694866
1790592436799284000,0.854283935546875,6.386459863230586,7.396214997923374,-0.8243329547159374
1790592436809297000,0.864296875,6.384641415631771,7.397829447382688,-0.823935333700478
1790592436819309800,0.874309814453125,6.383127503937483,7.398984462636709,-0.8252911322236061
1790592436829322800,0.88432275390625,6.378993765133619,7.40245067744255,-0.8261661614924669
1790592436839336000,0.8943359375,6.3719783334136,7.408824304127693,-0.8231596000876277
1790592436849349000,0.90434912109375,6.362858038368821,7.417377612939476,-0.8166546021077782
1790592436859361000,0.914361083984375,6.352575129285454,7.427052034735679,-0.8087469707883894
1790592436869374000,0.9243740234375,6.343176601821184,7.4360963419348,-0.7993520235206931
1790592436879387000,0.934386962890625,6.336409591904282,7.442720143988728,-0.7913335522379725
1790592436889400000,0.944400146484375,6.331888315087556,7.447095874854922,-0.7863463384099304
1790592436899413000,0.9544130859375,6.32725597911179,7.4514271820574995,-0.7825943654652684
1790592436909426000,0.964426025390625,6.320495398935675,7.457416777861118,-0.7801691841449588
1790592436919438800,0.97443896484375,6.3123115079581735,7.464335178947448,-0.7802641689520329
1790592436929451000,0.984450927734375,6.305181509947777,7.470097980257869,-0.7827558396372943
1790592436939464000,0.9944638671875,6.30146336620748,7.4727341739803546,-0.7875231271043419
1790592436949476900,1.004476806640625,6.3016784702628845,7.471807122263312,-0.7945702691368758
1790592436959489800,1.01448974609375,6.303587518754601,7.469386617118119,-0.802141873434931
1790592436969503000,1.0245029296875,6.305003230771422,7.467426130700111,-0.8092415493723004
1790592436979516000,1.034515869140625,6.306192148295045,7.465584886747598,-0.8169242858946323
1790592436989529600,1.044529541015625,6.307385741993785,7.463817292553186,-0.8238288045860827
1790592436999542800,1.054542724609375,6.307420228785276,7.463370133307576,-0.8276138760827482
1790592437009555500,1.064555419921875,6.305228856220841,7.465186242818832,-0.8279290795117616
1790592437019567600,1.074567626953125,6.300075711241364,7.469664265015721,-0.8267777175195514
1790592437029580500,1.08458056640625,6.2916960054308175,7.477016965866088,-0.8241147088553756
1790592437039593700,1.09459375,6.280619315621257,7.486906491717696,-0.8188055695965886
1790592437049606700,1.104606689453125,6.269727919250727,7.496848624539375,-0.811271593895182
1790592437059619600,1.11461962890625,6.2625207643508904,7.503622064197063,-0.8042748668756335
1790592437069632500,1.124632568359375,6.259411107897758,7.50665047210753,-0.8002229611363262
1790592437079645700,1.134645751953125,6.257347745627165,7.508546076595783,-0.7985735134288668
1790592437089657600,1.14465771484375,6.252440099841356,7.512701442709565,-0.7979363115038722
1790592437099670500,1.15467041015625,6.240707576471567,7.522692090848087,-0.7956442550439388
1790592437109683500,1.164683349609375,6.222101660200953,7.538854705619811,-0.7883581166237592
1790592437119696600,1.174696533203125,6.2005748880475755,7.557627795150876,-0.7781487842332572
1790592437129709600,1.18470947265625,6.178672852841019,7.576398546594381,-0.7697830338828265
1790592437139722500,1.194722412109375,6.1562558538496495,7.595220735964179,-0.7638846234939992
1790592437149735700,1.204735595703125,6.131783675894141,7.615190926325321,-0.7618903078716248
1790592437159748600,1.21474853515625,6.105688280650973,7.6360279626488685,-0.762903065110743
1790592437169760800,1.2247607421875,6.0799611341983075,7.656525976276397,-0.7629360175322741
1790592437179773700,1.234773681640625,6.053948741063476,7.677264228400587,-0.7613811893057078
1790592437189786600,1.24478662109375,6.025432256153225,7.700041292876005,-0.7575705449763686
1790592437199799600,1.254799560546875,5.994603987169265,7.724874120837449,-0.7492835589505732
1790592437209812700,1.264812744140625,5.9630123325973745,7.75059249946177,-0.7356456403508782
1790592437219825400,1.274825439453125,5.928544830328225,7.778609802678227,-0.7183050678409636
1790592437229838600,1.284838623046875,5.885082705220579,7.813586423513293,-0.695744495660439
1790592437239851800,1.294851806640625,5.825997479045391,7.86040311974585,-0.6649906070869416
1790592437249863700,1.30486376953125,5.748381155401468,7.920805858260393,-0.6223559457793831
1790592437259876600,1.314876708984375,5.652188141581416,7.993699829557538,-0.5691416574642062
1790592437269889500,1.3248896484375,5.541483787328005,8.07498870423436,-0.506844373907335
1790592437279902700,1.33490283203125,5.421384412741661,8.159816858953237,-0.443144530076161
1790592437289915600,1.34491552734375,5.29943327280879,8.24123783557713,-0.41036326386090366
1790592437299928600,1.354928466796875,5.185123587539792,8.312448383831978,-0.4336771020941436
1790592437309941500,1.36494140625,5.084049231418967,8.370346446049213,-0.5100268033357337
1790592437319953700,1.37495361328125,4.996383807447552,8.41580471341014,-0.6170617848940193
1790592437329966600,1.384966552734375,4.9191947693049904,8.45188958774805,-0.7331245974406599
1790592437339979800,1.394979736328125,4.853206924134493,8.47999281568229,-0.8405345132585614
1790592437349992400,1.404992431640625,4.798545944142341,8.503022978135943,-0.9181139389581978
1790592437360005600,1.415005615234375,4.7438040078684685,8.531157770252227,-0.9413061601057648
1790592437370018600,1.4250185546875,4.6756551852718,8.572206988999246,-0.9087897188391536
1790592437380031500,1.435031494140625,4.58913659324795,8.62570886208415,-0.8410406361497939
1790592437390044700,1.445044677734375,4.489999050408602,8.685116744342446,-0.7609417749751359
1790592437400056600,1.455056640625,4.387895935761929,8.743077934923768,-0.6894581819325685
1790592437410069800,1.46506982421875,4.2910146474167705,8.794530474263428,-0.6432879669100046
1790592437420082700,1.475082763671875,4.203896628195047,8.837441395229101,-0.630302447804436
1790592437430095600,1.485095703125,4.126066954061389,8.87296922020614,-0.6452603629615158
1790592437440108500,1.495108642578125,4.057518610753119,8.901826481378079,-0.6814717862885445
1790592437450121700,1.505121826171875,3.998502065899968,8.92371799519062,-0.7413607300620526
1790592437460134400,1.515134521484375,3.9423958555355667,8.94048500559628,-0.8340412787817418
1790592437470147600,1.525147705078125,3.881084770004451,8.955168195465207,-0.9552664425276219
1790592437480159500,1.535159423828125,3.807930101944506,8.971821808624266,-1.0846461980912834
1790592437490172700,1.545172607421875,3.7207021926075217,8.993875819522142,-1.1987268238447606
1790592437500185600,1.555185546875,3.6226314022168515,9.021726534000038,-1.286617142613232
1790592437510198500,1.565198486328125,3.520290094900131,9.053151599833368,-1.3484797245472668
1790592437520211700,1.575211669921875,3.419979416628182,9.085366939261554,-1.3893265525899827
1790592437530224600,1.585224609375,3.3386379349812865,9.10891265002191,-1.4323404955387116
1790592437540237600,1.595237548828125,3.286212751217186,9.12120397631824,-1.4747320688053964
1790592437550249500,1.60524951171875,3.2633269656702875,9.126161306464672,-1.4947406914807855
1790592437560262700,1.6152626953125,3.260986832284927,9.132085435816645,-1.4633413446106016
1790592437570275600,1.625275634765625,3.2629140009552238,9.14632322000563,-1.366947547521442
1790592437580288800,1.635288818359375,3.242974790254235,9.17491686180532,-1.2142548670399933
1790592437590301400,1.645301513671875,3.1888626763164996,9.215099819111824,-1.0408995569538324
1790592437600314600,1.655314697265625,3.097193569661677,9.261719531467556,-0.8934826249182224
1790592437610327600,1.66532763671875,2.969382305523753,9.311472865673899,-0.8060003024287521
1790592437620340500,1.675340576171875,2.8189328008592125,9.3615459333539,-0.7651513554941862
1790592437630352400,1.685352294921875,2.6566566648006438,9.410275769731403,-0.7478549874521792
1790592437640365600,1.695365478515625,2.4882997475236652,9.455736375179887,-0.7535193698894233
1790592437650378800,1.705378662109375,2.313195109552145,9.49765185536742,-0.7836618485663086
1790592437660391700,1.7153916015625,2.1334800551757214,9.536153727719187,-0.8248691804844885
1790592437670404600,1.725404541015625,1.9556306485407053,9.571187631699443,-0.8592167827010154
1790592437680417500,1.73541748046875,1.7915598841503262,9.60174175991714,-0.8759373966816812
1790592437690430700,1.7454306640625,1.6579435869954526,9.625922845971584,-0.8736126069959252
1790592437700443400,1.755443359375,1.5702083126582205,9.642706807512043,-0.8503158294953406
1790592437710455600,1.76545556640625,1.5426500052556396,9.651229136663675,-0.802741081437096
1790592437720468500,1.775468505859375,1.5740126733772455,9.651790862199663,-0.7319890906047075
1790592437730481700,1.785481689453125,1.6440594385497271,9.64637000619471,-0.644213118930906
1790592437740494600,1.79549462890625,1.7244214076399802,9.638059858489036,-0.551870569993928
1790592437750507500,1.805507568359375,1.7954215280145405,9.629432315397262,-0.469971235268563
1790592437760520700,1.815520751953125,1.85247320253551,9.621333180093764,-0.4106773347787559
1790592437770533600,1.82553369140625,1.8993381218239664,9.61346843806803,-0.3796303084775805
1790592437780546600,1.835546630859375,1.9340908707752822,9.606596214210986,-0.3781336036464199
1790592437790558500,1.845558349609375,1.9470619960293172,9.602904373955726,-0.4044267499513924
1790592437800571600,1.855571533203125,1.9297753456637263,9.604338790673017,-0.450606901846081
1790592437810584600,1.86558447265625,1.8949727662213145,9.608654900306462,-0.5031950576195493
1790592437820597800,1.87559765625,1.8674181120805442,9.611603228718042,-0.5479392949596047
1790592437830610400,1.8856103515625,1.8568045097380876,9.61211176276207,-0.5744475453199819
1790592437840623600,1.89562353515625,1.8479874354235828,9.613646717244386,-0.5771696637602522
1790592437850636500,1.905636474609375,1.8175668704576788,9.620471010306478,-0.5597961022961885
1790592437860648700,1.915648681640625,1.756990382811427,9.633305357438326,-0.5317960059428587
1790592437870661400,1.925661376953125,1.67273301371783,9.649975921732187,-0.5003142780188471
1790592437880674600,1.935674560546875,1.5820466344900428,9.666700846561788,-0.4715953293390572
1790592437890687700,1.945687744140625,1.509311799277365,9.679146486636995,-0.4544047962917015
1790592437900700700,1.95570068359375,1.464979759467393,9.68601812597215,-0.45307676255833357
1790592437910713600,1.965713623046875,1.4418101885430514,9.688793435904383,-0.46783615946862844
1790592437920726500,1.9757265625,1.419842248493433,9.69060779184997,-0.49654312544967977
1790592437930739700,1.98573974609375,1.3805603316798805,9.694461544668673,-0.5309077153336257
1790592437940751600,1.995751708984375,1.3221199792794882,9.701066642022132,-0.5583063021298498
1790592437950764500,2.0057646484375,1.2450861316986381,9.710816467142104,-0.5658419217990711
1790592437960777500,2.015777587890625,1.163476500634849,9.7216418125391,-0.5535200907666236
1790592437970790700,2.025790771484375,1.0964741446595638,9.730857384651898,-0.527796634108387
1790592437980803600,2.035803466796875,1.0521814139466732,9.73749696879685,-0.4944264255566522
1790592437990815700,2.045815673828125,1.0260798081584275,9.741773330941795,-0.4641156776407733
1790592438000828400,2.055828369140625,1.0044999175783247,9.744920981317758,-0.4448383283820003
1790592438010841600,2.065841552734375,0.973762614813447,9.748819157800078,-0.4274156305465847
1790592438020853500,2.075853515625,0.9405318877976387,9.753149880480766,-0.4022685490041971
1790592438030866700,2.08586669921875,0.9232805279411375,9.756067229232192,-0.3702738665893674
1790592438040879400,2.09587939453125,0.9209241740733385,9.757563020747899,-0.3350354530129582
1790592438050892500,2.105892578125,0.9225663883224129,9.758534496128558,-0.3004846198419109
1790592438060905700,2.11590576171875,0.9254772342678159,9.758974641111493,-0.27625105468155814
1790592438070918700,2.125918701171875,0.9332051981713623,9.758436296451091,-0.2691176956702955
1790592438080931600,2.135931640625,0.9461723779026419,9.757025260609387,-0.2749640470783226
1790592438090944500,2.145944580078125,0.9610070320062338,9.75539853619039,-0.28110207490930333
1790592438100956700,2.155956787109375,0.9743717596877366,9.754044198971986,-0.282133007125929
1790592438110969600,2.165969482421875,0.9848785406548529,9.75308324498534,-0.2788694204864092
1790592438120982500,2.175982421875,0.9886006299179046,9.752892106327414,-0.27230321210492403
1790592438130995500,2.185995361328125,0.987412369981408,9.75310779490471,-0.268901605234202
1790592438141008600,2.196008544921875,0.9817262871690093,9.75336732262373,-0.28004463827824216
1790592438151021600,2.206021484375,0.9690587479714303,9.75371978932321,-0.3102793435495347
1790592438161034500,2.216034423828125,0.951399099574983,9.754008543136715,-0.3528985515596345
1790592438171047700,2.226047607421875,0.9348365987654775,9.753592363551258,-0.40485326826777307
1790592438181059600,2.2360595703125,0.9132141842179,9.75269395340681,-0.47053325306549665
1790592438191072800,2.24607275390625,0.8833105557981878,9.751917123815417,-0.5387587941601872
1790592438201085400,2.25608544921875,0.839419099362567,9.753045835584402,-0.5863902043091133
1790592438211098600,2.2660986328125,0.7830160980086773,9.758172677078843,-0.5790851419927552
1790592438221111600,2.276111572265625,0.7269799572058021,9.766773916685581,-0.5020042769324035
1790592438231124700,2.286124755859375,0.6682736473456025,9.776340201932191,-0.3833548454260453
1790592438241137400,2.296137451171875,0.6052849109258502,9.784664378163217,-0.2536502783548087
1790592438251150600,2.306150634765625,0.5515048419540748,9.79033014883995,-0.1251415791377891
1790592438261163800,2.316163818359375,0.5257622422039508,9.792543148714303,-0.008055918928745086
1790592438271175700,2.32617578125,0.5246375490229577,9.792203541496395,0.08882026569549925
1790592438281188600,2.336188720703125,0.5385337532326578,9.790427179473639,0.16703235414233059
1790592438291201500,2.346201416015625,0.5571351394586265,9.78812942392528,0.22908622086476532
1790592438301214700,2.356214599609375,0.5706760274246334,9.786278827622532,0.27105091048888863
1790592438311227600,2.3662275390625,0.5792317473892122,9.7851641443789,0.29232962616533037
1790592438321240600,2.376240478515625,0.5855511962017044,9.784479669246076,0.3024144371270202
1790592438331253500,2.38625341796875,0.5870708069844172,9.784298467460275,0.30532060689730567
1790592438341266700,2.3962666015625,0.5801115258984267,9.784928582057356,0.29839992252234365
1790592438351279600,2.406279541015625,0.5612254775121808,9.786482241240144,0.28318209605375305
1790592438361291500,2.41629150390625,0.5288317127771676,9.788868259593844,0.26227042359141634
1790592438371304400,2.426304443359375,0.4823267493749037,9.791924724555015,0.23654190716557202
1790592438381317600,2.436317626953125,0.42342608598638326,9.795274034982919,0.20903266306910662
1790592438391330600,2.44633056640625,0.35453144999109204,9.798486567288636,0.18532951499102637
1790592438401343500,2.456343505859375,0.28012051652604714,9.801170691806078,0.1702447403175756
1790592438411356700,2.466356689453125,0.20354261428546158,9.803189045891164,0.16263616500999778
1790592438421369600,2.47636962890625,0.1312039479166735,9.804414788293839,0.16321204693550243
1790592438431382800,2.4863828125,0.0694945655166637,9.804834475010633,0.17543944115014745
1790592438441395500,2.4963955078125,0.026456492773676288,9.804582546076178,0.19955650379136203
1790592438451407600,2.50640771484375,0.008241249471215996,9.803977565920352,0.22880689246673136
1790592438461420500,2.516420654296875,0.017447726103750755,9.803210088679194,0.2591392128936015
1790592438471433700,2.526433837890625,0.049587348255980754,9.80226783939302,0.288929626729805
1790592438481446400,2.5364462890625,0.09508001107685267,9.801101133701204,0.31581513117104765
1790592438491459600,2.54645947265625,0.14416012219674884,9.799800572496652,0.3369178692260757
1790592438501472800,2.55647265625,0.18889721740996465,9.798556125393509,0.3507167505411431
1790592438511485700,2.566485595703125,0.22301572357835248,9.797606861844658,0.3571340337049216
1790592438521498600,2.57649853515625,0.24213534325845537,9.79712053963244,0.35802630636952815
1790592438531511600,2.586511474609375,0.24563500367617233,9.79710125041008,0.35615631124656644
1790592438541524700,2.596524658203125,0.2356576168780215,9.797391757789253,0.35491398303527383
1790592438551536600,2.60653662109375,0.2188375063119456,9.797736625704168,0.3561419904602691
1790592438561549600,2.616549560546875,0.2027669902704656,9.797979202288388,0.3590115180145949
1790592438571562500,2.6265625,0.19252994788913055,9.79810662806034,0.36114626502096653
1790592438581575700,2.63657568359375,0.19001570004587992,9.798150467202067,0.36129568342901763
1790592438591588600,2.646588623046875,0.194379064620845,9.798075063878297,0.3609962986236438
1790592438601601500,2.6566015625,0.20279303802717477,9.797871650260687,0.361935917561315
1790592438611614700,2.66661474609375,0.21034959088657051,9.797651285508275,0.3635913566181436
1790592438621627600,2.676627685546875,0.21294382689716293,9.797540810871123,0.3650295361950993
1790592438631640600,2.686640625,0.2103135149261914,9.797573544096947,0.36568661186434326
1790592438641652500,2.696652587890625,0.2052394630649127,9.797667652121186,0.36601332306805995
1790592438651665700,2.706665771484375,0.20102235682653263,9.79771324482858,0.3671132106013596
1790592438661678600,2.7166787109375,0.19967834007274357,9.797706815087794,0.3680462171351537
1790592438671691800,2.72669189453125,0.20151211310485376,9.797637256982922,0.36888723453655836
1790592438681704400,2.736704345703125,0.204930780708231,9.79751041573286,0.3703780210835859
1790592438691717600,2.746717529296875,0.20714832889353854,9.797407539880275,0.3718304849142208
1790592438701730600,2.75673046875,0.20635911474460736,9.797384743526578,0.3728951184710487
1790592438711743500,2.766743408203125,0.20368658933341502,9.797377144742011,0.37451789736729113
1790592438721756700,2.776756591796875,0.2009765631897375,9.797366623347997,0.3762926154222339
1790592438731768600,2.7867685546875,0.1999639155484736,9.79734265795052,0.3774474845457822
1790592438741781800,2.79678173828125,0.20090068494193256,9.797326875859499,0.37738062985464926
1790592438751794700,2.806794677734375,0.20295898744491858,9.797242120185494,0.37845921887159345
1790592438761807600,2.8168076171875,0.20626681508496403,9.797090144494176,0.38062746628876776
1790592438771820500,2.826820556640625,0.2078997500490397,9.797034614914654,0.38114396444354204
1790592438781833700,2.836833740234375,0.20713778923321513,9.79698551507592,0.38278906476944685
1790592438791846400,2.846846435546875,0.20453314142646267,9.796936415237187,0.38544980841130017
1790592438801859600,2.856859619140625,0.20083861602377145,9.796980254378914,0.38630558499041945
1790592438811872500,2.86687255859375,0.19862720531830563,9.797035199436545,0.3860250875486061
1790592438821884700,2.876884765625,0.20523255840009078,9.796796129983663,0.38865503419339653
1790592438831897600,2.886897705078125,0.22592289799563586,9.796163677299022,0.39308556398674843
1790592438841910500,2.89691064453125,0.2505886257618666,9.795487385472654,0.39497506752777845
1790592438851923700,2.906923828125,0.27293162793526426,9.794815185299516,0.39683322608247396
1790592438861936600,2.9169365234375,0.28995478679277004,9.794178640961647,0.40044834783971306
1790592438871949600,2.926949462890625,0.3001707681197673,9.793734988847374,0.40374720672201364
1790592438881962500,2.93696240234375,0.3041130212058313,9.793485982522368,0.40686004151292143
1790592438891975700,2.9469755859375,0.304883695051074,9.79316624904871,0.41394795394726097
1790592438901988600,2.956988525390625,0.30535629926519464,9.792696877971292,0.42455081569999453
1790592438912001500,2.96700146484375,0.30809790785722435,9.792153857135773,0.43494723162781446
1790592438922013400,2.977013427734375,0.31199787443783134,9.79165233735442,0.4433768775273114
1790592438932026600,2.987026611328125,0.3127077762728557,9.791308053961396,0.4504044380765408
1790592438942039600,2.99703955078125,0.30775577988866715,9.79120751619637,0.4560036828557029
1790592438952052500,3.007052490234375,0.29883838700484483,9.791347216928004,0.45892519632559264
1790592438962065700,3.017065673828125,0.2911314841556363,9.791550046023726,0.4595417573213577
1790592438972078600,3.02707861328125,0.2904997255907394,9.791568166202307,0.45957785154804587
1790592438982091800,3.037091796875,0.30251305692959574,9.791309807527064,0.4572992756241932
1790592438992104400,3.0471044921875,0.3247116639299318,9.790849204277992,0.4518742914333939
1790592439002117400,3.057117431640625,0.34848263481352476,9.79014310183525,0.44949291272219266
1790592439012129500,3.067129638671875,0.370500734147802,9.78943583034873,0.4472511251447722
1790592439022142500,3.077142578125,0.3905340894056484,9.7888764429003,0.4424702110111713
1790592439032155400,3.0871552734375,0.4118186868336051,9.788273216310143,0.43646870557405054
1790592439042168300,3.097168212890625,0.43527544066887347,9.787473590365051,0.43160018622223284
1790592439052181500,3.107181396484375,0.46004641890786585,9.786464705583452,0.42876693555768575
1790592439062194700,3.117194580078125,0.4829646454196423,9.78538801626265,0.4281393417112529
1790592439072207400,3.127207275390625,0.4994825764350593,9.784559748744964,0.42813356955759224
1790592439082220500,3.137220458984375,0.5064597585039213,9.784289699631929,0.4261031597085297
1790592439092232400,3.147232421875,0.5039093433687463,9.784669054338336,0.420348797432892
1790592439102245600,3.15724560546875,0.49621177460346366,9.785525378906726,0.40945681654047217
1790592439112258600,3.167258544921875,0.48833125048670917,9.786583948048948,0.3933097281314432
1790592439122271500,3.177271484375,0.4815073227507993,9.787648362410067,0.37481286172587425
1790592439132284400,3.187284423828125,0.47731118623521174,9.788491242974995,0.3577461011886596
1790592439142297600,3.197297607421875,0.4807083178602159,9.78885598463416,0.34295510356370357
1790592439152310300,3.207310302734375,0.49674091304410245,9.788589442652464,0.3273599864816293
1790592439162323500,3.217323486328125,0.5222034902764484,9.78801719572246,0.3040038434766233
1790592439172336600,3.227336669921875,0.5454512775361537,9.78775766800344,0.2695616035128943
1790592439182348500,3.2373486328125,0.5570155316669494,9.788100197830795,0.23067959100343285
1790592439192361500,3.247361572265625,0.5577804516248405,9.788834941846131,0.1948934073511511
1790592439202374400,3.25737451171875,0.5579516434732824,9.789351659196615,0.16633344862535596
1790592439212387600,3.2673876953125,0.567750458834134,9.789164612191914,0.14249697475749998
1790592439222400500,3.277400390625,0.5898895907321945,9.78818378446102,0.11770890838638878
1790592439232413400,3.287413330078125,0.6166624833781272,9.786857504293321,0.0866947249088902
1790592439242426400,3.29742626953125,0.6440619469571858,9.785341254511476,0.0513418455068022
1790592439252439600,3.307439453125,0.6738864457260817,9.783450910720228,0.01928646414699033
1790592439262452500,3.317452392578125,0.7045030447207391,9.781308637994528,-0.008728960493745398
1790592439272464600,3.327464599609375,0.7219421822343021,9.779970082867145,-0.03701388739988906
1790592439282477300,3.337477294921875,0.7136429212488233,9.780430686116217,-0.06543901108212304
1790592439292490500,3.347490478515625,0.6809028272941708,9.782593417108059,-0.0873880774679128
1790592439302503700,3.357503662109375,0.6341571504712105,9.785524794384836,-0.1083094128077384
1790592439312516400,3.367516357421875,0.5927530538719147,9.787809690451622,-0.13345531617319212
1790592439322529500,3.377529541015625,0.5745925067486242,9.788417593216895,-0.16460868892567232
1790592439332542500,3.38754248046875,0.5746590326461941,9.787690447986126,-0.2031673877649009
1790592439342555600,3.3975556640625,0.5793361576117575,9.78648691741526,-0.2438175424580462
1790592439352568300,3.407568359375,0.5762281085938215,9.78549790637791,-0.28703243307266385
1790592439362580500,3.41758056640625,0.5585676199471578,9.785096924361586,-0.3320767493378371
1790592439372593400,3.427593505859375,0.529795004851371,9.784971252155303,-0.3795327663872391
1790592439382606600,3.437606689453125,0.5033221911305561,9.784285023456812,-0.4299087625365704
1790592439392619300,3.447619384765625,0.49226683636996893,9.782468329423665,-0.4810096023617312
1790592439402632400,3.457632568359375,0.4940157258639112,9.77973568958938,-0.5320942217044532
1790592439412645600,3.467645751953125,0.49103557754196225,9.777136905267835,-0.580411385627836
1790592439422658600,3.477658447265625,0.4687622978702187,9.775455235791206,-0.6254000627156346
1790592439432671500,3.48767138671875,0.42409722671359773,9.774622876620292,-0.6687756055183708
1790592439442684400,3.497684326171875,0.36651889797002074,9.773938986009359,-0.7114635313831269
1790592439452696600,3.507696533203125,0.31098394815493374,9.772622642713785,-0.7546648135975003
1790592439462709500,3.51770947265625,0.26962159007182346,9.770444129630922,-0.7975458508815616
1790592439472722400,3.527722412109375,0.2376400776658207,9.767767019376159,-0.8394161036878823
1790592439482735400,3.5377353515625,0.20715516049312427,9.765306766742468,-0.8753613503593951
1790592439492748500,3.54774853515625,0.17986149537609888,9.763259771084785,-0.9037655340015888
1790592439502761500,3.557761474609375,0.1624662152705714,9.761418527132273,-0.9266596489854156
1790592439512774400,3.5677744140625,0.15861598784951492,9.75981693715453,-0.9440450104851276
1790592439522787600,3.57778759765625,0.1619895742021501,9.758469614198804,-0.9572937105715275
1790592439532800500,3.587800537109375,0.1691132520696148,9.757436179497837,-0.9665525373041629
1790592439542812700,3.597812744140625,0.18181350622670725,9.756523156306146,-0.9734401048608123
1790592439552825300,3.607825439453125,0.1965858539501205,9.755527715528011,-0.980518372683972
1790592439562838500,3.617838623046875,0.20384810003805903,9.754425891765951,-0.9899551132667809
1790592439572851500,3.6278515625,0.1974027598235756,9.753370245233178,-1.0015876103281973
1790592439582864600,3.63786474609375,0.1865430189666338,9.752250885814428,-1.0144876431073993
1790592439592877300,3.647877197265625,0.18347813323698936,9.751045601677895,-1.0265693452410398
1790592439602890500,3.657890380859375,0.1895543661444448,9.74987948050797,-1.0364929925579578
1790592439612903400,3.6679033203125,0.20089482145672663,9.74907634743154,-1.041894705471024
1790592439622916400,3.677916259765625,0.21256885610492898,9.748934308612347,-1.0409036486070602
1790592439632929500,3.687929443359375,0.220411422831472,9.749408355864881,-1.0348106654942035
1790592439642941400,3.69794140625,0.22136801117025315,9.750425423952937,-1.024972431438416
1790592439652954600,3.70795458984375,0.21405503954207522,9.75181658605039,-1.0132271947175264
1790592439662967600,3.717967529296875,0.20009336888073012,9.753413499853014,-1.000638565975055
1790592439672980500,3.72798046875,0.18646268373942002,9.755054837319255,-0.9871901055328547
1790592439682993400,3.737993408203125,0.1790349996903911,9.756486331427096,-0.9743187143262475
1790592439693006600,3.748006591796875,0.17658426380371675,9.757585817101598,-0.9637055503752082
1790592439703019300,3.758019287109375,0.17378407515855504,9.758368491911888,-0.9562593990877271
1790592439713032400,3.768032470703125,0.16942145950226112,9.758969380414486,-0.9508945110537111
1790592439723045600,3.778045654296875,0.16470230375956743,9.759456287148595,-0.9467322768077254
1790592439733057500,3.7880576171875,0.16139361760299653,9.759908122569321,-0.9426182656176387
1790592439743070500,3.798070556640625,0.16198005745513364,9.760481538543104,-0.9365731402345001
1790592439753083400,3.80808349609375,0.17230885150684042,9.761215698036551,-0.927013650054857
1790592439763096600,3.8180966796875,0.1998029345667921,9.76198317527771,-0.91332370900698
1790592439773109500,3.828109619140625,0.24871097705541176,9.76242858095765,-0.8963800268601626
1790592439783122400,3.838122314453125,0.31626060991622507,9.762265499350429,-0.8766745518498122
1790592439793135400,3.84813525390625,0.3949481429882347,9.761451844879984,-0.8535049809254706
1790592439803148500,3.8581484375,0.4742532599693164,9.7603400842458,-0.8253794680941849
1790592439813161500,3.868161376953125,0.5416008126530796,9.759578452223538,-0.7922654262606054
1790592439823173600,3.878173583984375,0.5847294314900413,9.760120888537168,-0.753992028902471
1790592439833186300,3.888186279296875,0.5895816572941839,9.763353294587136,-0.706897830902785
1790592439843199500,3.898199462890625,0.5482262952074408,9.769846748259663,-0.6480084926258772
1790592439853212400,3.90821240234375,0.4707030932070687,9.777761759167909,-0.5866738070234656
1790592439863225300,3.918225341796875,0.3762735453955829,9.784759655231237,-0.535986151109077
1790592439873238500,3.928238525390625,0.2821048039447516,9.789800572007893,-0.5006197637714446
1790592439883251500,3.93825146484375,0.20079002764169127,9.793242821416259,-0.47166455865036694
1790592439893264600,3.9482646484375,0.142592114828201,9.795080558237434,-0.454390767766349
1790592439903277300,3.95827734375,0.1159588315823581,9.795616564810276,-0.4503733488185331
1790592439913289500,3.96828955078125,0.12215539380069822,9.795354114481807,-0.45438908726591615
1790592439923302400,3.978302490234375,0.1502748422173783,9.794863116094469,-0.45655897865090517
1790592439933315600,3.988315673828125,0.18464662902709095,9.794369195097683,-0.4545195817777887
1790592439943328300,3.998328369140625,0.21361538774948566,9.793937817943096,-0.45113932822234926
1790592439953341400,4.008341552734375,0.2307807680892758,9.793684719964862,-0.4481953837249428
1790592439963354600,4.018354736328125,0.23381447322936727,9.79365081769526,-0.44734815577846015
1790592439973367600,4.028367431640625,0.22536259723175317,9.79377999703288,-0.44887079876847563
1790592439983380500,4.03838037109375,0.21294178107054904,9.793977565431595,-0.450608290085569
1790592439993394200,4.048394287109375,0.20394007090413943,9.79411726616323,-0.45174953254256395
1790592440003406300,4.05840625,0.20248587177414445,9.794094469809531,-0.45290608216654504
1790592440013419300,4.068419189453125,0.20794218268496914,9.793923789417743,-0.4540818114150315
1790592440023432200,4.07843212890625,0.2150299672551453,9.793734988847374,-0.45489214141722767
1790592440033445000,4.088445068359375,0.21848571546589954,9.7936315284729,-0.4554574836824089
1790592440043458300,4.098458251953125,0.2167497950513847,9.793626267775892,-0.4564118617977947
1790592440053471000,4.108470947265625,0.21228930851118638,9.793642049866914,-0.4581461382444948
1790592440063484200,4.118484130859375,0.20946064269021153,9.793597041681409,-0.46040739770736544
1790592440073497300,4.128497314453125,0.2105849157460965,9.793433960074186,-0.46334356075711547
1790592440083510300,4.13851025390625,0.21457111757174133,9.793195475143193,-0.46656862375084307
1790592440093523200,4.148523193359375,0.21816015503965316,9.793018365010619,-0.46862077050767836
1790592440103535000,4.15853515625,0.21903379606902598,9.79296225090921,-0.4693570123603567
1790592440113548300,4.16854833984375,0.21757263747528194,9.792983293697237,-0.4695998812055215
1790592440123561200,4.178561279296875,0.21608265464585275,9.793002582919597,-0.46987237800396975
1790592440133574100,4.18857421875,0.2162455718562938,9.793026548317075,-0.46933016088604923
1790592440143587000,4.198587158203125,0.21716257710335776,9.79310779685974,-0.4672057891432196
1790592440153600300,4.208600341796875,0.2174497965469025,9.793224701237678,-0.46459363388344643
1790592440163613200,4.21861328125,0.2168453826466575,9.793359141272306,-0.46206418847106395
1790592440173626000,4.228626220703125,0.2159708465681411,9.793498842003942,-0.45948264754526313
1790592440183639300,4.238639404296875,0.2154277892000042,9.793645556998252,-0.45660300045572216
1790592440193651200,4.248651123046875,0.2151610097562894,9.793812730258702,-0.45312268405929207
1790592440203664100,4.2586640625,0.21495134906098246,9.794019651007652,-0.4487614566424861
1790592440213677000,4.268677001953125,0.21452035549888385,9.794251706197857,-0.4438792375588789
1790592440223690200,4.278690185546875,0.21381997041087597,9.794505973219872,-0.43855486419834194
1790592440233703200,4.288703125,0.21332765684928745,9.79478654372692,-0.43247824769839643
1790592440243716400,4.29871630859375,0.2130130562084727,9.795109784331917,-0.4252438394654542
1790592440253729000,4.30872900390625,0.2122550409154035,9.795462835553288,-0.4174360152587294
1790592440263742200,4.3187421875,0.211002355706878,9.7958304998219,-0.4093528081767261
1790592440273755100,4.328755126953125,0.20959846199201418,9.796217453312874,-0.40072223287764935
1790592440283767300,4.338767333984375,0.20813100152164696,9.796627203157543,-0.3913367110254243
1790592440293780000,4.348780029296875,0.20662538273166864,9.797055657702684,-0.38126963664982466
1790592440303793200,4.358793212890625,0.20551577752195296,9.797469499200583,-0.37112624563500285
1790592440313806300,4.368806396484375,0.20502627697195858,9.797855283647776,-0.3610780220903456
1790592440323819300,4.3788193359375,0.20438695615511387,9.79825509662032,-0.35039113531596955
1790592440333832200,4.388832275390625,0.20297418501405043,9.798689396384358,-0.3389120752505958
1790592440343845000,4.39884521484375,0.20107333809509872,9.799126034235954,-0.32719708753749727
1790592440353858300,4.4088583984375,0.19961451758891344,9.799539291211962,-0.3155204225407913
1790592440363871000,4.41887109375,0.19890647891741245,9.799929167312383,-0.30368816512357444
1790592440373883100,4.428883056640625,0.19848167763408273,9.80030676845312,-0.29153418320501223
1790592440383896000,4.43889599609375,0.19760949790943413,9.8006989826411,-0.2785997549658641
1790592440393909200,4.4489091796875,0.1960951112911105,9.801106978920101,-0.26498390206750483
1790592440403922200,4.458922119140625,0.19436677139485253,9.80149977762997,-0.25138989567477255
1790592440413935000,4.46893505859375,0.1932072626288049,9.80185692050457,-0.2379660216845572
1790592440423948300,4.4789482421875,0.19273403736017644,9.802188344416022,-0.22441879530930892
1790592440433961200,4.488961181640625,0.19197883507870137,9.802520937371254,-0.21004059800263494
1790592440443974100,4.49897412109375,0.19030374147333204,9.802872819548845,-0.19457995748780665
1790592440453987000,4.508987060546875,0.1881581442793831,9.803220025551319,-0.17850078321583568
1790592440464000300,4.519000244140625,0.18668034507809206,9.803526315021514,-0.16251867611017076
1790592440474012200,4.52901220703125,0.1859578212235123,9.803781166565418,-0.14726640851586126
1790592440484025300,4.539025390625,0.18511883138241245,9.804015559843181,-0.13197279513101093
1790592440494038000,4.5490380859375,0.1835813561494462,9.80424527694583,-0.11596675916048697
1790592440504051200,4.55905126953125,0.18160296874856574,9.80446681074202,-0.09910272725429385
1790592440514064100,4.569064208984375,0.18010741469487546,9.804656780356169,-0.08168585637146607
1790592440524077000,4.5790771484375,0.1795391863528639,9.804797065609693,-0.06423264466677792
1790592440534090200,4.58909033203125,0.17923452258417383,9.804899941462278,-0.04686195557981264
1790592440544103200,4.599103271484375,0.17826392398634924,9.80498703522384,-0.028820445426041258
1790592440554116400,4.609116455078125,0.17619880815008654,9.805061854025722,-0.009584681703115347
1790592440564128300,4.619128173828125,0.1736236969650723,9.805108031255006,0.01057156129052746
1790592440574141200,4.62914111328125,0.17381304552471263,9.805056008806824,0.03215027483534068
1790592440584154000,4.639154052734375,0.1788804667158052,9.80483798214197,0.05949880737818312
1790592440594167300,4.649167236328125,0.1804917378373444,9.804550397372246,0.09274152165930717
1790592440604180200,4.65918017578125,0.1747449926125817,9.804322433835267,0.12292363822683691
1790592440614193200,4.669193115234375,0.1653059870074503,9.804270995908976,0.1391233518722467
1790592440624206000,4.6792060546875,0.16064433360565453,9.804231832942365,0.14704255489842033
1790592440634219300,4.68921923828125,0.1614084133133292,9.803915022078156,0.16606517134429885
1790592440644232200,4.699232177734375,0.16369818648463114,9.803211842244863,0.20149633101383224
1790592440654245000,4.7092451171875,0.16146045402782036,9.802482943448425,0.2359158842217177
1790592440664257300,4.71925732421875,0.1531567177966237,9.802083714997767,0.25705603167768565
1790592440674270200,4.729270263671875,0.14491130589023232,9.801779179093241,0.27298001538794486
1790592440684283100,4.739283203125,0.14000670144488103,9.801061970734596,0.29999566728118804
1790592440694296000,4.749296142578125,0.13520162098440341,9.79997242193222,0.3356428077889606
1790592440704309200,4.759309326171875,0.12622444247105158,9.799077518919109,0.3640355932543054
1790592440714322200,4.769322265625,0.1171458402766846,9.798389536654948,0.3850039643399417
1790592440724335000,4.779335205078125,0.11223228533989749,9.797302325940132,0.41309312721621244
1790592440734348300,4.789348388671875,0.11156657883962616,9.795600198197365,0.4518423984577879
1790592440744361200,4.799361328125,0.11250696496227755,9.793692903271317,0.4912271911239251
1790592440754373000,4.809373046875,0.11045585938505828,9.79210300373137,0.5223888202480972
1790592440764386300,4.81938623046875,0.1040058977943845,9.790905318379401,0.5456567369803786
1790592440774399200,4.829399169921875,0.09610464141685515,9.78947090166211,0.5721895372601226
1790592440784412200,4.839412109375,0.09163644649423658,9.787485280802846,0.6058851053087041
1790592440794425300,4.84942529296875,0.09146424999879672,9.785324303376674,0.6398576271351426
1790592440804438000,4.85943798828125,0.09269488777229562,9.783314132598042,0.669750222704187
1790592440814451200,4.869451171875,0.09201082363142632,9.78167630226314,0.6933564314801246
1790592440824464100,4.879464111328125,0.08981142302416265,9.780214997538923,0.7139442422829568
1790592440834477300,4.889477294921875,0.08996344438125378,9.778529820930958,0.7366434192165732
1790592440844489200,4.8994892578125,0.09297625286378897,9.776748198211193,0.759579108319804
1790592440854502100,4.909502197265625,0.09673903033025562,9.775154207018018,0.7793547259569168
1790592440864515000,4.91951513671875,0.09969225411266087,9.774014973855017,0.7931430858779698
1790592440874528300,4.9295283203125,0.10121794757628813,9.773262694182991,0.8021835936848074
1790592440884541200,4.939541259765625,0.10189360921499319,9.772413968399167,0.8123543476305901
1790592440894554000,4.94955419921875,0.10305426875851116,9.77134137073159,0.8249928068641573
1790592440904567300,4.9595673828125,0.10445731309000401,9.770290984895825,0.83717088204436
1790592440914580200,4.969580322265625,0.10538151526283472,9.769449857896566,0.8468153470937162
1790592440924593200,4.97959326171875,0.10502341340701095,9.768819158777594,0.8541084267113357
1790592440934606000,4.989606201171875,0.10386839815299026,9.768374337619543,0.8593345638617873
1790592440944618200,4.9996181640625,0.10269656876148656,9.768175600177049,0.8617369488283991
1790592440954631200,5.009631103515625,0.10211578233200125,9.768146374082566,0.8621366156704723
1790592440964644000,5.01964404296875,0.10244353471533395,9.768047589883208,0.8632135972522199
1790592440974657300,5.0296572265625,0.10349828619896434,9.767877494013309,0.8649906899273395
1790592440984670200,5.039670166015625,0.10457494812030345,9.76793127002716,0.864264421479404
1790592440994683100,5.04968310546875,0.10464333718139678,9.768274384376406,0.8603723824769258
1790592441004696000,5.059696044921875,0.10349204825442283,9.768681796133517,0.8558777014061808
1790592441014709000,5.069708984375,0.10165119702755473,9.7688641669631,0.8540058431196957
1790592441024722200,5.07972216796875,0.0996404143275693,9.768737910234927,0.8556785255722701
1790592441034734800,5.08973486328125,0.0982990096559748,9.768464353990554,0.8589625887442379
1790592441044747000,5.0997470703125,0.09806603201716206,9.768186121571063,0.8621504980653524
1790592441054760000,5.109760009765625,0.09744418292492628,9.767956988990306,0.8648115339681506
1790592441064773000,5.119773193359375,0.09477594096320681,9.767751237285136,0.8674339914262295
1790592441074786000,5.1297861328125,0.0906274429816287,9.767488202434778,0.8708261180825531
1790592441084799000,5.139799072265625,0.0877795975361485,9.767113523903488,0.8753113737378269
1790592441094812200,5.149812255859375,0.08872950953897088,9.76658803872466,0.8810795818757265
1790592441104825000,5.1598251953125,0.09233213714081794,9.765894795763492,0.888354614380002
1790592441114838000,5.169838134765625,0.09474936348353512,9.765140762525796,0.8963549654841423
1790592441124851000,5.179850830078125,0.09374851587791927,9.764433491039275,0.9041161740701645
1790592441134863000,5.189863037109375,0.09046591401067562,9.763802207398413,0.9112468296676873
1790592441144876000,5.1998759765625,0.08740414268672465,9.763161571407318,0.91837324748151
1790592441154889200,5.20988916015625,0.08593805218953639,9.762362529984117,0.9269655731294304
1790592441164902000,5.21990185546875,0.08496827557561919,9.761358321377635,0.9375682887516915
1790592441174915000,5.2299150390625,0.0842097762253601,9.760242469090223,0.9491757244370878
1790592441184928000,5.239927978515625,0.08500240617408417,9.759069918179511,0.961107935097441
1790592441194941000,5.24994091796875,0.0869209348801989,9.757911980316042,0.9726266695860772
1790592441204954000,5.2599541015625,0.08795149263748898,9.75687211587429,0.9828845903586596
1790592441214967000,5.269967041015625,0.08569149354994296,9.755983058080076,0.9918773135010153
1790592441224980200,5.279980224609375,0.08034801363013684,9.755092831242084,1.0010463430583476
1790592441234992000,5.2899921875,0.0753287058970891,9.754035431143642,1.0116814996454864
1790592441245005000,5.300005126953125,0.07473070803789887,9.75282196370065,1.0233663844812662
1790592441255018000,5.31001806640625,0.07890503001390024,9.751517895364762,1.035387880860269
1790592441265031200,5.32003125,0.08369225515727885,9.750247729298472,1.0469222513094545
1790592441275043800,5.3300439453125,0.08457982424730434,9.749104989004135,1.0574345852345228
1790592441285057000,5.34005712890625,0.08073836465459316,9.748061032909154,1.0673257915865628
1790592441295070200,5.3500703125,0.07569379004954825,9.746901926001906,1.0782194529794156
1790592441305083100,5.360083251953125,0.07324723714764696,9.745528299561142,1.0907380121603607
1790592441315096000,5.370095947265625,0.07475323039696086,9.743983992728591,1.1043491888836026
1790592441325109000,5.38010888671875,0.07764003331307322,9.742384740838409,1.1181723278570919
1790592441335121200,5.39012109375,0.07797005071872845,9.74098305734694,1.1302912201959638
1790592441345134000,5.400134033203125,0.07495258889396209,9.739763744685053,1.1409406245041638
1790592441355147000,5.41014697265625,0.07325689545855857,9.73844798591137,1.1522362177614123
1790592441365160000,5.420159912109375,0.07394503298634662,9.736941088479757,1.1648635710790753
1790592441375173000,5.430173095703125,0.07500873039483558,9.735340083023905,1.1780977311834693
1790592441385186000,5.44018603515625,0.07567932769935577,9.733547938910126,1.1927774869862944
1790592441395199000,5.450198974609375,0.0757028501388384,9.731718969917297,1.2076178401783109
1790592441405212200,5.460212158203125,0.07557399502820335,9.729989369645715,1.2214745891604573
1790592441415225000,5.47022509765625,0.07668947285627946,9.72828139668405,1.2349283102996647
1790592441425237000,5.480237060546875,0.07738719106316566,9.726547120237349,1.2484708057008682
1790592441435250000,5.49025,0.07571818927186541,9.72483037944734,1.2618700932390987
1790592441445263000,5.50026318359375,0.07421329200109467,9.72309668752253,1.2752433695532381
1790592441455276000,5.510276123046875,0.07783026778870261,9.721168349808455,1.2896560719177126
1790592441465289200,5.520289306640625,0.08541537088914773,9.718979899853467,1.3055620815798639
1790592441475302000,5.530302001953125,0.09138007884668185,9.716733582231402,1.3217868018023669
1790592441485315000,5.540315185546875,0.09219269213750958,9.714613521337508,1.337226947518438
1790592441495328000,5.550327880859375,0.08785919297784567,9.712862293756007,1.3501723538093269
1790592441505341000,5.5603408203125,0.08381383571033366,9.71132733927369,1.3614251308381558
1790592441515353000,5.57035302734375,0.08545266155907884,9.709540455856919,1.3740107639059425
1790592441525366000,5.580365966796875,0.09139484715755097,9.707515672031045,1.3878608639515935
1790592441535379200,5.590379150390625,0.09721778115737251,9.705475690636039,1.4016725316829979
1790592441545392000,5.60039208984375,0.10004581679068505,9.703447984200716,1.4154369992718099
1790592441555405000,5.610405029296875,0.09918045953246764,9.701496265611052,1.4288102755859493
1790592441565418000,5.62041796875,0.09592656316990032,9.699647422873973,1.4415304948188363
1790592441575431200,5.63043115234375,0.09163640082846396,9.697963999831677,1.45309613718912
1790592441585444000,5.640444091796875,0.09035445299283601,9.696198743724823,1.464906255839765
1790592441595457000,5.65045703125,0.09546361270011403,9.694102063706517,1.4783848922245204
1790592441605470000,5.660469970703125,0.10594073831448331,9.691923550623654,1.4919022531844675
1790592441615482000,5.670482177734375,0.1146740250693634,9.689906365582347,1.5043138448596
1790592441625495000,5.6804951171875,0.11501529452139511,9.688078565633296,1.516009981741756
1790592441635508000,5.690508056640625,0.10614728460409678,9.68650386366248,1.526686420187354
1790592441645521200,5.700521240234375,0.095405206176918,9.685030868500471,1.5367046869851648
1790592441655534000,5.7105341796875,0.09252889268877916,9.683293084922433,1.5477917520582676
1790592441665547000,5.720547119140625,0.10193720176154747,9.68128116057813,1.5597481473118067
1790592441675560000,5.730559814453125,0.1172889385418035,9.679372696608304,1.570473685596138
1790592441685573000,5.740572998046875,0.1277020498760976,9.677806762465835,1.5792827227346597
1790592441695586000,5.7505859375,0.12620070540243758,9.676566407015919,1.5869858444578944
1790592441705599000,5.760598876953125,0.11599128168039023,9.675597854244709,1.5936588924810289
1790592441715611000,5.77061083984375,0.10816385772405192,9.674589553985,1.6003091441504655
1790592441725624000,5.7806240234375,0.11266144313793629,9.673181440752744,1.6084947886936365
1790592441735637000,5.790636962890625,0.1277747954519,9.671534258067608,1.6172475656002758
1790592441745650200,5.800650146484375,0.14243747225576078,9.67012848292291,1.6244075203575192
1790592441755663000,5.8106630859375,0.14857072344692424,9.669155838498472,1.6296442519672214
1790592441765676000,5.820676025390625,0.1425072404231876,9.668762455266714,1.6325198074035345
1790592441775689200,5.830689208984375,0.13251470172167754,9.668815646758675,1.6330398857548831
1790592441785702000,5.840701904296875,0.12811962683419698,9.668650227063894,1.63436543527022
1790592441795715000,5.850715087890625,0.1303917638841085,9.667752401441335,1.6394918383732437
1790592441805728000,5.86072802734375,0.13711059641088358,9.665825232771038,1.6502691068448125
1790592441815740200,5.870740234375,0.14429933887119403,9.66356488662362,1.662852547955513
1790592441825753000,5.880753173828125,0.1504555782123003,9.66203636188209,1.6711673718363045
1790592441835766000,5.89076611328125,0.14966287519834004,9.661732995021342,1.672987719131261
1790592441845779000,5.900779052734375,0.15121684490838086,9.662772274941206,1.6668372336775064
1790592441855792000,5.910792236328125,0.15655503673171622,9.663885204619168,1.659871047926694
1790592441865805000,5.92080517578125,0.14109795814715326,9.663281393507122,1.6647776707991957
1790592441875818000,5.93081787109375,0.12377910427870228,9.660724694761633,1.6809126669116317
1790592441885831200,5.9408310546875,0.106539681455167,9.65793360273838,1.6980439805850385
1790592441895844000,5.950843994140625,0.10499358452432789,9.656177698981761,1.7081034561760722
1790592441905856300,5.960856201171875,0.11669446151368319,9.656966803532839,1.7028648248702287
1790592441915869000,5.970868896484375,0.12151666663889772,9.658721538245677,1.6925513745181262
1790592441925882000,5.980882080078125,0.1183185007852502,9.658673022928834,1.6930559630393982
1790592441935895000,5.99089501953125,0.11252421749117783,9.656933485785126,1.7033423792541027
1790592441945908000,6.000907958984375,0.11724147353773004,9.655888360646367,1.7089380073040723
1790592441955921000,6.0109208984375,0.12978996206605806,9.656056702950597,1.707066075952351
1790592441965934000,6.02093408203125,0.14407393261748366,9.656137366971373,1.7054779299780725
1790592441975947300,6.030947265625,0.15639869539253412,9.655638185277581,1.7072084070324898
1790592441985960000,6.0409599609375,0.16432590819522738,9.655181673681735,1.7090458515927194
1790592441995972600,6.05097265625,0.16627687786621972,9.655465166798233,1.7072586759150028
1790592442005984800,6.06098486328125,0.1598165775446221,9.656668112847209,1.7010612825796008
1790592442015997700,6.070997802734375,0.15028330865162423,9.658247490993142,1.6929431503146886
1790592442026010600,6.0810107421875,0.14443623572438954,9.659365681368111,1.6870682669319212
1790592442036023600,6.0910234375,0.1483323389806319,9.66031962109208,1.6812540276952086
1790592442046036700,6.10103662109375,0.1571748673968017,9.662257311156392,1.6692713289566337
1790592442056050000,6.1110498046875,0.1641747362215072,9.665656890466808,1.6487848596364258
1790592442066062600,6.1210625,0.16051064248969776,9.669921562173961,1.6239507165007292
1790592442076075800,6.13107568359375,0.14704188817813993,9.673719200891256,1.6024783048830926
1790592442086088700,6.141088623046875,0.1317421007808298,9.676631873467564,1.5861355112388729
1790592442096102000,6.151101806640625,0.1249798766369,9.679069914269446,1.5717407829225063
1790592442106113800,6.16111376953125,0.13287263918071984,9.681099374270438,1.5585345337383447
1790592442116126700,6.171126708984375,0.155110445680283,9.681960375013947,1.5511149051316082
1790592442126139600,6.1811396484375,0.15654663422955198,9.682685766679048,1.5464384377531706
1790592442136152800,6.19115283203125,0.13121440537860615,9.68436217545867,1.5382742743894458
1790592442146165500,6.20116552734375,0.06909371136450208,9.689839730086922,1.5075186322502792
1790592442156178700,6.2111787109375,-0.01336068283569184,9.69916753040254,1.4478683195382356
1790592442166191900,6.22119189453125,-0.10437124224174767,9.708771809571981,1.3781262364007532
1790592442176204800,6.231204833984375,-0.18069935270603746,9.714561498889326,1.328534230235964
1790592442186217700,6.2412177734375,-0.2151600416419096,9.714047704148292,1.3271677641883493
1790592442196229600,6.251229736328125,-0.21918199063437058,9.708746675130724,1.364761727914959
1790592442206242800,6.261242919921875,-0.21364085098430513,9.703119482898712,1.4050636354260146
1790592442216255700,6.271255859375,-0.19857812374588102,9.70148165256381,1.4185153838038445
1790592442226268700,6.2812685546875,-0.17062513620359823,9.70455799126923,1.4010152368180453
1790592442236281600,6.291281494140625,-0.13612027019928208,9.710244220212102,1.3649356231771408
1790592442246294800,6.301294677734375,-0.1144935996016953,9.715642279863356,1.3279822954416274
1790592442256307700,6.3113076171875,-0.11699127990263514,9.719539287301897,1.2989401792220772
1790592442266320600,6.321320556640625,-0.13749702017889356,9.722892689383029,1.2715541596464812
1790592442276333800,6.331333740234375,-0.15240647481805644,9.726590374857187,1.2411965769141913
1790592442286346800,6.3413466796875,-0.14555989685892126,9.730244221189617,1.2130709910176694
1790592442296359000,6.35135888671875,-0.1271567640182562,9.733194887688756,1.1912696397066116
1790592442306371600,6.36137158203125,-0.11721110579892992,9.736082425823808,1.1684830036852507
1790592442316384800,6.371384765625,-0.11631307924697175,9.739757314944267,1.1375289163645357
1790592442326397700,6.381397705078125,-0.11468000728557817,9.743865919306874,1.1019522838097064
1790592442336411000,6.391410888671875,-0.10472203757395036,9.747407537436485,1.071203217541799
1790592442346423600,6.401423583984375,-0.09137490034806542,9.750263511389493,1.0461357040416448
1790592442356436700,6.411436767578125,-0.0831085461183451,9.752827808919548,1.0226619625389575
1790592442366450000,6.421449951171875,-0.08315943605536595,9.755350020873546,0.9983131187021732
1790592442376462600,6.431462646484375,-0.0873593445637729,9.757611536064744,0.9755983058080077
1790592442386475800,6.441475830078125,-0.09426835676725022,9.759400757569074,0.9568715396367012
1790592442396487700,6.45148779296875,-0.10198220994705334,9.760821145761012,0.9414753061275929
1790592442406500900,6.4615009765625,-0.10841219732877798,9.76218834246099,0.9264494403008371
1790592442416513800,6.471513671875,-0.11381887867790647,9.763466107311844,0.9122375942707062
1790592442426526700,6.481526611328125,-0.11682228914443403,9.764381468591093,0.9019912908706813
1790592442436539600,6.49153955078125,-0.1156418928539846,9.764754393556714,0.8981148878287524
1790592442446552800,6.501552734375,-0.11559092071857302,9.764773098257184,0.8978845862042159
1790592442456565500,6.5115654296875,-0.11852807928216642,9.764906369248031,0.8960771714560687
1790592442466578700,6.52157861328125,-0.12277612864808178,9.765077049639821,0.8936306550867855
1790592442476591900,6.531591796875,-0.12581938706780782,9.765016259363293,0.8938688477568328
1790592442486603800,6.541603759765625,-0.12423877594601362,9.764753224512933,0.8969673982940614
1790592442496616700,6.55161669921875,-0.11670416092379018,9.764195006108283,0.9040347063317894
1790592442506629600,6.561629638671875,-0.11174091249322518,9.76321300933361,0.9151968824677169
1790592442516642800,6.571642822265625,-0.11509820529818535,9.762240364909172,0.9250884541459381
1790592442526655700,6.58165576171875,-0.11885940272891893,9.761503282806277,0.9323779535669833
1790592442536668700,6.591668701171875,-0.11566921011917293,9.760855048030614,0.9395391504332423
1790592442546681600,6.601681640625,-0.10362967575998044,9.760136670628189,0.9483607547923922
1790592442556694800,6.61169482421875,-0.08500814179512671,9.758971718502044,0.9621005993966013
1790592442566707700,6.621707763671875,-0.06871309628277085,9.75745196158886,0.9786818049065769
1790592442576720000,6.631719970703125,-0.06045526328622363,9.756039756703377,0.9931975292541086
1790592442586732500,6.641732666015625,-0.05912529789067339,9.75482044404149,1.0051711679033934
1790592442596745700,6.651745849609375,-0.06275566288281698,9.754490773695707,1.0081326480574906
1790592442606759000,6.661759033203125,-0.06645749024255201,9.755468678817152,0.9983908601135015
1790592442616771600,6.671771484375,-0.06596578860231675,9.756578685885668,0.98751838763915
1790592442626784800,6.68178466796875,-0.06311862814342603,9.757055071225762,0.9830039058893918
1790592442636797700,6.691797607421875,-0.06103533276307862,9.757892691093682,0.9747758835092186
1790592442646811000,6.701810791015625,-0.06098379437208641,9.759530521428584,0.9582347908139228
1790592442656823600,6.711823486328125,-0.06136924545913934,9.760878428906201,0.9443892208129167
1790592442666836700,6.721836669921875,-0.06984271223405375,9.761337278589606,0.9390529743514955
1790592442676848600,6.7318486328125,-0.08833607150828465,9.76166227276027,0.9340906757690012
1790592442686861800,6.74186181640625,-0.1070127514601685,9.76222516734004,0.926231048309803
1790592442696874500,6.75187451171875,-0.11998669885895215,9.763127669137715,0.9150594467584043
1790592442706887700,6.7618876953125,-0.12421525807310826,9.764608263084291,0.8985540829636156
1790592442716900900,6.77190087890625,-0.11497136404812336,9.766392808413505,0.8801900856900959
1790592442726913800,6.781913818359375,-0.09778166211782954,9.767826056087017,0.8662414206407963
1790592442736926700,6.7919267578125,-0.09327790269148535,9.768783502942323,0.8558840580817312
1790592442746939600,6.801939697265625,-0.10587664183601736,9.769715815356372,0.843697872660309
1790592442756952800,6.811952880859375,-0.12158131110663525,9.770725284659862,0.829761190309748
1790592442766964700,6.82196484375,-0.12686595524498262,9.772159701377152,0.8119028044708073
1790592442776977700,6.831977783203125,-0.1212603720565792,9.774438752225041,0.7848742200307548
1790592442786990600,6.841990478515625,-0.11255125162857584,9.777329797491431,0.7493631269928067
1790592442797003800,6.852003662109375,-0.10579296387424691,9.779939103206992,0.7155387449327856
1790592442807016700,6.8620166015625,-0.10240837207040748,9.781837630304693,0.6895988325122744
1790592442817029600,6.872029541015625,-0.10452818636912851,9.783511700996756,0.6650892451558261
1790592442827042800,6.882042724609375,-0.1075185364246834,9.785548175260423,0.6339300637170672
1790592442837055700,6.8920556640625,-0.10864710206319578,9.787913150826096,0.5961068212792276
1790592442847068700,6.902068603515625,-0.10720337866144254,9.79021733611524,0.5572668395468965
1790592442857080600,6.91208056640625,-0.10420950320824049,9.79221289384663,0.5216093968408182
1790592442867093800,6.92209375,-0.09721052029952407,9.793903331151604,0.49032680821809915
1790592442877106700,6.932106689453125,-0.09140151436035521,9.795454067724943,0.4594944110482931
1790592442887120000,6.942119873046875,-0.08719074653121642,9.797010649517178,0.42585539549253876
1790592442897132500,6.952132568359375,-0.07793071422218345,9.798694072559476,0.3871608501128852
1790592442907145700,6.962145751953125,-0.06713931676056235,9.800402045521139,0.3434981243992224
1790592442917158700,6.97215869140625,-0.05896798387053422,9.801783855268358,0.303229151043389
1790592442927171600,6.982171630859375,-0.056218817593134005,9.802669990453124,0.2736787199755199
1790592442937184800,6.992184814453125,-0.05700758878407068,9.803192553022503,0.25412043488351627
1790592442947196700,7.00219677734375,-0.05944347872806247,9.8036461420089,0.23532003722041844
1790592442957209900,7.0122099609375,-0.06261041832638438,9.80412954161167,0.21327687651012092
1790592442967222800,7.022222900390625,-0.06669366448544897,9.804574362769722,0.19039187641451133
1790592442977235700,7.032235595703125,-0.07043334420411847,9.804900525984168,0.17124200772661716
1790592442987248600,7.04224853515625,-0.07162434408697299,9.805114460995792,0.15807641934640704
1790592442997261800,7.05226171875,-0.06794891611039638,9.805167067965865,0.1563599708173424
1790592443007274800,7.062274658203125,-0.06231373236817307,9.805059515938161,0.1651812463829294
1790592443017287700,7.07228759765625,-0.06149493593173101,9.804830383357405,0.17865100534148512
1790592443027300900,7.08230078125,-0.06723654375707265,9.8044679797858,0.19562683619223534
1790592443037312800,7.092312744140625,-0.07250921889641322,9.803975812354683,0.21717958303708582
1790592443047326000,7.102325927734375,-0.06503596040629782,9.803432206997275,0.24259581864336505
1790592443057339000,7.1123388671875,-0.05781176304011605,9.802758253258466,0.27013646252509205
1790592443067351800,7.122351806640625,-0.058232774064317344,9.801896667993068,0.2997075710548088
1790592443077365000,7.132364990234375,-0.06637494022536557,9.800809457278252,0.33184571706093846
1790592443087377700,7.142377685546875,-0.07381420511433388,9.799756148833035,0.3601428601320833
1790592443097390800,7.152390869140625,-0.07929749993020668,9.798768306839465,0.384991250988841
1790592443107403800,7.16240380859375,-0.08149371306654066,9.79762089037001,0.4127667082734406
1790592443117417000,7.1724169921875,-0.07908358318489045,9.796377612310648,0.4417009436717257
1790592443127428900,7.182428955078125,-0.07558519684222992,9.795071205887197,0.47038065631967035
1790592443137441800,7.19244189453125,-0.07942389365569688,9.793736742413044,0.4967845695227384
1790592443147454700,7.202454833984375,-0.08722269430574961,9.792589910465479,0.5176558369094506
1790592443157468000,7.212468017578125,-0.08801608230629936,9.791712543109059,0.5338450839597731
1790592443167480800,7.222480712890625,-0.08192861561877653,9.790933375430107,0.5488981665870174
1790592443177493800,7.23249365234375,-0.07544541391220409,9.790103938868642,0.5644128388440236
1790592443187507000,7.2425068359375,-0.0731529692932032,9.789177471673488,0.5805408572264016
1790592443197520000,7.252519775390625,-0.0771486604664009,9.788303611448407,0.5946166192540898
1790592443207532800,7.26253271484375,-0.08201846759300678,9.787544902035593,0.6063173592461273
1790592443217544700,7.272544677734375,-0.08380622779261321,9.78687796255946,0.6167482619654386
1790592443227558000,7.282557861328125,-0.08381341558522544,9.78639573200047,0.6243314105708152
1790592443237570800,7.29257080078125,-0.08142127801799215,9.786176536291837,0.6280884250167756
1790592443247583700,7.302583740234375,-0.08445921180862932,9.78598189050257,0.630730098631978
1790592443257596700,7.3125966796875,-0.08917497001783922,9.78579601254165,0.6329523777913302
1790592443267609900,7.32260986328125,-0.09279972725310362,9.785655142766236,0.6346126391537487
1790592443277623000,7.332623046875,-0.09193663501720875,9.785624163106084,0.6352111895687877
1790592443287635700,7.3426357421875,-0.08967295526838862,9.785829330289364,0.6323694633368402
1790592443297649000,7.35264892578125,-0.0849128281944897,9.786287595450878,0.6259001942574978
1790592443307660800,7.362660888671875,-0.07673695612666197,9.786766903400421,0.6194309251781552
1790592443317674000,7.372674072265625,-0.06855033890253398,9.786965640842913,0.6172436442669481
1790592443327687000,7.38268701171875,-0.06450067991924006,9.786654090675711,0.6225725111395121
1790592443337699800,7.392699951171875,-0.06583190569011495,9.785975460761785,0.6330324572902173
1790592443347712800,7.402712646484375,-0.07373628103991504,9.785302091544866,0.6425031001426279
1790592443357726000,7.412725830078125,-0.08079173880964517,9.784894095265864,0.6478633120015264
1790592443367739000,7.42273876953125,-0.08131737925210036,9.78466262459755,0.6512636950295418
1790592443377751800,7.432751708984375,-0.07883475038981996,9.784589559361338,0.6526683741956949
1790592443387765000,7.442764892578125,-0.07608115909905172,9.784518247690796,0.6540476266596466
1790592443397777000,7.45277685546875,-0.07151618470449465,9.784171626210211,0.6597174889896065
1790592443407789800,7.462789794921875,-0.06644746660545933,9.78361516137123,0.6684581370670348
1790592443417802800,7.472802734375,-0.06824587149666622,9.783097274976969,0.675816610071063
1790592443427816000,7.48281591796875,-0.07897179337348789,9.782688694176077,0.6805517488341778
1790592443437828900,7.492828857421875,-0.09091287232688627,9.782492879343032,0.6818918383315206
1790592443447841800,7.502841796875,-0.09771530975019559,9.7827383785367,0.6773922618899494
1790592443457854700,7.512854736328125,-0.09686385315316728,9.78322411622703,0.670462097300589
1790592443467868000,7.522867919921875,-0.0943705567664001,9.783763629931212,0.6628984571132809
1790592443477880800,7.532880859375,-0.09676948026744649,9.78436042678058,0.6536915797635913
1790592443487893000,7.54289306640625,-0.10169657967239618,9.785112706452608,0.641578824904561
1790592443497905700,7.55290576171875,-0.10146729182801209,9.785988320243359,0.6281362827464938
1790592443507918800,7.5629189453125,-0.09328193954578601,9.786770410531759,0.6171214061267674
1790592443517932000,7.57293212890625,-0.08555364684867672,9.787277191010118,0.6101512748531996
1790592443527944700,7.58294482421875,-0.08726924599437043,9.787748315653204,0.6022919031223282
1790592443537958000,7.5929580078125,-0.09390608105980791,9.788238729518651,0.5932466460751369
1790592443547970800,7.602970703125,-0.09660507435281761,9.788463185924291,0.5890893802652135
1790592443557984000,7.61298388671875,-0.09203084350614808,9.788523391678929,0.5888356977650895
1790592443567996000,7.622995849609375,-0.08977176686720922,9.788593534305692,0.5880066265298053
1790592443578008800,7.6330087890625,-0.09706973272250033,9.788736157646774,0.5844761873813346
1790592443588021800,7.643021728515625,-0.10898920263228937,9.788909176126122,0.5794528793266043
1790592443598035000,7.653034912109375,-0.11732166263447143,9.789112589743732,0.5743657487880438
1790592443608047900,7.6630478515625,-0.11862998702037147,9.789451612439752,0.5682893514838069
1790592443618060800,7.673060791015625,-0.1171683991683647,9.789859024196863,0.561526396687515
1790592443628074000,7.683073974609375,-0.11642075913883745,9.790076466339826,0.5579041510697453
1790592443638087000,7.6930869140625,-0.11686467611459084,9.789887081247567,0.5611110208196565
1790592443648099800,7.703099853515625,-0.11335337092485279,9.789348152065276,0.5711448505127802
1790592443658111700,7.71311181640625,-0.10599282469474709,9.78859411882758,0.5853158530758693
1790592443668125000,7.723125,-0.1077958646618761,9.787819042801857,0.5977953588880598
1790592443678137900,7.733137939453125,-0.12029132609502412,9.787243288740514,0.6048055299110711
1790592443688150800,7.74315087890625,-0.1316668618538417,9.786559982651472,0.6134391374174505
1790592443698163700,7.753163818359375,-0.13669792395676486,9.785627085715532,0.6270543327286839
1790592443708177000,7.763177001953125,-0.13706196236303075,9.784731013658643,0.6408188733827322
1790592443718190000,7.773190185546875,-0.13820405420339665,9.783892809268831,0.6532604948699474
1790592443728202800,7.78320263671875,-0.1352256046481896,9.78288684709668,0.6687665454290806
1790592443738216000,7.7932158203125,-0.12659444482722318,9.78154536935985,0.6897456205718219
1790592443748227800,7.803227783203125,-0.12333464844683184,9.780140763258933,0.7099502042107284
1790592443758241000,7.813240966796875,-0.1273541680201888,9.779054721587896,0.7240524523865431
1790592443768253700,7.823253662109375,-0.13130523460037075,9.778191382756829,0.7349238288823515
1790592443778267000,7.833266845703125,-0.13195464755296707,9.777208801460265,0.7477919321533292
1790592443788279800,7.84327978515625,-0.128361892891163,9.776127435964346,0.7623864938907324
1790592443798293000,7.85329296875,-0.12316632440891116,9.77512731901109,0.7759558772988617
1790592443808305700,7.8633056640625,-0.12036927756890654,9.774052383255958,0.7898003513213246
1790592443818318800,7.87331884765625,-0.12067581363427451,9.772860543122887,0.8043700708784163
1790592443828332000,7.88333203125,-0.11877929583056829,9.771766318145394,0.817831171606481
1790592443838344000,7.893343994140625,-0.11738491886272094,9.770865569913386,0.8287157729100435
1790592443848356900,7.90335693359375,-0.11920219741775653,9.770216750615834,0.8360739536531269
1790592443858369800,7.913369873046875,-0.11613153953445143,9.769786542505026,0.8415155601851642
1790592443868383000,7.923383056640625,-0.11016112335533834,9.769399589014053,0.8467955464147031
1790592443878396000,7.93339599609375,-0.11279207464712672,9.769098560240865,0.8499279992215335
1790592443888408800,7.943408935546875,-0.12247877140301279,9.768999776041507,0.8497366413678974
1790592443898421800,7.953421875,-0.12605266610071994,9.76890040732026,0.8503525082439184
1790592443908435000,7.96343505859375,-0.12033435238599777,9.768843708696961,0.8518211925569921
1790592443918446800,7.97344677734375,-0.11204697363455779,9.768849553915858,0.8528701901532709
1790592443928459800,7.983459716796875,-0.10170833404227159,9.76888520975113,0.8537662622101605
1790592443938472700,7.99347265625,-0.1010160591954831,9.769006205782294,0.8524540836330503
1790592443948486000,8.00348583984375,-0.10784543942464515,9.769379130747915,0.8473493809051811
1790592443958499000,8.0134990234375,-0.11199374560997821,9.769935595586896,0.8403598142787814
1790592443968511700,8.02351171875,-0.114042951491056,9.770607795760036,0.8322116522017866
1790592443978525000,8.03352490234375,-0.119963948171027,9.771480486941337,0.8210673770487308
1790592443988537900,8.043537841796875,-0.1311880470946431,9.772789815974235,0.8035850579805671
1790592443998550500,8.053550537109375,-0.14273201648923567,9.774429984396695,0.7813713264763354
1790592444008563500,8.0635634765625,-0.14436744480449706,9.776266552174091,0.7577378643672913
1790592444018575600,8.07357568359375,-0.13623751250393687,9.778397134461999,0.7312923405122012
1790592444028588500,8.083588623046875,-0.13247703659241086,9.780641698518394,0.7013412196889519
1790592444038601700,8.093601806640624,-0.13327853483418,9.782697462004423,0.6719098118908703
1790592444048614400,8.103614501953125,-0.13388200801950878,9.784573192748427,0.6438873941078782
1790592444058627600,8.113627685546875,-0.13454965988169423,9.786548292213677,0.6130076871976256
1790592444068640500,8.123640625,-0.13776758074858225,9.788615746137499,0.5782823011772706
1790592444078653700,8.13365380859375,-0.14019264333788306,9.790509012538195,0.5446580813318491
1790592444088666400,8.143666259765626,-0.14733932762159965,9.792131060782074,0.5126749797569587
1790592444098678500,8.153678466796874,-0.15454013497903943,9.793807469561695,0.4773244841082021
1790592444108691500,8.16369140625,-0.15285425511817446,9.795657481342554,0.4383324901519343
1790592444118704600,8.17370458984375,-0.14636476523471065,9.79743793501854,0.39893447267804294
1790592444128717600,8.183717529296874,-0.14140403755479491,9.798987502548098,0.3608666078293696
1790592444138730500,8.19373046875,-0.1444641557777766,9.800339501678943,0.3207182103795931
1790592444148743700,8.20374365234375,-0.15167327430583535,9.801587455913424,0.27618673900738355
1790592444158756600,8.213756591796875,-0.15245526412953622,9.802665314278006,0.2343452921704389
1790592444168769500,8.22376953125,-0.14317264552935957,9.80359236599505,0.19871148606827482
1790592444178782500,8.233782470703124,-0.1383929552384652,9.804338800448178,0.16176586671518162
1790592444188794600,8.243794677734375,-0.14372865371061488,9.804909878334403,0.1160534784627147
1790592444198807600,8.2538076171875,-0.14358115326501428,9.805377495846152,0.06614548341762275
1790592444208820500,8.263820556640624,-0.1345010988990776,9.805700151929258,0.02334526998454239
1790592444218833400,8.27383349609375,-0.12303692587558179,9.805870247799158,-0.011748291761078871
1790592444228846600,8.2838466796875,-0.11185992662985808,9.805911164331436,-0.044356913956324566
1790592444238859800,8.29385986328125,-0.10710747140576131,9.805764449337124,-0.07677742513436824
1790592444248872400,8.30387255859375,-0.10971554414546117,9.805463420563935,-0.1059823580996599
1790592444258885600,8.3138857421875,-0.11173697610362432,9.805198632147908,-0.12640048402454704
1790592444268898600,8.323898681640625,-0.10285750407739541,9.805146025177836,-0.13747447955352254
1790592444278910700,8.33391064453125,-0.09139428090197034,9.805169990575314,-0.14385064525562338
1790592444288923400,8.34392333984375,-0.09403263918207957,9.805051917153596,-0.1499764803253114
1790592444298936600,8.3539365234375,-0.1081994770267047,9.804844996404647,-0.15386071961382403
1790592444308949500,8.363949462890625,-0.12180915591260418,9.804680745753645,-0.15416879918230697
1790592444318962700,8.373962646484374,-0.11982443010248243,9.804697112366556,-0.15471565594272688
1790592444328975400,8.383975341796875,-0.10430904545942321,9.804944949647783,-0.1501112217540387
1790592444338988500,8.393988525390625,-0.09078092564344406,9.80523136537373,-0.13986288166055455
1790592444349001700,8.404001708984374,-0.09192663421300239,9.805366974452138,-0.129265052275965
1790592444359013600,8.414013671875,-0.10035752222151495,9.805437117078899,-0.11714426024095155
1790592444369026600,8.424026611328125,-0.10382121627670712,9.805649883046746,-0.09409417837727814
1790592444379039500,8.43403955078125,-0.10395996716027148,9.805876093018055,-0.06608885785955936
1790592444389052700,8.444052734375,-0.10361542803891934,9.806008194965123,-0.043156853984179906
1790592444399065600,8.454065673828126,-0.10554771127575077,9.806060217413306,-0.02016435209321789
1790592444409078500,8.46407861328125,-0.11405719007896259,9.805985398611426,0.004275535309051338
1790592444419091500,8.474091552734375,-0.11990366935115307,9.805872585886716,0.028949617913796098
1790592444429104600,8.484104736328124,-0.1176739101382438,9.805770879077912,0.058274051356199195
1790592444439117600,8.49411767578125,-0.11427871474199927,9.805590261813999,0.0878951136745978
1790592444449129500,8.50412939453125,-0.11320040885284542,9.805328980529307,0.1144231373145245
1790592444459142400,8.514142333984376,-0.11245566403330302,9.804985866180061,0.14142871533832513
1790592444469155600,8.524155517578125,-0.1150808249051217,9.8045416295439,0.16766212167954073
1790592444479168800,8.534168701171875,-0.10999043383039533,9.804183317625522,0.19048693428682162
1790592444489181400,8.544181396484374,-0.09808204243704675,9.803768307083844,0.21653185971807687
1790592444499194600,8.554194580078125,-0.09214156473847106,9.803129424658417,0.24604409593371673
1790592444509207600,8.56420751953125,-0.09348852236801758,9.802442611438035,0.2715696553996764
1790592444519220500,8.574220458984374,-0.09143042992758564,9.801802559968829,0.2944410653613508
1790592444529233400,8.5842333984375,-0.08347549800090491,9.800990659064054,0.3225263923127204
1790592444539245600,8.59424560546875,-0.07626793210911564,9.799965407669543,0.3538998375566676
1790592444549258500,8.604258544921874,-0.0777626824452076,9.799029003602266,0.378639616939798
1790592444559271700,8.614271728515625,-0.08376609671162441,9.798421100836991,0.3928207025054842
1790592444569284400,8.624284423828126,-0.08468636249485426,9.798033562824129,0.4021868255374953
1790592444579297500,8.634297607421875,-0.07630238236798904,9.797629073676466,0.4135398480704054
1790592444589310700,8.644310791015625,-0.06787708385004662,9.797151519292592,0.42613739077169444
1790592444599323400,8.654323486328124,-0.07112690682569518,9.79668974699974,0.43608891247622666
1790592444609336600,8.664336669921875,-0.08174480175077915,9.796295194724202,0.4430674097193405
1790592444619348500,8.674348388671875,-0.09163295762920752,9.795898304361105,0.4498520283581689
1790592444629361700,8.684361572265624,-0.09485144475167617,9.795673263433574,0.454077464033477
1790592444639374600,8.69437451171875,-0.09061851075650192,9.79561013506949,0.4562916694842279
1790592444649387500,8.704387451171876,-0.09006781807118094,9.795518949654697,0.458353460852243
1790592444659400400,8.714400390625,-0.09644074150342494,9.795519534176588,0.45701782833430915
1790592444669413600,8.72441357421875,-0.10607528794696554,9.795704243093729,0.4509194749265909
1790592444679426600,8.734426513671876,-0.11381064057252369,9.795955002984403,0.4434996636567637
1790592444689439500,8.744439453125,-0.11901669391617178,9.796324420818685,0.43387708164565264
1790592444699452700,8.75445263671875,-0.11895916417581029,9.796910111752151,0.420442722794041
1790592444709464600,8.764464599609376,-0.1182558016794268,9.79752912043333,0.4059675861852243
1790592444719477800,8.774477783203125,-0.1248943811773788,9.798037069955468,0.39147370834331957
1790592444729490400,8.784490478515625,-0.13056888314983806,9.798696410647034,0.3726415821013972
1790592444739503600,8.794503662109374,-0.1274258724163752,9.799569101828336,0.35011914997417476
1790592444749516500,8.8045166015625,-0.11812072232398203,9.800407890740036,0.3293279255537316
1790592444759529500,8.814529541015625,-0.1147895320746582,9.801197579813003,0.30617240142105145
1790592444769542400,8.82454248046875,-0.11652366239088587,9.80209598995745,0.275190494511649
1790592444779555600,8.8345556640625,-0.1129632756287232,9.80292016582191,0.24572456338945775
1790592444789568800,8.84456884765625,-0.10066369296070188,9.80355378755033,0.22487189110536127
1790592444799580700,8.85458056640625,-0.08950812922865152,9.804130126133561,0.20349009864693507
1790592444809593300,8.86459326171875,-0.09061955193611793,9.804677823144196,0.17454667529519646
1790592444819606500,8.8746064453125,-0.10328606822039,9.805030289843678,0.1452082430101931
1790592444829619700,8.88461962890625,-0.11000022457204758,9.80530793774128,0.11930348410145379
1790592444839632400,8.89463232421875,-0.10158178505315445,9.805688461491465,0.09242518571913241
1790592444849645600,8.9046455078125,-0.09146963855996727,9.806028653231262,0.06182887146067805
1790592444859658500,8.914658447265625,-0.08638299207859672,9.806224468064308,0.029681555767403913
1790592444869671700,8.924671630859375,-0.08305119904107414,9.806299286866187,-0.001363004867460404
1790592444879684400,8.934684326171874,-0.07684027037066407,9.80629577973485,-0.032500323532160834
1790592444889696500,8.944696533203125,-0.06840828181703108,9.806205178841948,-0.06382412323139142
1790592444899709400,8.95470947265625,-0.060918579082190984,9.806006441399454,-0.09453834194820374
1790592444909722600,8.96472265625,-0.0572349632325815,9.80567677105367,-0.125744586532237
1790592444919735600,8.974735595703125,-0.06270113795029465,9.805165898922086,-0.15862081015510485
1790592444929748500,8.98474853515625,-0.07144911538423039,9.804453951260447,-0.1948846395228058
1790592444939761700,8.99476171875,-0.07041433354297187,9.80364555748701,-0.2323072470041923
1790592444949774600,9.004774658203125,-0.049501227175374515,9.802971019226312,-0.2640207743900828
1790592444959787500,9.01478759765625,-0.024270606951822992,9.802354348632692,-0.2891821401861496
1790592444969799400,9.02479931640625,-0.008818315852698287,9.801514975199103,-0.31722580168657005
1790592444979812600,9.0348125,-0.006104395560259581,9.800449976316093,-0.348642136224173
1790592444989825500,9.044825439453126,-0.009485884374848683,9.799445183187723,-0.375723912156187
1790592444999838700,9.054838623046875,-0.011074903136206557,9.798348035600782,-0.40332828719019886
1790592445009851600,9.0648515625,-0.007374897840799531,9.796921217668055,-0.43669922639429565
1790592445019864800,9.07486474609375,0.0015534037398712826,9.795406136929989,-0.4694513030476868
1790592445029877800,9.084877685546875,0.01044804565035738,9.79409914598465,-0.49585433946792035
1790592445039890700,9.094890625,0.02187540977782337,9.7926226436913,-0.5238740538371727
1790592445049903600,9.104903564453124,0.03951348337999079,9.790698982152342,-0.5577058154860511
1790592445059915800,9.114915771484375,0.05523809489351697,9.788635619881749,-0.5915729041766375
1790592445069928700,9.1249287109375,0.06145488248255569,9.78654303151667,-0.624655747154355
1790592445079941600,9.134941650390624,0.0626092264497187,9.784532276216149,-0.6552899548709392
1790592445089954600,9.14495458984375,0.0694696776705794,9.782427412891387,-0.6853374487407505
1790592445099967700,9.1549677734375,0.08322053685914725,9.780008076789974,-0.7175782879363745
1790592445109981000,9.16498095703125,0.10316974836434237,9.77746248396039,-0.7489905673533678
1790592445119993600,9.17499365234375,0.11738298263396135,9.774840318763255,-0.7804369682356714
1790592445130006800,9.1850068359375,0.12561086801681667,9.77205156482756,-0.8133988882474601
1790592445140019700,9.195019775390625,0.13192920258445665,9.769716984400153,-0.8400158962119371
1790592445150032000,9.205031982421875,0.1394434415389318,9.767846514353156,-0.860297563675046
1790592445160044500,9.21504443359375,0.14766913496470077,9.76573229867816,-0.8826357252765447
1790592445170057700,9.2250576171875,0.15665703580146653,9.763018363544344,-0.9106604811470955
1790592445180070700,9.235070556640625,0.16778057869374752,9.760054253041744,-0.9399819257646799
1790592445190083800,9.245083740234374,0.18645331312287597,9.757270175281166,-0.9650386256098746
1790592445200096500,9.255096435546875,0.20893071879828348,9.754490189173817,-0.9882649682227521
1790592445210109700,9.265109619140626,0.22416505801025777,9.75176397908032,-1.011559699896723
1790592445220123000,9.275122802734375,0.23063414442650973,9.749688341850042,-1.0299296154543758
1790592445230135600,9.285135498046875,0.2290339792208746,9.748076230478286,-1.0454503521259872
1790592445240147700,9.295147705078126,0.23236264871954918,9.74551310199201,-1.0683482665020971
1790592445250160600,9.30516064453125,0.24896087842956183,9.742036365792154,-1.0959683140292764
1790592445260173800,9.315173828125,0.269807906424161,9.738379012328386,-1.1231937362156807
1790592445270186800,9.325186767578124,0.28402167041674253,9.735289229619502,-1.1462320819757879
1790592445280199700,9.33519970703125,0.28918177485996854,9.733522804468869,-1.1598704389669001
1790592445290212600,9.345212646484375,0.2910379971859045,9.732900288656353,-1.1646199715815484
1790592445300225800,9.355225830078124,0.29473588358946146,9.73260919675529,-1.1661117445092648
1790592445310238700,9.36523876953125,0.29387493764488026,9.732418642619251,-1.1679276348248124
1790592445320250600,9.375250732421875,0.2839322385676205,9.732258483621477,-1.1717065688416362
1790592445330263600,9.385263671875,0.2745515207546763,9.732185418385267,-1.174541865332797
1790592445340276700,9.39527685546875,0.270743287578132,9.732453713932633,-1.1732226724930106
1790592445350290000,9.4052900390625,0.2696347418143414,9.733357384774088,-1.165948589836806
1790592445360302600,9.415302490234374,0.26685997987138105,9.734885324993728,-1.153761089241132
1790592445370315800,9.425315673828125,0.2602248344395309,9.736601481261848,-1.1407263972315937
1790592445380328700,9.43532861328125,0.2541202339541167,9.738015439713001,-1.1299741901360452
1790592445390341600,9.445341552734375,0.2513254156038165,9.739258133250475,-1.1198447911139577
1790592445400354600,9.4553544921875,0.24109398097936063,9.741324418130516,-1.1040130157317967
1790592445410366700,9.46536669921875,0.22522483272887764,9.744345227256417,-1.0804581718169153
1790592445420379600,9.475379638671875,0.21533042977275327,9.747889183473587,-1.050079034839943
1790592445430392800,9.485392822265625,0.2069579756869003,9.751270058083534,-1.0199396979682147
1790592445440405500,9.495405517578124,0.19918308563539758,9.754010296702385,-0.9949868968889116
1790592445450418700,9.505418701171875,0.18591723348479716,9.757297647809981,-0.9648642919562757
1790592445460432000,9.515431884765626,0.1656019925456494,9.761414435479045,-0.9261391322426498
1790592445470444800,9.52544482421875,0.1430876706596464,9.765716516587137,-0.8835626308631152
1790592445480457700,9.535457763671875,0.12231596379042603,9.769320094037056,-0.8460636519435792
1790592445490470700,9.545470703125,0.10994960862966253,9.77218191320896,-0.8141052829511464
1790592445500482800,9.55548291015625,0.10854993443218991,9.775443545353411,-0.7741380872871726
1790592445510495700,9.565495849609375,0.11347308831438421,9.779332369485497,-0.7225952393155545
1790592445520508700,9.5755087890625,0.10899965096106752,9.782972771814466,-0.6722696581792086
1790592445530521600,9.585521484375,0.08778270280868745,9.785861478993295,-0.632112200640142
1790592445540534800,9.59553466796875,0.05783384700776077,9.788668937629462,-0.5907634144246577
1790592445550547700,9.605547607421874,0.03643997595247347,9.791761058425903,-0.5389695508340373
1790592445560560600,9.615560546875,0.0287255770666874,9.79456267184317,-0.4859227645728737
1790592445570573800,9.62557373046875,0.018820770305913174,9.796697345784306,-0.4413272149885073
1790592445580586800,9.635586669921874,0.004249574602721259,9.798568400353192,-0.3980409579044208
1790592445590599000,9.645598876953125,-0.011261155556462472,9.80070073620677,-0.3413437593769282
1790592445600611600,9.655611572265625,-0.03165832203335594,9.802644271489978,-0.27847289544949305
1790592445610624800,9.665624755859374,-0.04807594817918725,9.803992763489484,-0.22314585276404394
1790592445620637700,9.6756376953125,-0.04924483212835621,9.805059515938161,-0.1695948067751713
1790592445630651000,9.68565087890625,-0.05080546447462402,9.805891290587187,-0.11086176417167298
1790592445640663600,9.69566357421875,-0.05837542937144171,9.806347802183032,-0.050273864648840386
1790592445650676700,9.7056767578125,-0.06684354411780369,9.806414437678455,0.013431693112134234
1790592445660690000,9.71568994140625,-0.07716475308467634,9.806040343669057,0.07742221671077422
1790592445670701800,9.725701904296875,-0.09499434208739549,9.80519454049468,0.13969794602296315
1790592445680714500,9.735714599609375,-0.112188966787979,9.803902747118473,0.20320989346606655
1790592445690727700,9.745727783203124,-0.11952028692360035,9.80230641783774,0.2662291711545549
1790592445700740900,9.755740966796875,-0.11742884020283817,9.800582662785052,0.32434272101968525
1790592445710753800,9.76575390625,-0.1154201581283938,9.798758369967342,0.3760398097049445
1790592445720766700,9.7757666015625,-0.10994630242772399,9.79678210145831,0.42584213415216654
1790592445730779600,9.785779541015625,-0.10521300856182352,9.794412449717521,0.47831221650391814
1790592445740792800,9.795792724609376,-0.1095406442362815,9.791665196835995,0.5307418572474271
1790592445750805500,9.805805419921874,-0.12286948775365017,9.788933141523598,0.5762613898089155
1790592445760817700,9.815817626953125,-0.13159350435668601,9.786688577467203,0.6113755924837664
1790592445770830600,9.82583056640625,-0.1274847903962247,9.784682498341798,0.6435011712692678
1790592445780843800,9.83584375,-0.12337006682008504,9.782382989227772,0.6783408678516745
1790592445790857000,9.84585693359375,-0.12382319914875552,9.78005366949737,0.7110534892775118
1790592445800869600,9.85586962890625,-0.12038365315413102,9.777644854789973,0.7440298031408339
1790592445810882800,9.8658828125,-0.11180983127728104,9.775096923872828,0.7780564297746867
1790592445820895700,9.875895751953125,-0.10049418161269277,9.772823718243837,0.8075907864905894
1790592445830908700,9.88590869140625,-0.08928248551292345,9.77056161853075,0.835776285880804
1790592445840921600,9.895921630859375,-0.09105335850981064,9.767748314675687,0.8678452025756239
1790592445850933800,9.905933837890625,-0.10814013892174698,9.764639242744446,0.9002817835390567
1790592445860946700,9.91594677734375,-0.1184164356012363,9.762115277224778,0.9259915404655039
1790592445870959900,9.9259599609375,-0.10933756854538805,9.760587337005138,0.943049131315574
1790592445880972500,9.93597265625,-0.0914703052802477,9.759188576123117,0.9592965017613023
1790592445890985700,9.94598583984375,-0.0791193668843247,9.757139826899767,0.9809952694807201
1790592445900999000,9.9559990234375,-0.07588701106670778,9.754936179375647,1.0029323029354213
1790592445911011600,9.966011474609376,-0.07845341378888115,9.753111886557937,1.0203272359810769
1790592445921024800,9.976024658203125,-0.07793999350718223,9.751709618544577,1.033659157371521
1790592445931037700,9.98603759765625,-0.06810975552818271,9.750295075571536,1.0476037307675927
1790592445941049900,9.9960498046875,-0.06888250716608017,9.748772396048903,1.0616371514908969
1790592445951062800,10.006062744140625,-0.08750756652858108,9.748383104470372,1.0638411643411965
1790592445961075700,10.01607568359375,-0.09609648550986312,9.748712190294265,1.060086341852322
1790592445971088600,10.026088623046874,-0.09029910607640632,9.747538470339775,1.0713267708562313
1790592445981101800,10.036101806640625,-0.08734525210633873,9.745134916329384,1.0932079824704677
1790592445991114500,10.046114501953125,-0.08311759707448073,9.743134682422875,1.1112175402831286
1790592446001127700,10.056127685546874,-0.06683884054322262,9.74064578821659,1.1338942861892283
1790592446011140900,10.066140869140625,-0.05037943021543324,9.73656056472957,1.1692962928295134
1790592446021153800,10.07615380859375,-0.04140886867253575,9.732540223172306,1.2026426821142435
1790592446031166000,10.086166015625,-0.03517215482360916,9.72928677433431,1.228862434389442
1790592446041178600,10.0961787109375,-0.0339075028993655,9.725799516740441,1.2562073913022875
1790592446051191800,10.10619189453125,-0.046356695771683006,9.722876322770118,1.2782485427185892
1790592446061205000,10.116205078125,-0.06774453894498292,9.720236037394404,1.2972396589145063
1790592446071217700,10.1262177734375,-0.0916075857259333,9.717038118135928,1.3195203181751072
1790592446081230800,10.13623095703125,-0.10564289701222442,9.7139565187335,1.3409950678803026
1790592446091243800,10.146243896484375,-0.10088888001870364,9.7122391934216,1.3537429057724772
1790592446101257000,10.156257080078126,-0.06969615706994664,9.711703186848759,1.359533325742185
1790592446111269600,10.16626953125,-0.032778181492316066,9.710907068035006,1.366598149561882
1790592446121281800,10.17628173828125,-0.016045297118544112,9.71028630578816,1.3712958058588205
1790592446131294700,10.186294677734375,-0.023577010080916807,9.710437696957587,1.3701193094253539
1790592446141308000,10.196307861328124,-0.04343994067530148,9.71089946925044,1.3663501661501825
1790592446151320600,10.206320556640625,-0.059761120709334495,9.711417940166593,1.3620553915657103
1790592446161333800,10.216333740234376,-0.06487473739602137,9.712423317816853,1.3546215883031487
1790592446171347000,10.226346923828125,-0.055085557513195084,9.713080320420861,1.350342888070643
1790592446181359900,10.23635986328125,-0.040572267151344564,9.712380647718906,1.3558733419299125
1790592446191372800,10.246372802734374,-0.03265761015283642,9.711627783524989,1.361474815198779
1790592446201384700,10.256384765625,-0.03395806404282339,9.71149568157792,1.3623676723852753
1790592446211398000,10.26639794921875,-0.03113733036655467,9.711210434895753,1.3644801344946027
1790592446221410800,10.276410888671874,-0.027846020036470142,9.710494980102776,1.3696369327358902
1790592446231423700,10.286423828125,-0.03767120738101657,9.709521166634559,1.3762790010988712
1790592446241436700,10.296436767578125,-0.05158860964237246,9.70877414765954,1.3810934156432748
1790592446251449900,10.306449951171874,-0.05329307090612128,9.708505267590283,1.3829174162000417
1790592446261462800,10.316462890625,-0.04221340825476218,9.70843921661675,1.3837630732439457
1790592446271475700,10.326475830078126,-0.026906323466985484,9.707985627630352,1.3873171124637127
1790592446281489000,10.336489013671875,-0.020837109388783574,9.707404028350114,1.3914999511063098
1790592446291500800,10.346500732421875,-0.028044789445004423,9.707593997964262,1.3900474142104386
1790592446301514000,10.356513916015626,-0.031333953483775254,9.707660633459687,1.389510676985234
1790592446311526700,10.366526611328124,-0.02745401134446729,9.70629168319404,1.39912255493924
1790592446321539800,10.376539794921875,-0.02314260300231399,9.70491279605627,1.4087361864589154
1790592446331552800,10.386552734375,-0.020289627007278613,9.70448492603302,1.4117194400534032
1790592446341566000,10.39656591796875,-0.014820487439277347,9.704076929754018,1.4145790672682226
1790592446351578600,10.40657861328125,-0.005845825109997531,9.703266197893022,1.4201960303671657
1790592446361591800,10.416591796875,-0.002913822497545334,9.702643682080506,1.4244569026820362
1790592446371605000,10.42660498046875,-0.0084609788985661,9.702808517253398,1.4233064174726604
1790592446381617000,10.436616943359375,-0.010412475438410182,9.703226450404523,1.420448105432093
1790592446391629600,10.446629638671874,-0.005811387980033759,9.70306862949431,1.4215604505881667
1790592446401642800,10.456642822265625,-0.011660211618826724,9.702965169119834,1.422224613585323
1790592446411656000,10.466656005859376,-0.021572625155677087,9.703881114920973,1.4158423652023076
1790592446421668900,10.4766689453125,-0.024169201537116894,9.705226099789142,1.4065494900695978
1790592446431681800,10.486681884765625,-0.02980723025697516,9.706231477439403,1.3994880272507666
1790592446441694700,10.49669482421875,-0.03142435573056573,9.706956869104504,1.3944177382491527
1790592446451708000,10.5067080078125,-0.026059780507092362,9.707461311495303,1.391008514327556
1790592446461720800,10.516720947265625,-0.023874228045379278,9.709099141830205,1.3795669367283583
1790592446471732700,10.526732666015626,-0.02120311370656127,9.711731828421353,1.360959413022548
1790592446481745700,10.53674560546875,-0.017205652984674087,9.713427526423335,1.348852357251942
1790592446491758800,10.5467587890625,-0.019954976808989885,9.714632810559868,1.340114193392545
1790592446501771800,10.556771728515624,-0.027497103850811253,9.716635967075824,1.3253668522462247
1790592446511784700,10.56678466796875,-0.03721432132583577,9.718892221570014,1.3084890749424696
1790592446521798000,10.5767978515625,-0.055271928664459846,9.720670337158442,1.2945621102683245
1790592446531810800,10.586810791015624,-0.0738805118161952,9.722362528029084,1.2808467425182462
1790592446541823700,10.59682373046875,-0.07646124902439769,9.724478497269748,1.2645344901427626
1790592446551836700,10.606836669921876,-0.06635676524785812,9.727215228757261,1.243895606739819
1790592446561848800,10.616848876953124,-0.05305346716369968,9.729853176045417,1.2237383693739772
1790592446571861800,10.62686181640625,-0.043865783138247204,9.73203227365017,1.20665681312643
1790592446581875000,10.636875,-0.04140297778786625,9.734322430413961,1.1881352141384034
1790592446591887600,10.6468876953125,-0.04996481696597766,9.736810740098356,1.167220509468764
1790592446601900800,10.65690087890625,-0.06826756730524357,9.73917279305458,1.1463999858886003
1790592446611914000,10.6669140625,-0.08580795953646302,9.741243754109739,1.1274733862962574
1790592446621927000,10.676927001953125,-0.0940110210053157,9.743681210389733,1.1055526463892311
1790592446631939800,10.68693994140625,-0.09286233502738177,9.746444245362282,1.081018143787235
1790592446641952800,10.696952880859374,-0.08387804178665392,9.748891638514399,1.059472447737679
1790592446651965000,10.70696484375,-0.07988302646689116,9.751268889039753,1.037675626471266
1790592446661977900,10.716977783203125,-0.0873070115883369,9.753658999046683,1.014340270525962
1790592446671990800,10.72699072265625,-0.09850453303228132,9.755947986766696,0.9910380131326615
1790592446682003700,10.737003662109375,-0.10483608327452093,9.757945882585645,0.9705036860827356
1790592446692017000,10.747016845703126,-0.113044304975681,9.759869544124603,0.9500144402835518
1790592446702029800,10.75702978515625,-0.11824937193864024,9.762181912720203,0.9253248932503163
1790592446712042800,10.767042724609375,-0.11737334715593606,9.764633397525548,0.8991762334499508
1790592446722056000,10.777055908203126,-0.12030276993764563,9.766765148857235,0.8753287632640451
1790592446732067800,10.78706787109375,-0.13026215528822505,9.768795193380116,0.8509086808219551
1790592446742080800,10.797080810546875,-0.11945635484191588,9.770962600547074,0.8272762416262179
1790592446752093700,10.80709375,-0.10292298879534936,9.772980370110274,0.8053773482248187
1790592446762107000,10.81710693359375,-0.10020725443009286,9.775004569414257,0.7807884120218456
1790592446772119800,10.827119873046875,-0.1057170216943603,9.776798467093705,0.7572523458726703
1790592446782132700,10.8371328125,-0.12161438225917517,9.778162741184234,0.7369565768189728
1790592446792145700,10.847145751953125,-0.14372503698142244,9.779836227354407,0.7103090275857598
1790592446802158800,10.857158935546876,-0.15834635886158793,9.78164123094976,0.6817634627114981
1790592446812171800,10.867171875,-0.15744319947678595,9.783027716872095,0.6617934184808284
1790592446822184000,10.877183837890625,-0.1451166100708302,9.784291453197598,0.64573251051791
1790592446832196600,10.887196533203126,-0.12946219141641632,9.78576269479394,0.6264921688012779
1790592446842209800,10.897209716796874,-0.12186054817312396,9.787229260215163,0.6047177054971457
1790592446852223000,10.907222900390625,-0.12286935075633228,9.788466693055629,0.5841354111196473
1790592446862236000,10.91723583984375,-0.1337186341513414,9.789521170544624,0.5637081977060064
1790592446872248800,10.927248779296875,-0.14918017884846776,9.790525963672994,0.5419515988521277
1790592446882261800,10.93726171875,-0.15354527872279286,9.791409176248312,0.5245067622501403
1790592446892275000,10.94727490234375,-0.1471585733603686,9.792149765482545,0.5123577305013314
1790592446902287600,10.95728759765625,-0.14134680007537825,9.792943546208738,0.49866764332298186
1790592446912299800,10.9672998046875,-0.13374472757382316,9.793883457407354,0.4819849867325276
1790592446922312700,10.977312744140624,-0.12164889645013026,9.794866623225808,0.46497094276323914
1790592446932326000,10.987325927734375,-0.11820161467362195,9.795736976319551,0.4471678307754919
1790592446942338800,10.9973388671875,-0.12253257481632754,9.796407422927022,0.4310199386488646
1790592446952351700,11.007351806640624,-0.1256101190981455,9.797076115968823,0.4146223460774868
1790592446962365000,11.017364990234375,-0.12000556795620358,9.797911982271074,0.3961272332375869
1790592446972377900,11.0273779296875,-0.12049401819342746,9.798485982766747,0.3814717716258019
1790592446982390800,11.037390869140625,-0.12602598815634847,9.798970551413298,0.3669709525864571
1790592446992403700,11.04740380859375,-0.12406016797609626,9.799609433838725,0.3502531150847673
1790592447002415900,11.057415771484376,-0.12647766831344925,9.80015771537125,0.3335821854647249
1790592447012428800,11.0674287109375,-0.1360799655883573,9.800580324697494,0.31697825666628776
1790592447022442000,11.07744189453125,-0.13430008730110712,9.801123930054903,0.300559164649155
1790592447032454700,11.08745458984375,-0.13056326625980436,9.801751706564426,0.28108063026247543
1790592447042467800,11.0974677734375,-0.12931498323176055,9.802517430239915,0.2535951871667057
1790592447052480800,11.107480712890625,-0.1296947397969663,9.803196644675731,0.22558785735499112
1790592447062493700,11.11749365234375,-0.1377384185861796,9.80364555748701,0.1998515229488723
1790592447072507000,11.1275068359375,-0.1492081993665546,9.803959445741771,0.17464666507095097
1790592447082519800,11.137519775390626,-0.1537214572736062,9.804235924595593,0.15392582073928787
1790592447092532000,11.147531982421874,-0.15323687036074696,9.804565594941376,0.13189037754456512
1790592447102545000,11.157544921875,-0.1468353601548355,9.804972422176599,0.1065283472103998
1790592447112557800,11.167557861328126,-0.13918671769835053,9.805299754434824,0.08418269642218947
1790592447122570800,11.17757080078125,-0.13032219664608127,9.80558500111699,0.062483010820741765
1790592447132584000,11.187583984375,-0.12197010036166757,9.805805950391292,0.04115107625287492
1790592447142596600,11.1975966796875,-0.11681640739291906,9.80592168572545,0.025333744954597205
1790592447152609800,11.20760986328125,-0.11207556040822528,9.806001180702447,0.01297877883752808
1790592447162622700,11.217622802734375,-0.10123844237504527,9.806128021952508,0.0006223643305860605
1790592447172636000,11.227635986328124,-0.09261433334937319,9.806209270495176,-0.008763645931347855
1790592447182647800,11.237647705078125,-0.0936543987205252,9.806192903882264,-0.014101558622648008
1790592447192660700,11.24766064453125,-0.10245517948735505,9.806096457770467,-0.01915725056004012
1790592447202674000,11.257673828125,-0.10795503727896139,9.806021638968586,-0.026105012454884124
1790592447212686800,11.267686767578125,-0.10218647294803522,9.8060719078511,-0.030124337948707395
1790592447222699800,11.27769970703125,-0.0897241739989724,9.806205178841948,-0.02630583910647547
1790592447232712700,11.287712646484374,-0.07922682758048176,9.80631389991343,-0.018107928736775646
1790592447242726000,11.297725830078125,-0.07991722099743782,9.806318576088547,-0.010963268588430946
1790592447252738800,11.30773876953125,-0.09199987297914922,9.806218038323522,-0.003096976209717104
1790592447262751700,11.317751708984375,-0.11191805915841832,9.806007025921344,0.008704058947929296
1790592447272763600,11.327763671875,-0.13456132292002437,9.805690799579024,0.026128486945305483
1790592447282776800,11.33777685546875,-0.1510253043916542,9.80538217202127,0.045329188488004726
1790592447292789800,11.347789794921875,-0.15598587680794299,9.805161807268858,0.06950141538255848
1790592447302802700,11.357802734375,-0.15350132998321203,9.804935012775658,0.10046588709997013
1790592447312815900,11.36781591796875,-0.14930765028619206,9.804589560338854,0.13463661664593965
1790592447322828800,11.377828857421875,-0.15184396383077836,9.804003869405388,0.1698068786232732
1790592447332842000,11.387842041015626,-0.16133315612003207,9.803236976686119,0.20217163645951075
1790592447342854700,11.397854736328124,-0.1691591370379552,9.802447287613154,0.23193233101088553
1790592447352867800,11.407867919921875,-0.1659807627301663,9.801658183062075,0.26517124133314934
1790592447362879700,11.417879638671875,-0.15677598600601778,9.800741652739047,0.30208091259002684
1790592447372893000,11.427892822265624,-0.15252231061691418,9.799489606851338,0.34218671300709247
1790592447382905600,11.437905517578125,-0.15734952984396366,9.79795932854414,0.38158283078484234
1790592447392918800,11.447918701171876,-0.16042891902299597,9.796420866930484,0.41805601032059636
1790592447402931700,11.457931640625,-0.1626619935709983,9.794821030518412,0.4532163902247324
1790592447412945000,11.46794482421875,-0.16622390556996688,9.793382522147894,0.4820808117898181
1790592447422957800,11.477957763671874,-0.1648916888518259,9.792330967268347,0.5034372323449701
1790592447432970800,11.487970703125,-0.16256825087293983,9.791233235159515,0.5250732370264828
1790592447442984000,11.49798388671875,-0.16019943938236683,9.78990110977292,0.55003926291354
1790592447452996600,11.50799658203125,-0.15311940886038355,9.7881849535048,0.5816994161443785
1790592447463008800,11.5180087890625,-0.1515067220998928,9.786188226729632,0.6147758659139275
1790592447473021700,11.528021728515625,-0.1582194628125988,9.784513571515678,0.6392637528952211
1790592447483035000,11.538034912109374,-0.1619490229960531,9.783570737707615,0.652620224205032
1790592447493047800,11.5480478515625,-0.15657858200408517,9.782991476514935,0.6625278702352195
1790592447503060700,11.558060791015626,-0.14599914679271167,9.782357854786515,0.6742024528726935
1790592447513074000,11.568073974609375,-0.13092141378140076,9.781842306479811,0.6846937440097332
1790592447523086800,11.5780869140625,-0.11442263499102555,9.78145243037939,0.6931573287114501
1790592447533099800,11.588099853515626,-0.10721848489902913,9.780858556139469,0.7026195690616965
1790592447543112700,11.59811279296875,-0.11486645150207914,9.780006323224306,0.7132128592684864
1790592447553124900,11.608124755859375,-0.1348151606837753,9.77882266639769,0.7258394088685513
1790592447563137800,11.6181376953125,-0.16021067316243423,9.77779566143751,0.7344812727466226
1790592447573151000,11.62815087890625,-0.17364985431963575,9.777488787445426,0.7355032362055033
1790592447583163600,11.63816357421875,-0.1704511496098712,9.777342072451114,0.7381690944138914
1790592447593176800,11.6481767578125,-0.16513720631180331,9.777120538654923,0.742319492091611
1790592447603189800,11.658189697265625,-0.16019291831003502,9.777067347162962,0.7441059371169656
1790592447613202700,11.66820263671875,-0.15154777562948873,9.777001296189427,0.7467619315184653
1790592447623215900,11.6782158203125,-0.14144310918985864,9.777075530469418,0.7477869637172668
1790592447633228800,11.688228759765625,-0.13879074065070598,9.777200033631921,0.7466404970958829
1790592447643240700,11.69824072265625,-0.14685013759885915,9.7771445040524,0.745821581928432
1790592447653254000,11.70825390625,-0.15932559742359442,9.777038705590368,0.7446601369336247
1790592447663266800,11.718266845703125,-0.16801709086336195,9.776785607612133,0.7460729994062334
1790592447673279700,11.72827978515625,-0.16744508139537648,9.776648244968056,0.7479870163340121
1790592447683293000,11.73829296875,-0.14973973982683383,9.776723648291826,0.7507413565434515
1790592447693305900,11.748305908203125,-0.12492226469814777,9.776574010688066,0.7572149364717304
1790592447703318800,11.75831884765625,-0.11653325220313854,9.776021052980422,0.7656440343819558
1790592447713331700,11.768331787109375,-0.11844106771899386,9.77537223368287,0.7735954317778349
1790592447723345000,11.778344970703126,-0.11979864720725454,9.774399589258431,0.7856016575224697
1790592447733357800,11.78835791015625,-0.13396732081593946,9.773295427408813,0.7969595023609697
1790592447743369700,11.79836962890625,-0.14912722481852397,9.77257588096261,0.8030635913897305
1790592447753383000,11.8083828125,-0.14254371824236586,9.77205156482756,0.8106039237666874
1790592447763395800,11.818395751953124,-0.12733355449042283,9.771490423813463,0.8198378352537751
1790592447773408800,11.82840869140625,-0.11821037336881272,9.770947987499833,0.8276333114355802
1790592447783421700,11.838421630859376,-0.12288934323159045,9.769934426543117,0.8388554010652005
1790592447793435000,11.848434814453125,-0.1375141813762486,9.768674197348952,0.8511520611237734
1790592447803447800,11.85844775390625,-0.1540174628118053,9.767526780879496,0.8614326321195811
1790592447813460700,11.868460693359374,-0.15863129501650108,9.766499775919318,0.8721801630400121
1790592447823473700,11.8784736328125,-0.13990767065035178,9.765690213102102,0.8843609416339546
1790592447833486800,11.88848681640625,-0.11869178194389678,9.765238377681374,0.8924277821030467
1790592447843498800,11.898498779296874,-0.11258795777661726,9.765162974357604,0.8940487343683838
1790592447853512000,11.908511962890625,-0.12597482422469183,9.764847332537174,0.8956976706191897
1790592447863524900,11.91852490234375,-0.1460602201970294,9.764426476776599,0.8972264876216649
1790592447873537800,11.928537841796874,-0.1556038552204147,9.764277423694729,0.8972509644757956
1790592447883551000,11.938551025390625,-0.15860020575849337,9.764330030664802,0.8961714986760169
1790592447893563600,11.948563720703126,-0.15286852110554464,9.764801155307888,0.8920139406051486
1790592447903576800,11.958576904296875,-0.14051387464888393,9.765641113263367,0.8848134346418082
1790592447913589800,11.96858984375,-0.12936145272199065,9.766602651771903,0.8758539561819285
1790592447923603000,11.97860302734375,-0.1279692585780751,9.767571204543113,0.8651969530891627
1790592447933614800,11.98861474609375,-0.13371204001377335,9.76882909564972,0.850001283653453
1790592447943627800,11.998627685546875,-0.13742921563968993,9.770338915690779,0.8318504176739603
1790592447953640700,12.008640625,-0.14015591892353257,9.771575764009356,0.8167140772100537
1790592447963654000,12.01865380859375,-0.1438180398939643,9.772692200818657,0.8026105138599872
1790592447973666800,12.028666748046875,-0.1544575712621212,9.773981071585416,0.784747451845929
1790592447983679700,12.0386796875,-0.16335653344010934,9.775274618527293,0.7666102490656077
1790592447993693000,12.04869287109375,-0.15763901430983096,9.776853996673227,0.7474358121920377
1790592448003705900,12.058705810546876,-0.14741492274161427,9.778853646057843,0.722937842208147
1790592448013718800,12.06871875,-0.1446484537029639,9.781138542124628,0.6919468569431454
1790592448023732000,12.07873193359375,-0.14923930689087136,9.783293674331903,0.6597524141725153
1790592448033744000,12.088743896484376,-0.1624823261551559,9.785026781734823,0.6302679610129446
1790592448043757000,12.098757080078125,-0.18326140348007902,9.786558813607693,0.6000531477522104
1790592448053769700,12.108769775390625,-0.1930103883498348,9.78831588640809,0.5674352188725024
1790592448063783000,12.118782958984376,-0.18032756025157867,9.790345930930972,0.5357070053741335
1790592448073795800,12.1287958984375,-0.16325115510318428,9.79230758639276,0.5044198136415332
1790592448083809000,12.13880908203125,-0.1537055107858032,9.794033095011114,0.4729497761553153
1790592448093821700,12.14882177734375,-0.15528530905684454,9.795493230691552,0.44112566453441976
1790592448103835000,12.1588349609375,-0.15979902362162246,9.796986099597811,0.4048519896261394
1790592448113847800,12.168847900390626,-0.153708214199543,9.79844272814691,0.37050248771347105
1790592448123860000,12.17885986328125,-0.13894876249032095,9.799714647778869,0.3415604708675295
1790592448133872600,12.18887255859375,-0.12805737525294533,9.800797182318568,0.313659231778793
1790592448143885800,12.1988857421875,-0.13032004122161306,9.801647661668062,0.2848224654056132
1790592448153899000,12.20889892578125,-0.13789054954112506,9.80230349522829,0.25729433394558726
1790592448163912000,12.218911865234375,-0.14661829247120767,9.802813198316096,0.23180024733012541
1790592448173924900,12.2289248046875,-0.15310260385605506,9.803301858615875,0.2054332686039619
1790592448183937800,12.238937744140625,-0.14727195234065873,9.803875274589657,0.18085984049737452
1790592448193951000,12.248950927734375,-0.13449936359971762,9.80442881681919,0.15954925011163576
1790592448203963600,12.258963623046874,-0.12251575154569,9.804921568772196,0.13749288285989314
1790592448213976800,12.268976806640625,-0.11951488009612075,9.805237795114516,0.11582269278098828
1790592448223988700,12.27898876953125,-0.12662284893780015,9.80538158749938,0.09395281541151926
1790592448234002000,12.289001953125,-0.13177352796555497,9.805512520402669,0.07031055807466619
1790592448244014800,12.299014892578125,-0.1332280376228038,9.805626502171158,0.048295034289965406
1790592448254027800,12.30902783203125,-0.12472425790801643,9.805812380132078,0.029503550585685295
1790592448264041000,12.319041015625,-0.10732446602415292,9.80605320315063,0.013134059589140814
1790592448274054000,12.329053955078125,-0.09894979258175007,9.806149649262428,-0.004728619974071625
1790592448284066800,12.33906689453125,-0.09766968051018193,9.806132113605736,-0.02452444928215118
1790592448294079700,12.349079833984375,-0.10913908683122135,9.805949158254265,-0.04311373179508373
1790592448304093000,12.359093017578125,-0.12296933139893225,9.80566098896265,-0.06546804081378504
1790592448314105900,12.36910595703125,-0.11747987627033143,9.80560429033935,-0.08188547059679403
1790592448324118000,12.379117919921875,-0.10295535669499076,9.805720025673509,-0.08736846858514473
1790592448334130700,12.389130615234375,-0.09078583014742471,9.805800689694285,-0.09172873702072538
1790592448344144000,12.399143798828124,-0.08870954446317628,9.805779646906256,-0.09592234365250915
1790592448354156800,12.40915673828125,-0.09612040524156763,9.80566040444076,-0.10080027928664348
1790592448364169700,12.419169677734375,-0.09863858947441913,9.805599614164233,-0.1042872446195688
1790592448374183000,12.429182861328124,-0.09430469758911057,9.805670925834775,-0.10163886726894415
1790592448384195800,12.43919580078125,-0.09089151901160367,9.805711842367053,-0.10062547984216362
1790592448394209000,12.449208984375,-0.09298712131767534,9.80567910914123,-0.10185983480955474
1790592448404221700,12.4592216796875,-0.09839569322979078,9.805642284262179,-0.10044853410637006
1790592448414233900,12.46923388671875,-0.10000753974006511,9.805682031750678,-0.09490677340179682
1790592448424246800,12.479246826171876,-0.1036640712199267,9.805703074538707,-0.08862625922705046
1790592448434260000,12.489260009765625,-0.10302087794556282,9.805746913680434,-0.08438528805589303
1790592448444272600,12.499272705078125,-0.09912266493062488,9.805836345529556,-0.07842397763184271
1790592448454285800,12.509285888671876,-0.09649373206598684,9.805925777378677,-0.06990382673756684
1790592448464299000,12.519299072265625,-0.1005806269202847,9.80596084869206,-0.05848017752070445
1790592448474312000,12.52931201171875,-0.10443631596774794,9.805978968870638,-0.047628661069413644
1790592448484324900,12.539324951171874,-0.10727376788337714,9.805987152177094,-0.038399069564417
1790592448494337800,12.549337890625,-0.11497177504007704,9.80592402381301,-0.03157771737808361
1790592448504351000,12.55935107421875,-0.11831909444029443,9.805906488156317,-0.024770738493686075
1790592448514363000,12.56936279296875,-0.11474772962639107,9.805962602257727,-0.01774210708208848
1790592448524375800,12.579375732421875,-0.11169417814151383,9.806007025921344,-0.01237997269416228
1790592448534388700,12.589388671875,-0.1062380590269342,9.8060719078511,-0.008252779507983359
1790592448544402000,12.59940185546875,-0.10021796762035227,9.806135620737075,-0.0054309441449498985
1790592448554414800,12.609414794921875,-0.10044331907513551,9.806134451693296,-0.00234925669320437
1790592448564427800,12.619427734375,-0.10427964583500288,9.806094704204797,0.0030696538071293615
1790592448574441000,12.62944091796875,-0.11507591126798651,9.805973123651743,0.0036507567575012217
1790592448584454000,12.639453857421875,-0.1307422121564392,9.805777308818698,-0.0033742362336619406
1790592448594466800,12.649466796875,-0.1407361573637463,9.8056411152184,-0.0031572761500108753
1790592448604479700,12.659479736328125,-0.1369138591292314,9.805693137666582,0.005352271151859895
1790592448614492000,12.669491943359375,-0.11671641761716454,9.805950327298044,0.009795828819321468
1790592448624504800,12.6795048828125,-0.09166783714634366,9.80621862284541,0.007970279622040107
1790592448634518000,12.68951806640625,-0.07807991343452594,9.806337865310907,0.005403283244822523
1790592448644530700,12.69953076171875,-0.08691090667652897,9.806261877465248,0.008749486687721218
1790592448654544000,12.7095439453125,-0.1148487971143797,9.805966109389066,0.015113496161147485
1790592448664556800,12.719556884765625,-0.14769878118429333,9.805518950143457,0.01919646832557628
1790592448674569700,12.72956982421875,-0.1627160253131762,9.805270528340339,0.02423081379755167
