time,seconds_elapsed,z,y,x
1790592435988241000,0.043240966796875,-0.011754121631383896,-0.20813299715518951,0.12113836407661438
1790592435998253800,0.05325390625,0.029038581997156143,-0.299423485994339,0.22770822048187256
1790592436008267000,0.06326708984375,0.05332554504275322,-0.4169333577156067,0.2908245921134949
1790592436018280000,0.073280029296875,0.06566104292869568,-0.501272976398468,0.30580487847328186
1790592436028292900,0.08329296875,0.06818412244319916,-0.5110057592391968,0.27322909235954285
1790592436038306000,0.09330615234375,0.05576739460229874,-0.47844332456588745,0.21388427913188934
1790592436048319000,0.103319091796875,0.059135761111974716,-0.41263288259506226,0.13250979781150818
1790592436058331100,0.1133310546875,0.055452343076467514,-0.3332586884498596,0.033868707716464996
1790592436068343800,0.12334375,0.036636579781770706,-0.28187912702560425,-0.03718443214893341
1790592436078357000,0.13335693359375,0.016587505117058754,-0.27131330966949463,-0.07944826781749725
1790592436088370000,0.143369873046875,0.007755663711577654,-0.2718358039855957,-0.10951056331396103
1790592436098382800,0.1533828125,0.013233519159257412,-0.30157798528671265,-0.12581469118595123
1790592436108395800,0.163395751953125,0.04326358810067177,-0.3444141447544098,-0.134854257106781
1790592436118409000,0.173408935546875,0.08161257952451706,-0.41756823658943176,-0.15234562754631042
1790592436128422100,0.183422119140625,0.1202894002199173,-0.4919489920139313,-0.1627061367034912
1790592436138434000,0.19343408203125,0.12138316035270691,-0.5347057580947876,-0.1643330603837967
1790592436148447000,0.203447021484375,0.09424528479576111,-0.6096442341804504,-0.14746885001659393
1790592436158460000,0.2134599609375,0.04519997164607048,-0.7461639642715454,-0.11830005794763565
1790592436168473000,0.22347314453125,-0.035695143043994904,-0.8969918489456177,-0.12288016825914383
1790592436178485800,0.23348583984375,-0.1118524894118309,-1.038862943649292,-0.1337897926568985
1790592436188499000,0.2434990234375,-0.14286154508590698,-1.124587893486023,-0.1437297761440277
1790592436198511900,0.253511962890625,-0.11348394304513931,-1.0398885011672974,-0.151607945561409
1790592436208525000,0.263525146484375,-0.041837990283966064,-0.724751353263855,-0.17975488305091858
1790592436218537000,0.273536865234375,0.03435265272855759,-0.36234068870544434,-0.19957759976387024
1790592436228550000,0.2835498046875,0.04774488881230354,-0.004491720348596573,-0.21220870316028595
1790592436238562800,0.293562744140625,-0.008009717799723148,0.2537640631198883,-0.19698740541934967
1790592436248576000,0.303575927734375,-0.05382440239191055,0.29987338185310364,-0.12241542339324951
1790592436258589000,0.3135888671875,-0.08919703960418701,0.17778530716896057,-0.005786274094134569
1790592436268601900,0.323601806640625,-0.0917707160115242,0.044109005481004715,0.12451021373271942
1790592436278615000,0.333614990234375,-0.06586215645074844,-0.016717327758669853,0.19755007326602936
1790592436288628000,0.3436279296875,-0.05297645181417465,0.002572480821982026,0.1831175982952118
1790592436298640100,0.35364013671875,-0.065119668841362,0.0826321616768837,0.12853345274925232
1790592436308652800,0.36365283203125,-0.08037026226520538,0.13080208003520966,0.08985956013202667
1790592436318666000,0.373666015625,-0.0909762978553772,0.12174414843320847,0.07266006618738174
1790592436328679000,0.383678955078125,-0.09783899784088135,0.0910181924700737,0.05693010240793228
1790592436338691800,0.39369189453125,-0.08539697527885437,0.1205955222249031,0.014250550419092178
1790592436348704800,0.403704833984375,-0.07980060577392578,0.2144802063703537,-0.07188193500041962
1790592436358718000,0.413718017578125,-0.09298006445169449,0.32630792260169983,-0.17855697870254517
1790592436368731100,0.423731201171875,-0.10899604856967926,0.394397497177124,-0.26687803864479065
1790592436378743000,0.433742919921875,-0.09521631896495819,0.3763412833213806,-0.31874576210975647
1790592436388756000,0.443755859375,-0.05417593941092491,0.24807357788085938,-0.31850555539131165
1790592436398769000,0.453768798828125,-0.04647700861096382,-0.0015122757758945227,-0.2672666013240814
1790592436408782000,0.463781982421875,-0.08912486582994461,-0.22352324426174164,-0.12274006009101868
1790592436418794800,0.473794677734375,-0.12287404388189316,-0.3351301848888397,0.08439581841230392
1790592436428808000,0.483807861328125,-0.10799416154623032,-0.3590555191040039,0.24184855818748474
1790592436438820900,0.49382080078125,-0.06168685108423233,-0.3208085298538208,0.3017425239086151
1790592436448833000,0.5038330078125,-0.05262251943349838,-0.1980019062757492,0.2984740436077118
1790592436458846000,0.513845947265625,-0.05201371759176254,-0.06902207434177399,0.26358848810195923
1790592436468859000,0.52385888671875,-0.016228025779128075,-0.000026231806259602308,0.2080828696489334
1790592436478871800,0.533871826171875,-0.0032099613454192877,-0.014156165532767773,0.1522374451160431
1790592436488885000,0.543885009765625,-0.015025341883301735,-0.09182539582252502,0.13336415588855743
1790592436498898000,0.55389794921875,-0.029590701684355736,-0.16372355818748474,0.13841643929481506
1790592436508910800,0.563910888671875,-0.03239527717232704,-0.17016947269439697,0.12123585492372513
1790592436518924000,0.573924072265625,-0.009961074218153954,-0.11666150391101837,0.08257608115673065
1790592436528936000,0.58393603515625,0.031363725662231445,-0.06105895712971687,0.04009093716740608
1790592436538949000,0.59394921875,0.06405136734247208,-0.02513078600168228,0.009260585531592369
1790592436548961800,0.6039619140625,0.08658970147371292,0.031464848667383194,0.010032902471721172
1790592436558975000,0.61397509765625,0.08018799126148224,0.10085457563400269,0.05836634710431099
1790592436568988000,0.62398779296875,0.05571567267179489,0.10315421223640442,0.14398270845413208
1790592436579000800,0.634000732421875,0.014417502097785473,-0.018125340342521667,0.24152818322181702
1790592436589013800,0.644013671875,-0.014541178941726685,-0.15836741030216217,0.32684043049812317
1790592436599027000,0.65402685546875,-0.028813324868679047,-0.220806285738945,0.3676309883594513
1790592436609040100,0.6640400390625,-0.011017817072570324,-0.22961202263832092,0.3532496690750122
1790592436619052000,0.674052001953125,0.030001254752278328,-0.18457718193531036,0.2992229163646698
1790592436629065000,0.68406494140625,0.053270358592271805,-0.11024727672338486,0.24196307361125946
1790592436639078000,0.694077880859375,0.08326101303100586,-0.04045781120657921,0.20031921565532684
1790592436649091000,0.704091064453125,0.09535602480173111,0.0018848525360226631,0.1705852895975113
1790592436659103700,0.714103759765625,0.09518291801214218,0.014485865831375122,0.15443721413612366
1790592436669117000,0.724116943359375,0.0911136120557785,0.0005263741477392614,0.1491902619600296
1790592436679129900,0.7341298828125,0.08940279483795166,-0.0009652624139562249,0.13964256644248962
1790592436689142000,0.74414208984375,0.10683292150497437,-0.018895793706178665,0.11581871658563614
1790592436699155000,0.754155029296875,0.12036950141191483,-0.06151808798313141,0.06963790953159332
1790592436709167900,0.76416796875,0.09464363008737564,-0.0983208417892456,0.026627857238054276
1790592436719180800,0.774180908203125,0.05931147187948227,-0.10213342308998108,0.01317836157977581
1790592436729194000,0.784194091796875,0.03387641906738281,-0.09116386622190475,0.012989277951419353
1790592436739207000,0.79420703125,0.03429267182946205,-0.0677110031247139,0.01673022098839283
1790592436749219800,0.8042197265625,0.04173887148499489,-0.053287323564291,-0.002126025501638651
1790592436759233000,0.81423291015625,0.02906036004424095,-0.022251108661293983,-0.006311449687927961
1790592436769246000,0.824245849609375,0.006747597362846136,0.03167523816227913,0.026814011856913567
1790592436779258000,0.834258056640625,-0.004065102897584438,0.05701974406838417,0.06582053750753403
1790592436789270800,0.844270751953125,-0.000347063469234854,0.019135212525725365,0.06926187127828598
1790592436799284000,0.854283935546875,-0.007194849196821451,-0.022157898172736168,0.03917427733540535
1790592436809297000,0.864296875,-0.030062880367040634,-0.02619791403412819,0.014998633414506912
1790592436819309800,0.874309814453125,-0.054794859141111374,-0.037908632308244705,0.038717277348041534
1790592436829322800,0.88432275390625,-0.061948373913764954,-0.07939988374710083,0.08758175373077393
1790592436839336000,0.8943359375,-0.04202553257346153,-0.13506820797920227,0.12516161799430847
1790592436849349000,0.90434912109375,-0.0183004979044199,-0.13312889635562897,0.14883312582969666
1790592436859361000,0.914361083984375,0.02567814663052559,-0.11108856648206711,0.14892500638961792
1790592436869374000,0.9243740234375,0.06474804878234863,-0.07259577512741089,0.11953622847795486
1790592436879387000,0.934386962890625,0.07049594819545746,-0.017010807991027832,0.07355302572250366
1790592436889400000,0.944400146484375,0.06071549281477928,0.008997091092169285,0.05287810415029526
1790592436899413000,0.9544130859375,0.058925315737724304,0.015689348801970482,0.07330827414989471
1790592436909426000,0.964426025390625,0.047859348356723785,0.03705509006977081,0.10138651728630066
1790592436919438800,0.97443896484375,0.023380104452371597,0.04973333701491356,0.10333514958620071
1790592436929451000,0.984450927734375,-0.011996528133749962,0.042657315731048584,0.07251652330160141
1790592436939464000,0.9944638671875,-0.04125241935253143,0.04822199046611786,0.015812495723366737
1790592436949476900,1.004476806640625,-0.046968892216682434,0.06831341236829758,-0.029449526220560074
1790592436959489800,1.01448974609375,-0.03724489361047745,0.06839756667613983,-0.03255530446767807
1790592436969503000,1.0245029296875,-0.03937488794326782,0.07194916158914566,-0.022516785189509392
1790592436979516000,1.034515869140625,-0.04398295655846596,0.0719374418258667,-0.025477156043052673
1790592436989529600,1.044529541015625,-0.019363097846508026,0.06840475648641586,-0.019710877910256386
1790592436999542800,1.054542724609375,0.01636081002652645,0.04866807162761688,0.007126062177121639
1790592437009555500,1.064555419921875,0.03995561972260475,0.034783415496349335,0.04369685426354408
1790592437019567600,1.074567626953125,0.03698619455099106,0.02062152326107025,0.08758814632892609
1790592437029580500,1.08458056640625,0.03651827573776245,-0.01897648721933365,0.13540546596050262
1790592437039593700,1.09459375,0.042269639670848846,-0.05725010484457016,0.1621292233467102
1790592437049606700,1.104606689453125,0.04404197260737419,-0.07168417423963547,0.1344299614429474
1790592437059619600,1.11461962890625,0.021792061626911163,-0.06869716942310333,0.07016095519065857
1790592437069632500,1.124632568359375,-0.004220365080982447,-0.04210257902741432,0.030250290408730507
1790592437079645700,1.134645751953125,-0.023323485627770424,-0.04520143195986748,0.04249151051044464
1790592437089657600,1.14465771484375,-0.045111872255802155,-0.06213860586285591,0.10668221116065979
1790592437099670500,1.15467041015625,-0.03401101753115654,-0.10551457107067108,0.22410577535629272
1790592437109683500,1.164683349609375,-0.002753762062638998,-0.1616652011871338,0.288785457611084
1790592437119696600,1.174696533203125,0.01562630943953991,-0.13578087091445923,0.3046448528766632
1790592437129709600,1.18470947265625,0.004489236976951361,-0.11109975725412369,0.2991459369659424
1790592437139722500,1.194722412109375,-0.020138343796133995,-0.09366323798894882,0.31471771001815796
1790592437149735700,1.204735595703125,-0.050828345119953156,-0.055662330240011215,0.34116342663764954
1790592437159748600,1.21474853515625,-0.04917425662279129,-0.04800654202699661,0.3484056293964386
1790592437169760800,1.2247607421875,-0.03648962080478668,-0.05472995713353157,0.33848270773887634
1790592437179773700,1.234773681640625,-0.007311496417969465,-0.049452636390924454,0.3542872369289398
1790592437189786600,1.24478662109375,0.031012989580631256,-0.0515994094312191,0.3944125473499298
1790592437199799600,1.254799560546875,0.0844663605093956,-0.07669011503458023,0.41255614161491394
1790592437209812700,1.264812744140625,0.10975653678178787,-0.1222701147198677,0.42718034982681274
1790592437219825400,1.274825439453125,0.10029859095811844,-0.19209714233875275,0.5001296401023865
1790592437229838600,1.284838623046875,0.07129756361246109,-0.34829792380332947,0.6748167872428894
1790592437239851800,1.294851806640625,0.08043619990348816,-0.5169101357460022,0.9091174006462097
1790592437249863700,1.30486376953125,0.09319288283586502,-0.7001773715019226,1.1551710367202759
1790592437259876600,1.314876708984375,0.15295368432998657,-0.822386622428894,1.3664987087249756
1790592437269889500,1.3248896484375,0.18593454360961914,-0.9036479592323303,1.4915351867675781
1790592437279902700,1.33490283203125,0.20264028012752533,-0.7734766006469727,1.5527756214141846
1790592437289915600,1.34491552734375,0.06503448635339737,-0.02542157471179962,1.4472540616989136
1790592437299928600,1.354928466796875,-0.1282830536365509,0.8305255770683289,1.258723497390747
1790592437309941500,1.36494140625,-0.25100764632225037,1.465017557144165,1.0288325548171997
1790592437319953700,1.37495361328125,-0.3228498697280884,1.765982985496521,0.8449071645736694
1790592437329966600,1.384966552734375,-0.29621320962905884,1.818572998046875,0.6930625438690186
1790592437339979800,1.394979736328125,-0.19704346358776093,1.673256278038025,0.534407913684845
1790592437349992400,1.404992431640625,-0.06104355677962303,1.0113593339920044,0.5005465745925903
1790592437360005600,1.415005615234375,0.025783218443393707,-0.1104925274848938,0.7053085565567017
1790592437370018600,1.4250185546875,0.02592463232576847,-1.1175050735473633,1.0243693590164185
1790592437380031500,1.435031494140625,-0.04689764231443405,-1.789909839630127,1.2675950527191162
1790592437390044700,1.445044677734375,-0.14595524966716766,-2.04318904876709,1.3573752641677856
1790592437400056600,1.455056640625,-0.2791130244731903,-1.9607875347137451,1.304603099822998
1790592437410069800,1.46506982421875,-0.43561556935310364,-1.5733493566513062,1.1642638444900513
1790592437420082700,1.475082763671875,-0.5739550590515137,-1.153812289237976,1.0077117681503296
1790592437430095600,1.485095703125,-0.6695100665092468,-0.7930551171302795,0.8859198689460754
1790592437440108500,1.495108642578125,-0.7792350053787231,-0.5734665393829346,0.7533130645751953
1790592437450121700,1.505121826171875,-0.9815883636474609,-0.3129841089248657,0.6507861614227295
1790592437460134400,1.515134521484375,-1.2045636177062988,0.04528295621275902,0.636096179485321
1790592437470147600,1.525147705078125,-1.3235357999801636,0.2979373335838318,0.7055948376655579
1790592437480159500,1.535159423828125,-1.2714992761611938,0.2926243245601654,0.8581052422523499
1790592437490172700,1.545172607421875,-1.116603136062622,0.02958175726234913,1.0356440544128418
1790592437500185600,1.555185546875,-0.9645100235939026,-0.34956130385398865,1.1715511083602905
1790592437510198500,1.565198486328125,-0.8477639555931091,-0.7642381191253662,1.246327519416809
1790592437520211700,1.575211669921875,-0.7497681975364685,-0.971747100353241,1.2055132389068604
1790592437530224600,1.585224609375,-0.5499624013900757,-0.06764253228902817,0.7406337857246399
1790592437540237600,1.595237548828125,-0.2330440729856491,0.44842082262039185,0.3357728123664856
1790592437550249500,1.60524951171875,0.23698760569095612,0.6431367993354797,0.0004222579300403595
1790592437560262700,1.6152626953125,0.7631092071533203,0.18274149298667908,-0.06482705473899841
1790592437570275600,1.625275634765625,1.142463207244873,-0.6689805388450623,0.11975903809070587
1790592437580288800,1.635288818359375,1.3171452283859253,-1.5874155759811401,0.6355675458908081
1790592437590301400,1.645301513671875,1.097939372062683,-2.114814519882202,1.006404995918274
1790592437600314600,1.655314697265625,0.6723505258560181,-1.8354706764221191,1.3795175552368164
1790592437610327600,1.66532763671875,0.33182355761528015,-0.8991695642471313,1.6067140102386475
1790592437620340500,1.675340576171875,0.16585776209831238,-0.4103333055973053,1.7099764347076416
1790592437630352400,1.685352294921875,0.011014657095074654,-0.24109233915805817,1.779194951057434
1790592437640365600,1.695365478515625,-0.22470705211162567,-0.08286542445421219,1.8166406154632568
1790592437650378800,1.705378662109375,-0.3890070617198944,0.09459564089775085,1.8689674139022827
1790592437660391700,1.7153916015625,-0.3664468824863434,0.26853522658348083,1.86228609085083
1790592437670404600,1.725404541015625,-0.17324146628379822,0.5054334998130798,1.7700520753860474
1790592437680417500,1.73541748046875,0.07141727954149246,0.7733059525489807,1.5070475339889526
1790592437690430700,1.7454306640625,0.24948102235794067,0.7311177849769592,1.1135064363479614
1790592437700443400,1.755443359375,0.36970463395118713,0.030337028205394745,0.6137024760246277
1790592437710455600,1.76545556640625,0.4845563769340515,-0.8402737379074097,0.02732577547430992
1790592437720468500,1.775468505859375,0.6226338148117065,-1.3169848918914795,-0.4788780212402344
1790592437730481700,1.785481689453125,0.7434098124504089,-1.276828408241272,-0.7450902462005615
1790592437740494600,1.79549462890625,0.7716020345687866,-0.8839618563652039,-0.7576255202293396
1790592437750507500,1.805507568359375,0.6930329203605652,-0.29821449518203735,-0.6442840099334717
1790592437760520700,1.815520751953125,0.5220888257026672,0.2539277970790863,-0.5447430610656738
1790592437770533600,1.82553369140625,0.30045872926712036,0.6596382856369019,-0.4598428010940552
1790592437780546600,1.835546630859375,0.03243233263492584,0.8411430716514587,-0.309036523103714
1790592437790558500,1.845558349609375,-0.22160260379314423,0.8810111284255981,-0.01518919225782156
1790592437800571600,1.855571533203125,-0.39680051803588867,0.7328680157661438,0.28221985697746277
1790592437810584600,1.86558447265625,-0.42873236536979675,0.5137985348701477,0.3372141420841217
1790592437820597800,1.87559765625,-0.3115106523036957,0.39379939436912537,0.16897159814834595
1790592437830610400,1.8856103515625,-0.06439168006181717,0.47174108028411865,0.022710520774126053
1790592437840623600,1.89562353515625,0.20774875581264496,0.5890074968338013,0.13109850883483887
1790592437850636500,1.905636474609375,0.3840510845184326,0.699531614780426,0.43259310722351074
1790592437860648700,1.915648681640625,0.44664815068244934,0.6970519423484802,0.734876275062561
1790592437870661400,1.925661376953125,0.42066341638565063,0.543302059173584,0.9218573570251465
1790592437880674600,1.935674560546875,0.2988855838775635,0.2830691635608673,0.8729321360588074
1790592437890687700,1.945687744140625,0.11028958112001419,0.09048798680305481,0.5964419841766357
1790592437900700700,1.95570068359375,-0.037164587527513504,0.19444261491298676,0.31477007269859314
1790592437910713600,1.965713623046875,-0.16382479667663574,0.4916231632232666,0.15690481662750244
1790592437920726500,1.9757265625,-0.2351844608783722,0.7374758124351501,0.26303496956825256
1790592437930739700,1.98573974609375,-0.2357597053050995,0.7816400527954102,0.4614894688129425
1790592437940751600,1.995751708984375,-0.10039602220058441,0.6987268328666687,0.6649986505508423
1790592437950764500,2.0057646484375,0.11939173191785812,0.6121506690979004,0.8230804204940796
1790592437960777500,2.015777587890625,0.2567368149757385,0.4384997487068176,0.7664368748664856
1790592437970790700,2.025790771484375,0.34675270318984985,0.24580860137939453,0.5614592432975769
1790592437980803600,2.035803466796875,0.3658558428287506,0.13066230714321136,0.33392539620399475
1790592437990815700,2.045815673828125,0.27184730768203735,0.1644330620765686,0.20691657066345215
1790592438000828400,2.055828369140625,0.18304607272148132,0.2587672770023346,0.23544222116470337
1790592438010841600,2.065841552734375,0.24285320937633514,0.29909658432006836,0.3565729260444641
1790592438020853500,2.075853515625,0.3123180568218231,0.15778420865535736,0.27294325828552246
1790592438030866700,2.08586669921875,0.34927740693092346,-0.028252780437469482,0.07961588352918625
1790592438040879400,2.09587939453125,0.35612544417381287,-0.10841739177703857,-0.008467639796435833
1790592438050892500,2.105892578125,0.3127683699131012,-0.10967519879341125,-0.016758859157562256
1790592438060905700,2.11590576171875,0.15749864280223846,-0.07041807472705841,-0.04475666955113411
1790592438070918700,2.125918701171875,-0.02486211620271206,-0.11094605922698975,-0.10890902578830719
1790592438080931600,2.135931640625,-0.1080092042684555,-0.24486178159713745,-0.1425170600414276
1790592438090944500,2.145944580078125,-0.09839651733636856,-0.6305548548698425,-0.13114401698112488
1790592438100956700,2.155956787109375,-0.09068400412797928,-1.0411416292190552,-0.09659004211425781
1790592438110969600,2.165969482421875,-0.05752445384860039,-1.101392388343811,-0.0451020821928978
1790592438120982500,2.175982421875,-0.02042475715279579,-0.9416182041168213,0.02058984339237213
1790592438130995500,2.185995361328125,-0.09860877692699432,-0.7785837650299072,0.04975198954343796
1790592438141008600,2.196008544921875,-0.2858114242553711,-0.7024402618408203,0.11106861382722855
1790592438151021600,2.206021484375,-0.4805563986301422,-0.8595095276832581,0.1959475427865982
1790592438161034500,2.216034423828125,-0.5558740496635437,-0.8757877945899963,0.20829635858535767
1790592438171047700,2.226047607421875,-0.6834977865219116,-0.7639965415000916,0.20791445672512054
1790592438181059600,2.2360595703125,-0.7841032147407532,-0.7029739618301392,0.29721638560295105
1790592438191072800,2.24607275390625,-0.682937741279602,-0.33664843440055847,0.37284377217292786
1790592438201085400,2.25608544921875,-0.28238871693611145,-0.08919336646795273,0.5472224950790405
1790592438211098600,2.2660986328125,0.4417359530925751,-0.08907219022512436,0.5884612798690796
1790592438221111600,2.276111572265625,1.081578254699707,0.06260176002979279,0.5686353445053101
1790592438231124700,2.286124755859375,1.3158642053604126,0.15618418157100677,0.6239718794822693
1790592438241137400,2.296137451171875,1.3415501117706299,0.11064465343952179,0.6351209282875061
1790592438251150600,2.306150634765625,1.2793762683868408,0.06555798649787903,0.42236408591270447
1790592438261163800,2.316163818359375,1.0983524322509766,0.055136505514383316,0.11553677916526794
1790592438271175700,2.32617578125,0.8946047425270081,0.08827528357505798,-0.08387326449155807
1790592438281188600,2.336188720703125,0.7228803634643555,0.15090696513652802,-0.18600548803806305
1790592438291201500,2.346201416015625,0.5515741109848022,0.14166712760925293,-0.16689863801002502
1790592438301214700,2.356214599609375,0.32225435972213745,0.21095485985279083,-0.10147516429424286
1790592438311227600,2.3662275390625,0.1465270072221756,0.10401775687932968,-0.06881842017173767
1790592438321240600,2.376240478515625,0.07034914195537567,0.00205437745898962,-0.050781890749931335
1790592438331253500,2.38625341796875,-0.02091445028781891,-0.0368964821100235,0.02044009044766426
1790592438341266700,2.3962666015625,-0.12364961951971054,-0.05368078872561455,0.12527303397655487
1790592438351279600,2.406279541015625,-0.191935196518898,-0.09034746140241623,0.25649523735046387
1790592438361291500,2.41629150390625,-0.24929890036582947,-0.17025934159755707,0.40054962038993835
1790592438371304400,2.426304443359375,-0.2918378412723541,-0.22864754498004913,0.5357804298400879
1790592438381317600,2.436317626953125,-0.2859322726726532,-0.30347758531570435,0.6539211869239807
1790592438391330600,2.44633056640625,-0.20867423713207245,-0.3244560956954956,0.7314742803573608
1790592438401343500,2.456343505859375,-0.12609493732452393,-0.36956363916397095,0.7704429626464844
1790592438411356700,2.466356689453125,-0.04846645146608353,-0.41049084067344666,0.7653486132621765
1790592438421369600,2.47636962890625,0.04780096188187599,-0.3891136646270752,0.6875076293945312
1790592438431382800,2.4863828125,0.19505192339420319,-0.32882794737815857,0.5437563061714172
1790592438441395500,2.4963955078125,0.2840747535228729,-0.1991402506828308,0.3168818950653076
1790592438451407600,2.50640771484375,0.30786609649658203,-0.11609622836112976,0.04388149827718735
1790592438461420500,2.516420654296875,0.30946850776672363,-0.010351692326366901,-0.22862085700035095
1790592438471433700,2.526433837890625,0.29616257548332214,0.04619307443499565,-0.4127691388130188
1790592438481446400,2.5364462890625,0.24914339184761047,0.0579725056886673,-0.497636079788208
1790592438491459600,2.54645947265625,0.1805422306060791,0.06912555545568466,-0.4885997176170349
1790592438501472800,2.55647265625,0.10224795341491699,0.06064072623848915,-0.4113216996192932
1790592438511485700,2.566485595703125,0.033318694680929184,0.032020267099142075,-0.2751595973968506
1790592438521498600,2.57649853515625,-0.011287390254437923,0.001986200688406825,-0.11313421279191971
1790592438531511600,2.586511474609375,-0.02272912859916687,-0.021071715280413628,0.040508341044187546
1790592438541524700,2.596524658203125,-0.002563140820711851,-0.035917505621910095,0.15095390379428864
1790592438551536600,2.60653662109375,0.023574719205498695,-0.04234131798148155,0.1809815764427185
1790592438561549600,2.616549560546875,0.03010425716638565,-0.026693115010857582,0.1385640799999237
1790592438571562500,2.6265625,0.011485300026834011,0.00305306282825768,0.06476840376853943
1790592438581575700,2.63657568359375,-0.0064524211920797825,0.021448049694299698,-0.01259828731417656
1790592438591588600,2.646588623046875,0.0026023262180387974,0.03746243566274643,-0.07162618637084961
1790592438601601500,2.6566015625,0.016973009333014488,0.05582892522215843,-0.0896078497171402
1790592438611614700,2.66661474609375,0.01843987964093685,0.04545671120285988,-0.05467117205262184
1790592438621627600,2.676627685546875,0.010789948515594006,0.02362651377916336,0.005249951500445604
1790592438631640600,2.686640625,0.003990632016211748,0.020245632156729698,0.045364346355199814
1790592438641652500,2.696652587890625,0.006899336818605661,0.013888666406273842,0.054818302392959595
1790592438651665700,2.706665771484375,0.013322881422936916,0.021533802151679993,0.03101310506463051
1790592438661678600,2.7166787109375,0.006664446089416742,0.02675546333193779,-0.004070046823471785
1790592438671691800,2.72669189453125,0.011534036137163639,0.022342605516314507,-0.030142661184072495
1790592438681704400,2.736704345703125,0.017753582447767258,0.023950887843966484,-0.0334060974419117
1790592438691717600,2.746717529296875,0.01078515499830246,0.011059856042265892,-0.0073137772269546986
1790592438701730600,2.75673046875,0.013004633598029613,-0.004343600478023291,0.019971372559666634
1790592438711743500,2.766743408203125,0.018449466675519943,-0.006854694802314043,0.031191803514957428
1790592438721756700,2.776756591796875,0.015461399219930172,-0.014312878251075745,0.02055433951318264
1790592438731768600,2.7867685546875,0.008328122086822987,-0.012404989451169968,-0.0061691501177847385
1790592438741781800,2.79678173828125,-0.0043442631140351295,-0.011391656473279,-0.01608915999531746
1790592438751794700,2.806794677734375,0.024190708994865417,-0.00175953540019691,-0.02729041501879692
1790592438761807600,2.8168076171875,0.012122861109673977,0.0010905796661973,-0.03288092464208603
1790592438771820500,2.826820556640625,0.0037573392037302256,-0.02649417705833912,-0.0036364845000207424
1790592438781833700,2.836833740234375,0.026706330478191376,-0.02523556724190712,0.017252018675208092
1790592438791846400,2.846846435546875,0.02257257141172886,-0.0240350142121315,0.03521530702710152
1790592438801859600,2.856859619140625,-0.003679538145661354,-0.025072315707802773,0.035215575248003006
1790592438811872500,2.86687255859375,0.003145877504721284,-0.00209882203489542,0.004136484116315842
1790592438821884700,2.876884765625,0.04780256003141403,0.03585894778370857,-0.15197402238845825
1790592438831897600,2.886897705078125,0.034583695232868195,0.08179261535406113,-0.24729865789413452
1790592438841910500,2.89691064453125,0.01427948847413063,0.11190124601125717,-0.24250151216983795
1790592438851923700,2.906923828125,0.031028108671307564,0.08343391865491867,-0.2016345113515854
1790592438861936600,2.9169365234375,0.042585428804159164,0.07458610087633133,-0.13896287977695465
1790592438871949600,2.926949462890625,0.029833680018782616,0.08229701966047287,-0.06704235821962357
1790592438881962500,2.93696240234375,0.0461529977619648,0.028472935780882835,-0.015624171122908592
1790592438891975700,2.9469755859375,0.09709793329238892,0.011992495507001877,0.0019313865341246128
1790592438901988600,2.956988525390625,0.11174692213535309,-0.01058791484683752,-0.014987142756581306
1790592438912001500,2.96700146484375,0.09724360704421997,-0.002807489363476634,-0.041519682854413986
1790592438922013400,2.977013427734375,0.07597587257623672,0.009699780493974686,-0.030032940208911896
1790592438932026600,2.987026611328125,0.06837840378284454,0.011602342128753662,0.022036388516426086
1790592438942039600,2.99703955078125,0.04552182927727699,0.00963213574141264,0.07713080197572708
1790592438952052500,3.007052490234375,0.01469547487795353,0.018598733469843864,0.09891598671674728
1790592438962065700,3.017065673828125,0.00034396571572870016,0.03651728108525276,0.053926143795251846
1790592438972078600,3.02707861328125,0.004025253001600504,0.04848526045680046,-0.043989766389131546
1790592438982091800,3.037091796875,-0.05084864795207977,0.09729035198688507,-0.18653732538223267
1790592438992104400,3.0471044921875,-0.03815309330821037,0.10943809151649475,-0.2438104748725891
1790592439002117400,3.057117431640625,-0.010465272702276707,0.10080385953187943,-0.23190107941627502
1790592439012129500,3.067129638671875,-0.03018810972571373,0.12535473704338074,-0.20549529790878296
1790592439022142500,3.077142578125,-0.05328037962317467,0.15732412040233612,-0.19837559759616852
1790592439032155400,3.0871552734375,-0.051467832177877426,0.14847257733345032,-0.222304105758667
1790592439042168300,3.097168212890625,-0.03542255237698555,0.13858665525913239,-0.24461978673934937
1790592439052181500,3.107181396484375,-0.009837298654019833,0.13284142315387726,-0.24650424718856812
1790592439062194700,3.117194580078125,0.006572300568223,0.09751059114933014,-0.20430885255336761
1790592439072207400,3.127207275390625,-0.0007063850644044578,0.0909043550491333,-0.11859103292226791
1790592439082220500,3.137220458984375,-0.03436234965920448,0.07051519304513931,-0.018099313601851463
1790592439092232400,3.147232421875,-0.07832341641187668,0.06199361011385918,0.0720958262681961
1790592439102245600,3.15724560546875,-0.13402876257896423,0.13719169795513153,0.08303209394216537
1790592439112258600,3.167258544921875,-0.1755106896162033,0.17474040389060974,0.08749715238809586
1790592439122271500,3.177271484375,-0.17833124101161957,0.18567773699760437,0.06400994211435318
1790592439132284400,3.187284423828125,-0.15369699895381927,0.16070634126663208,0.02878616936504841
1790592439142297600,3.197297607421875,-0.13927625119686127,0.13257856667041779,-0.0942300334572792
1790592439152310300,3.207310302734375,-0.17151355743408203,0.21143503487110138,-0.22219064831733704
1790592439162323500,3.217323486328125,-0.28482624888420105,0.32419565320014954,-0.2602946162223816
1790592439172336600,3.227336669921875,-0.3749969005584717,0.2859806418418884,-0.18200328946113586
1790592439182348500,3.2373486328125,-0.37711837887763977,0.2524285316467285,-0.04068558290600777
1790592439192361500,3.247361572265625,-0.3205304741859436,0.21805085241794586,0.02157965674996376
1790592439202374400,3.25737451171875,-0.24427856504917145,0.18897685408592224,-0.03292486444115639
1790592439212387600,3.2673876953125,-0.22625668346881866,0.18946342170238495,-0.16541844606399536
1790592439222400500,3.277400390625,-0.2632666528224945,0.24532721936702728,-0.26588886976242065
1790592439232413400,3.287413330078125,-0.33432990312576294,0.2998482584953308,-0.2692958414554596
1790592439242426400,3.29742626953125,-0.33678585290908813,0.2534346878528595,-0.2885749936103821
1790592439252439600,3.307439453125,-0.2843993306159973,0.22801074385643005,-0.319192498922348
1790592439262452500,3.317452392578125,-0.26276299357414246,0.25703492760658264,-0.28270530700683594
1790592439272464600,3.327464599609375,-0.2790732681751251,0.2825346887111664,-0.05617149546742439
1790592439282477300,3.337477294921875,-0.2529258131980896,0.210025355219841,0.2236897200345993
1790592439292490500,3.347490478515625,-0.19295063614845276,0.07471413910388947,0.4289642870426178
1790592439302503700,3.357503662109375,-0.22727052867412567,0.11209213733673096,0.4925898611545563
1790592439312516400,3.367516357421875,-0.27236661314964294,0.13166742026805878,0.31901994347572327
1790592439322529500,3.377529541015625,-0.35852840542793274,0.18893231451511383,0.058074384927749634
1790592439332542500,3.38754248046875,-0.3903675675392151,0.23050425946712494,-0.053473979234695435
1790592439342555600,3.3975556640625,-0.41529953479766846,0.2561715245246887,-0.035667020827531815
1790592439352568300,3.407568359375,-0.4383971393108368,0.1882697194814682,0.09287550300359726
1790592439362580500,3.41758056640625,-0.4620356261730194,0.13667763769626617,0.254403680562973
1790592439372593400,3.427593505859375,-0.4941810369491577,0.17170165479183197,0.30532464385032654
1790592439382606600,3.437606689453125,-0.5064315795898438,0.20614778995513916,0.19598086178302765
1790592439392619300,3.447619384765625,-0.5150519609451294,0.23137351870536804,0.012123936787247658
1790592439402632400,3.457632568359375,-0.5022032856941223,0.2016236037015915,-0.04643045365810394
1790592439412645600,3.467645751953125,-0.46767035126686096,0.15419644117355347,0.10580142587423325
1790592439422658600,3.477658447265625,-0.44209975004196167,0.13916262984275818,0.3376295864582062
1790592439432671500,3.48767138671875,-0.4275357127189636,0.11215338855981827,0.5398245453834534
1790592439442684400,3.497684326171875,-0.4395841062068939,0.06736674159765244,0.6067412495613098
1790592439452696600,3.507696533203125,-0.4387572109699249,0.08331108838319778,0.4973635971546173
1790592439462709500,3.51770947265625,-0.43463781476020813,0.07705771923065186,0.3446558117866516
1790592439472722400,3.527722412109375,-0.40953779220581055,0.06607537716627121,0.30782800912857056
1790592439482735400,3.5377353515625,-0.3255094885826111,0.018702000379562378,0.30436164140701294
1790592439492748500,3.54774853515625,-0.2585006058216095,0.00932713970541954,0.24064207077026367
1790592439502761500,3.557761474609375,-0.2091735452413559,0.029800990596413612,0.10612180083990097
1790592439512774400,3.5677744140625,-0.153485506772995,0.03225322812795639,-0.021827640011906624
1790592439522787600,3.57778759765625,-0.11475436389446259,0.07825987040996552,-0.05628254637122154
1790592439532800500,3.587800537109375,-0.07398243248462677,0.12070240080356598,-0.11182037740945816
1790592439542812700,3.597812744140625,-0.06847342103719711,0.1560920774936676,-0.17067356407642365
1790592439552825300,3.607825439453125,-0.07829435914754868,0.1264532208442688,-0.14919890463352203
1790592439562838500,3.617838623046875,-0.10962271690368652,0.04171357676386833,-0.007200493011623621
1790592439572851500,3.6278515625,-0.12758147716522217,0.017478810623288155,0.11766021698713303
1790592439582864600,3.63786474609375,-0.1328185796737671,0.02214147336781025,0.08277387171983719
1790592439592877300,3.647877197265625,-0.11442413181066513,0.015978386625647545,-0.02481011487543583
1790592439602890500,3.657890380859375,-0.08330696076154709,0.02642250433564186,-0.10044229030609131
1790592439612903400,3.6679033203125,-0.022393278777599335,0.02965984307229519,-0.12927180528640747
1790592439622916400,3.677916259765625,0.0392967164516449,0.03686369210481644,-0.11121051758527756
1790592439632929500,3.687929443359375,0.08391931653022766,0.024464016780257225,-0.05302843451499939
1790592439642941400,3.69794140625,0.11443834006786346,0.01781357079744339,0.030878715217113495
1790592439652954600,3.70795458984375,0.12759675085544586,0.009314090944826603,0.10979989171028137
1790592439662967600,3.717967529296875,0.13443441689014435,0.008795307017862797,0.15937571227550507
1790592439672980500,3.72798046875,0.13868029415607452,0.02948593907058239,0.11036448180675507
1790592439682993400,3.737993408203125,0.12412372976541519,0.039142027497291565,0.03592061251401901
1790592439693006600,3.748006591796875,0.09237751364707947,0.057259779423475266,0.014440620318055153
1790592439703019300,3.758019287109375,0.06319299340248108,0.0564483143389225,0.03145715594291687
1790592439713032400,3.768032470703125,0.048786360770463943,0.044923219829797745,0.04577058181166649
1790592439723045600,3.778045654296875,0.03772944584488869,0.04351813346147537,0.040572624653577805
1790592439733057500,3.7880576171875,0.04960767924785614,0.03519415855407715,0.01851046271622181
1790592439743070500,3.798070556640625,0.07648216933012009,0.02581849880516529,-0.04460964724421501
1790592439753083400,3.80808349609375,0.11965467780828476,-0.0036874613724648952,-0.18015256524085999
1790592439763096600,3.8180966796875,0.15575729310512543,-0.022459816187620163,-0.38623782992362976
1790592439773109500,3.828109619140625,0.18849366903305054,-0.02804846130311489,-0.6040337681770325
1790592439783122400,3.838122314453125,0.21476495265960693,-0.0427914522588253,-0.7631317973136902
1790592439793135400,3.84813525390625,0.2577153444290161,-0.07290088385343552,-0.8257017135620117
1790592439803148500,3.8581484375,0.3095708191394806,-0.13130854070186615,-0.7621448636054993
1790592439813161500,3.868161376953125,0.3527398705482483,-0.1747516244649887,-0.5755137205123901
1790592439823173600,3.878173583984375,0.4068656861782074,-0.29902324080467224,-0.24948610365390778
1790592439833186300,3.888186279296875,0.5215626955032349,-0.47781190276145935,0.22272752225399017
1790592439843199500,3.898199462890625,0.6080533862113953,-0.5084217190742493,0.6764915585517883
1790592439853212400,3.90821240234375,0.5774565935134888,-0.4350428581237793,0.9419378638267517
1790592439863225300,3.918225341796875,0.40417322516441345,-0.4147312045097351,1.0107672214508057
1790592439873238500,3.928238525390625,0.3507171869277954,-0.28847047686576843,0.9365338087081909
1790592439883251500,3.93825146484375,0.2282184362411499,-0.20451217889785767,0.7329596281051636
1790592439893264600,3.9482646484375,0.10874050855636597,-0.16484759747982025,0.4557996392250061
1790592439903277300,3.95827734375,-0.021508842706680298,-0.03840949013829231,0.09870143979787827
1790592439913289500,3.96828955078125,-0.04446529224514961,0.05175502598285675,-0.21090833842754364
1790592439923302400,3.978302490234375,0.005742752458900213,0.05188605189323425,-0.348224937915802
1790592439933315600,3.988315673828125,0.0330425500869751,0.032287050038576126,-0.34147462248802185
1790592439943328300,3.998328369140625,0.03593554347753525,0.013507504016160965,-0.24322979152202606
1790592439953341400,4.008341552734375,0.021999485790729523,0.004728127736598253,-0.10397844016551971
1790592439963354600,4.018354736328125,-0.006490477826446295,-0.007664625998586416,0.038883112370967865
1790592439973367600,4.028367431640625,-0.02164546214044094,-0.021932244300842285,0.1235537901520729
1790592439983380500,4.03838037109375,-0.015332705341279507,-0.021866464987397194,0.12090633809566498
1790592439993394200,4.048394287109375,-0.009364827536046505,-0.01570471003651619,0.057374507188797
1790592440003406300,4.05840625,-0.01312574278563261,-0.002946037333458662,-0.027534527704119682
1790592440013419300,4.068419189453125,-0.010878567583858967,-0.0011249678209424019,-0.07578914612531662
1790592440023432200,4.07843212890625,-0.006267304997891188,-0.013642357662320137,-0.05989779159426689
1790592440033445000,4.088445068359375,-0.007788768503814936,-0.024745341390371323,-0.007621272001415491
1790592440043458300,4.098458251953125,-0.013404576107859612,-0.04104495421051979,0.041061047464609146
1790592440053471000,4.108470947265625,-0.020527467131614685,-0.05218655243515968,0.047675538808107376
1790592440063484200,4.118484130859375,-0.025295058265328407,-0.05666758865118027,0.011511409655213356
1790592440073497300,4.128497314453125,-0.03668886050581932,-0.0523412823677063,-0.02853960357606411
1790592440083510300,4.13851025390625,-0.03006238304078579,-0.04770525172352791,-0.04334571212530136
1790592440093523200,4.148523193359375,-0.013838671147823334,-0.04502025246620178,-0.022316595539450645
1790592440103535000,4.15853515625,-0.003636634210124612,-0.047751057893037796,0.008406163193285465
1790592440113548300,4.16854833984375,-0.0047200084663927555,-0.044674839824438095,0.021249523386359215
1790592440123561200,4.178561279296875,-0.0012810681946575642,-0.03338010981678963,0.009678355418145657
1790592440133574100,4.18857421875,0.014710947871208191,-0.022997509688138962,-0.010180037468671799
1790592440143587000,4.198587158203125,0.025364389643073082,-0.024468906223773956,-0.006454541813582182
1790592440153600300,4.208600341796875,0.024908723309636116,-0.03602302819490433,0.002986630890518427
1790592440163613200,4.21861328125,0.02480832301080227,-0.046845585107803345,0.011180911213159561
1790592440173626000,4.228626220703125,0.025384897366166115,-0.05224887281656265,0.009614972397685051
1790592440183639300,4.238639404296875,0.029709869995713234,-0.04681149497628212,0.0060234335251152515
1790592440193651200,4.248651123046875,0.038795776665210724,-0.03560891002416611,0.003013262525200844
1790592440203664100,4.2586640625,0.04780897870659828,-0.029347550123929977,0.0044258031994104385
1790592440213677000,4.268677001953125,0.05044124647974968,-0.023853981867432594,0.006744084879755974
1790592440223690200,4.278690185546875,0.05729436129331589,-0.013295614160597324,0.007352084387093782
1790592440233703200,4.288703125,0.06855474412441254,-0.009858272038400173,0.0026430832222104073
1790592440243716400,4.29871630859375,0.07932136952877045,-0.011670553125441074,0.003733381163328886
1790592440253729000,4.30872900390625,0.07967596501111984,-0.021203014999628067,0.011914997361600399
1790592440263742200,4.3187421875,0.0843181163072586,-0.02778688259422779,0.015665793791413307
1790592440273755100,4.328755126953125,0.09055311232805252,-0.02585049718618393,0.014487344771623611
1790592440283767300,4.338767333984375,0.10015273839235306,-0.017453018575906754,0.015774983912706375
1790592440293780000,4.348780029296875,0.10330725461244583,-0.011039060540497303,0.013864165171980858
1790592440303793200,4.358793212890625,0.1018957793712616,-0.0044615850783884525,0.007678174413740635
1790592440313806300,4.368806396484375,0.10413336753845215,0.00032384911901317537,0.0024043163284659386
1790592440323819300,4.3788193359375,0.11393006891012192,0.002002706052735448,0.009692855179309845
1790592440333832200,4.388832275390625,0.11938183009624481,0.00009748045704327524,0.01815425232052803
1790592440343845000,4.39884521484375,0.11971952021121979,-0.003203773871064186,0.018466640263795853
1790592440353858300,4.4088583984375,0.1198635920882225,-0.010334387421607971,0.010668638162314892
1790592440363871000,4.41887109375,0.12116961181163788,-0.01828072778880596,0.0033268355764448643
1790592440373883100,4.428883056640625,0.12704026699066162,-0.02157505974173546,0.007345279213041067
1790592440383896000,4.43889599609375,0.1358763724565506,-0.021907953545451164,0.011510463431477547
1790592440393909200,4.4489091796875,0.13774192333221436,-0.015201314352452755,0.017992330715060234
1790592440403922200,4.458922119140625,0.13694296777248383,-0.006492777727544308,0.015568587929010391
1790592440413935000,4.46893505859375,0.13578583300113678,0.0059766750782728195,0.007384960539638996
1790592440423948300,4.4789482421875,0.14191029965877533,0.018873831257224083,0.0027657076716423035
1790592440433961200,4.488961181640625,0.15283459424972534,0.02636929787695408,0.012532850727438927
1790592440443974100,4.49897412109375,0.1631530076265335,0.028022320941090584,0.021241120994091034
1790592440453987000,4.508987060546875,0.16652163863182068,0.026399657130241394,0.019095145165920258
1790592440464000300,4.519000244140625,0.16021233797073364,0.025144243612885475,0.010612178593873978
1790592440474012200,4.52901220703125,0.15419572591781616,0.026283277198672295,0.004714875016361475
1790592440484025300,4.539025390625,0.15888209640979767,0.028322992846369743,0.010151452384889126
1790592440494038000,4.5490380859375,0.16779516637325287,0.028342433273792267,0.018615510314702988
1790592440504051200,4.55905126953125,0.17588584125041962,0.02926681563258171,0.017636533826589584
1790592440514064100,4.569064208984375,0.17880919575691223,0.031344346702098846,0.010334411635994911
1790592440524077000,4.5790771484375,0.1774267554283142,0.03223118185997009,0.002046387642621994
1790592440534090200,4.58909033203125,0.17922838032245636,0.0334775410592556,0.0051183439791202545
1790592440544103200,4.599103271484375,0.1906442791223526,0.02847585827112198,0.015463126823306084
1790592440554116400,4.609116455078125,0.20136164128780365,0.016959017142653465,0.025457704439759254
1790592440564128300,4.619128173828125,0.2074059545993805,0.0029510576277971268,0.024626797065138817
1790592440574141200,4.62914111328125,0.23841287195682526,-0.0420483760535717,-0.041281379759311676
1790592440584154000,4.639154052734375,0.31566503643989563,-0.12296346575021744,-0.04251947999000549
1790592440594167300,4.649167236328125,0.34629806876182556,-0.23980379104614258,0.016450893133878708
1790592440604180200,4.65918017578125,0.24128535389900208,-0.2571130096912384,0.09236963093280792
1790592440614193200,4.669193115234375,0.0903531089425087,-0.2406134009361267,0.07883304357528687
1790592440624206000,4.6792060546875,0.09609195590019226,-0.13518337905406952,0.011482499539852142
1790592440634219300,4.68921923828125,0.2986045777797699,-0.1026051938533783,-0.02541319839656353
1790592440644232200,4.699232177734375,0.39112144708633423,-0.16499054431915283,-0.017262328416109085
1790592440654245000,4.7092451171875,0.2890307605266571,-0.24933737516403198,0.05520094931125641
1790592440664257300,4.71925732421875,0.14740467071533203,-0.27556312084198,0.08872935175895691
1790592440674270200,4.729270263671875,0.1941756308078766,-0.2356005311012268,0.060366950929164886
1790592440684283100,4.739283203125,0.3480759859085083,-0.19187168776988983,0.031165923923254013
1790592440694296000,4.749296142578125,0.3483518958091736,-0.15094023942947388,0.06393984705209732
1790592440704309200,4.759309326171875,0.2246760129928589,-0.10224966704845428,0.10193011164665222
1790592440714322200,4.769322265625,0.22570081055164337,-0.009882981888949871,0.07416026294231415
1790592440724335000,4.779335205078125,0.35558316111564636,0.0845700204372406,0.029652182012796402
1790592440734348300,4.789348388671875,0.42073261737823486,0.12319117784500122,-0.002496432512998581
1790592440744361200,4.799361328125,0.3754327893257141,0.13081634044647217,0.0040347035974264145
1790592440754373000,4.809373046875,0.26325297355651855,0.14342667162418365,0.05256335437297821
1790592440764386300,4.81938623046875,0.23425008356571198,0.18931055068969727,0.0936303660273552
1790592440774399200,4.829399169921875,0.3178589642047882,0.25184741616249084,0.0855327621102333
1790592440784412200,4.839412109375,0.3623129725456238,0.29323267936706543,0.0373401939868927
1790592440794425300,4.84942529296875,0.3325958251953125,0.3226267993450165,0.011698748916387558
1790592440804438000,4.85943798828125,0.2785022258758545,0.34206998348236084,0.015042879618704319
1790592440814451200,4.869451171875,0.21547986567020416,0.37759682536125183,0.04852334409952164
1790592440824464100,4.879464111328125,0.22128155827522278,0.4137322008609772,0.04630573093891144
1790592440834477300,4.889477294921875,0.24550700187683105,0.4297676384449005,0.010823367163538933
1790592440844489200,4.8994892578125,0.22659189999103546,0.4324318468570709,-0.005420050583779812
1790592440854502100,4.909502197265625,0.17930720746517181,0.42764216661453247,-0.0031068287789821625
1790592440864515000,4.91951513671875,0.11261287331581116,0.4342838227748871,0.01194802112877369
1790592440874528300,4.9295283203125,0.09126950055360794,0.42060795426368713,0.025227872654795647
1790592440884541200,4.939541259765625,0.1256522387266159,0.38291624188423157,0.023418255150318146
1790592440894554000,4.94955419921875,0.13566811382770538,0.32245102524757385,0.0117959538474679
1790592440904567300,4.9595673828125,0.11577777564525604,0.25228896737098694,0.007493351120501757
1790592440914580200,4.969580322265625,0.085931196808815,0.20427565276622772,0.01387535035610199
1790592440924593200,4.97959326171875,0.06736070662736893,0.16289864480495453,0.02277590148150921
1790592440934606000,4.989606201171875,0.04036423936486244,0.11607708036899567,0.022974839434027672
1790592440944618200,4.9996181640625,0.012089458294212818,0.0643201395869255,0.015462594106793404
1790592440954631200,5.009631103515625,0.0030056817922741175,0.008045418187975883,0.00032492028549313545
1790592440964644000,5.01964404296875,0.01827438361942768,-0.05441929027438164,-0.012521635740995407
1790592440974657300,5.0296572265625,0.009289409965276718,-0.12067021429538727,-0.024544743821024895
1790592440984670200,5.039670166015625,-0.02819138579070568,-0.16748672723770142,-0.022612087428569794
1790592440994683100,5.04968310546875,-0.05135449394583702,-0.1912144273519516,-0.010354887694120407
1790592441004696000,5.059696044921875,-0.04004005715250969,-0.19243095815181732,-0.0016641942784190178
1790592441014709000,5.069708984375,-0.0018575165886431932,-0.19251510500907898,0.0037705181166529655
1790592441024722200,5.07972216796875,0.027373339980840683,-0.1935550719499588,0.0012775328941643238
1790592441034734800,5.08973486328125,0.03325652703642845,-0.19945530593395233,-0.010520536452531815
1790592441044747000,5.0997470703125,0.027398904785513878,-0.19209380447864532,-0.016960060223937035
1790592441054760000,5.109760009765625,0.023755967617034912,-0.17131635546684265,-0.0008130483329296112
1790592441064773000,5.119773193359375,0.027875611558556557,-0.14290015399456024,0.025887537747621536
1790592441074786000,5.1297861328125,0.039123471826314926,-0.11444614082574844,0.03155580908060074
1790592441084799000,5.139799072265625,0.050614479929208755,-0.08247196674346924,0.00406905822455883
1790592441094812200,5.149812255859375,0.06658519059419632,-0.04579544439911842,-0.03503759950399399
1790592441104825000,5.1598251953125,0.08037024736404419,-0.015516899526119232,-0.038811564445495605
1790592441114838000,5.169838134765625,0.08266802132129669,-0.0008295659208670259,-0.008573499508202076
1790592441124851000,5.179850830078125,0.0749826729297638,0.005481593310832977,0.027381571009755135
1790592441134863000,5.189863037109375,0.07070484012365341,0.01181538961827755,0.037067219614982605
1790592441144876000,5.1998759765625,0.07795315980911255,0.02552773803472519,0.0246539618819952
1790592441154889200,5.20988916015625,0.0984019786119461,0.0428025983273983,0.01297094114124775
1790592441164902000,5.21990185546875,0.11738073080778122,0.049748655408620834,0.016196560114622116
1790592441174915000,5.2299150390625,0.12125243246555328,0.05964309722185135,0.005003828089684248
1790592441184928000,5.239927978515625,0.12304393947124481,0.07155674695968628,-0.00905606523156166
1790592441194941000,5.24994091796875,0.1118200495839119,0.06874950975179672,-0.014356287196278572
1790592441204954000,5.2599541015625,0.09837215393781662,0.0563514307141304,0.008289636112749577
1790592441214967000,5.269967041015625,0.0888497531414032,0.03023594059050083,0.0450441911816597
1790592441224980200,5.279980224609375,0.1007532849907875,0.005558292381465435,0.06087854504585266
1790592441234992000,5.2899921875,0.11626966297626495,-0.007740735076367855,0.03344425559043884
1790592441245005000,5.300005126953125,0.12280292809009552,-0.00635722279548645,-0.02457909844815731
1790592441255018000,5.31001806640625,0.12185323238372803,-0.003765358356758952,-0.05741399526596069
1790592441265031200,5.32003125,0.11258276551961899,-0.00615048548206687,-0.036646924912929535
1790592441275043800,5.3300439453125,0.10216501355171204,-0.018699301406741142,0.017076488584280014
1790592441285057000,5.34005712890625,0.10274957865476608,-0.03353017941117287,0.05034656077623367
1790592441295070200,5.3500703125,0.12110381573438644,-0.042960964143276215,0.03906221687793732
1790592441305083100,5.360083251953125,0.1344800889492035,-0.04714718833565712,-0.0018865503370761871
1790592441315096000,5.370095947265625,0.14345307648181915,-0.03422526270151138,-0.03488790988922119
1790592441325109000,5.38010888671875,0.13614588975906372,-0.014701629057526588,-0.024016354233026505
1790592441335121200,5.39012109375,0.11300301551818848,-0.0009533264674246311,0.01734093949198723
1790592441345134000,5.400134033203125,0.10803142935037613,0.014577697031199932,0.03444881737232208
1790592441355147000,5.41014697265625,0.12489083409309387,0.03307494893670082,0.005643537268042564
1790592441365160000,5.420159912109375,0.13216926157474518,0.03548510745167732,-0.0077516306191682816
1790592441375173000,5.430173095703125,0.14299340546131134,0.03492610901594162,-0.006188620813190937
1790592441385186000,5.44018603515625,0.1561872512102127,0.04383997619152069,0.001188335008919239
1790592441395199000,5.450198974609375,0.1478094756603241,0.06002800166606903,0.01006624847650528
1790592441405212200,5.460212158203125,0.13960160315036774,0.08783832937479019,0.0057950709015131
1790592441415225000,5.47022509765625,0.13935233652591705,0.11150477081537247,-0.0017816219478845596
1790592441425237000,5.480237060546875,0.140008807182312,0.12475799024105072,0.020762037485837936
1790592441435250000,5.49025,0.1380748152732849,0.12477424740791321,0.04221033304929733
1790592441445263000,5.50026318359375,0.14108818769454956,0.12382721900939941,0.011291835457086563
1790592441455276000,5.510276123046875,0.15867464244365692,0.13971324265003204,-0.050618939101696014
1790592441465289200,5.520289306640625,0.16754935681819916,0.13968715071678162,-0.0617099404335022
1790592441475302000,5.530302001953125,0.16607050597667694,0.13083027303218842,-0.02183016575872898
1790592441485315000,5.540315185546875,0.15077783167362213,0.12056378275156021,0.039109885692596436
1790592441495328000,5.550327880859375,0.11963401734828949,0.1123918741941452,0.07222149521112442
1790592441505341000,5.5603408203125,0.11798472702503204,0.12496785819530487,0.03306291252374649
1790592441515353000,5.57035302734375,0.1409158855676651,0.14254790544509888,-0.028003638610243797
1790592441525366000,5.580365966796875,0.14416652917861938,0.14551441371440887,-0.0464249923825264
1790592441535379200,5.590379150390625,0.14360859990119934,0.14079155027866364,-0.030558941885828972
1790592441545392000,5.60039208984375,0.14226050674915314,0.13292084634304047,0.012441787868738174
1790592441555405000,5.610405029296875,0.13654589653015137,0.12978710234165192,0.04044226557016373
1790592441565418000,5.62041796875,0.1270757019519806,0.13472913205623627,0.06324957311153412
1790592441575431200,5.63043115234375,0.11659588664770126,0.12509915232658386,0.05609899014234543
1790592441585444000,5.640444091796875,0.132372185587883,0.12940068542957306,0.002960935002192855
1790592441595457000,5.65045703125,0.14498092234134674,0.13249394297599792,-0.07002512365579605
1790592441605470000,5.660469970703125,0.13433654606342316,0.1451610028743744,-0.09460770338773727
1790592441615482000,5.670482177734375,0.12412384152412415,0.15005403757095337,-0.032020486891269684
1790592441625495000,5.6804951171875,0.11868993192911148,0.1528831124305725,0.07529877871274948
1790592441635508000,5.690508056640625,0.10503430664539337,0.1541726142168045,0.14542195200920105
1790592441645521200,5.700521240234375,0.1075347438454628,0.16390539705753326,0.11307039111852646
1790592441655534000,5.7105341796875,0.1238359585404396,0.18530257046222687,-0.006531369872391224
1790592441665547000,5.720547119140625,0.12373608350753784,0.20930004119873047,-0.1154855489730835
1790592441675560000,5.730559814453125,0.10186673700809479,0.2186266928911209,-0.1189415380358696
1790592441685573000,5.740572998046875,0.08628511428833008,0.21883176267147064,-0.016240989789366722
1790592441695586000,5.7505859375,0.07784822583198547,0.2118619978427887,0.11232949793338776
1790592441705599000,5.760598876953125,0.06720543652772903,0.217232808470726,0.15290117263793945
1790592441715611000,5.77061083984375,0.07907407730817795,0.23270337283611298,0.06605441868305206
1790592441725624000,5.7806240234375,0.09494278579950333,0.25956666469573975,-0.07610059529542923
1790592441735637000,5.790636962890625,0.08835146576166153,0.2720814049243927,-0.1313217729330063
1790592441745650200,5.800650146484375,0.06811969727277756,0.2598226070404053,-0.07219506800174713
1790592441755663000,5.8106630859375,0.04581731930375099,0.23946087062358856,0.02468940056860447
1790592441765676000,5.820676025390625,0.013871904462575912,0.20966409146785736,0.13784578442573547
1790592441775689200,5.830689208984375,0.0077101485803723335,0.19020038843154907,0.11387386918067932
1790592441785702000,5.840701904296875,0.0325545109808445,0.22359909117221832,0.054153814911842346
1790592441795715000,5.850715087890625,0.08410398662090302,0.2364717423915863,-0.015839118510484695
1790592441805728000,5.86072802734375,0.13863354921340942,0.2466234415769577,-0.037348672747612
1790592441815740200,5.870740234375,0.1207839697599411,0.21972152590751648,-0.027808161452412605
1790592441825753000,5.880753173828125,0.052950598299503326,0.23437637090682983,0.016218151897192
1790592441835766000,5.89076611328125,-0.009230751544237137,0.15760329365730286,0.11732665449380875
1790592441845779000,5.900779052734375,-0.0972900390625,0.2083040177822113,-0.07930970191955566
1790592441855792000,5.910792236328125,-0.015430323779582977,0.276806116104126,0.10437463968992233
1790592441865805000,5.92080517578125,0.11556284874677658,0.16869190335273743,0.2507275938987732
1790592441875818000,5.93081787109375,0.1898176372051239,0.14538924396038055,0.20550686120986938
1790592441885831200,5.9408310546875,0.1588623970746994,0.11145204305648804,0.17174330353736877
1790592441895844000,5.950843994140625,0.027369337156414986,0.10319145023822784,-0.10900874435901642
1790592441905856300,5.960856201171875,-0.1121629923582077,0.22640445828437805,-0.04255861043930054
1790592441915869000,5.970868896484375,-0.07214100658893585,0.18130356073379517,0.014813067391514778
1790592441925882000,5.980882080078125,0.08366723358631134,0.1306140273809433,0.09977402538061142
1790592441935895000,5.99089501953125,0.10742289572954178,0.057346995919942856,0.03306024521589279
1790592441945908000,6.000907958984375,0.006758334580808878,0.09040588140487671,-0.0883956104516983
1790592441955921000,6.0109208984375,-0.03036453202366829,0.12519314885139465,-0.1269451230764389
1790592441965934000,6.02093408203125,0.0049862670712172985,0.1135207861661911,-0.1266748160123825
1790592441975947300,6.030947265625,0.03150549530982971,0.11586623638868332,-0.07957868278026581
1790592441985960000,6.0409599609375,0.005578021518886089,0.09072359651327133,-0.04973636567592621
1790592441995972600,6.05097265625,-0.041885100305080414,0.07279093563556671,0.04718645662069321
1790592442005984800,6.06098486328125,-0.08278379589319229,0.06054545193910599,0.10148457437753677
1790592442015997700,6.070997802734375,-0.07581723481416702,0.06835916638374329,0.10364386439323425
1790592442026010600,6.0810107421875,-0.04656081274151802,0.06231379508972168,0.024822557345032692
1790592442036023600,6.0910234375,-0.0787815973162651,0.08189841359853745,-0.06368467211723328
1790592442046036700,6.10103662109375,-0.1683351844549179,0.08825298398733139,-0.08164263516664505
1790592442056050000,6.1110498046875,-0.2493554651737213,0.08386009931564331,-0.0069513507187366486
1790592442066062600,6.1210625,-0.24643291532993317,0.07680884748697281,0.1052984893321991
1790592442076075800,6.13107568359375,-0.1905195713043213,0.05510488152503967,0.1752738505601883
1790592442086088700,6.141088623046875,-0.1560225784778595,-0.011254965327680111,0.12313500791788101
1790592442096102000,6.151101806640625,-0.1494395136833191,-0.051089197397232056,-0.0012545827776193619
1790592442106113800,6.16111376953125,-0.108741894364357,-0.016306983307003975,-0.16029536724090576
1790592442116126700,6.171126708984375,-0.05655299499630928,-0.007751045282930136,-0.14297442138195038
1790592442126139600,6.1811396484375,-0.04462096840143204,-0.041106872260570526,0.07236770540475845
1790592442136152800,6.19115283203125,-0.15174421668052673,-0.1250491738319397,0.4407840967178345
1790592442146165500,6.20116552734375,-0.49191510677337646,-0.11596859246492386,0.7851033806800842
1790592442156178700,6.2111787109375,-0.7140669226646423,-0.11271367967128754,0.872024655342102
1790592442166191900,6.22119189453125,-0.6819146275520325,-0.20670808851718903,0.9188486337661743
1790592442176204800,6.231204833984375,-0.28396084904670715,-0.22964775562286377,0.549688458442688
1790592442186217700,6.2412177734375,0.24646946787834167,-0.10668135434389114,0.12994684278964996
1790592442196229600,6.251229736328125,0.4760230481624603,-0.06855474412441254,-0.039190515875816345
1790592442206242800,6.261242919921875,0.3186611235141754,-0.08952394127845764,-0.11167137324810028
1790592442216255700,6.271255859375,-0.03695132955908775,-0.021164055913686752,-0.21259264647960663
1790592442226268700,6.2812685546875,-0.31555870175361633,0.09218860417604446,-0.3521856963634491
1790592442236281600,6.291281494140625,-0.40175139904022217,0.06515271961688995,-0.3029387891292572
1790592442246294800,6.301294677734375,-0.3440191149711609,0.018003053963184357,-0.1136130839586258
1790592442256307700,6.3113076171875,-0.26827144622802734,-0.06987929344177246,0.15243549644947052
1790592442266320600,6.321320556640625,-0.3002198040485382,-0.04851169139146805,0.21778734028339386
1790592442276333800,6.331333740234375,-0.3164623975753784,-0.03166133910417557,0.04761721193790436
1790592442286346800,6.3413466796875,-0.2538003623485565,0.012990820221602917,-0.17752057313919067
1790592442296359000,6.35135888671875,-0.21023955941200256,-0.04021114856004715,-0.17540708184242249
1790592442306371600,6.36137158203125,-0.26427483558654785,-0.14565075933933258,-0.05306997895240784
1790592442316384800,6.371384765625,-0.36216145753860474,-0.25573864579200745,-0.023582130670547485
1790592442326397700,6.381397705078125,-0.34920838475227356,-0.32338079810142517,-0.08966128528118134
1790592442336411000,6.391410888671875,-0.2748401463031769,-0.3960731029510498,-0.1818801611661911
1790592442346423600,6.401423583984375,-0.23559178411960602,-0.40507006645202637,-0.16359063982963562
1790592442356436700,6.411436767578125,-0.24412402510643005,-0.37365540862083435,-0.08156607300043106
1790592442366450000,6.421449951171875,-0.24417461454868317,-0.3126613199710846,-0.0020049335435032845
1790592442376462600,6.431462646484375,-0.21121107041835785,-0.22267097234725952,0.03140415623784065
1790592442386475800,6.441475830078125,-0.16838371753692627,-0.13074956834316254,0.07313908636569977
1790592442396487700,6.45148779296875,-0.15358613431453705,-0.0473199263215065,0.07118592411279678
1790592442406500900,6.4615009765625,-0.15335123240947723,0.019794929772615433,0.059033915400505066
1790592442416513800,6.471513671875,-0.133677139878273,0.07953575998544693,0.05019728094339371
1790592442426526700,6.481526611328125,-0.07826580852270126,0.17376719415187836,0.02772020548582077
1790592442436539600,6.49153955078125,-0.011125920340418816,0.2704753577709198,-0.002232101745903492
1790592442446552800,6.501552734375,-0.007820937782526016,0.3546608090400696,0.05538911372423172
1790592442456565500,6.5115654296875,-0.035795580595731735,0.41109079122543335,0.08275415748357773
1790592442466578700,6.52157861328125,-0.021249394863843918,0.4654182195663452,0.07640012353658676
1790592442476591900,6.531591796875,0.015166936442255974,0.4637119174003601,0.06291281431913376
1790592442486603800,6.541603759765625,0.040440335869789124,0.4561770558357239,-0.009521439671516418
1790592442496616700,6.55161669921875,0.09291339665651321,0.47792601585388184,-0.0487615168094635
1790592442506629600,6.561629638671875,0.11489725857973099,0.46465280652046204,0.04184001684188843
1790592442516642800,6.571642822265625,0.07506489008665085,0.4660906493663788,0.09704947471618652
1790592442526655700,6.58165576171875,0.06317494064569473,0.5034236311912537,0.05773882567882538
1790592442536668700,6.591668701171875,0.07193514704704285,0.511163055896759,-0.03626703470945358
1790592442546681600,6.601681640625,0.10442597419023514,0.5135292410850525,-0.11500632017850876
1790592442556694800,6.61169482421875,0.164109006524086,0.4595262408256531,-0.16772891581058502
1790592442566707700,6.621707763671875,0.16105996072292328,0.4083977937698364,-0.07774283736944199
1790592442576720000,6.631719970703125,0.1334456354379654,0.3751929700374603,-0.01939164660871029
1790592442586732500,6.641732666015625,0.09249527752399445,0.3272044062614441,0.04993336647748947
1790592442596745700,6.651745849609375,-0.04333179444074631,0.32028257846832275,0.08282659947872162
1790592442606759000,6.661759033203125,-0.13886843621730804,0.3424108028411865,0.046945564448833466
1790592442616771600,6.671771484375,-0.07604153454303741,0.35179126262664795,0.016086185351014137
1790592442626784800,6.68178466796875,-0.04119114577770233,0.32611411809921265,-0.0022603310644626617
1790592442636797700,6.691797607421875,-0.14178140461444855,0.25792813301086426,0.011527120135724545
1790592442646811000,6.701810791015625,-0.1802387833595276,0.2149313986301422,0.022621583193540573
1790592442656823600,6.711823486328125,-0.09542029350996017,0.15496127307415009,0.03709240257740021
1790592442666836700,6.721836669921875,-0.036030471324920654,0.05409005284309387,0.1577807366847992
1790592442676848600,6.7318486328125,-0.06637132912874222,-0.07740112394094467,0.2025868147611618
1790592442686861800,6.74186181640625,-0.09272517263889313,-0.10466709733009338,0.15225866436958313
1790592442696874500,6.75187451171875,-0.13995952904224396,-0.12404319643974304,0.09094231575727463
1790592442706887700,6.7618876953125,-0.1914948970079422,-0.16619384288787842,-0.043621353805065155
1790592442716900900,6.77190087890625,-0.1717158704996109,-0.1607617884874344,-0.18102794885635376
1790592442726913800,6.781913818359375,-0.10822690278291702,-0.19211865961551666,-0.16563381254673004
1790592442736926700,6.7919267578125,-0.10755365341901779,-0.33104750514030457,0.02621125802397728
1790592442746939600,6.801939697265625,-0.13377220928668976,-0.47039929032325745,0.14285904169082642
1790592442756952800,6.811952880859375,-0.14309246838092804,-0.5839980244636536,0.06580261141061783
1790592442766964700,6.82196484375,-0.21188831329345703,-0.6727023720741272,-0.06766916811466217
1790592442776977700,6.831977783203125,-0.3244899809360504,-0.7628445029258728,-0.15642912685871124
1790592442786990600,6.841990478515625,-0.36601904034614563,-0.8174824118614197,-0.14515703916549683
1790592442797003800,6.852003662109375,-0.2945086359977722,-0.8114362359046936,-0.11745696514844894
1790592442807016700,6.8620166015625,-0.2284603714942932,-0.8343096375465393,-0.06487923860549927
1790592442817029600,6.872029541015625,-0.26634731888771057,-0.8578304052352905,-0.02120020054280758
1790592442827042800,6.882042724609375,-0.35194531083106995,-0.8553195595741272,-0.03983007371425629
1790592442837055700,6.8920556640625,-0.3940168619155884,-0.8844074010848999,-0.059442661702632904
1790592442847068700,6.902068603515625,-0.3766826093196869,-0.9469456076622009,-0.06950648128986359
1790592442857080600,6.91208056640625,-0.32793664932250977,-0.9729058146476746,-0.10996229201555252
1790592442867093800,6.92209375,-0.29708153009414673,-1.0035873651504517,-0.12434789538383484
1790592442877106700,6.932106689453125,-0.31704139709472656,-1.0101935863494873,-0.09436975419521332
1790592442887120000,6.942119873046875,-0.3526473045349121,-0.9700935482978821,-0.09236625581979752
1790592442897132500,6.952132568359375,-0.4242413341999054,-0.8896713852882385,-0.10924111306667328
1790592442907145700,6.962145751953125,-0.4433375298976898,-0.7710299491882324,-0.11393573135137558
1790592442917158700,6.97215869140625,-0.361728698015213,-0.7344580888748169,-0.07939133793115616
1790592442927171600,6.982171630859375,-0.2309725284576416,-0.699028491973877,-0.03253354877233505
1790592442937184800,6.992184814453125,-0.17552845180034637,-0.6362301111221313,-0.000263226218521595
1790592442947196700,7.00219677734375,-0.20833805203437805,-0.5790876746177673,0.017648663371801376
1790592442957209900,7.0122099609375,-0.23365619778633118,-0.47329840064048767,0.0242780689150095
1790592442967222800,7.022222900390625,-0.2188791185617447,-0.3790062367916107,0.03366278111934662
1790592442977235700,7.032235595703125,-0.17121225595474243,-0.2918444573879242,0.022942228242754936
1790592442987248600,7.04224853515625,-0.08183737099170685,-0.19315169751644135,-0.012821894139051437
1790592442997261800,7.05226171875,0.04691740870475769,-0.09629359096288681,-0.059221088886260986
1790592443007274800,7.062274658203125,0.12247341871261597,-0.005402834620326757,-0.044706858694553375
1790592443017287700,7.07228759765625,0.15290296077728271,0.09264010936021805,0.02031581848859787
1790592443027300900,7.08230078125,0.19251161813735962,0.17842665314674377,0.09166429936885834
1790592443037312800,7.092312744140625,0.23960644006729126,0.25541332364082336,-0.015254693105816841
1790592443047326000,7.102325927734375,0.2759420573711395,0.40232500433921814,-0.10036665946245193
1790592443057339000,7.1123388671875,0.28164494037628174,0.446081280708313,-0.02739071659743786
1790592443067351800,7.122351806640625,0.32075798511505127,0.463792622089386,0.06055937707424164
1790592443077365000,7.132364990234375,0.31893932819366455,0.48064109683036804,0.11026594787836075
1790592443087377700,7.142377685546875,0.2503509521484375,0.5445409417152405,0.08081112056970596
1790592443097390800,7.152390869140625,0.25746265053749084,0.6254554986953735,0.06814645975828171
1790592443107403800,7.16240380859375,0.2943357229232788,0.6050727367401123,0.022829841822385788
1790592443117417000,7.1724169921875,0.28622451424598694,0.6080405712127686,-0.018056072294712067
1790592443127428900,7.182428955078125,0.2817416191101074,0.5450994372367859,0.015604153275489807
1790592443137441800,7.19244189453125,0.2438935935497284,0.4467627704143524,0.09775122255086899
1790592443147454700,7.202454833984375,0.17784133553504944,0.40409573912620544,0.08217385411262512
1790592443157468000,7.212468017578125,0.15071570873260498,0.42340898513793945,-0.017339682206511497
1790592443167480800,7.222480712890625,0.14951728284358978,0.4289608597755432,-0.04889068007469177
1790592443177493800,7.23249365234375,0.16162773966789246,0.43126797676086426,-0.026575522497296333
1790592443187507000,7.2425068359375,0.15597331523895264,0.403604120016098,0.029057910665869713
1790592443197520000,7.252519775390625,0.12288008630275726,0.3525870144367218,0.08231926709413528
1790592443207532800,7.26253271484375,0.11014670878648758,0.29283684492111206,0.04641852527856827
1790592443217544700,7.272544677734375,0.09661305695772171,0.25960832834243774,0.027797169983386993
1790592443227558000,7.282557861328125,0.051159024238586426,0.22004520893096924,-0.0038001704961061478
1790592443237570800,7.29257080078125,0.028824158012866974,0.2354222983121872,0.001017221249639988
1790592443247583700,7.302583740234375,0.023119933903217316,0.24777962267398834,0.07380913197994232
1790592443257596700,7.3125966796875,0.018442707136273384,0.2810019850730896,0.04434353858232498
1790592443267609900,7.32260986328125,0.01077919639647007,0.33138206601142883,0.04463781788945198
1790592443277623000,7.332623046875,-0.012435578741133213,0.3316443860530853,0.006635574623942375
1790592443287635700,7.3426357421875,-0.05717801675200462,0.28127655386924744,-0.017740072682499886
1790592443297649000,7.35264892578125,-0.07269758731126785,0.21463416516780853,-0.05451859161257744
1790592443307660800,7.362660888671875,-0.05347622185945511,0.1721375733613968,-0.0845196321606636
1790592443317674000,7.372674072265625,0.011385331861674786,0.16136401891708374,-0.05969018489122391
1790592443327687000,7.38268701171875,0.09039226919412613,0.16172941029071808,-0.012749308720231056
1790592443337699800,7.392699951171875,0.11369173228740692,0.19250942766666412,0.07719283550977707
1790592443347712800,7.402712646484375,0.07188037037849426,0.20302730798721313,0.10871640592813492
1790592443357726000,7.412725830078125,0.03960658237338066,0.1906079202890396,0.045981116592884064
1790592443367739000,7.42273876953125,0.027239661663770676,0.1755666583776474,-0.010734094306826591
1790592443377751800,7.432751708984375,0.0000903330510482192,0.11722105741500854,-0.022383825853466988
1790592443387765000,7.442764892578125,0.03213109076023102,0.07189911603927612,-0.02800043486058712
1790592443397777000,7.45277685546875,0.08206376433372498,0.05294566601514816,-0.0567399337887764
1790592443407789800,7.462789794921875,0.08763190358877182,0.04468347504734993,-0.02576817013323307
1790592443417802800,7.472802734375,0.06169430911540985,0.0471050851047039,0.07808179408311844
1790592443427816000,7.48281591796875,0.03751546889543533,0.06140413135290146,0.13527131080627441
1790592443437828900,7.492828857421875,-0.01948763057589531,0.10935354977846146,0.11167570948600769
1790592443447841800,7.502841796875,-0.06822347640991211,0.165002703666687,0.03662623092532158
1790592443457854700,7.512854736328125,-0.07339160144329071,0.18388690054416656,-0.025927161797881126
1790592443467868000,7.522867919921875,-0.08443599939346313,0.1528317928314209,0.009227896109223366
1790592443477880800,7.532880859375,-0.10901963710784912,0.05881527066230774,0.050138045102357864
1790592443487893000,7.54289306640625,-0.13590718805789948,-0.036224957555532455,0.02947750687599182
1790592443497905700,7.55290576171875,-0.13108687102794647,-0.07319016009569168,-0.04925405606627464
1790592443507918800,7.5629189453125,-0.08978975564241409,-0.08282441645860672,-0.1117296814918518
1790592443517932000,7.57293212890625,-0.05975089594721794,-0.09650161117315292,-0.04235193878412247
1790592443527944700,7.58294482421875,-0.09633579850196838,-0.11590433865785599,0.05312611162662506
1790592443537958000,7.5929580078125,-0.0755908414721489,-0.07810236513614655,0.063581682741642
1790592443547970800,7.602970703125,-0.013938133604824543,-0.06512451171875,-0.026779374107718468
1790592443557984000,7.61298388671875,0.003528207540512085,-0.06038275733590126,-0.05102692171931267
1790592443567996000,7.622995849609375,-0.02219926007091999,-0.10009421408176422,0.016621097922325134
1790592443578008800,7.6330087890625,-0.04692085087299347,-0.13237039744853973,0.11571412533521652
1790592443588021800,7.643021728515625,-0.048944320529699326,-0.12804009020328522,0.10640185326337814
1790592443598035000,7.653034912109375,-0.055201418697834015,-0.05717631056904793,0.048518046736717224
1790592443608047900,7.6630478515625,-0.06914093345403671,0.03428356349468231,-0.021383011713624
1790592443618060800,7.673060791015625,-0.06422899663448334,0.1622423380613327,-0.0008234069682657719
1790592443628074000,7.683073974609375,-0.00973566621541977,0.25953957438468933,0.015201365575194359
1790592443638087000,7.6930869140625,0.06600490212440491,0.34028661251068115,0.01924058236181736
1790592443648099800,7.703099853515625,0.12743976712226868,0.39136046171188354,-0.04502202570438385
1790592443658111700,7.71311181640625,0.14380435645580292,0.4195106029510498,-0.04532456025481224
1790592443668125000,7.723125,0.09111345559358597,0.3916374146938324,0.12939584255218506
1790592443678137900,7.733137939453125,0.055212441831827164,0.38305404782295227,0.16083338856697083
1790592443688150800,7.74315087890625,0.11214762926101685,0.4265038073062897,0.11069326847791672
1790592443698163700,7.753163818359375,0.14430156350135803,0.44591397047042847,0.0505542978644371
1790592443708177000,7.763177001953125,0.12134166061878204,0.48778846859931946,0.0345337837934494
1790592443718190000,7.773190185546875,0.12358511239290237,0.5019852519035339,0.03152121603488922
1790592443728202800,7.78320263671875,0.182576522231102,0.5311223864555359,-0.04057721048593521
1790592443738216000,7.7932158203125,0.22103522717952728,0.5681560039520264,-0.040245912969112396
1790592443748227800,7.803227783203125,0.16921783983707428,0.5596384406089783,0.059836480766534805
1790592443758241000,7.813240966796875,0.10559625178575516,0.5532950758934021,0.07899845391511917
1790592443768253700,7.823253662109375,0.1112046092748642,0.5876607298851013,0.06841185688972473
1790592443778267000,7.833266845703125,0.13774752616882324,0.6421423554420471,0.0473603680729866
1790592443788279800,7.84327978515625,0.1358923614025116,0.7176448702812195,-0.0009376564994454384
1790592443798293000,7.85329296875,0.12123460322618484,0.7174078226089478,0.0010296204127371311
1790592443808305700,7.8633056640625,0.14527814090251923,0.7330376505851746,0.05632296949625015
1790592443818318800,7.87331884765625,0.13210375607013702,0.7224569320678711,0.06250416487455368
1790592443828332000,7.88333203125,0.11931313574314117,0.7430777549743652,0.026504885405302048
1790592443838344000,7.893343994140625,0.0841522142291069,0.7025678753852844,0.06253718584775925
1790592443848356900,7.90335693359375,0.0523037351667881,0.6477518081665039,0.06978818029165268
1790592443858369800,7.913369873046875,0.04520135000348091,0.6434510350227356,-0.017790939658880234
1790592443868383000,7.923383056640625,0.04524795711040497,0.5928416848182678,0.008836943656206131
1790592443878396000,7.93339599609375,0.0045130448415875435,0.5163317322731018,0.135322704911232
1790592443888408800,7.943408935546875,-0.01154341921210289,0.47871774435043335,0.12377205491065979
1790592443898421800,7.953421875,0.011058296076953411,0.4301978647708893,0.012297455221414566
1790592443908435000,7.96343505859375,0.009448148310184479,0.40583688020706177,-0.034525707364082336
1790592443918446800,7.97344677734375,0.003150038653984666,0.33129286766052246,-0.06926584243774414
1790592443928459800,7.983459716796875,0.008335213176906109,0.2589443624019623,-0.06423060595989227
1790592443938472700,7.99347265625,-0.040869615972042084,0.1734563708305359,0.06677055358886719
1790592443948486000,8.00348583984375,-0.06568947434425354,0.09337139129638672,0.07779444009065628
1790592443958499000,8.0134990234375,-0.07771977037191391,0.07501634955406189,0.01893245428800583
1790592443968511700,8.02351171875,-0.09411392360925674,0.022396279498934746,0.03868379071354866
1790592443978525000,8.03352490234375,-0.13973015546798706,-0.07081568986177444,0.07908527553081512
1790592443988537900,8.043537841796875,-0.21427948772907257,-0.12518678605556488,0.13076311349868774
1790592443998550500,8.053550537109375,-0.23086246848106384,-0.15811383724212646,0.0641460046172142
1790592444008563500,8.0635634765625,-0.24983642995357513,-0.16339994966983795,-0.0655059963464737
1790592444018575600,8.07357568359375,-0.2892615795135498,-0.19392509758472443,-0.09828364849090576
1790592444028588500,8.083588623046875,-0.30965685844421387,-0.26719188690185547,-0.02409091219305992
1790592444038601700,8.093601806640624,-0.2820316255092621,-0.3504801094532013,-0.012602303177118301
1790592444048614400,8.103614501953125,-0.2832382917404175,-0.4165368974208832,-0.031509146094322205
1790592444058627600,8.113627685546875,-0.3365505337715149,-0.511038601398468,0.0004674270749092102
1790592444068640500,8.123640625,-0.3523031175136566,-0.5792347192764282,-0.010712523013353348
1790592444078653700,8.13365380859375,-0.31891000270843506,-0.6180883646011353,-0.0011200825683772564
1790592444088666400,8.143666259765626,-0.3250110447406769,-0.7283301949501038,0.05635546147823334
1790592444098678500,8.153678466796874,-0.377376526594162,-0.8342366218566895,-0.012076860293745995
1790592444108691500,8.16369140625,-0.3893224000930786,-0.8319644331932068,-0.08488528430461884
1790592444118704600,8.17370458984375,-0.3851044774055481,-0.9371076226234436,-0.1252060830593109
1790592444128717600,8.183717529296874,-0.36661389470100403,-0.9598358273506165,-0.043182313442230225
1790592444138730500,8.19373046875,-0.42890414595603943,-1.01822030544281,0.03303655609488487
1790592444148743700,8.20374365234375,-0.440810889005661,-1.0777497291564941,0.01965896412730217
1790592444158756600,8.213756591796875,-0.37089037895202637,-1.0699021816253662,-0.0893881618976593
1790592444168769500,8.22376953125,-0.3317911922931671,-1.078449010848999,-0.12407103925943375
1790592444178782500,8.233782470703124,-0.39878594875335693,-1.0933853387832642,0.013813592493534088
1790592444188794600,8.243794677734375,-0.4998396039009094,-1.0993071794509888,0.034194763749837875
1790592444198807600,8.2538076171875,-0.4698318839073181,-0.962931215763092,-0.0732419490814209
1790592444208820500,8.263820556640624,-0.3755578398704529,-0.8573046326637268,-0.11401094496250153
1790592444218833400,8.27383349609375,-0.32677751779556274,-0.8257214426994324,-0.1230720803141594
1790592444228846600,8.2838466796875,-0.32556524872779846,-0.7345068454742432,-0.08691594749689102
1790592444238859800,8.29385986328125,-0.3193720579147339,-0.6636323928833008,0.003833130234852433
1790592444248872400,8.30387255859375,-0.2512369751930237,-0.6839603185653687,0.04530760273337364
1790592444258885600,8.3138857421875,-0.15317799150943756,-0.6242976188659668,-0.014714784920215607
1790592444268898600,8.323898681640625,-0.06831289082765579,-0.5455058813095093,-0.14993412792682648
1790592444278910700,8.33391064453125,-0.054569389671087265,-0.46806269884109497,-0.04165026172995567
1790592444288923400,8.34392333984375,-0.056251175701618195,-0.44850313663482666,0.10166002810001373
1790592444298936600,8.3539365234375,-0.007182964123785496,-0.37342995405197144,0.17592094838619232
1790592444308949500,8.363949462890625,-0.001047840341925621,-0.30047184228897095,0.08539450913667679
1790592444318962700,8.373962646484374,0.016572965309023857,-0.14415787160396576,-0.10791610181331635
1790592444328975400,8.383975341796875,0.08338848501443863,-0.02365303598344326,-0.17775137722492218
1790592444338988500,8.393988525390625,0.11293066293001175,0.010832504369318485,-0.06856070458889008
1790592444349001700,8.404001708984374,0.0998486801981926,0.0625486969947815,0.08355292677879333
1790592444359013600,8.414013671875,0.16708417236804962,0.11311653256416321,0.06771405041217804
1790592444369026600,8.424026611328125,0.28579726815223694,0.227339506149292,0.007860032841563225
1790592444379039500,8.43403955078125,0.26042798161506653,0.2797209620475769,-0.0014602318406105042
1790592444389052700,8.444052734375,0.21630604565143585,0.34466293454170227,-0.008872874081134796
1790592444399065600,8.454065673828126,0.24444793164730072,0.43141859769821167,0.05273190140724182
1790592444409078500,8.46407861328125,0.23783184587955475,0.4499896168708801,0.09695129096508026
1790592444419091500,8.474091552734375,0.268123984336853,0.48715299367904663,0.006983586587011814
1790592444429104600,8.484104736328124,0.3043682873249054,0.5592532157897949,-0.04397626593708992
1790592444439117600,8.49411767578125,0.27883654832839966,0.5403128266334534,-0.017840802669525146
1790592444449129500,8.50412939453125,0.2619158923625946,0.5483428239822388,-0.004961223341524601
1790592444459142400,8.514142333984376,0.27393072843551636,0.5911296606063843,0.018145959824323654
1790592444469155600,8.524155517578125,0.2325795590877533,0.5853756666183472,0.024712249636650085
1790592444479168800,8.534168701171875,0.23187115788459778,0.5940746068954468,-0.09916654974222183
1790592444489181400,8.544181396484374,0.2880875766277313,0.6655154824256897,-0.09645065665245056
1790592444499194600,8.554194580078125,0.2875645160675049,0.6174209117889404,0.0006932001560926437
1790592444509207600,8.56420751953125,0.22586147487163544,0.5784748792648315,0.03994446620345116
1790592444519220500,8.574220458984374,0.23879271745681763,0.6286943554878235,-0.04546603932976723
1790592444529233400,8.5842333984375,0.32078561186790466,0.6199607849121094,-0.08280488848686218
1790592444539245600,8.59424560546875,0.2985468804836273,0.5450772643089294,-0.00944039411842823
1790592444549258500,8.604258544921874,0.18955619633197784,0.5184509754180908,0.07563961297273636
1790592444559271700,8.614271728515625,0.10033524036407471,0.4783456325531006,0.06001804396510124
1790592444569284400,8.624284423828126,0.09571412205696106,0.4653685986995697,-0.010068899020552635
1790592444579297500,8.634297607421875,0.12562382221221924,0.44629982113838196,-0.11022718995809555
1790592444589310700,8.644310791015625,0.12091295421123505,0.4010186195373535,-0.025783680379390717
1790592444599323400,8.654323486328124,0.07851117104291916,0.3334542214870453,0.11188230663537979
1790592444609336600,8.664336669921875,0.06840367615222931,0.32919079065322876,0.12766394019126892
1790592444619348500,8.674348388671875,0.05460982769727707,0.2913041114807129,0.09434672445058823
1790592444629361700,8.684361572265624,0.02784292958676815,0.23406852781772614,-0.005403308197855949
1790592444639374600,8.69437451171875,0.017770322039723396,0.2449994683265686,-0.04422793537378311
1790592444649387500,8.704387451171876,0.011123072355985641,0.13035224378108978,0.044380493462085724
1790592444659400400,8.714400390625,-0.04376867413520813,0.04309749975800514,0.08487412333488464
1790592444669413600,8.72441357421875,-0.07501500844955444,0.011003213003277779,0.08967660367488861
1790592444679426600,8.734426513671876,-0.07521181553602219,-0.04520120471715927,0.06729087233543396
1790592444689439500,8.744439453125,-0.12226587533950806,-0.08843815326690674,0.029590362682938576
1790592444699452700,8.75445263671875,-0.14839762449264526,-0.09534826129674911,-0.04789510741829872
1790592444709464600,8.764464599609376,-0.13638995587825775,-0.11645913869142532,0.035427745431661606
1790592444719477800,8.774477783203125,-0.1658967137336731,-0.1976594477891922,0.08010227233171463
1790592444729490400,8.784490478515625,-0.22143080830574036,-0.24992825090885162,-0.003702879883348942
1790592444739503600,8.794503662109374,-0.2172589749097824,-0.28696510195732117,-0.08519640564918518
1790592444749516500,8.8045166015625,-0.202980175614357,-0.3170843720436096,-0.0867554247379303
1790592444759529500,8.814529541015625,-0.27669164538383484,-0.4050491154193878,-0.015038890764117241
1790592444769542400,8.82454248046875,-0.3266049027442932,-0.4377785623073578,0.0015339604578912258
1790592444779555600,8.8345556640625,-0.24863606691360474,-0.4267056882381439,-0.10079534351825714
1790592444789568800,8.84456884765625,-0.1865665763616562,-0.4288308918476105,-0.15588149428367615
1790592444799580700,8.85458056640625,-0.2533149719238281,-0.4663686752319336,-0.08272126317024231
1790592444809593300,8.86459326171875,-0.308806449174881,-0.5007117390632629,0.08308900892734528
1790592444819606500,8.8746064453125,-0.27232620120048523,-0.5401968359947205,0.13526752591133118
1790592444829619700,8.88461962890625,-0.25628331303596497,-0.5445279479026794,-0.022244339808821678
1790592444839632400,8.89463232421875,-0.2885882556438446,-0.548067569732666,-0.14135128259658813
1790592444849645600,8.9046455078125,-0.3231307864189148,-0.6001238226890564,-0.09100423008203506
1790592444859658500,8.914658447265625,-0.3196612298488617,-0.6345909833908081,-0.03861771896481514
1790592444869671700,8.924671630859375,-0.30439651012420654,-0.6150420904159546,-0.028895318508148193
1790592444879684400,8.934684326171874,-0.31843405961990356,-0.6026948690414429,-0.08359531313180923
1790592444889696500,8.944696533203125,-0.31031832098960876,-0.590821385383606,-0.06575612723827362
1790592444899709400,8.95470947265625,-0.30794066190719604,-0.6179015040397644,-0.07502153515815735
1790592444909722600,8.96472265625,-0.3180582821369171,-0.6462303400039673,0.013862531632184982
1790592444919735600,8.974735595703125,-0.3458201289176941,-0.722753643989563,0.11020291596651077
1790592444929748500,8.98474853515625,-0.3775692582130432,-0.7497516870498657,0.0838506743311882
1790592444939761700,8.99476171875,-0.36160150170326233,-0.7225158214569092,-0.08785264194011688
1790592444949774600,9.004774658203125,-0.27547886967658997,-0.6750806570053101,-0.26310569047927856
1790592444959787500,9.01478759765625,-0.24785204231739044,-0.7106631398200989,-0.19583503901958466
1790592444969799400,9.02479931640625,-0.3214106559753418,-0.7452828884124756,-0.07087153196334839
1790592444979812600,9.0348125,-0.30152538418769836,-0.7794989347457886,0.05181870236992836
1790592444989825500,9.044825439453126,-0.25772330164909363,-0.8336066007614136,0.0667680948972702
1790592444999838700,9.054838623046875,-0.3113463222980499,-0.8536304235458374,0.03429030627012253
1790592445009851600,9.0648515625,-0.3611639440059662,-0.8586853742599487,-0.03970722109079361
1790592445019864800,9.07486474609375,-0.2947748005390167,-0.855459988117218,-0.060617558658123016
1790592445029877800,9.084877685546875,-0.2521924376487732,-0.8997526168823242,-0.041242796927690506
1790592445039890700,9.094890625,-0.3273777365684509,-0.9101471900939941,-0.09960437566041946
1790592445049903600,9.104903564453124,-0.35953566431999207,-0.8911913633346558,-0.16159184277057648
1790592445059915800,9.114915771484375,-0.346946120262146,-0.910306453704834,-0.062128372490406036
1790592445069928700,9.1249287109375,-0.3371981382369995,-0.9621022939682007,0.044213514775037766
1790592445079941600,9.134941650390624,-0.3077305257320404,-0.9810442924499512,0.02389466017484665
1790592445089954600,9.14495458984375,-0.3263241946697235,-1.0127475261688232,-0.03246741741895676
1790592445099967700,9.1549677734375,-0.3422648012638092,-1.0332427024841309,-0.10686122626066208
1790592445109981000,9.16498095703125,-0.3271295428276062,-1.012668490409851,-0.11766327172517776
1790592445119993600,9.17499365234375,-0.34622785449028015,-1.0642640590667725,-0.029050312936306
1790592445130006800,9.1850068359375,-0.33626312017440796,-1.0765295028686523,0.02059526927769184
1790592445140019700,9.195019775390625,-0.24493880569934845,-1.0771957635879517,0.013235623016953468
1790592445150032000,9.205031982421875,-0.21594363451004028,-1.124086856842041,0.01041746698319912
1790592445160044500,9.21504443359375,-0.2763339877128601,-1.1174741983413696,0.013678774237632751
1790592445170057700,9.2250576171875,-0.3293149173259735,-1.134482741355896,0.017050335183739662
1790592445180070700,9.235070556640625,-0.3003336191177368,-1.144913911819458,-0.04408971592783928
1790592445190083800,9.245083740234374,-0.2570825517177582,-1.126175045967102,-0.11919485032558441
1790592445200096500,9.255096435546875,-0.26832932233810425,-1.1522750854492188,-0.07740452885627747
1790592445210109700,9.265109619140626,-0.25169095396995544,-1.1555720567703247,0.005069040227681398
1790592445220123000,9.275122802734375,-0.1760910302400589,-1.1643027067184448,0.11226606369018555
1790592445230135600,9.285135498046875,-0.21424347162246704,-1.20247483253479,0.17020420730113983
1790592445240147700,9.295147705078126,-0.300176739692688,-1.1541688442230225,0.00981346145272255
1790592445250160600,9.30516064453125,-0.3144318461418152,-1.0895088911056519,-0.09014509618282318
1790592445260173800,9.315173828125,-0.29556557536125183,-1.0472310781478882,-0.09328226000070572
1790592445270186800,9.325186767578124,-0.2255561202764511,-1.0025615692138672,0.03475053608417511
1790592445280199700,9.33519970703125,-0.12201295047998428,-1.0259723663330078,0.1093379557132721
1790592445290212600,9.345212646484375,-0.052471160888671875,-1.0429383516311646,0.10468887537717819
1790592445300225800,9.355225830078124,-0.044217757880687714,-0.980900764465332,0.06767652928829193
1790592445310238700,9.36523876953125,-0.05966435745358467,-0.9598817825317383,0.1840907633304596
1790592445320250600,9.375250732421875,-0.07063444703817368,-0.9346821308135986,0.2135695517063141
1790592445330263600,9.385263671875,-0.03149636834859848,-0.8303954005241394,0.18055035173892975
1790592445340276700,9.39527685546875,0.01414381992071867,-0.7634960412979126,0.09902939200401306
1790592445350290000,9.4052900390625,0.08527445793151855,-0.7149716019630432,0.10470379143953323
1790592445360302600,9.415302490234374,0.12539178133010864,-0.6817697286605835,0.1104104146361351
1790592445370315800,9.425315673828125,0.10264173150062561,-0.5971158146858215,0.15751667320728302
1790592445380328700,9.43532861328125,0.0922042727470398,-0.5106624364852905,0.08187597244977951
1790592445390341600,9.445341552734375,0.10980483889579773,-0.31890633702278137,0.08574661612510681
1790592445400354600,9.4553544921875,0.1956222653388977,-0.3032805025577545,0.1917998045682907
1790592445410366700,9.46536669921875,0.27229681611061096,-0.29769185185432434,0.16612614691257477
1790592445420379600,9.475379638671875,0.33164241909980774,-0.25971147418022156,0.10646574199199677
1790592445430392800,9.485392822265625,0.26443809270858765,-0.2693161368370056,0.11028311401605606
1790592445440405500,9.495405517578124,0.25994399189949036,-0.1825985610485077,0.1017836332321167
1790592445450418700,9.505418701171875,0.357962429523468,-0.06073471158742905,0.19257666170597076
1790592445460432000,9.515431884765626,0.42811277508735657,-0.011057701893150806,0.22159498929977417
1790592445470444800,9.52544482421875,0.42515504360198975,0.0748196542263031,0.23695477843284607
1790592445480457700,9.535457763671875,0.34153231978416443,0.1195831298828125,0.14525121450424194
1790592445490470700,9.545470703125,0.33786436915397644,0.1899547576904297,0.050192609429359436
1790592445500482800,9.55548291015625,0.4851033389568329,0.2738669812679291,-0.05467468500137329
1790592445510495700,9.565495849609375,0.5582747459411621,0.3101773262023926,-0.07292026281356812
1790592445520508700,9.5755087890625,0.461819052696228,0.32124993205070496,0.11308901757001877
1790592445530521600,9.585521484375,0.38110849261283875,0.36319366097450256,0.26649534702301025
1790592445540534800,9.59553466796875,0.47801828384399414,0.4266788959503174,0.26834145188331604
1790592445550547700,9.605547607421874,0.5630096197128296,0.48146170377731323,0.09370600432157516
1790592445560560600,9.615560546875,0.5072160959243774,0.5601610541343689,0.02313649281859398
1790592445570573800,9.62557373046875,0.4172441363334656,0.6277757883071899,0.10949242115020752
1790592445580586800,9.635586669921874,0.4957597255706787,0.6682302951812744,0.11201949417591095
1790592445590599000,9.645598876953125,0.6495649814605713,0.7353131771087646,0.16089409589767456
1790592445600611600,9.655611572265625,0.6114429235458374,0.7334662675857544,0.19691814482212067
1790592445610624800,9.665624755859374,0.5225875973701477,0.7741274237632751,0.055056072771549225
1790592445620637700,9.6756376953125,0.5760955810546875,0.9133167266845703,-0.02626514621078968
1790592445630651000,9.68565087890625,0.6079174280166626,0.9182012677192688,0.03833142668008804
1790592445640663600,9.69566357421875,0.6198920607566833,0.9113926291465759,0.08481397479772568
1790592445650676700,9.7056767578125,0.6626752018928528,0.9781482219696045,0.08997304737567902
1790592445660690000,9.71568994140625,0.624773383140564,0.9807610511779785,0.12817688286304474
1790592445670701800,9.725701904296875,0.6269664764404297,0.9579162001609802,0.21408461034297943
1790592445680714500,9.735714599609375,0.6440738439559937,0.9661184549331665,0.14986301958560944
1790592445690727700,9.745727783203124,0.6146680116653442,1.0221515893936157,0.03751276805996895
1790592445700740900,9.755740966796875,0.5450918674468994,1.0196610689163208,-0.0034288056194782257
1790592445710753800,9.76575390625,0.4897036850452423,1.0192279815673828,0.020760953426361084
1790592445720766700,9.7757666015625,0.5087964534759521,1.003138542175293,-0.051809921860694885
1790592445730779600,9.785779541015625,0.5343869924545288,0.9554314613342285,0.047776855528354645
1790592445740792800,9.795792724609376,0.5004705786705017,0.852814793586731,0.1447281688451767
1790592445750805500,9.805805419921874,0.3997551500797272,0.7802923917770386,0.1906820833683014
1790592445760817700,9.815817626953125,0.31192678213119507,0.7468364238739014,0.05378042161464691
1790592445770830600,9.82583056640625,0.33422330021858215,0.7866999506950378,-0.021363064646720886
1790592445780843800,9.83584375,0.33937808871269226,0.7286648750305176,0.04655686020851135
1790592445790857000,9.84585693359375,0.314397394657135,0.6816099882125854,0.043815672397613525
1790592445800869600,9.85586962890625,0.3473433554172516,0.6886529922485352,-0.021599020808935165
1790592445810882800,9.8658828125,0.3223751485347748,0.6635020971298218,-0.04924822598695755
1790592445820895700,9.875895751953125,0.27358177304267883,0.6496837735176086,-0.07506757229566574
1790592445830908700,9.88590869140625,0.3005092740058899,0.6688361763954163,-0.031217826530337334
1790592445840921600,9.895921630859375,0.33481690287590027,0.626410961151123,0.18689985573291779
1790592445850933800,9.905933837890625,0.30302727222442627,0.5417413115501404,0.22603768110275269
1790592445860946700,9.91594677734375,0.20857587456703186,0.5694419145584106,0.05739220231771469
1790592445870959900,9.9259599609375,0.13969668745994568,0.6224633455276489,-0.11221334338188171
1790592445880972500,9.93597265625,0.1898900717496872,0.6498880386352539,-0.1217930018901825
1790592445890985700,9.94598583984375,0.2380642592906952,0.6184462308883667,-0.019188061356544495
1790592445900999000,9.9559990234375,0.20019491016864777,0.6077653765678406,0.06059145927429199
1790592445911011600,9.966011474609376,0.1445034146308899,0.590929388999939,0.10204515606164932
1790592445921024800,9.976024658203125,0.12911167740821838,0.5345391035079956,-0.018001889809966087
1790592445931037700,9.98603759765625,0.15515899658203125,0.5706827044487,-0.03679262101650238
1790592445941049900,9.9960498046875,0.09570872783660889,0.48004812002182007,0.17655827105045319
1790592445951062800,10.006062744140625,-0.05567627400159836,0.3560076653957367,0.25505122542381287
1790592445961075700,10.01607568359375,0.010093951597809792,0.4644499719142914,0.008454485796391964
1790592445971088600,10.026088623046874,0.2077673375606537,0.5521388649940491,0.007742622867226601
1790592445981101800,10.036101806640625,0.20580485463142395,0.48496297001838684,0.042130157351493835
1790592445991114500,10.046114501953125,0.1662507951259613,0.5434963703155518,-0.03939612954854965
1790592446001127700,10.056127685546874,0.3083069920539856,0.6139337420463562,-0.14508527517318726
1790592446011140900,10.066140869140625,0.3831540644168854,0.6374343037605286,-0.043143995106220245
1790592446021153800,10.07615380859375,0.29340529441833496,0.5893352031707764,-0.006158545613288879
1790592446031166000,10.086166015625,0.2656748592853546,0.6277414560317993,0.027699552476406097
1790592446041178600,10.0961787109375,0.2665233314037323,0.6062902212142944,0.1341567486524582
1790592446051191800,10.10619189453125,0.1907220482826233,0.5557197332382202,0.25393134355545044
1790592446061205000,10.116205078125,0.20400457084178925,0.5427154898643494,0.3208693861961365
1790592446071217700,10.1262177734375,0.23871088027954102,0.5554201006889343,0.2958071827888489
1790592446081230800,10.13623095703125,0.17948217689990997,0.558497965335846,0.13763190805912018
1790592446091243800,10.146243896484375,0.07339169830083847,0.5923113226890564,-0.10326351970434189
1790592446101257000,10.156257080078126,0.049879979342222214,0.6422799229621887,-0.3429219126701355
1790592446111269600,10.16626953125,0.07714622467756271,0.5933746695518494,-0.201481431722641
1790592446121281800,10.17628173828125,0.019904769957065582,0.5168541073799133,0.012274790555238724
1790592446131294700,10.186294677734375,-0.04105684906244278,0.46346381306648254,0.25573378801345825
1790592446141308000,10.196307861328124,-0.04045124724507332,0.38540416955947876,0.24470271170139313
1790592446151320600,10.206320556640625,-0.0558168888092041,0.365629643201828,0.1770395040512085
1790592446161333800,10.216333740234376,-0.08780597895383835,0.33234572410583496,0.014048455283045769
1790592446171347000,10.226346923828125,0.0071138739585876465,0.3425794541835785,-0.10084617137908936
1790592446181359900,10.23635986328125,0.08493197709321976,0.2975864112377167,-0.10631737112998962
1790592446191372800,10.246372802734374,0.023531729355454445,0.319526344537735,0.0339617095887661
1790592446201384700,10.256384765625,0.003836588002741337,0.3458405137062073,0.06429724395275116
1790592446211398000,10.26639794921875,0.03494736924767494,0.41602545976638794,-0.0010098558850586414
1790592446221410800,10.276410888671874,0.06514681875705719,0.43728625774383545,0.08662758767604828
1790592446231423700,10.286423828125,0.06459075212478638,0.3682667016983032,0.20634706318378448
1790592446241436700,10.296436767578125,0.03120269812643528,0.3748718798160553,0.16036012768745422
1790592446251449900,10.306449951171874,0.006314659491181374,0.4518391191959381,-0.006126853637397289
1790592446261462800,10.316462890625,0.012646475806832314,0.47648099064826965,-0.08782178908586502
1790592446271475700,10.326475830078126,0.05341494083404541,0.500644862651825,-0.0720934271812439
1790592446281489000,10.336489013671875,0.017767734825611115,0.5158137083053589,0.09289073199033737
1790592446291500800,10.346500732421875,-0.042704131454229355,0.4608069360256195,0.1566002070903778
1790592446301514000,10.356513916015626,0.04609231650829315,0.5367600321769714,0.051650889217853546
1790592446311526700,10.366526611328124,0.12610378861427307,0.5727174878120422,0.016450557857751846
1790592446321539800,10.376539794921875,0.05571857839822769,0.5567816495895386,0.04473146051168442
1790592446331552800,10.386552734375,0.015655048191547394,0.5722231864929199,0.052431195974349976
1790592446341566000,10.39656591796875,0.04349466785788536,0.5766435265541077,-0.00513250008225441
1790592446351578600,10.40657861328125,0.06034848093986511,0.593967080116272,0.006481811869889498
1790592446361591800,10.416591796875,0.01696638949215412,0.5407744646072388,0.0951664075255394
1790592446371605000,10.42660498046875,-0.032174792140722275,0.5156214237213135,0.14631454646587372
1790592446381617000,10.436616943359375,-0.01813513971865177,0.5284813046455383,0.03243298456072807
1790592446391629600,10.446629638671874,0.028795352205634117,0.5532748103141785,0.06135758012533188
1790592446401642800,10.456642822265625,-0.022535746917128563,0.4724031388759613,0.19207032024860382
1790592446411656000,10.466656005859376,-0.10048221051692963,0.45899173617362976,0.12347926944494247
1790592446421668900,10.4766689453125,-0.0799388512969017,0.497152179479599,0.09639385342597961
1790592446431681800,10.486681884765625,-0.06696579605340958,0.43010950088500977,0.12961094081401825
1790592446441694700,10.49669482421875,-0.03833441808819771,0.38942545652389526,0.008512472733855247
1790592446451708000,10.5067080078125,-0.05406863987445831,0.3758787512779236,0.00524477381259203
1790592446461720800,10.516720947265625,-0.18279306590557098,0.26181235909461975,0.02037525735795498
1790592446471732700,10.526732666015626,-0.17461316287517548,0.26301902532577515,-0.010105686262249947
1790592446481745700,10.53674560546875,-0.08351946622133255,0.22654731571674347,0.01966818794608116
1790592446491758800,10.5467587890625,-0.11575037986040115,0.1727815568447113,0.08727385848760605
1790592446501771800,10.556771728515624,-0.17909632623195648,0.1441539078950882,0.09542340040206909
1790592446511784700,10.56678466796875,-0.15875138342380524,0.16794072091579437,0.15360867977142334
1790592446521798000,10.5767978515625,-0.13673502206802368,0.08921182155609131,0.23279963433742523
1790592446531810800,10.586810791015624,-0.14738234877586365,0.04758581146597862,0.1281810849905014
1790592446541823700,10.59682373046875,-0.19163157045841217,0.0685235857963562,-0.04624851047992706
1790592446551836700,10.606836669921876,-0.2245972454547882,0.036825574934482574,-0.14830005168914795
1790592446561848800,10.616848876953124,-0.18658354878425598,0.0015701167285442352,-0.120896115899086
1790592446571861800,10.62686181640625,-0.17283977568149567,-0.0434064120054245,-0.07550733536481857
1790592446581875000,10.636875,-0.2037675976753235,-0.055903028696775436,0.015758933499455452
1790592446591887600,10.6468876953125,-0.21938011050224304,-0.08030238002538681,0.1508597582578659
1790592446601900800,10.65690087890625,-0.20188847184181213,-0.08257059007883072,0.2140832096338272
1790592446611914000,10.6669140625,-0.19669076800346375,-0.10046330839395523,0.11747144162654877
1790592446621927000,10.676927001953125,-0.25350770354270935,-0.10937557369470596,0.02662942372262478
1790592446631939800,10.68693994140625,-0.2383471429347992,-0.09645392000675201,-0.0829830914735794
1790592446641952800,10.696952880859374,-0.21273258328437805,-0.0785156637430191,-0.1054612323641777
1790592446651965000,10.70696484375,-0.23104502260684967,-0.10293072462081909,-0.007096048444509506
1790592446661977900,10.716977783203125,-0.24601250886917114,-0.1205587238073349,0.12622979283332825
1790592446671990800,10.72699072265625,-0.2259911447763443,-0.1463644802570343,0.06723836809396744
1790592446682003700,10.737003662109375,-0.19568009674549103,-0.15065217018127441,0.05596014857292175
1790592446692017000,10.747016845703126,-0.2207697480916977,-0.2300708293914795,0.06559786200523376
1790592446702029800,10.75702978515625,-0.269820898771286,-0.21267744898796082,-0.005159131251275539
1790592446712042800,10.767042724609375,-0.2526989281177521,-0.17758551239967346,-0.03996717929840088
1790592446722056000,10.777055908203126,-0.23912851512432098,-0.21655528247356415,0.08534520119428635
1790592446732067800,10.78706787109375,-0.24856488406658173,-0.302062451839447,0.0036378223448991776
1790592446742080800,10.797080810546875,-0.2252606302499771,-0.2581424117088318,-0.24369579553604126
1790592446752093700,10.80709375,-0.2302255630493164,-0.2761283218860626,-0.11805958300828934
1790592446762107000,10.81710693359375,-0.2609957158565521,-0.3743787407875061,-0.009151475504040718
1790592446772119800,10.827119873046875,-0.2047356516122818,-0.3486155867576599,0.07412982732057571
1790592446782132700,10.8371328125,-0.21763759851455688,-0.30778640508651733,0.1963265836238861
1790592446792145700,10.847145751953125,-0.31193453073501587,-0.2834770679473877,0.19583335518836975
1790592446802158800,10.857158935546876,-0.24828100204467773,-0.179111510515213,0.06799737364053726
1790592446812171800,10.867171875,-0.16191548109054565,-0.14274950325489044,-0.1093321442604065
1790592446822184000,10.877183837890625,-0.17128820717334747,-0.1412075310945511,-0.1622379720211029
1790592446832196600,10.887196533203126,-0.21463967859745026,-0.14026504755020142,-0.14276812970638275
1790592446842209800,10.897209716796874,-0.2212376594543457,-0.15672816336154938,-0.04176401346921921
1790592446852223000,10.907222900390625,-0.19716614484786987,-0.2102007120847702,0.05354919284582138
1790592446862236000,10.91723583984375,-0.21589402854442596,-0.21456404030323029,0.14136213064193726
1790592446872248800,10.927248779296875,-0.20983614027500153,-0.26543015241622925,0.11234379559755325
1790592446882261800,10.93726171875,-0.13266225159168243,-0.23347115516662598,-0.048373445868492126
1790592446892275000,10.94727490234375,-0.11907826364040375,-0.2254430502653122,-0.08731232583522797
1790592446902287600,10.95728759765625,-0.15732605755329132,-0.2423999309539795,-0.059378162026405334
1790592446912299800,10.9672998046875,-0.17171990871429443,-0.2606380581855774,-0.131280317902565
1790592446922312700,10.977312744140624,-0.1731415092945099,-0.27309098839759827,-0.11126772314310074
1790592446932326000,10.987325927734375,-0.17624062299728394,-0.36984017491340637,-0.009190624579787254
1790592446942338800,10.9973388671875,-0.1462710052728653,-0.42583340406417847,0.04799942672252655
1790592446952351700,11.007351806640624,-0.18406365811824799,-0.476189523935318,-0.0599595308303833
1790592446962365000,11.017364990234375,-0.1668071746826172,-0.45466479659080505,-0.06869150698184967
1790592446972377900,11.0273779296875,-0.12817242741584778,-0.48384931683540344,0.034422632306814194
1790592446982390800,11.037390869140625,-0.16276103258132935,-0.5286367535591125,-0.0067977746948599815
1790592446992403700,11.04740380859375,-0.16377542912960052,-0.45856499671936035,-0.059511587023735046
1790592447002415900,11.057415771484376,-0.17008766531944275,-0.49497225880622864,0.06003851443529129
1790592447012428800,11.0674287109375,-0.15684962272644043,-0.6010835766792297,0.039661869406700134
1790592447022442000,11.07744189453125,-0.16301190853118896,-0.5437981486320496,-0.07596991956233978
1790592447032454700,11.08745458984375,-0.23305916786193848,-0.6268144845962524,-0.03791148215532303
1790592447042467800,11.0974677734375,-0.2955949902534485,-0.6811355352401733,-0.029126251116394997
1790592447052480800,11.107480712890625,-0.2586444318294525,-0.6377600431442261,0.026138603687286377
1790592447062493700,11.11749365234375,-0.254909873008728,-0.6713271141052246,0.1032155454158783
1790592447072507000,11.1275068359375,-0.22403451800346375,-0.7134053111076355,0.08473613858222961
1790592447082519800,11.137519775390626,-0.18740752339363098,-0.6929583549499512,-0.0007031303830444813
1790592447092532000,11.147531982421874,-0.24026674032211304,-0.7406629920005798,-0.038019075989723206
1790592447102545000,11.157544921875,-0.23501180112361908,-0.7172713875770569,-0.08277270197868347
1790592447112557800,11.167557861328126,-0.20610931515693665,-0.7273892760276794,-0.08945643901824951
1790592447122570800,11.17757080078125,-0.2127232700586319,-0.7301254272460938,-0.11178038269281387
1790592447132584000,11.187583984375,-0.1879497468471527,-0.6933935284614563,-0.07248517870903015
1790592447142596600,11.1975966796875,-0.12620435655117035,-0.6848056316375732,-0.028635429218411446
1790592447152609800,11.20760986328125,-0.11482279747724533,-0.7209715843200684,-0.08899571001529694
1790592447162622700,11.217622802734375,-0.11291278153657913,-0.6691874861717224,-0.11715411394834518
1790592447172636000,11.227635986328124,-0.06520171463489532,-0.6508241891860962,-0.041516609489917755
1790592447182647800,11.237647705078125,-0.042102791368961334,-0.655918300151825,0.05462697148323059
1790592447192660700,11.24766064453125,-0.04972795397043228,-0.6296725869178772,0.10424592345952988
1790592447202674000,11.257673828125,-0.06481875479221344,-0.5505726933479309,-0.017071183770895004
1790592447212686800,11.267686767578125,-0.002403047401458025,-0.4493618905544281,-0.0988968089222908
1790592447222699800,11.27769970703125,0.0818023756146431,-0.3857269883155823,-0.14604860544204712
1790592447232712700,11.287712646484374,0.08009449392557144,-0.3000432550907135,-0.05813020467758179
1790592447242726000,11.297725830078125,0.07342487573623657,-0.246845543384552,0.07441984862089157
1790592447252738800,11.30773876953125,0.0914376974105835,-0.13950949907302856,0.16639451682567596
1790592447262751700,11.317751708984375,0.15650571882724762,-0.056767404079437256,0.2208089828491211
1790592447272763600,11.327763671875,0.19024530053138733,0.024056337773799896,0.21885529160499573
1790592447282776800,11.33777685546875,0.20937398076057434,0.13529391586780548,0.11304523050785065
1790592447292789800,11.347789794921875,0.2785320281982422,0.25367170572280884,-0.0042840526439249516
1790592447302802700,11.357802734375,0.33059069514274597,0.30933550000190735,-0.05173306167125702
1790592447312815900,11.36781591796875,0.3539000153541565,0.3805233836174011,-0.02561623975634575
1790592447322828800,11.377828857421875,0.3450031876564026,0.4436546862125397,0.08234164863824844
1790592447332842000,11.387842041015626,0.2971571087837219,0.471985399723053,0.12778343260288239
1790592447342854700,11.397854736328124,0.30880284309387207,0.5363656878471375,0.03744182363152504
1790592447352867800,11.407867919921875,0.3465430438518524,0.6133595108985901,-0.07193580269813538
1790592447362879700,11.417879638671875,0.37880003452301025,0.6433590054512024,-0.07186709344387054
1790592447372893000,11.427892822265624,0.41430503129959106,0.6356749534606934,0.021300137042999268
1790592447382905600,11.437905517578125,0.3700270652770996,0.6076563596725464,0.07873173803091049
1790592447392918800,11.447918701171876,0.3617211878299713,0.6583954691886902,0.03275679051876068
1790592447402931700,11.457931640625,0.33019018173217773,0.6372590065002441,0.06418022513389587
1790592447412945000,11.46794482421875,0.22879056632518768,0.5847662687301636,0.040899403393268585
1790592447422957800,11.477957763671874,0.19814449548721313,0.65617835521698,-0.008688122034072876
1790592447432970800,11.487970703125,0.22137205302715302,0.6365247964859009,0.022600026801228523
1790592447442984000,11.49798388671875,0.276113897562027,0.6017252206802368,-0.017480015754699707
1790592447452996600,11.50799658203125,0.340447336435318,0.6269972920417786,-0.03855067864060402
1790592447463008800,11.5180087890625,0.30074092745780945,0.5298108458518982,0.07358970493078232
1790592447473021700,11.528021728515625,0.17764535546302795,0.45344606041908264,0.10099602490663528
1790592447483035000,11.538034912109374,0.09216827899217606,0.4605684280395508,0.019587192684412003
1790592447493047800,11.5480478515625,0.10109705477952957,0.41341689229011536,-0.07563626766204834
1790592447503060700,11.558060791015626,0.11940069496631622,0.35069039463996887,-0.10994576662778854
1790592447513074000,11.568073974609375,0.08524911850690842,0.2981922924518585,-0.16055594384670258
1790592447523086800,11.5780869140625,0.08670932799577713,0.3026195466518402,-0.11724629253149033
1790592447533099800,11.588099853515626,0.09703786671161652,0.24692749977111816,0.017850011587142944
1790592447543112700,11.59811279296875,0.11955196410417557,0.2000875473022461,0.16771912574768066
1790592447553124900,11.608124755859375,0.12284016609191895,0.17760755121707916,0.2578607499599457
1790592447563137800,11.6181376953125,0.04132187366485596,0.14501604437828064,0.26284006237983704
1790592447573151000,11.62815087890625,-0.004936703480780125,0.14922356605529785,0.03501328453421593
1790592447583163600,11.63816357421875,0.04994199052453041,0.2192109078168869,-0.04137789085507393
1790592447593176800,11.6481767578125,0.024703744798898697,0.12463274598121643,-0.027889512479305267
1790592447603189800,11.658189697265625,0.017582187429070473,0.10590459406375885,-0.0643623098731041
1790592447613202700,11.66820263671875,0.02888570725917816,0.1213940754532814,-0.10085027664899826
1790592447623215900,11.6782158203125,-0.01170459482818842,0.11608719080686569,-0.05406146124005318
1790592447633228800,11.688228759765625,-0.010372481308877468,0.1214023306965828,0.02882969193160534
1790592447643240700,11.69824072265625,-0.014041518792510033,0.15352751314640045,0.1354626566171646
1790592447653254000,11.70825390625,-0.003478090511634946,0.19980180263519287,0.13135793805122375
1790592447663266800,11.718266845703125,0.016284694895148277,0.28649649024009705,0.073584645986557
1790592447673279700,11.72827978515625,0.01170432474464178,0.3093828856945038,-0.057362448424100876
1790592447683293000,11.73829296875,0.04330805689096451,0.3710675537586212,-0.23995277285575867
1790592447693305900,11.748305908203125,0.07713712751865387,0.42206019163131714,-0.16764022409915924
1790592447703318800,11.75831884765625,0.07683565467596054,0.39686641097068787,0.04416710510849953
1790592447713331700,11.768331787109375,0.0948181226849556,0.39092570543289185,0.03413231298327446
1790592447723345000,11.778344970703126,0.13106666505336761,0.5197890996932983,0.11013679206371307
1790592447733357800,11.78835791015625,0.0798596739768982,0.4601481854915619,0.24381417036056519
1790592447743369700,11.79836962890625,0.05174947902560234,0.42331957817077637,0.08375579118728638
1790592447753383000,11.8083828125,0.08824463933706284,0.5507842898368835,-0.11129972338676453
1790592447763395800,11.818395751953124,0.07306062430143356,0.5492386221885681,-0.0967537984251976
1790592447773408800,11.82840869140625,0.08533141016960144,0.5267809629440308,0.006806415505707264
1790592447783421700,11.838421630859376,0.125021830201149,0.5379809141159058,0.16447700560092926
1790592447793435000,11.848434814453125,0.10462441295385361,0.5263566970825195,0.21072812378406525
1790592447803447800,11.85844775390625,0.09522771835327148,0.5144068598747253,0.20124194025993347
1790592447813460700,11.868460693359374,0.11295637488365173,0.4759708046913147,-0.0405520461499691
1790592447823473700,11.8784736328125,0.1152682676911354,0.521975040435791,-0.20400409400463104
1790592447833486800,11.88848681640625,0.03543761745095253,0.47715938091278076,-0.12376810610294342
1790592447843498800,11.898498779296874,-0.0003792361239902675,0.4262474775314331,0.0790792778134346
1790592447853512000,11.908511962890625,0.017611747607588768,0.3908146321773529,0.24768559634685516
1790592447863524900,11.91852490234375,0.000520645990036428,0.3397115170955658,0.18247677385807037
1790592447873537800,11.928537841796874,-0.007276290096342564,0.357516348361969,0.08701310306787491
1790592447883551000,11.938551025390625,-0.02611655741930008,0.2876525819301605,0.02479633502662182
1790592447893563600,11.948563720703126,-0.06851807236671448,0.2529214918613434,-0.0850721150636673
1790592447903576800,11.958576904296875,-0.08862094581127167,0.22774821519851685,-0.11513733863830566
1790592447913589800,11.96858984375,-0.09816651791334152,0.16365684568881989,-0.07646344602108002
1790592447923603000,11.97860302734375,-0.12286680191755295,0.11933012306690216,0.06544442474842072
1790592447933614800,11.98861474609375,-0.1872713714838028,0.08217982202768326,0.06645376235246658
1790592447943627800,11.998627685546875,-0.17968188226222992,0.0748119205236435,0.02457076497375965
1790592447953640700,12.008640625,-0.13246937096118927,-0.02134523168206215,0.0202921312302351
1790592447963654000,12.01865380859375,-0.16044321656227112,-0.07570354640483856,0.06735098361968994
1790592447973666800,12.028666748046875,-0.19652159512043,-0.1395706832408905,0.11285135895013809
1790592447983679700,12.0386796875,-0.17489245533943176,-0.20578885078430176,0.004337931517511606
1790592447993693000,12.04869287109375,-0.21261560916900635,-0.2027171552181244,-0.12788616120815277
1790592448003705900,12.058705810546876,-0.2911149263381958,-0.26616883277893066,-0.09713330119848251
1790592448013718800,12.06871875,-0.33019042015075684,-0.3484423756599426,-0.01550714485347271
1790592448023732000,12.07873193359375,-0.3081948459148407,-0.3552270531654358,0.053838640451431274
1790592448033744000,12.088743896484376,-0.29368168115615845,-0.3819390833377838,0.16725946962833405
1790592448043757000,12.098757080078125,-0.31517258286476135,-0.43318498134613037,0.1804620921611786
1790592448053769700,12.108769775390625,-0.32513681054115295,-0.42505380511283875,-0.07160157710313797
1790592448063783000,12.118782958984376,-0.3080848455429077,-0.35813388228416443,-0.2115941047668457
1790592448073795800,12.1287958984375,-0.3156580924987793,-0.4046582579612732,-0.16207315027713776
1790592448083809000,12.13880908203125,-0.3076552748680115,-0.4325615167617798,-0.07056853920221329
1790592448093821700,12.14882177734375,-0.3412182927131653,-0.474456250667572,0.03707244247198105
1790592448103835000,12.1588349609375,-0.37033864855766296,-0.4938690960407257,-0.025823697447776794
1790592448113847800,12.168847900390626,-0.31124815344810486,-0.4493330419063568,-0.1449306458234787
1790592448123860000,12.17885986328125,-0.2779778242111206,-0.4872860312461853,-0.16940750181674957
1790592448133872600,12.18887255859375,-0.28369560837745667,-0.529075562953949,-0.07093951851129532
1790592448143885800,12.1988857421875,-0.28456273674964905,-0.5862733721733093,0.05752285569906235
1790592448153899000,12.20889892578125,-0.2585095763206482,-0.5865311622619629,0.04976639896631241
1790592448163912000,12.218911865234375,-0.2529619336128235,-0.5664277672767639,0.09766387939453125
1790592448173924900,12.2289248046875,-0.26148271560668945,-0.5933539271354675,-0.0047090924344956875
1790592448183937800,12.238937744140625,-0.22401899099349976,-0.5440363883972168,-0.1306249499320984
1790592448193951000,12.248950927734375,-0.20919343829154968,-0.5712541937828064,-0.16303348541259766
1790592448203963600,12.258963623046874,-0.21845245361328125,-0.5747753977775574,-0.09771786630153656
1790592448213976800,12.268976806640625,-0.2058277428150177,-0.5636966824531555,0.039047710597515106
1790592448223988700,12.27898876953125,-0.22907154262065887,-0.5877114534378052,0.06518343836069107
