time,seconds_elapsed,z,y,x
1790592435991997000,0.046996826171875,0.006791859865188599,-0.24097399413585663,0.1597001850605011
1790592436002009900,0.057009765625,0.03929600864648819,-0.34139859676361084,0.25209376215934753
1790592436012022000,0.06702197265625,0.05716075748205185,-0.45467936992645264,0.2972702980041504
1790592436022035000,0.077034912109375,0.06922248005867004,-0.5139413475990295,0.29279884696006775
1790592436032047900,0.0870478515625,0.0642266571521759,-0.5015494227409363,0.24943619966506958
1790592436042060800,0.097060791015625,0.05293085798621178,-0.4566303789615631,0.1792035698890686
1790592436052074000,0.107073974609375,0.05716421827673912,-0.386141300201416,0.08756020665168762
1790592436062087000,0.1170869140625,0.048770733177661896,-0.3052733540534973,-0.0041249701753258705
1790592436072099800,0.127099853515625,0.028626052662730217,-0.274286150932312,-0.06127374246716499
1790592436082113000,0.137113037109375,0.012895558960735798,-0.2714211344718933,-0.09886506199836731
1790592436092125000,0.147125,0.004685565363615751,-0.2792465388774872,-0.1259203851222992
1790592436102138000,0.15713818359375,0.02148718200623989,-0.31630098819732666,-0.1382651925086975
1790592436112150800,0.16715087890625,0.05597085878252983,-0.3677942752838135,-0.14688025414943695
1790592436122164000,0.1771640625,0.09524209797382355,-0.4495181441307068,-0.16568830609321594
1790592436132177000,0.187177001953125,0.1279987096786499,-0.5072645545005798,-0.16873548924922943
1790592436142190000,0.197190185546875,0.1113307848572731,-0.5556485652923584,-0.16809898614883423
1790592436152202800,0.20720263671875,0.07938376814126968,-0.6554710268974304,-0.14342321455478668
1790592436162216000,0.2172158203125,0.01938088797032833,-0.8027837872505188,-0.12176904827356339
1790592436172227800,0.227227783203125,-0.06884191185235977,-0.9552865028381348,-0.13341185450553894
1790592436182241000,0.237240966796875,-0.13058224320411682,-1.0795648097991943,-0.14510446786880493
1790592436192254000,0.24725390625,-0.13988547027111053,-1.1244723796844482,-0.15206623077392578
1790592436202267000,0.257266845703125,-0.09601601213216782,-0.9420942664146423,-0.16644330322742462
1790592436212280000,0.267280029296875,-0.012175173498690128,-0.5896126627922058,-0.19733278453350067
1790592436222293000,0.27729296875,0.051229365170001984,-0.22538065910339355,-0.2102017104625702
1790592436232306000,0.287305908203125,0.02841033600270748,0.11337555944919586,-0.22000452876091003
1790592436242318800,0.29731884765625,-0.02768409252166748,0.2977885603904724,-0.1802091896533966
1790592436252331000,0.3073310546875,-0.06822273135185242,0.2661435306072235,-0.0901583880186081
1790592436262344000,0.317343994140625,-0.09621495008468628,0.1251659095287323,0.03700542077422142
1790592436272356900,0.32735693359375,-0.08540145307779312,0.0093919038772583,0.15736432373523712
1790592436282369800,0.337369873046875,-0.05921005830168724,-0.017242370173335075,0.19138620793819427
1790592436292383000,0.347383056640625,-0.0565495640039444,0.03007827326655388,0.15565350651741028
1790592436302396000,0.35739599609375,-0.07097776979207993,0.10885351151227951,0.10382679849863052
1790592436312408800,0.367408935546875,-0.08703503012657166,0.13493944704532623,0.07630888372659683
1790592436322422000,0.377422119140625,-0.09614916890859604,0.10821914672851562,0.06296218931674957
1790592436332434000,0.387433837890625,-0.09639205038547516,0.09441331773996353,0.038168955594301224
1790592436342447000,0.397447021484375,-0.0817720964550972,0.15103745460510254,-0.020673586055636406
1790592436352460000,0.4074599609375,-0.08447600156068802,0.2559284567832947,-0.12005290389060974
1790592436362473000,0.417472900390625,-0.10236924886703491,0.3646615743637085,-0.22226662933826447
1790592436372486000,0.42748583984375,-0.10799171030521393,0.39645811915397644,-0.2986202538013458
1790592436382499000,0.4374990234375,-0.0819862112402916,0.3475283980369568,-0.3322620987892151
1790592436392511700,0.44751171875,-0.04422711580991745,0.16569416224956512,-0.3146652579307556
1790592436402525000,0.45752490234375,-0.0625334158539772,-0.0978674441576004,-0.2296220064163208
1790592436412536800,0.467536865234375,-0.10642097890377045,-0.27777382731437683,-0.052271727472543716
1790592436422550000,0.477550048828125,-0.12473127990961075,-0.3548574149608612,0.14671647548675537
1790592436432563000,0.48756298828125,-0.08919352293014526,-0.35113540291786194,0.27039074897766113
1790592436442576000,0.497575927734375,-0.056890714913606644,-0.2832583487033844,0.2978000044822693
1790592436452589000,0.507589111328125,-0.05426483601331711,-0.14312972128391266,0.2821888029575348
1790592436462602000,0.51760205078125,-0.04385853558778763,-0.0361124649643898,0.23748046159744263
1790592436472615000,0.527614990234375,-0.007967911660671234,0.005939914379268885,0.17766053974628448
1790592436482627800,0.5376279296875,-0.0075660403817892075,-0.03678011894226074,0.13579538464546204
1790592436492640000,0.547639892578125,-0.02191248908638954,-0.12380743026733398,0.12961392104625702
1790592436502653000,0.55765283203125,-0.034869302064180374,-0.16947132349014282,0.1279909908771515
1790592436512666000,0.567666015625,-0.02822231687605381,-0.15884211659431458,0.10230080783367157
1790592436522678800,0.5776787109375,0.0033270870335400105,-0.09137704968452454,0.057545583695173264
1790592436532692000,0.58769189453125,0.04296078160405159,-0.047507863491773605,0.01738990843296051
1790592436542705000,0.597704833984375,0.07384306192398071,-0.008094411343336105,-0.002909769769757986
1790592436552717800,0.6077177734375,0.08653675764799118,0.06082260236144066,0.013735253363847733
1790592436562731000,0.61773095703125,0.0754510834813118,0.11578092724084854,0.08153507113456726
1790592436572743000,0.627742919921875,0.03863367810845375,0.0659201592206955,0.1741345077753067
1790592436582756000,0.637756103515625,-0.000049801110435510054,-0.0728776678442955,0.267714262008667
1790592436592769000,0.64776904296875,-0.022359101101756096,-0.1910325437784195,0.3431520462036133
1790592436602782000,0.657781982421875,-0.02912938967347145,-0.23057489097118378,0.3608759045600891
1790592436612795000,0.667794921875,0.0038490667939186096,-0.22016271948814392,0.3286878764629364
1790592436622808000,0.67780810546875,0.03941105678677559,-0.1576508730649948,0.26895129680633545
1790592436632820700,0.68782080078125,0.06184312701225281,-0.08657696843147278,0.218678817152977
1790592436642834000,0.697833984375,0.08838871866464615,-0.02070421352982521,0.1816861778497696
1790592436652845800,0.707845703125,0.09251128882169724,0.011391138657927513,0.15614379942417145
1790592436662859000,0.71785888671875,0.09233099222183228,0.010953049175441265,0.14441443979740143
1790592436672872000,0.727871826171875,0.08781827241182327,-0.001511610229499638,0.13942021131515503
1790592436682884900,0.737884765625,0.09182659536600113,-0.00503949960693717,0.12506763637065887
1790592436692898000,0.74789794921875,0.11149563640356064,-0.03407647833228111,0.09289398789405823
1790592436702911000,0.757910888671875,0.11316011101007462,-0.08003438264131546,0.04398370161652565
1790592436712924000,0.767923828125,0.07922078669071198,-0.10310454666614532,0.011699799448251724
1790592436722936800,0.777936767578125,0.045697182416915894,-0.10019850730895996,0.008154865354299545
1790592436732949000,0.787948974609375,0.0288819819688797,-0.08398624509572983,0.008070709183812141
1790592436742962000,0.7979619140625,0.03662938252091408,-0.06167161837220192,0.003887682454660535
1790592436752975000,0.80797509765625,0.04068031907081604,-0.04460901394486427,-0.014552843756973743
1790592436762987800,0.81798779296875,0.021142836660146713,-0.004217115696519613,-0.0027385284192860126
1790592436773001000,0.8280009765625,-0.003579554846510291,0.04620717465877533,0.037530332803726196
1790592436783014000,0.838013916015625,-0.0024413196370005608,0.05223950371146202,0.06564958393573761
1790592436793026800,0.84802685546875,-0.002922286745160818,0.0002724413643591106,0.05109940469264984
1790592436803040000,0.8580400390625,-0.012241486459970474,-0.02563904970884323,0.024262728169560432
1790592436813052000,0.868052001953125,-0.04457785561680794,-0.027413515374064445,0.01124919205904007
1790592436823065000,0.878065185546875,-0.06215578317642212,-0.049201369285583496,0.049786731600761414
1790592436833078000,0.888078125,-0.058526959270238876,-0.1030464917421341,0.09514755755662918
1790592436843091000,0.898091064453125,-0.035539884120225906,-0.13997042179107666,0.1297643929719925
1790592436853103900,0.908103759765625,-0.004290618933737278,-0.12230248004198074,0.14634603261947632
1790592436863117000,0.918116943359375,0.041677139699459076,-0.09964163601398468,0.13498924672603607
1790592436873129700,0.928129638671875,0.06979532539844513,-0.049734801054000854,0.09346789866685867
1790592436883143000,0.938142822265625,0.06741206347942352,0.00030067088664509356,0.05414765700697899
1790592436893154800,0.94815478515625,0.058100055903196335,0.009298427030444145,0.04975956678390503
1790592436903168000,0.95816796875,0.05495992302894592,0.02340519055724144,0.07673126459121704
1790592436913181000,0.968180908203125,0.038960449397563934,0.04427638277411461,0.09969144314527512
1790592436923193900,0.97819384765625,0.00987153872847557,0.04795101284980774,0.09032856673002243
1790592436933207000,0.98820703125,-0.026742132380604744,0.04104224219918251,0.04638640582561493
1790592436943220000,0.998219970703125,-0.04712197184562683,0.05492103844881058,-0.012141085229814053
1790592436953233000,1.00823291015625,-0.04463431239128113,0.07068508863449097,-0.0433029979467392
1790592436963245800,1.018245849609375,-0.03701420873403549,0.0665862187743187,-0.03314623609185219
1790592436973258000,1.028258056640625,-0.043537355959415436,0.07225235551595688,-0.029924342408776283
1790592436983271000,1.03827099609375,-0.039375368505716324,0.07119747996330261,-0.03332067281007767
1790592436993284600,1.04828466796875,-0.006085855886340141,0.06300559639930725,-0.016863135620951653
1790592437003297500,1.058297607421875,0.025498701259493828,0.040414270013570786,0.012593023478984833
1790592437013310700,1.068310791015625,0.03844725713133812,0.030422620475292206,0.05386669188737869
1790592437023323600,1.07832373046875,0.03449352830648422,0.007958590984344482,0.09924695640802383
1790592437033336600,1.088336669921875,0.03620221093297005,-0.0337505079805851,0.14318405091762543
1790592437043349500,1.098349609375,0.04375094175338745,-0.06774948537349701,0.15214186906814575
1790592437053361700,1.108361572265625,0.03682459518313408,-0.07062676548957825,0.10599194467067719
1790592437063374600,1.11837451171875,0.010538927279412746,-0.056822534650564194,0.04337703436613083
1790592437073387500,1.128387451171875,-0.012440158054232597,-0.04101534187793732,0.01948794722557068
1790592437083400400,1.138400390625,-0.03484826162457466,-0.049542784690856934,0.05241260677576065
1790592437093413600,1.14841357421875,-0.04332190752029419,-0.07686495035886765,0.1429811269044876
1790592437103426800,1.1584267578125,-0.019779296591877937,-0.12907463312149048,0.24939438700675964
1790592437113439500,1.168439453125,0.007523962762206793,-0.16018886864185333,0.2948758602142334
1790592437123452700,1.17845263671875,0.011995144188404083,-0.12206386029720306,0.2960638701915741
1790592437133464600,1.188464599609375,-0.005299690645188093,-0.10799757391214371,0.2941056489944458
1790592437143477800,1.198477783203125,-0.03154247999191284,-0.0811944529414177,0.31893351674079895
1790592437153490400,1.208490478515625,-0.05662306398153305,-0.04766206070780754,0.3388630151748657
1790592437163503600,1.218503662109375,-0.04688148945569992,-0.05591333284974098,0.3347257971763611
1790592437173516500,1.2285166015625,-0.025709092617034912,-0.053712498396635056,0.3327726423740387
1790592437183529700,1.23852978515625,0.004219246096909046,-0.04665645211935043,0.36292681097984314
1790592437193542400,1.24854248046875,0.05058594420552254,-0.057986069470644,0.39914631843566895
1790592437203554600,1.258554443359375,0.09763787686824799,-0.0933816134929657,0.405598908662796
1790592437213567500,1.2685673828125,0.10736853629350662,-0.1401568353176117,0.43616053462028503
1790592437223580700,1.27858056640625,0.09080180525779724,-0.244607612490654,0.547086775302887
1790592437233593600,1.288593505859375,0.0596846342086792,-0.41469812393188477,0.7520630955696106
1790592437243606500,1.2986064453125,0.07912837713956833,-0.6106860041618347,0.9965535402297974
1790592437253619700,1.30861962890625,0.11346211284399033,-0.745525598526001,1.233346700668335
1790592437263632600,1.318632568359375,0.16695889830589294,-0.8586151003837585,1.4170781373977661
1790592437273645600,1.3286455078125,0.19548667967319489,-0.9041623473167419,1.5178790092468262
1790592437283657500,1.338657470703125,0.16477429866790771,-0.49080488085746765,1.5194274187088013
1790592437293670700,1.348670654296875,-0.012599415145814419,0.26841306686401367,1.3801003694534302
1790592437303683600,1.35868359375,-0.18081586062908173,1.1196472644805908,1.165291666984558
1790592437313696500,1.368696533203125,-0.28782087564468384,1.613905429840088,0.946372926235199
1790592437323709400,1.37870947265625,-0.322513610124588,1.8085463047027588,0.7814795970916748
1790592437333722600,1.38872265625,-0.2636180520057678,1.796952486038208,0.6257885098457336
1790592437343735800,1.39873583984375,-0.1482539176940918,1.4919222593307495,0.4830651879310608
1790592437353747700,1.408747802734375,-0.02047145366668701,0.6175225973129272,0.5465935468673706
1790592437363760600,1.4187607421875,0.03504107519984245,-0.522562563419342,0.8150239586830139
1790592437373773600,1.428773681640625,0.0009648632840253413,-1.4146794080734253,1.1259088516235352
1790592437383786800,1.438786865234375,-0.07991054654121399,-1.9329140186309814,1.3136414289474487
1790592437393799400,1.44879931640625,-0.19550105929374695,-2.049750566482544,1.3448926210403442
1790592437403812600,1.4588125,-0.3348917067050934,-1.8427785634994507,1.2513823509216309
1790592437413825500,1.468825439453125,-0.4927404522895813,-1.404260277748108,1.095427393913269
1790592437423838700,1.478838623046875,-0.6144317388534546,-1.0079188346862793,0.953914999961853
1790592437433850600,1.4888505859375,-0.7019288539886475,-0.6981348991394043,0.8315094709396362
1790592437443863600,1.498863525390625,-0.8489457368850708,-0.49499082565307617,0.6993410587310791
1790592437453876500,1.50887646484375,-1.0686700344085693,-0.17590205371379852,0.6287893652915955
1790592437463889700,1.5188896484375,-1.2686220407485962,0.15975530445575714,0.6439408659934998
1790592437473902600,1.528902587890625,-1.3231585025787354,0.33282801508903503,0.7492920756340027
1790592437483915500,1.53891552734375,-1.2198904752731323,0.21723777055740356,0.9180179834365845
1790592437493928700,1.5489287109375,-1.0556507110595703,-0.10390083491802216,1.0883172750473022
1790592437503941600,1.558941650390625,-0.9211567640304565,-0.50994873046875,1.1995974779129028
1790592437513953800,1.568953857421875,-0.8106046915054321,-0.90430748462677,1.2490462064743042
1790592437523966500,1.578966552734375,-0.6963894367218018,-0.6414636373519897,1.0319125652313232
1790592437533979600,1.588979736328125,-0.4466555118560791,0.11152572929859161,0.594897449016571
1790592437543992600,1.59899267578125,-0.07510992884635925,0.6107254028320312,0.17490336298942566
1790592437554005500,1.609005615234375,0.43475890159606934,0.5355744957923889,-0.061581071466207504
1790592437564018400,1.619018310546875,0.9369828701019287,-0.10998429358005524,-0.029865752905607224
1790592437574031600,1.629031494140625,1.246001958847046,-1.060328483581543,0.2951757311820984
1790592437584044800,1.639044921875,1.2691410779953003,-1.8337384462356567,0.758165180683136
1790592437594056700,1.649056640625,0.9632871747016907,-2.1288397312164307,1.1533782482147217
1790592437604069600,1.659069580078125,0.514575183391571,-1.5224831104278564,1.4720633029937744
1790592437614082600,1.66908251953125,0.2602566182613373,-0.6373253464698792,1.6449768543243408
1790592437624095700,1.679095703125,0.11319340020418167,-0.3229554295539856,1.7410860061645508
1790592437634108400,1.6891083984375,-0.07483482360839844,-0.1914687603712082,1.781635046005249
1790592437644121600,1.69912158203125,-0.30382752418518066,-0.019120963290333748,1.8309656381607056
1790592437654134500,1.709134521484375,-0.40567854046821594,0.15898512303829193,1.8696293830871582
1790592437664146700,1.719146728515625,-0.30981138348579407,0.34782055020332336,1.836619257926941
1790592437674159600,1.72915966796875,-0.08025169372558594,0.612900972366333,1.6872265338897705
1790592437684172500,1.739172607421875,0.14607864618301392,0.829295814037323,1.363292932510376
1790592437694185500,1.749185546875,0.29699039459228516,0.5312401652336121,0.9347530007362366
1790592437704198700,1.75919873046875,0.4085099995136261,-0.31238505244255066,0.38789820671081543
1790592437714211600,1.769211669921875,0.5328772068023682,-1.0809038877487183,-0.1906953752040863
1790592437724224500,1.779224609375,0.6754471659660339,-1.3599458932876587,-0.621054470539093
1790592437734237700,1.78923779296875,0.7683818936347961,-1.1595402956008911,-0.7818737030029297
1790592437744249600,1.79924951171875,0.7567952871322632,-0.6743400692939758,-0.7283356785774231
1790592437754262800,1.8092626953125,0.6379077434539795,-0.07877976447343826,-0.6077890396118164
1790592437764275500,1.819275390625,0.44185811281204224,0.4274176359176636,-0.5248781442642212
1790592437774288600,1.82928857421875,0.2025326043367386,0.7511177062988281,-0.42261171340942383
1790592437784301600,1.839301513671875,-0.06993354111909866,0.8770279288291931,-0.22330258786678314
1790592437794314500,1.849314453125,-0.30116650462150574,0.8452439308166504,0.1044856607913971
1790592437804327400,1.859327392578125,-0.42930662631988525,0.6510054469108582,0.333016574382782
1790592437814340600,1.869340576171875,-0.4017530381679535,0.4489535689353943,0.28270015120506287
1790592437824352500,1.8793525390625,-0.23114800453186035,0.4043418765068054,0.08855223655700684
1790592437834365700,1.88936572265625,0.039681367576122284,0.5163776278495789,0.022155368700623512
1790592437844378600,1.899378662109375,0.28768399357795715,0.638687789440155,0.22682276368141174
1790592437854391600,1.9093916015625,0.4176265299320221,0.7155019044876099,0.5483027696609497
1790592437864404700,1.91940478515625,0.44548240303993225,0.6596972346305847,0.8173800706863403
1790592437874417700,1.929417724609375,0.38711124658584595,0.4518979489803314,0.9330219626426697
1790592437884430600,1.9394306640625,0.22841906547546387,0.18741144239902496,0.7787141799926758
1790592437894443500,1.949443603515625,0.04754408448934555,0.09482264518737793,0.47707176208496094
1790592437904455700,1.95945556640625,-0.08739961683750153,0.2954063415527344,0.2254011631011963
1790592437914468600,1.969468505859375,-0.1972944289445877,0.6026960015296936,0.16113215684890747
1790592437924481500,1.9794814453125,-0.24756905436515808,0.7791687846183777,0.3336234986782074
1790592437934494500,1.989494384765625,-0.20614704489707947,0.757562518119812,0.5268779397010803
1790592437944507600,1.999507568359375,-0.01992230862379074,0.6689509153366089,0.7358476519584656
1790592437954520600,2.0095205078125,0.17916841804981232,0.5609959363937378,0.8207556009292603
1790592437964533500,2.019533447265625,0.2933860719203949,0.3629337251186371,0.6931057572364807
1790592437974546700,2.029546630859375,0.36343225836753845,0.18840906023979187,0.46492719650268555
1790592437984558600,2.03955859375,0.34126758575439453,0.12617844343185425,0.261732816696167
1790592437994570500,2.049570556640625,0.2250400334596634,0.20009954273700714,0.19223842024803162
1790592438004583700,2.059583740234375,0.1930924952030182,0.29052743315696716,0.28353849053382874
1790592438014596600,2.0695966796875,0.274396151304245,0.2653336524963379,0.34743013978004456
1790592438024609500,2.079609619140625,0.3300767242908478,0.08164425939321518,0.19149033725261688
1790592438034622700,2.089622802734375,0.3509809374809265,-0.06816254556179047,0.02371491678059101
1790592438044635600,2.0996357421875,0.35159772634506226,-0.11888057738542557,-0.01979820616543293
1790592438054647800,2.109647705078125,0.26246917247772217,-0.09192965924739838,-0.027033215388655663
1790592438064660500,2.119660400390625,0.08671598881483078,-0.07378207892179489,-0.07650063186883926
1790592438074673700,2.129673583984375,-0.07422789186239243,-0.14564162492752075,-0.132736474275589
1790592438084686600,2.1396865234375,-0.10689715296030045,-0.3553889989852905,-0.1510494351387024
1790592438094699500,2.149699462890625,-0.09758540987968445,-0.8169987201690674,-0.12189740687608719
1790592438104712400,2.15971240234375,-0.08285333961248398,-1.1035900115966797,-0.0946495458483696
1790592438114725600,2.1697255859375,-0.041315481066703796,-1.0495920181274414,-0.02148771472275257
1790592438124738800,2.17973876953125,-0.03719743713736534,-0.874929666519165,0.026192188262939453
1790592438134751500,2.18975146484375,-0.15962587296962738,-0.7262927889823914,0.06178027763962746
1790592438144763600,2.199763671875,-0.36799800395965576,-0.7417423129081726,0.13323502242565155
1790592438154776600,2.209776611328125,-0.5228887796401978,-0.9024084210395813,0.2088664025068283
1790592438164789800,2.219789794921875,-0.587353527545929,-0.8200567960739136,0.18589529395103455
1790592438174802400,2.229802490234375,-0.7407768964767456,-0.7569130063056946,0.2339927852153778
1790592438184815600,2.239815673828125,-0.7739987373352051,-0.5968580842018127,0.3144218623638153
1790592438194828500,2.24982861328125,-0.5771552324295044,-0.20376405119895935,0.4267268180847168
1790592438204841700,2.259841796875,-0.03921850770711899,-0.08797592669725418,0.5816567540168762
1790592438214854400,2.2698544921875,0.7236146926879883,-0.05296254903078079,0.5641542077064514
1790592438224866600,2.279866455078125,1.2129868268966675,0.12349104881286621,0.5769903659820557
1790592438234879500,2.28987939453125,1.3353193998336792,0.14394386112689972,0.6373239755630493
1790592438244892700,2.299892578125,1.3272111415863037,0.09156906604766846,0.5823792815208435
1790592438254905600,2.309905517578125,1.2261263132095337,0.053951382637023926,0.289116770029068
1790592438264918500,2.31991845703125,1.0123718976974487,0.06605864316225052,0.0256880521774292
1790592438274931700,2.329931640625,0.8245067000389099,0.11919696629047394,-0.1401672214269638
1790592438284944600,2.339944580078125,0.6633028984069824,0.12782107293605804,-0.20828822255134583
1790592438294957600,2.34995751953125,0.46812593936920166,0.1659165322780609,-0.14899161458015442
1790592438304970500,2.359970458984375,0.23956093192100525,0.19080670177936554,-0.09119835495948792
1790592438314982700,2.369982666015625,0.11124609410762787,0.05025171861052513,-0.07350191473960876
1790592438324995600,2.37999560546875,0.041486989706754684,-0.015476427972316742,-0.03231745958328247
1790592438335008500,2.390008544921875,-0.0628490000963211,-0.046489737927913666,0.04711318388581276
1790592438345021400,2.400021484375,-0.15328915417194366,-0.05812455713748932,0.1686079204082489
1790592438355034600,2.41003466796875,-0.21421243250370026,-0.108265221118927,0.30058884620666504
1790592438365047800,2.4200478515625,-0.27117210626602173,-0.19818098843097687,0.44590237736701965
1790592438375060500,2.430060546875,-0.3000897765159607,-0.24864576756954193,0.5710067749023438
1790592438385073700,2.44007373046875,-0.27160435914993286,-0.3243245482444763,0.6816509962081909
1790592438395086600,2.450086669921875,-0.1735619306564331,-0.34006568789482117,0.7418067455291748
1790592438405098800,2.4600986328125,-0.09749646484851837,-0.38762736320495605,0.7707933783531189
1790592438415111400,2.470111328125,-0.014104367233812809,-0.4105425179004669,0.7347885370254517
1790592438425124600,2.48012451171875,0.09856732189655304,-0.3816666603088379,0.6392784714698792
1790592438435137500,2.490137451171875,0.2380586415529251,-0.2769564986228943,0.45756542682647705
1790592438445150700,2.500150634765625,0.2960585653781891,-0.16474899649620056,0.2108943909406662
1790592438455163400,2.510163330078125,0.3083546459674835,-0.07813634723424911,-0.07090932875871658
1790592438465176600,2.520176513671875,0.30449146032333374,0.020308732986450195,-0.3157593011856079
1790592438475189800,2.530189697265625,0.2811531126499176,0.05296814441680908,-0.46410268545150757
1790592438485202400,2.540202392578125,0.22535908222198486,0.06362611055374146,-0.5109439492225647
1790592438495215600,2.550215576171875,0.14964808523654938,0.06791273504495621,-0.47299233078956604
1790592438505227500,2.5602275390625,0.07275623083114624,0.05197451636195183,-0.37349769473075867
1790592438515240700,2.57024072265625,0.014105166308581829,0.02046852372586727,-0.22342243790626526
1790592438525253600,2.580253662109375,-0.019581690430641174,-0.006791859865188599,-0.06220078840851784
1790592438535266600,2.5902666015625,-0.01715821400284767,-0.029889987781643867,0.08446375280618668
1790592438545279500,2.600279541015625,0.00737402681261301,-0.03971172496676445,0.16322194039821625
1790592438555292700,2.610292724609375,0.02750672586262226,-0.03906644135713577,0.1634749472141266
1790592438565305600,2.6203056640625,0.02388935349881649,-0.016536632552742958,0.10759170353412628
1790592438575318500,2.630318603515625,0.0019712718203663826,0.012447881512343884,0.03051529824733734
1790592438585331700,2.640331787109375,-0.005425924435257912,0.02785426750779152,-0.044128045439720154
1790592438595343600,2.650343505859375,0.008404403924942017,0.04506947472691536,-0.09134642779827118
1790592438605356800,2.660356689453125,0.017353955656290054,0.052311141043901443,-0.08980391919612885
1790592438615369500,2.670369384765625,0.01625407114624977,0.03839878737926483,-0.04093651473522186
1790592438625382700,2.680382568359375,0.005840045865625143,0.02195829525589943,0.017904432490468025
1790592438635395600,2.6903955078125,0.0002146507758880034,0.01594061776995659,0.04597894474864006
1790592438645408500,2.700408447265625,0.011489675380289555,0.01679788902401924,0.040462736040353775
1790592438655421400,2.71042138671875,0.009444101713597775,0.024381238967180252,0.0125424237921834
1790592438665434600,2.7204345703125,0.00731304008513689,0.023689616471529007,-0.021223796531558037
1790592438675447800,2.73044775390625,0.01423193234950304,0.024869397282600403,-0.04171149432659149
1790592438685459700,2.740459716796875,0.01570093259215355,0.01926237717270851,-0.03343891724944115
1790592438695472400,2.750472412109375,0.007871771231293678,0.006171342916786671,-0.0007187871960923076
1790592438705485600,2.760485595703125,0.014273477718234062,-0.005576393101364374,0.021374797448515892
1790592438715498800,2.770498779296875,0.017911089584231377,-0.009049421176314354,0.02081872895359993
1790592438725511400,2.780511474609375,0.01377866230905056,-0.014131531119346619,0.0072986590676009655
1790592438735524600,2.790524658203125,0.001088433898985386,0.0010910971323028207,-0.018847988918423653
1790592438745537500,2.80053759765625,0.007110373582690954,-0.039373237639665604,-0.03334170952439308
1790592438755550700,2.81055078125,0.026187662035226822,-0.012462794780731201,-0.04417891427874565
1790592438765563400,2.8205634765625,0.004367051646113396,-0.0004138552176300436,-0.02550509385764599
1790592438775575600,2.830575439453125,0.014084394089877605,-0.02190263569355011,-0.0002263686910737306
1790592438785588500,2.84058837890625,0.029465479776263237,-0.0218347255140543,0.01884053274989128
1790592438795601700,2.8506015625,0.010723218321800232,-0.030598388984799385,0.030534207820892334
1790592438805614600,2.860614501953125,-0.008192948997020721,-0.01842215098440647,0.019589945673942566
1790592438815627500,2.87062744140625,0.019898073747754097,0.043664656579494476,-0.0482623390853405
1790592438825640700,2.880640625,0.051844023168087006,0.03647438809275627,-0.2126488834619522
1790592438835653600,2.890653564453125,0.02123631350696087,0.09723707288503647,-0.25767093896865845
1790592438845666600,2.90066650390625,0.017502561211586,0.1076154112815857,-0.23796142637729645
1790592438855679500,2.910679443359375,0.03868401423096657,0.07294131815433502,-0.18601487576961517
1790592438865691600,2.920691650390625,0.03786482289433479,0.08325600624084473,-0.11464376002550125
1790592438875704600,2.93070458984375,0.028185565024614334,0.07182039320468903,-0.05007728189229965
1790592438885717500,2.940717529296875,0.06673002988100052,0.009159942157566547,-0.016867130994796753
1790592438895730400,2.95073046875,0.10917922109365463,-0.003079679561778903,-0.006908506155014038
1790592438905743600,2.96074365234375,0.10801780968904495,-0.005293565336614847,-0.032278310507535934
1790592438915756800,2.9707568359375,0.08777885138988495,-0.0023465112317353487,-0.051597148180007935
1790592438925769500,2.98076953125,0.07186966389417648,0.012769058346748352,-0.022456040605902672
1790592438935782700,2.99078271484375,0.05963536724448204,0.010395382530987263,0.03833300620317459
1790592438945795600,3.000795654296875,0.033429328352212906,0.012166650965809822,0.08550451695919037
1790592438955807700,3.010807861328125,0.006682137493044138,0.023261379450559616,0.08187702298164368
1790592438965820700,3.020820556640625,0.000395745737478137,0.04313415288925171,0.01492142491042614
1790592438975833600,3.03083349609375,-0.011812184937298298,0.041194573044776917,-0.1105685904622078
1790592438985846500,3.040846435546875,-0.06115736439824104,0.12216958403587341,-0.22659026086330414
1790592438995859500,3.050859375,-0.02202407643198967,0.09819740802049637,-0.24773922562599182
1790592439005872400,3.060872314453125,-0.015839949250221252,0.10987323522567749,-0.2309168428182602
1790592439015885300,3.07088525390625,-0.04194212332367897,0.13570617139339447,-0.2036023885011673
1790592439025898500,3.0808984375,-0.05754958093166351,0.16133829951286316,-0.21395090222358704
1790592439035911700,3.09091162109375,-0.047272708266973495,0.1389288604259491,-0.23873507976531982
1790592439045923600,3.100923583984375,-0.026751719415187836,0.14063088595867157,-0.25391510128974915
1790592439055936500,3.1109365234375,-0.0034197650384157896,0.11593219637870789,-0.24390506744384766
1790592439065949400,3.120949462890625,0.005684250965714455,0.09713507443666458,-0.18561886250972748
1790592439075962600,3.130962646484375,-0.013082779012620449,0.0903402790427208,-0.08840496093034744
1790592439085975300,3.140975341796875,-0.04969298839569092,0.05444832891225815,0.01193921733647585
1790592439095988500,3.150988525390625,-0.10071010142564774,0.08595991879701614,0.08047033846378326
1790592439106001400,3.16100146484375,-0.1544114053249359,0.15983520448207855,0.08034916967153549
1790592439116014600,3.1710146484375,-0.18270909786224365,0.17564666271209717,0.07314398139715195
1790592439126027500,3.181027587890625,-0.1702071577310562,0.17898227274417877,0.04771958664059639
1790592439136039400,3.191039306640625,-0.14489033818244934,0.1408122479915619,-0.01745382510125637
1790592439146052400,3.20105224609375,-0.14533323049545288,0.1580740511417389,-0.1487167775630951
1790592439156065500,3.2110654296875,-0.20672841370105743,0.2578408718109131,-0.2621152400970459
1790592439166078500,3.221078369140625,-0.32727932929992676,0.32192158699035645,-0.2505168914794922
1790592439176091400,3.23109130859375,-0.38691362738609314,0.2688663601875305,-0.13582414388656616
1790592439186104600,3.2411044921875,-0.36290469765663147,0.24145576357841492,-0.011490740813314915
1790592439196117500,3.251117431640625,-0.28767839074134827,0.20523305237293243,0.006869890261441469
1790592439206130400,3.26113037109375,-0.23390011489391327,0.19140271842479706,-0.08443178981542587
1790592439216143400,3.271143310546875,-0.23283325135707855,0.19629600644111633,-0.22458064556121826
1790592439226155500,3.281155517578125,-0.29238444566726685,0.27272605895996094,-0.2802673280239105
1790592439236168400,3.29116845703125,-0.3501151204109192,0.30006954073905945,-0.28061941266059875
1790592439246181400,3.301181396484375,-0.31994232535362244,0.22878071665763855,-0.30674394965171814
1790592439256194300,3.3111943359375,-0.2684391736984253,0.23851244151592255,-0.332790732383728
1790592439266207500,3.32120751953125,-0.2656332850456238,0.26782506704330444,-0.22180403769016266
1790592439276220700,3.331220703125,-0.27918848395347595,0.274808406829834,0.03912369906902313
1790592439286233300,3.3412333984375,-0.21968522667884827,0.14720329642295837,0.30895569920539856
1790592439296246500,3.35124658203125,-0.20327375829219818,0.07139215618371964,0.474122554063797
1790592439306259500,3.361259521484375,-0.24366165697574615,0.13217374682426453,0.4500609040260315
1790592439316271600,3.371271728515625,-0.29606255888938904,0.1379386931657791,0.20724399387836456
1790592439326284300,3.3812841796875,-0.3853817880153656,0.22876819968223572,-0.0036546560004353523
1790592439336297500,3.39129736328125,-0.3960948884487152,0.24518445134162903,-0.07029999792575836
1790592439346310400,3.401310302734375,-0.42734652757644653,0.24192474782466888,-0.0017273263074457645
1790592439356323600,3.411323486328125,-0.4490094780921936,0.16095000505447388,0.14746960997581482
1790592439366336500,3.42133642578125,-0.4720820486545563,0.13446912169456482,0.2820223569869995
1790592439376349400,3.431349365234375,-0.507104218006134,0.19989287853240967,0.2800612151622772
1790592439386362600,3.441362548828125,-0.5103234648704529,0.207510307431221,0.11814634501934052
1790592439396375300,3.451375244140625,-0.5144619941711426,0.2317376285791397,-0.03970427066087723
1790592439406387500,3.461387451171875,-0.4909849166870117,0.18292108178138733,-0.014879080466926098
1790592439416400400,3.471400390625,-0.4551539421081543,0.14807948470115662,0.1803218424320221
1790592439426413600,3.48141357421875,-0.4405025541782379,0.13749420642852783,0.4226905405521393
1790592439436426500,3.491426513671875,-0.4316161274909973,0.09155042469501495,0.5738939046859741
1790592439446439400,3.501439453125,-0.4406612813472748,0.07200601696968079,0.5786212682723999
1790592439456452400,3.511452392578125,-0.43816670775413513,0.09169583022594452,0.42448151111602783
1790592439466465500,3.521465576171875,-0.4339996576309204,0.07160867005586624,0.31439176201820374
1790592439476478500,3.531478515625,-0.37743037939071655,0.05149221792817116,0.30260327458381653
1790592439486491400,3.541491455078125,-0.29799920320510864,0.005638711154460907,0.28474652767181396
1790592439496503300,3.55150341796875,-0.24061846733093262,0.01842002011835575,0.18912358582019806
1790592439506516500,3.5615166015625,-0.18305504322052002,0.03179255127906799,0.042575422674417496
1790592439516529700,3.57152978515625,-0.14124980568885803,0.04164571315050125,-0.043471578508615494
1790592439526542300,3.581542236328125,-0.09821471571922302,0.0931219533085823,-0.08097660541534424
1790592439536555500,3.591555419921875,-0.06774309277534485,0.13498125970363617,-0.14428792893886566
1790592439546568400,3.601568359375,-0.06642349809408188,0.14853115379810333,-0.18001849949359894
1790592439556581400,3.611581298828125,-0.09320291131734848,0.09935774654150009,-0.11291563510894775
1790592439566594300,3.62159423828125,-0.11737696081399918,0.02395806275308132,0.04685885086655617
1790592439576607500,3.631607421875,-0.133332759141922,0.022169750183820724,0.11508504301309586
1790592439586620700,3.64162060546875,-0.12718059122562408,0.020545754581689835,0.0378325991332531
1790592439596632600,3.651632568359375,-0.10742712020874023,0.02088450826704502,-0.06437366455793381
1790592439606645500,3.6616455078125,-0.06382984668016434,0.029879868030548096,-0.1258133202791214
1790592439616658400,3.671658447265625,0.0034320156555622816,0.033589918166399,-0.1347532868385315
1790592439626671600,3.681671630859375,0.057856373488903046,0.03598622977733612,-0.09920301288366318
1790592439636684500,3.6916845703125,0.09842856973409653,0.022459503263235092,-0.030918767675757408
1790592439646697500,3.701697509765625,0.11772104352712631,0.0122428173199296,0.057494718581438065
1790592439656710400,3.71171044921875,0.1261025369167328,0.0060933125205338,0.1334688514471054
1790592439666723600,3.7217236328125,0.13736265897750854,0.01435497123748064,0.139776811003685
1790592439676736300,3.731736328125,0.13310718536376953,0.031254857778549194,0.07512830942869186
1790592439686748400,3.74174853515625,0.11425706744194031,0.047745686024427414,0.010032393969595432
1790592439696761300,3.75176123046875,0.07890679687261581,0.05904441326856613,0.014503841288387775
1790592439706774500,3.7617744140625,0.05606912821531296,0.05209169536828995,0.03233210742473602
1790592439716787500,3.771787353515625,0.042990345507860184,0.042929891496896744,0.03796868771314621
1790592439726800400,3.78180029296875,0.039265114814043045,0.04289020970463753,0.026311231777071953
1790592439736813600,3.7918134765625,0.057010021060705185,0.03641819581389427,-0.004751611966639757
1790592439746826500,3.801826416015625,0.09113683551549911,0.01467854529619217,-0.09265829622745514
1790592439756839400,3.81183935546875,0.13519030809402466,-0.012496350333094597,-0.25881531834602356
1790592439766852400,3.821852294921875,0.16757407784461975,-0.0231146402657032,-0.48096582293510437
1790592439776864500,3.831864501953125,0.19673649966716766,-0.03489752858877182,-0.6799127459526062
1790592439786877400,3.84187744140625,0.22825686633586884,-0.05281820893287659,-0.8038780689239502
1790592439796890600,3.851890625,0.27443796396255493,-0.09118450433015823,-0.8260001540184021
1790592439806903300,3.8619033203125,0.32425424456596375,-0.14826031029224396,-0.7134962677955627
1790592439816916500,3.87191650390625,0.3697085380554199,-0.2059345245361328,-0.48010537028312683
1790592439826929700,3.8819296875,0.4382423162460327,-0.3640700876712799,-0.09407749772071838
1790592439836942300,3.8919423828125,0.5681121945381165,-0.5206215977668762,0.40011972188949585
1790592439846955500,3.90195556640625,0.6145340204238892,-0.4720812439918518,0.7930265069007874
1790592439856968400,3.911968505859375,0.5275519490242004,-0.4257217347621918,0.9839884638786316
1790592439866980600,3.921980712890625,0.3271224796772003,-0.3990296721458435,0.9891614317893982
1790592439876993500,3.93199365234375,0.309144526720047,-0.2264925241470337,0.8650615811347961
1790592439887006500,3.94200634765625,0.18964450061321259,-0.200898215174675,0.6368478536605835
1790592439897019400,3.952019287109375,0.05078408494591713,-0.12179674208164215,0.3133339583873749
1790592439907032600,3.962032470703125,-0.04541781544685364,0.004713528789579868,-0.03879346698522568
1790592439917045200,3.972045166015625,-0.030483340844511986,0.05669896677136421,-0.2884291410446167
1790592439927058400,3.982058349609375,0.018743859604001045,0.04526841267943382,-0.36775538325309753
1790592439937071600,3.992071533203125,0.03401336073875427,0.022461898624897003,-0.32045310735702515
1790592439947084500,4.00208447265625,0.031065773218870163,0.011342668905854225,-0.20335684716701508
1790592439957096700,4.0120966796875,0.011905928142368793,0.0014407701091840863,-0.05541105940937996
1790592439967109400,4.022109375,-0.016892164945602417,-0.01576351746916771,0.07496931403875351
1790592439977122600,4.03212255859375,-0.019662383943796158,-0.021561751142144203,0.12536218762397766
1790592439987135500,4.042135498046875,-0.014289990067481995,-0.02183632366359234,0.0971049815416336
1790592439997149200,4.052149169921875,-0.014483335427939892,-0.011748800985515118,0.020498083904385567
1790592440007162000,4.062162109375,-0.013805294409394264,0.0007850998663343489,-0.05955201014876366
1790592440017175300,4.07217529296875,-0.009384713135659695,-0.002370745874941349,-0.08342405408620834
1790592440027188000,4.08218798828125,-0.006807838566601276,-0.01709163561463356,-0.04790414124727249
1790592440037201200,4.092201171875,-0.010578341782093048,-0.03057495318353176,0.00811997801065445
1790592440047213000,4.102213134765625,-0.02088158018887043,-0.046843137592077255,0.04140123724937439
1790592440057226200,4.112226318359375,-0.025674736127257347,-0.053529538214206696,0.03112143464386463
1790592440067239200,4.1222392578125,-0.03148388862609863,-0.054058972746133804,-0.011457451619207859
1790592440077252000,4.132252197265625,-0.03726241737604141,-0.05187837779521942,-0.044984783977270126
1790592440087265300,4.142265380859375,-0.025897111743688583,-0.04689214006066322,-0.04553339630365372
1790592440097278200,4.1522783203125,-0.00854555144906044,-0.04493658244609833,-0.0167400985956192
1790592440107291100,4.162291015625,-0.004605670925229788,-0.04668334871530533,0.010300308465957642
1790592440117304000,4.172303955078125,-0.005310609471052885,-0.04067978635430336,0.012225506827235222
1790592440127317200,4.182317138671875,0.0000351537273672875,-0.025235049426555634,-0.00566933723166585
1790592440137329200,4.1923291015625,0.01991645060479641,-0.020547086372971535,-0.015313975512981415
1790592440147342000,4.202342041015625,0.02526487596333027,-0.026284867897629738,-0.009561813436448574
1790592440157355000,4.21235498046875,0.02315938100218773,-0.03928295895457268,0.001341966912150383
1790592440167368200,4.2223681640625,0.02436579391360283,-0.04998966306447983,0.004296477884054184
1790592440177381400,4.23238134765625,0.02660524472594261,-0.04987168684601784,0.001091629732400179
1790592440187394000,4.24239404296875,0.031749140471220016,-0.042867038398981094,-0.0019180085510015488
1790592440197407200,4.2524072265625,0.04144597798585892,-0.03226073458790779,-0.004223507363349199
1790592440207420200,4.262420166015625,0.049010153859853745,-0.02671310305595398,-0.0018197379540652037
1790592440217433000,4.27243310546875,0.050887417048215866,-0.01926317624747753,0.001526257605291903
1790592440227446000,4.282446044921875,0.057410828769207,-0.01004970446228981,-0.00028282770654186606
1790592440237458200,4.292458251953125,0.07010079175233841,-0.008085623383522034,-0.0028455876745283604
1790592440247471000,4.30247119140625,0.07875420153141022,-0.013411945663392544,0.0008159925346262753
1790592440257484300,4.312484375,0.07997286319732666,-0.022493325173854828,0.006220611743628979
1790592440267497000,4.3224970703125,0.08562701940536499,-0.02863457426428795,0.009155414998531342
1790592440277510100,4.33251025390625,0.09417895972728729,-0.023205453529953957,0.009136239998042583
1790592440287523300,4.3425234375,0.10134313255548477,-0.013714746572077274,0.0093303844332695
1790592440297536300,4.352536376953125,0.1032789871096611,-0.00851705577224493,0.006103166379034519
1790592440307549200,4.362549072265625,0.10096629709005356,-0.003790477057918906,-0.0009060074225999415
1790592440317562000,4.37256201171875,0.1067698523402214,0.0026405241806060076,-0.0010327738709747791
1790592440327574300,4.38257421875,0.11528424918651581,0.0031252196058630943,0.006327670533210039
1790592440337587200,4.392587158203125,0.11784887313842773,0.0003278351214248687,0.012918462045490742
1790592440347600100,4.40260009765625,0.118229441344738,-0.005642705596983433,0.008636098355054855
1790592440357613000,4.412613037109375,0.11903078109025955,-0.01341780461370945,0.0006671218434348702
1790592440367626200,4.422626220703125,0.1215360164642334,-0.018016017973423004,-0.0027864654548466206
1790592440377639200,4.43263916015625,0.1296677142381668,-0.020255204290151596,0.001184574095532298
1790592440387652000,4.442652099609375,0.13824522495269775,-0.02137186750769615,0.009916280396282673
1790592440397665300,4.452665283203125,0.13813842833042145,-0.01278503704816103,0.012630840763449669
1790592440407678200,4.46267822265625,0.13609817624092102,-0.001648496720008552,0.006220878101885319
1790592440417690400,4.4726904296875,0.136735737323761,0.012195945717394352,-0.002575543010607362
1790592440427703000,4.482703125,0.14489220082759857,0.022835807874798775,-0.0010104032699018717
1790592440437716200,4.49271630859375,0.1557656228542328,0.02617461234331131,0.008373511023819447
1790592440447729200,4.502729248046875,0.16317135095596313,0.027238013222813606,0.01661626063287258
1790592440457742300,4.512742431640625,0.16372981667518616,0.026684341952204704,0.008238488808274269
1790592440467755000,4.522755126953125,0.1554066389799118,0.027593810111284256,0.0010538127971813083
1790592440477768200,4.532768310546875,0.1545586884021759,0.02689952403306961,0.00033688987605273724
1790592440487781400,4.542781494140625,0.16098809242248535,0.027942951768636703,0.007977232336997986
1790592440497794000,4.5527939453125,0.16927051544189453,0.02743934653699398,0.013896108604967594
1790592440507807200,4.56280712890625,0.1770900934934616,0.029695045202970505,0.008295746520161629
1790592440517819100,4.572819091796875,0.1779220700263977,0.033434923738241196,-0.0016460998449474573
1790592440527832300,4.582832275390625,0.17549219727516174,0.03253583982586861,-0.005429386626929045
1790592440537845200,4.59284521484375,0.1810491532087326,0.03239202871918678,0.001868473831564188
1790592440547858200,4.602858154296875,0.19541503489017487,0.025533322244882584,0.013593306764960289
1790592440557871000,4.61287109375,0.20384474098682404,0.012969594448804855,0.020849088206887245
1790592440567884300,4.62288427734375,0.2121652513742447,-0.00965715479105711,0.0063092950731515884
1790592440577897000,4.63289697265625,0.2662902772426605,-0.05907583609223366,-0.06818331778049469
1790592440587910100,4.64291015625,0.3335646390914917,-0.17531296610832214,-0.03692472726106644
1790592440597923300,4.65292333984375,0.32480791211128235,-0.2610366642475128,0.039137814193964005
1790592440607935200,4.662935302734375,0.17530576884746552,-0.2543784976005554,0.09358427673578262
1790592440617948400,4.672948486328125,0.06462319940328598,-0.19667604565620422,0.046426087617874146
1790592440627961000,4.682961181640625,0.1588176041841507,-0.11000719666481018,-0.01426442340016365
1790592440637974300,4.692974365234375,0.3598330020904541,-0.11859269440174103,-0.03786003217101097
1790592440647987200,4.7029873046875,0.3654805123806,-0.19282084703445435,0.0008942894637584686
1790592440658000100,4.713000244140625,0.22440621256828308,-0.262591689825058,0.07195887714624405
1790592440668013000,4.723012939453125,0.14214515686035156,-0.26827752590179443,0.07494375109672546
1790592440678026200,4.733026123046875,0.25106579065322876,-0.22029268741607666,0.03831463307142258
1790592440688039200,4.7430390625,0.3724324107170105,-0.17427432537078857,0.027944549918174744
1790592440698052000,4.753052001953125,0.3052624464035034,-0.1354808658361435,0.07797309756278992
1790592440708064000,4.76306396484375,0.19981670379638672,-0.0704299584031105,0.08939965069293976
1790592440718077200,4.7730771484375,0.26640185713768005,0.030193854123353958,0.05096970871090889
1790592440728090400,4.78309033203125,0.3958498537540436,0.1058603897690773,0.00755059439688921
1790592440738103000,4.79310302734375,0.41305893659591675,0.13072365522384644,-0.015691878274083138
1790592440748116200,4.8031162109375,0.3326434791088104,0.13094496726989746,0.015000254847109318
1790592440758129200,4.813129150390625,0.2335943728685379,0.15498904883861542,0.06348124146461487
1790592440768142300,4.823142333984375,0.2580952048301697,0.21549473702907562,0.09124815464019775
1790592440778155000,4.833155029296875,0.346916139125824,0.26971617341041565,0.06167694553732872
1790592440788168200,4.843168212890625,0.35381585359573364,0.3040693402290344,0.013903298415243626
1790592440798180000,4.85318017578125,0.3165281414985657,0.3297770917415619,-0.0007680556736886501
1790592440808193300,4.863193359375,0.24798530340194702,0.3557567596435547,0.021916218101978302
1790592440818206000,4.8732060546875,0.20765039324760437,0.39219680428504944,0.04783037304878235
1790592440828219100,4.88321923828125,0.23410864174365997,0.4210604131221771,0.028078239411115646
1790592440838232300,4.893232421875,0.24218280613422394,0.43287551403045654,-0.003976099658757448
1790592440848245200,4.903245361328125,0.21383292973041534,0.4294131398200989,-0.013670804910361767
1790592440858258200,4.913258056640625,0.15207581222057343,0.4344523847103119,-0.0042131207883358
1790592440868271000,4.92327099609375,0.09398402273654938,0.43473920226097107,0.011611648835241795
1790592440878284300,4.9332841796875,0.10181078314781189,0.41001787781715393,0.020183565095067024
1790592440888297000,4.943296875,0.133760467171669,0.3634389340877533,0.012284895405173302
1790592440898309000,4.95330908203125,0.1314951777458191,0.29111891984939575,0.002576342085376382
1790592440908322000,4.963322021484375,0.10292531549930573,0.2306840717792511,0.0006924218614585698
1790592440918335200,4.973335205078125,0.07797203212976456,0.18795952200889587,0.011186341755092144
1790592440928348200,4.98334814453125,0.058872904628515244,0.1446799486875534,0.018039187416434288
1790592440938361000,4.993361083984375,0.026463830843567848,0.0970890000462532,0.015322497114539146
1790592440948374300,5.003374267578125,0.002126534003764391,0.04373070225119591,0.0049161952920258045
1790592440958387200,5.01338720703125,0.006287190597504377,-0.01287451945245266,-0.010113620199263096
1790592440968400100,5.023400146484375,0.01937875710427761,-0.07911372929811478,-0.024650217965245247
1790592440978413000,5.0334130859375,-0.005056277383118868,-0.14201731979846954,-0.032994966953992844
1790592440988425200,5.04342529296875,-0.04322336986660957,-0.18057990074157715,-0.025253424420952797
1790592440998438100,5.053438232421875,-0.05374232307076454,-0.19365282356739044,-0.013848437927663326
1790592441008451000,5.063451171875,-0.027718447148799896,-0.19136010110378265,-0.005504753906279802
1790592441018464000,5.073464111328125,0.011638013646006584,-0.19504378736019135,-0.0020873856265097857
1790592441028477000,5.083476806640625,0.02977707050740719,-0.19711333513259888,-0.008103200234472752
1790592441038490000,5.093489990234375,0.03050411306321621,-0.1952485889196396,-0.022230470553040504
1790592441048503000,5.1035029296875,0.025375930592417717,-0.1843554675579071,-0.019533487036824226
1790592441058516000,5.113515869140625,0.02316444180905819,-0.15945756435394287,0.003150519449263811
1790592441068529200,5.123529052734375,0.030538734048604965,-0.1315055638551712,0.023428093641996384
1790592441078542000,5.1335419921875,0.04277968779206276,-0.10197190195322037,0.018669292330741882
1790592441088554200,5.14355419921875,0.055741291493177414,-0.06808504462242126,-0.01858513616025448
1790592441098567000,5.15356689453125,0.07126246392726898,-0.03248656913638115,-0.04843677580356598
1790592441108580000,5.163580078125,0.08059577643871307,-0.0091759217903018,-0.03795137628912926
1790592441118593000,5.173593017578125,0.07895660400390625,0.001728924224153161,-0.0014945659786462784
1790592441128606200,5.183606201171875,0.07216687500476837,0.008125037886202335,0.027116306126117706
1790592441138619000,5.193618896484375,0.07147258520126343,0.014664163812994957,0.027965055778622627
1790592441148632000,5.203632080078125,0.08545524626970291,0.03158508986234665,0.010499779134988785
1790592441158645200,5.213645263671875,0.10562363266944885,0.046181607991456985,0.006105829495936632
1790592441168658000,5.223657958984375,0.11658679693937302,0.05270741879940033,0.00914636068046093
1790592441178670000,5.233670166015625,0.1215895488858223,0.06660006940364838,-0.008058725856244564
1790592441188683000,5.24368310546875,0.12045930325984955,0.07352002710103989,-0.019942283630371094
1790592441198696200,5.2536962890625,0.10645213723182678,0.06614653021097183,-0.016640761867165565
1790592441208709000,5.263709228515625,0.09167106449604034,0.04800907149910927,0.015873771160840988
1790592441218722000,5.27372216796875,0.09008808434009552,0.020608605816960335,0.04963573068380356
1790592441228735000,5.28373486328125,0.10510378330945969,-0.001330249011516571,0.05044559761881828
1790592441238748200,5.293748046875,0.11667175590991974,-0.007637679576873779,0.005693305749446154
1790592441248760800,5.3037607421875,0.1232588142156601,-0.005075985100120306,-0.04809722304344177
1790592441258774000,5.31377392578125,0.11860973387956619,-0.0028551749419420958,-0.06207908317446709
1790592441268787200,5.323787109375,0.1072596088051796,-0.010748517699539661,-0.02616875246167183
1790592441278799000,5.333799072265625,0.09916946291923523,-0.023784691467881203,0.02557726576924324
1790592441288812300,5.343812255859375,0.10763378441333771,-0.0370059534907341,0.043050266802310944
1790592441298825000,5.353824951171875,0.12461916357278824,-0.04580157622694969,0.018134795129299164
1790592441308838100,5.363838134765625,0.13627901673316956,-0.04417704790830612,-0.024886440485715866
1790592441318851000,5.37385107421875,0.1433321237564087,-0.02466646395623684,-0.04380447044968605
1790592441328864000,5.383864013671875,0.1261635273694992,-0.007813181728124619,-0.01890072040259838
1790592441338877000,5.393876953125,0.1060638502240181,0.003468234557658434,0.02654346078634262
1790592441348890000,5.40389013671875,0.11140322685241699,0.02287229336798191,0.017495369538664818
1790592441358903300,5.4139033203125,0.12861843407154083,0.03518994525074959,-0.010611631907522678
1790592441368916000,5.423916015625,0.13299933075904846,0.03184927627444267,-0.016269784420728683
1790592441378927900,5.433927978515625,0.15019775927066803,0.03672872111201286,-0.010149839334189892
1790592441388941000,5.443941162109375,0.15429875254631042,0.04752251133322716,-0.0015156050212681293
1790592441398954200,5.453954345703125,0.14379657804965973,0.06899451464414597,0.005336442030966282
1790592441408967000,5.463966796875,0.13733655214309692,0.09441651403903961,-0.006613960489630699
1790592441418980000,5.47397998046875,0.13916002213954926,0.11891599744558334,-0.0025928535033017397
1790592441428993000,5.483992919921875,0.1377599984407425,0.1243152916431427,0.023381488397717476
1790592441439006200,5.494006103515625,0.13576476275920868,0.124114491045475,0.03157097473740578
1790592441449019000,5.504018798828125,0.14520752429962158,0.1292562633752823,-0.020069316029548645
1790592441459032000,5.514031982421875,0.1640307456254959,0.14092916250228882,-0.06959319114685059
1790592441469044000,5.5240439453125,0.168265700340271,0.13452771306037903,-0.056881390511989594
1790592441479057200,5.53405712890625,0.16025066375732422,0.12701280415058136,-0.006452306639403105
1790592441489069800,5.54406982421875,0.13644573092460632,0.11575882136821747,0.051187288016080856
1790592441499083000,5.5540830078125,0.11379075050354004,0.11701051145792007,0.057607103139162064
1790592441509096200,5.56409619140625,0.12756195664405823,0.1307750642299652,0.0013792511308565736
1790592441519109000,5.574109130859375,0.14325089752674103,0.14642539620399475,-0.049978479743003845
1790592441529122000,5.5841220703125,0.1433907151222229,0.14284823834896088,-0.052190765738487244
1790592441539135000,5.594135009765625,0.1417158544063568,0.13836267590522766,-0.022957779467105865
1790592441549148200,5.604148193359375,0.13797438144683838,0.12936757504940033,0.01799178309738636
1790592441559160800,5.614160888671875,0.13446620106697083,0.1348704695701599,0.042993005365133286
1790592441569173000,5.624173095703125,0.11974131315946579,0.12910179793834686,0.06048890948295593
1790592441579186000,5.63418603515625,0.11879855394363403,0.12393473088741302,0.032393891364336014
1790592441589199000,5.64419921875,0.13931475579738617,0.131578266620636,-0.03110865131020546
1790592441599212300,5.65421240234375,0.14262798428535461,0.13539297878742218,-0.0952407643198967
1790592441609225000,5.664224853515625,0.12942110002040863,0.15015408396720886,-0.0862017273902893
1790592441619238100,5.674238037109375,0.12286120653152466,0.1526436060667038,-0.0015345134306699038
1790592441629251000,5.6842509765625,0.11204531043767929,0.15102040767669678,0.10361161082983017
1790592441639264000,5.694263916015625,0.1026824340224266,0.15801545977592468,0.13787397742271423
1790592441649277000,5.70427685546875,0.11240164190530777,0.17163114249706268,0.06910130381584167
1790592441659290000,5.7142900390625,0.12490624934434891,0.19464804232120514,-0.06321199238300323
1790592441669302000,5.724302001953125,0.11583791673183441,0.21356821060180664,-0.13715572655200958
1790592441679315200,5.734315185546875,0.09387323260307312,0.22136114537715912,-0.09565195441246033
1790592441689327900,5.744327880859375,0.08216197788715363,0.21796216070652008,0.029649239033460617
1790592441699341000,5.754341064453125,0.07100200653076172,0.2113995999097824,0.13423104584217072
1790592441709354200,5.764354248046875,0.06817745417356491,0.22264346480369568,0.12837421894073486
1790592441719367000,5.774366943359375,0.08437613397836685,0.2437189221382141,0.006077866069972515
1790592441729380000,5.784380126953125,0.0950748473405838,0.267226904630661,-0.11780785769224167
1790592441739393000,5.79439306640625,0.07911425828933716,0.26958566904067993,-0.12675155699253082
1790592441749406200,5.80440625,0.05910699442028999,0.2503959834575653,-0.03867735341191292
1790592441759419000,5.8144189453125,0.03728398680686951,0.23268890380859375,0.10162143409252167
1790592441769431000,5.82443115234375,0.007695470005273819,0.21026615798473358,0.1475636214017868
1790592441779444000,5.83444384765625,0.009315471164882183,0.2257724106311798,0.0808652862906456
1790592441789457200,5.84445703125,0.047809600830078125,0.23284682631492615,0.014552311040461063
1790592441799469800,5.8544697265625,0.10887428373098373,0.243056058883667,-0.03650767728686333
1790592441809483000,5.86448291015625,0.13755306601524353,0.23874279856681824,-0.04229046404361725
1790592441819496200,5.87449609375,0.09958437830209732,0.20673958957195282,-0.04511341452598572
1790592441829509000,5.884509033203125,0.0375489741563797,0.2205590009689331,-0.0001203748834086582
1790592441839522000,5.89452197265625,-0.05416656658053398,0.12555579841136932,0.029147764667868614
1790592441849535000,5.904534912109375,-0.09168224781751633,0.2285844385623932,-0.0671851634979248
1790592441859547100,5.914547119140625,0.03904566913843155,0.2746856212615967,0.19750428199768066
1790592441869560000,5.92456005859375,0.17330308258533478,0.12872256338596344,0.19085277616977692
1790592441879573000,5.934572998046875,0.18721596896648407,0.120613232254982,0.2060714066028595
1790592441889586000,5.9445859375,0.1308957040309906,0.10846815258264542,0.07266754657030106
1790592441899599000,5.95459912109375,-0.04573472961783409,0.17055895924568176,-0.12284842133522034
1790592441909612000,5.964612060546875,-0.12022174894809723,0.20899289846420288,-0.02732323296368122
1790592441919625000,5.974625,-0.014058827422559261,0.1510624885559082,0.04379195719957352
1790592441929638100,5.98463818359375,0.11426772177219391,0.10751260817050934,0.08720547705888748
1790592441939651000,5.994651123046875,0.07296528667211533,0.053888797760009766,-0.03687412664294243
1790592441949664000,6.0046640625,-0.01985652931034565,0.10781381279230118,-0.11510688066482544
1790592441959676000,6.014676025390625,-0.022975090891122818,0.12324470281600952,-0.1338834911584854
1790592441969689000,6.024689208984375,0.015339541248977184,0.12534141540527344,-0.12317945808172226
1790592441979702000,6.034701904296875,0.025462748482823372,0.09816411882638931,-0.07377009093761444
1790592441989715200,6.044715087890625,-0.012867328710854053,0.08729416131973267,-0.03020397573709488
1790592441999727600,6.0547275390625,-0.06060262769460678,0.06560830771923065,0.06801660358905792
1790592442009740800,6.06474072265625,-0.08780761808156967,0.057134125381708145,0.10626199096441269
1790592442019753700,6.074753662109375,-0.06375101953744888,0.07354505360126495,0.08114279061555862
1790592442029767000,6.084766845703125,-0.053767092525959015,0.06532840430736542,-0.03638943284749985
1790592442039779600,6.094779541015625,-0.11073184013366699,0.08489331603050232,-0.0879218652844429
1790592442049792800,6.104792724609375,-0.2020319253206253,0.08181177824735641,-0.08744942396879196
1790592442059804700,6.1148046875,-0.26186755299568176,0.10801435261964798,0.028354143723845482
1790592442069817900,6.12481787109375,-0.23090112209320068,0.06462612748146057,0.13684307038784027
1790592442079830500,6.13483056640625,-0.1718047857284546,0.024140490218997,0.17335979640483856
1790592442089843700,6.14484375,-0.14892929792404175,-0.02749527432024479,0.07952012866735458
1790592442099856600,6.154856689453125,-0.14709649980068207,-0.06798011809587479,-0.08276411890983582
1790592442109869800,6.164869873046875,-0.07587319612503052,-0.030232736840844154,-0.29889217019081116
1790592442119882800,6.1748828125,-0.051348939538002014,-0.010084325447678566,-0.021568141877651215
1790592442129895700,6.184895751953125,-0.06678275763988495,-0.09018741548061371,0.18031197786331177
1790592442139908900,6.194908935546875,-0.27299344539642334,-0.09452490508556366,0.5829896330833435
1790592442149920800,6.204920654296875,-0.5991473197937012,-0.1436823308467865,0.818001389503479
1790592442159933700,6.21493359375,-0.7382194399833679,-0.11152013391256332,0.9143886566162109
1790592442169946600,6.224946533203125,-0.5806775093078613,-0.25368019938468933,0.8076741695404053
1790592442179959800,6.234959716796875,-0.07326595485210419,-0.18219776451587677,0.3692198395729065
1790592442189972700,6.24497265625,0.381584107875824,-0.07801863551139832,0.02857678383588791
1790592442199985700,6.254985595703125,0.45270010828971863,-0.06954871863126755,-0.0612092949450016
1790592442209998600,6.26499853515625,0.18557998538017273,-0.09420639276504517,-0.16686062514781952
1790592442220011800,6.27501171875,-0.15058603882789612,0.029591714963316917,-0.2708386778831482
1790592442230024700,6.285024658203125,-0.37858670949935913,0.10880105197429657,-0.37200525403022766
1790592442240037600,6.29503759765625,-0.396788090467453,0.04309979826211929,-0.25530579686164856
1790592442250049800,6.3050498046875,-0.30352073907852173,-0.00004713794987765141,-0.016743293032050133
1790592442260062700,6.315062744140625,-0.27444514632225037,-0.08524272590875626,0.20291157066822052
1790592442270076000,6.325075927734375,-0.31263354420661926,-0.04873824492096901,0.17398057878017426
1790592442280088600,6.335088623046875,-0.3000261187553406,-0.0012665993999689817,-0.054114632308483124
1790592442290101800,6.345101806640625,-0.22518783807754517,0.00042024682625196874,-0.21336154639720917
1790592442300114700,6.35511474609375,-0.2236967384815216,-0.06535370647907257,-0.13787291944026947
1790592442310127600,6.365127685546875,-0.30404484272003174,-0.19773517549037933,-0.041364219039678574
1790592442320140800,6.375140869140625,-0.36964142322540283,-0.28517502546310425,-0.043595146387815475
1790592442330153700,6.38515380859375,-0.32140493392944336,-0.3486197590827942,-0.14287513494491577
1790592442340165600,6.39516552734375,-0.25570234656333923,-0.40482044219970703,-0.19861268997192383
1790592442350178800,6.4051787109375,-0.23352967202663422,-0.41091084480285645,-0.1483529806137085
1790592442360191700,6.415191650390625,-0.24955923855304718,-0.34406521916389465,-0.04506414756178856
1790592442370204700,6.42520458984375,-0.23813240230083466,-0.2825922966003418,0.004998753312975168
1790592442380217900,6.4352177734375,-0.1969788372516632,-0.18580102920532227,0.04024249315261841
1790592442390230500,6.44523046875,-0.15543566644191742,-0.10531550645828247,0.06119438260793686
1790592442400243700,6.45524365234375,-0.15578293800354004,-0.024333035573363304,0.0599520169198513
1790592442410256600,6.465256591796875,-0.15204545855522156,0.049556899815797806,0.05783560127019882
1790592442420269800,6.475269775390625,-0.11502937972545624,0.11069295555353165,0.03645841032266617
1790592442430282800,6.48528271484375,-0.051301803439855576,0.21655254065990448,-0.0005166532355360687
1790592442440294700,6.495294677734375,-0.00629091914743185,0.30738896131515503,0.011434814892709255
1790592442450307600,6.5053076171875,-0.020232034847140312,0.3619734048843384,0.0498032420873642
1790592442460320800,6.51532080078125,-0.034691400825977325,0.4446552097797394,0.08165864646434784
1790592442470333700,6.525333740234375,-0.00954130757600069,0.46388137340545654,0.07040838897228241
1790592442480346600,6.5353466796875,0.020386764779686928,0.4584557116031647,0.02719859778881073
1790592442490359800,6.54535986328125,0.05615568161010742,0.4686926603317261,-0.039934366941452026
1790592442500372700,6.555372802734375,0.10891396552324295,0.4813879430294037,-0.032891105860471725
1790592442510385700,6.5653857421875,0.10127495229244232,0.4536593556404114,0.06824110448360443
1790592442520398600,6.575398681640625,0.06768663227558136,0.4823112487792969,0.08842334151268005
1790592442530410800,6.58541064453125,0.06449323892593384,0.5152990221977234,0.02563612163066864
1790592442540423700,6.595423583984375,0.07693073153495789,0.5147997140884399,-0.07011650502681732
1790592442550436600,6.6054365234375,0.12989541888237,0.4932776093482971,-0.14440537989139557
1790592442560449800,6.61544970703125,0.168094202876091,0.44825875759124756,-0.14670635759830475
1790592442570462700,6.625462646484375,0.14796309173107147,0.39527809619903564,-0.055752478539943695
1790592442580476000,6.635475830078125,0.13008956611156464,0.36539289355278015,0.00996208656579256
1790592442590488600,6.645488525390625,0.048282843083143234,0.32478076219558716,0.061174675822257996
1790592442600501800,6.655501708984375,-0.09987573325634003,0.31606021523475647,0.07328912615776062
1790592442610514700,6.6655146484375,-0.1287159025669098,0.36725762486457825,0.024531709030270576
1790592442620527900,6.67552783203125,-0.045030590146780014,0.33799082040786743,-0.003023220458999276
1790592442630539800,6.685539794921875,-0.06927520781755447,0.2886776030063629,0.0006777744856663048
1790592442640552700,6.695552734375,-0.17717158794403076,0.25263145565986633,0.0179305300116539
1790592442650565600,6.705565673828125,-0.15895690023899078,0.19590425491333008,0.006614759564399719
1790592442660578800,6.715578857421875,-0.055266186594963074,0.11104103177785873,0.07007282972335815
1790592442670591700,6.725591796875,-0.047982439398765564,0.0048922267742455006,0.18182891607284546
1790592442680604700,6.735604736328125,-0.07823222130537033,-0.0998203381896019,0.18390405178070068
1790592442690617900,6.745617919921875,-0.10644920915365219,-0.11098377406597137,0.1211589127779007
1790592442700630800,6.755630859375,-0.1623673439025879,-0.14439819753170013,0.04494483768939972
1790592442710643700,6.765643798828125,-0.19350634515285492,-0.16171778738498688,-0.09946214407682419
1790592442720655600,6.775655517578125,-0.15222202241420746,-0.15709134936332703,-0.21562443673610687
1790592442730668800,6.785668701171875,-0.09902511537075043,-0.2439303696155548,-0.10246352106332779
1790592442740681700,6.795681640625,-0.11680491268634796,-0.3913821578025818,0.07630409300327301
1790592442750694700,6.805694580078125,-0.13493570685386658,-0.5117210745811462,0.1280788779258728
1790592442760707600,6.81570751953125,-0.16446776688098907,-0.6217522621154785,0.01022653840482235
1790592442770720800,6.825720703125,-0.251607745885849,-0.7006467580795288,-0.11612208187580109
1790592442780733700,6.835733642578125,-0.35782817006111145,-0.7841365933418274,-0.16380438208580017
1790592442790746600,6.84574658203125,-0.3507854640483856,-0.8195664882659912,-0.14183808863162994
1790592442800759800,6.855759765625,-0.2611788809299469,-0.8268648982048035,-0.11137232929468155
1790592442810771700,6.865771728515625,-0.2320454865694046,-0.83736652135849,-0.04422445222735405
1790592442820785000,6.875784912109375,-0.2991273105144501,-0.855362594127655,-0.027246268466114998
1790592442830797600,6.885797607421875,-0.3761347532272339,-0.8626183867454529,-0.04621037095785141
1790592442840810800,6.895810791015625,-0.3923150599002838,-0.9034531712532043,-0.08011187613010406
1790592442850823700,6.90582373046875,-0.36097124218940735,-0.9568527340888977,-0.08110310882329941
1790592442860836900,6.9158369140625,-0.30970433354377747,-0.9904665946960449,-0.13408829271793365
1790592442870849500,6.925849609375,-0.3016360104084015,-0.9982917904853821,-0.11837591230869293
1790592442880862700,6.93586279296875,-0.32955846190452576,-1.0109628438949585,-0.09446977823972702
1790592442890876000,6.9458759765625,-0.3740846514701843,-0.9578503370285034,-0.16767235100269318
1790592442900887800,6.9558876953125,-0.43997231125831604,-0.8694317936897278,-0.16955281794071198
1790592442910900700,6.965900634765625,-0.42092084884643555,-0.7713750004768372,-0.12274403125047684
1790592442920913700,6.97591357421875,-0.3182096779346466,-0.7109779715538025,-0.05018247663974762
1790592442930926800,6.9859267578125,-0.19680707156658173,-0.673796534538269,-0.011287009343504906
1790592442940939800,6.995939697265625,-0.1820768564939499,-0.6177018284797668,0.0035153725184500217
1790592442950952700,7.00595263671875,-0.21986046433448792,-0.5410837531089783,0.010373544879257679
1790592442960965600,7.015965576171875,-0.23764237761497498,-0.4376590847969055,0.0263567715883255
1790592442970978800,7.025978759765625,-0.19834557175636292,-0.3369271457195282,0.02761271968483925
1790592442980991500,7.035991455078125,-0.1509317308664322,-0.25851970911026,0.00794580765068531
1790592442991003600,7.046003662109375,-0.032582443207502365,-0.15559439361095428,-0.04356957972049713
1790592443001016800,7.056016845703125,0.08455829322338104,-0.06400828063488007,-0.07252933084964752
1790592443011030000,7.066030029296875,0.13302649557590485,0.0319046713411808,-0.02269492670893669
1790592443021043000,7.07604296875,0.16481424868106842,0.12248729914426804,0.04286197945475578
1790592443031056000,7.086055908203125,0.2124565988779068,0.2145937979221344,0.08094438165426254
1790592443041068800,7.09606884765625,0.24979199469089508,0.30519798398017883,-0.08120963722467422
1790592443051082000,7.10608203125,0.27674078941345215,0.42343223094940186,-0.0862525999546051
1790592443061094700,7.1160947265625,0.2904081344604492,0.4586240351200104,-0.008954346179962158
1790592443071107800,7.12610791015625,0.3297765851020813,0.47352495789527893,0.08814637362957001
1790592443081119700,7.13611962890625,0.2937357425689697,0.49538737535476685,0.08593301475048065
1790592443091133000,7.1461328125,0.24154497683048248,0.5706453919410706,0.0724899098277092
1790592443101145900,7.156145751953125,0.2734539210796356,0.6227330565452576,0.045885734260082245
1790592443111158800,7.16615869140625,0.2903231680393219,0.6137356162071228,-0.001970206620171666
1790592443121172000,7.176171875,0.29164037108421326,0.5871279239654541,-0.029645776376128197
1790592443131185000,7.186184814453125,0.2711620032787323,0.5042564868927002,0.04861520603299141
1790592443141197800,7.19619775390625,0.21783699095249176,0.42981261014938354,0.10399270802736282
1790592443151210800,7.206210693359375,0.16123150289058685,0.40550169348716736,0.0338253416121006
1790592443161224000,7.216223876953125,0.14909493923187256,0.4156390130519867,-0.04806765913963318
1790592443171235800,7.22623583984375,0.1521109789609909,0.43388059735298157,-0.05825105682015419
1790592443181249000,7.2362490234375,0.16332606971263885,0.4254751205444336,-0.01589134894311428
1790592443191261700,7.24626171875,0.14572657644748688,0.38126611709594727,0.05415351688861847
1790592443201275000,7.25627490234375,0.11751624196767807,0.3284500539302826,0.07144142687320709
1790592443211287800,7.266287841796875,0.10586677491664886,0.2884022295475006,0.028083033859729767
1790592443221300700,7.27630078125,0.08222083747386932,0.23717287182807922,0.012330436147749424
1790592443231314000,7.28631396484375,0.035117775201797485,0.22498278319835663,-0.027148263528943062
1790592443241326800,7.296326904296875,0.02208186686038971,0.2425231635570526,0.033367276191711426
1790592443251340000,7.306340087890625,0.0170865748077631,0.24682097136974335,0.06293981522321701
1790592443261352000,7.31635205078125,0.013169864192605019,0.3278508484363556,0.056950632482767105
1790592443271364900,7.32636474609375,0.005362008698284626,0.3246944546699524,-0.0007041397620923817
1790592443281377800,7.336377685546875,-0.02256869152188301,0.3091663718223572,-0.0016117451013997197
1790592443291391000,7.346390869140625,-0.07053009420633316,0.24822844564914703,-0.0321187861263752
1790592443301403600,7.356403564453125,-0.07341615855693817,0.20255497097969055,-0.07569050043821335
1790592443311416800,7.366416748046875,-0.03519447147846222,0.17494039237499237,-0.08485576510429382
1790592443321429800,7.3764296875,0.043903008103370667,0.1671927124261856,-0.03838200867176056
1790592443331443000,7.38644287109375,0.10498713701963425,0.17372572422027588,-0.0004844290087930858
1790592443341456000,7.396455810546875,0.10224807262420654,0.19284828007221222,0.08215904980897903
1790592443351467800,7.4064677734375,0.05245441943407059,0.19884519279003143,0.0929323360323906
1790592443361481000,7.41648095703125,0.03248923271894455,0.19780682027339935,0.016865000128746033
1790592443371494000,7.426493896484375,0.017521468922495842,0.15061773359775543,-0.02245231159031391
1790592443381506800,7.4365068359375,0.0031302794814109802,0.10043738782405853,-0.02538578398525715
1790592443391519700,7.446519775390625,0.051841095089912415,0.06756652891635895,-0.046539273113012314
1790592443401533000,7.456532958984375,0.09166839718818665,0.04348862171173096,-0.06743337213993073
1790592443411545900,7.4665458984375,0.0772886648774147,0.04017271846532822,-0.0023148194886744022
1790592443421558800,7.476558837890625,0.04951775074005127,0.052258145064115524,0.10374902933835983
1790592443431572000,7.486572021484375,0.0226158294826746,0.07455066591501236,0.12710708379745483
1790592443441583900,7.496583984375,-0.044613007456064224,0.13014575839042664,0.08465123921632767
1790592443451596800,7.5065966796875,-0.07359219342470169,0.18866339325904846,0.0022679478861391544
1790592443461609700,7.516609619140625,-0.07798987627029419,0.1807897537946701,-0.03190546855330467
1790592443471623000,7.526622802734375,-0.09201966971158981,0.11619318276643753,0.02050820365548134
1790592443481635800,7.5366357421875,-0.12270487844944,0.02767397277057171,0.0558835044503212
1790592443491649000,7.54664892578125,-0.14103807508945465,-0.04939764365553856,-0.003347327234223485
1790592443501661700,7.55666162109375,-0.11924836039543152,-0.08575298637151718,-0.0967278778553009
1790592443511675000,7.5666748046875,-0.07182944566011429,-0.08988381922245026,-0.11012890189886093
1790592443521687800,7.576687744140625,-0.07536373287439346,-0.10035563260316849,-0.006706904619932175
1790592443531700000,7.586699951171875,-0.09869594871997833,-0.10890837758779526,0.05257905647158623
1790592443541712600,7.596712646484375,-0.0484040193259716,-0.0750926211476326,0.031618647277355194
1790592443551725800,7.606725830078125,-0.002444781828671694,-0.06413131207227707,-0.06633215397596359
1790592443561738800,7.61673876953125,-0.0021401161793619394,-0.0772433876991272,-0.05319158360362053
1790592443571752000,7.626751953125,-0.03352893143892288,-0.12226226180791855,0.04836380481719971
1790592443581764900,7.636764892578125,-0.05253218486905098,-0.14317686855793,0.1096053197979927
1790592443591777800,7.64677783203125,-0.05128662288188934,-0.10577143728733063,0.08209726959466934
1790592443601791000,7.656791015625,-0.0618085078895092,-0.02213699370622635,0.012684369459748268
1790592443611803600,7.6668037109375,-0.07542258501052856,0.0897943377494812,-0.02088397555053234
1790592443621815800,7.67681591796875,-0.050450656563043594,0.19815808534622192,-0.008810003288090229
1790592443631828700,7.686828857421875,0.019878633320331573,0.2917223870754242,0.015919310972094536
1790592443641842000,7.696842041015625,0.0903293639421463,0.354986310005188,-0.014218883588910103
1790592443651854800,7.706854736328125,0.1404346078634262,0.40361911058425903,-0.06125004217028618
1790592443661867800,7.71686767578125,0.13361585140228271,0.42073842883110046,0.011623899452388287
1790592443671881000,7.726880859375,0.06417445838451385,0.3739336431026459,0.14575187861919403
1790592443681894000,7.736893798828125,0.07354212552309036,0.4009213149547577,0.1449899524450302
1790592443691906800,7.74690673828125,0.13204830884933472,0.4431460201740265,0.07620981335639954
1790592443701918700,7.756918701171875,0.13785746693611145,0.45357173681259155,0.02190796099603176
1790592443711932000,7.766931884765625,0.11675910651683807,0.4937572479248047,0.04531608149409294
1790592443721944800,7.77694482421875,0.14134487509727478,0.5165014266967773,0.01145878341048956
1790592443731958000,7.7869580078125,0.20518004894256592,0.5634779930114746,-0.06811860203742981
1790592443741970700,7.796970703125,0.20934469997882843,0.5646862983703613,-0.018381403759121895
1790592443751983900,7.80698388671875,0.14354011416435242,0.5349973440170288,0.08139792084693909
1790592443761996800,7.816996826171875,0.09698140621185303,0.5912843346595764,0.08393803983926773
1790592443772009700,7.827009765625,0.11734260618686676,0.6190243363380432,0.04357464239001274
1790592443782023000,7.83702294921875,0.14140799641609192,0.6379978060722351,0.010066748596727848
1790592443792034800,7.847034912109375,0.13004136085510254,0.7265060544013977,-0.001253017340786755
1790592443802047700,7.8570478515625,0.12505218386650085,0.7401432991027832,0.014751515351235867
1790592443812061000,7.86706103515625,0.1407240927219391,0.736045777797699,0.05668804794549942
1790592443822073900,7.877073974609375,0.13182726502418518,0.7209730744361877,0.03628796711564064
1790592443832086800,7.887086669921875,0.10658236593008041,0.7377049326896667,0.03623603656888008
1790592443842100000,7.897099853515625,0.06943127512931824,0.689340353012085,0.07193384319543839
1790592443852113000,7.90711279296875,0.04595417529344559,0.6406620144844055,0.025060879066586494
1790592443862125800,7.917125732421875,0.04591316357254982,0.6394641399383545,-0.02249918319284916
1790592443872138800,7.927138671875,0.032104674726724625,0.5671930909156799,0.049186188727617264
1790592443882151000,7.93715087890625,-0.008754076436161995,0.4924938380718231,0.14653484523296356
1790592443892163800,7.947163818359375,-0.0020093549974262714,0.473410427570343,0.08991071581840515
1790592443902176800,7.9571767578125,0.011247594840824604,0.41494712233543396,-0.036252278834581375
1790592443912190000,7.96718994140625,0.008822520263493061,0.3726273775100708,-0.05649656429886818
1790592443922203000,7.977202880859375,0.002572613535448909,0.29164302349090576,-0.09699498862028122
1790592443932215800,7.9872158203125,-0.008855276741087437,0.23646339774131775,-0.004655738361179829
1790592443942228700,7.997228759765625,-0.05349411815404892,0.12923015654087067,0.0777704268693924
1790592443952242000,8.007241943359375,-0.07412083446979523,0.10342838615179062,0.04928579181432724
1790592443962254800,8.0172548828125,-0.08163174241781235,0.06975618004798889,0.008731706067919731
1790592443972267000,8.02726708984375,-0.10712352395057678,-0.024057133123278618,0.04157514125108719
1790592443982279700,8.03727978515625,-0.16790138185024261,-0.09785705804824829,0.08951283991336823
1790592443992292600,8.047292724609376,-0.2283141314983368,-0.14036616683006287,0.11445920169353485
1790592444002305500,8.057305419921875,-0.2377648949623108,-0.16755570471286774,0.0130319120362401
1790592444012318700,8.067318603515625,-0.2620217502117157,-0.16397349536418915,-0.11070574074983597
1790592444022331400,8.077331298828126,-0.30329570174217224,-0.20819847285747528,-0.06484424322843552
1790592444032344600,8.087344482421875,-0.30278462171554565,-0.30314522981643677,-0.018542790785431862
1790592444042357500,8.097357421875,-0.27923402190208435,-0.35939010977745056,-0.023722372949123383
1790592444052369700,8.10736962890625,-0.30170631408691406,-0.46250104904174805,-0.04543592408299446
1790592444062382300,8.11738232421875,-0.3502397835254669,-0.5385273694992065,-0.0022913836874067783
1790592444072395500,8.1273955078125,-0.340072363615036,-0.598415195941925,-0.021637650206685066
1790592444082408700,8.13740869140625,-0.31267109513282776,-0.6407461762428284,0.029861493036150932
1790592444092421600,8.147421630859375,-0.34132030606269836,-0.7766560912132263,0.04621543362736702
1790592444102434600,8.1574345703125,-0.3857378363609314,-0.8365838527679443,-0.06120822951197624
1790592444112447500,8.167447509765625,-0.3893464207649231,-0.8576174974441528,-0.10314316302537918
1790592444122460700,8.177460693359375,-0.37648895382881165,-0.9338968396186829,-0.10956324636936188
1790592444132473300,8.187473388671876,-0.3823830485343933,-0.986186683177948,-0.01811961457133293
1790592444142485500,8.197485595703125,-0.44179925322532654,-1.0391640663146973,0.04921388626098633
1790592444152498400,8.20749853515625,-0.423909455537796,-1.062630534172058,-0.0032985913567245007
1790592444162511600,8.21751171875,-0.3482767641544342,-1.0687716007232666,-0.13776825368404388
1790592444172524500,8.227524658203125,-0.35045814514160156,-1.1000697612762451,-0.1109323799610138
1790592444182537500,8.237537353515625,-0.44011667370796204,-1.1090800762176514,0.04326624795794487
1790592444192550700,8.247550537109374,-0.5085106492042542,-1.041251540184021,0.0023883229587227106
1790592444202563600,8.2575634765625,-0.4388599097728729,-0.9157548546791077,-0.10645986348390579
1790592444212576500,8.267576416015626,-0.3491268455982208,-0.850952684879303,-0.12487269192934036
1790592444222589400,8.27758935546875,-0.3215159773826599,-0.78580242395401,-0.1327151656150818
1790592444232601600,8.2876015625,-0.32268083095550537,-0.7120847702026367,-0.06521335989236832
1790592444242614500,8.297614501953126,-0.304288774728775,-0.6736138463020325,0.026264360174536705
1790592444252627700,8.307627685546874,-0.21117322146892548,-0.6512717604637146,0.036742035299539566
1790592444262640400,8.317640380859375,-0.1139950081706047,-0.6122332811355591,-0.07231228053569794
1790592444272653600,8.327653564453126,-0.06079597398638725,-0.49153459072113037,-0.14788587391376495
1790592444282666500,8.33766650390625,-0.05913309380412102,-0.45648232102394104,0.011835354380309582
1790592444292679400,8.347679443359375,-0.04637229070067406,-0.44558361172676086,0.14497369527816772
1790592444302692600,8.357692626953124,0.0035928706638514996,-0.33654341101646423,0.15741732716560364
1790592444312705500,8.36770556640625,-0.01558455266058445,-0.2523491680622101,-0.007352455053478479
1790592444322717700,8.3777177734375,0.036198485642671585,-0.09217466413974762,-0.17245912551879883
1790592444332730600,8.387730712890624,0.10467661172151566,0.0016114787431433797,-0.1737654060125351
1790592444342743600,8.39774365234375,0.10869638621807098,0.03484746441245079,-0.015899870544672012
1790592444352756500,8.407756591796876,0.10517195612192154,0.0473715104162693,0.08972189575433731
1790592444362769700,8.417769775390624,0.2232101857662201,0.15593554079532623,0.02901167795062065
1790592444372782600,8.427782470703125,0.2941887378692627,0.25303810834884644,-0.014035391621291637
1790592444382795500,8.43779541015625,0.22856687009334564,0.30731281638145447,-0.014182664453983307
1790592444392808400,8.447808349609375,0.22574950754642487,0.38666462898254395,-0.005160407163202763
1790592444402821600,8.457821533203125,0.24717490375041962,0.44382378458976746,0.08130577206611633
1790592444412833500,8.46783349609375,0.23337893187999725,0.4468901455402374,0.0729312002658844
1790592444422846500,8.477846435546875,0.29012930393218994,0.540199875831604,-0.02677755244076252
1790592444432859600,8.487859619140625,0.30050283670425415,0.5447245836257935,-0.045997850596904755
1790592444442872600,8.49787255859375,0.2589772343635559,0.5531489253044128,-0.014177071861922741
1790592444452885500,8.507885498046875,0.26559120416641235,0.5832005739212036,-0.01763864792883396
1790592444462898400,8.5178984375,0.27264857292175293,0.5649286508560181,0.036867205053567886
1790592444472911600,8.52791162109375,0.22224292159080505,0.5794258117675781,-0.034874893724918365
1790592444482924500,8.537924560546875,0.2505251467227936,0.6361032128334045,-0.12196798622608185
1790592444492936700,8.547936767578125,0.29873529076576233,0.6341191530227661,-0.06455262750387192
1790592444502949400,8.557949462890624,0.25935274362564087,0.6134263873100281,0.022715965285897255
1790592444512962600,8.567962646484375,0.2192860096693039,0.6025708317756653,-0.0012199940392747521
1790592444522975500,8.5779755859375,0.27032017707824707,0.6272761821746826,-0.06554998457431793
1790592444532988700,8.58798876953125,0.3240787386894226,0.5986743569374084,-0.08095024526119232
1790592444543001600,8.598001708984375,0.26463353633880615,0.5296465158462524,0.015186409465968609
1790592444553014500,8.6080146484375,0.14787574112415314,0.4971857964992523,0.08342006057500839
1790592444563027700,8.61802783203125,0.08603794872760773,0.4848974347114563,0.02917812578380108
1790592444573040400,8.628040283203125,0.10880477726459503,0.4563811123371124,-0.0660940632224083
1790592444583052500,8.638052490234376,0.12695474922657013,0.4239582121372223,-0.09060553461313248
1790592444593065500,8.6480654296875,0.10090956836938858,0.3935001492500305,0.02484329789876938
1790592444603078700,8.65807861328125,0.06357897818088531,0.33258914947509766,0.11223066598176956
1790592444613091600,8.668091552734374,0.0715564712882042,0.30540305376052856,0.11014434695243835
1790592444623104500,8.6781044921875,0.041973017156124115,0.2764483690261841,0.04846074432134628
1790592444633117400,8.688117431640626,0.01781015656888485,0.2357371598482132,-0.04195943474769592
1790592444643130600,8.698130615234374,0.02256256714463234,0.21418926119804382,-0.015990683808922768
1790592444653143600,8.7081435546875,-0.007006776984781027,0.10698077827692032,0.05986279994249344
1790592444663155500,8.718155517578126,-0.06234806403517723,0.027790086343884468,0.0994429662823677
1790592444673168600,8.728168701171874,-0.07795951515436172,-0.003270095447078347,0.06887893378734589
1790592444683181600,8.738181640625,-0.08799830079078674,-0.06906189024448395,0.04613899812102318
1790592444693194800,8.74819482421875,-0.13371491432189941,-0.10438952594995499,0.00026312030968256295
1790592444703207400,8.75820751953125,-0.15370061993598938,-0.07907670736312866,-0.040229178965091705
1790592444713220600,8.768220703125,-0.13860341906547546,-0.1552034318447113,0.051654137670993805
1790592444723233500,8.778233642578124,-0.17803791165351868,-0.24188373982906342,0.062006913125514984
1790592444733246500,8.78824658203125,-0.23518481850624084,-0.23491211235523224,-0.03761022537946701
1790592444743259600,8.798259765625,-0.20895135402679443,-0.2930696904659271,-0.1276295930147171
1790592444753271600,8.808271484375,-0.21611125767230988,-0.3657476305961609,-0.05784119665622711
1790592444763284500,8.818284423828125,-0.3136756420135498,-0.420693963766098,0.0038775624707341194
1790592444773297700,8.828297607421876,-0.3133097290992737,-0.41926971077919006,-0.03918894752860069
1790592444783310600,8.838310546875,-0.20936760306358337,-0.4229360818862915,-0.1423070728778839
1790592444793323500,8.848323486328125,-0.20037996768951416,-0.4542716145515442,-0.14699237048625946
1790592444803336700,8.858336669921876,-0.29233890771865845,-0.46628859639167786,-0.03184528276324272
1790592444813349400,8.868349365234375,-0.30438733100891113,-0.5115631222724915,0.10835257172584534
1790592444823362600,8.878362548828125,-0.2567327320575714,-0.561346173286438,0.07467157393693924
1790592444833375500,8.88837548828125,-0.2615450620651245,-0.5581692457199097,-0.09139755368232727
1790592444843387600,8.8983876953125,-0.30493274331092834,-0.5449962019920349,-0.11628053337335587
1790592444853400600,8.908400634765625,-0.324047327041626,-0.6195937395095825,-0.0626593828201294
1790592444863413500,8.91841357421875,-0.3114564120769501,-0.6183175444602966,-0.049845319241285324
1790592444873426400,8.928426513671875,-0.3105402886867523,-0.6283933520317078,-0.06823604553937912
1790592444883439600,8.938439697265625,-0.31598034501075745,-0.6046749949455261,-0.1012595072388649
1790592444893452500,8.94845263671875,-0.3102438747882843,-0.6022374033927917,-0.07536852359771729
1790592444903465500,8.958465576171875,-0.3157728612422943,-0.6327076554298401,-0.050514038652181625
1790592444913478700,8.968478759765626,-0.32901304960250854,-0.6585794687271118,0.0448143444955349
1790592444923490600,8.978490478515624,-0.36270761489868164,-0.7473391890525818,0.10157402604818344
1790592444933503700,8.988503662109375,-0.38269251585006714,-0.7655560374259949,0.024476846680045128
1790592444943516400,8.998516357421876,-0.33415400981903076,-0.7053781747817993,-0.19849684834480286
1790592444953529600,9.008529541015625,-0.255048006772995,-0.6620786190032959,-0.264385849237442
1790592444963542500,9.01854248046875,-0.2752116024494171,-0.7244900465011597,-0.16302940249443054
1790592444973555500,9.028555419921876,-0.33015313744544983,-0.7560945749282837,-0.0211204644292593
1790592444983568600,9.038568603515625,-0.27943697571754456,-0.8017632961273193,0.05814346298575401
1790592444993581800,9.048581787109375,-0.27400732040405273,-0.8497310876846313,0.0450817234814167
1790592445003594800,9.0585947265625,-0.3361356556415558,-0.8774127960205078,0.006085056811571121
1790592445013607000,9.06860693359375,-0.34786075353622437,-0.8417090773582458,-0.056470464915037155
1790592445023619600,9.07861962890625,-0.27131274342536926,-0.8631430268287659,-0.056536514312028885
1790592445033632800,9.0886328125,-0.27924948930740356,-0.9103012084960938,-0.06967681646347046
1790592445043645700,9.098645751953125,-0.3530573844909668,-0.892426609992981,-0.1312618851661682
1790592445053658600,9.10865869140625,-0.35309654474258423,-0.881654679775238,-0.12923122942447662
1790592445063671800,9.118671875,-0.34738966822624207,-0.9219887852668762,-0.02238413505256176
1790592445073684700,9.128684814453125,-0.3218984007835388,-0.9583944082260132,0.06351372599601746
1790592445083698000,9.138697998046876,-0.3113996982574463,-0.9953431487083435,-0.002409095410257578
1790592445093710600,9.148710693359375,-0.33834370970726013,-0.9981961846351624,-0.06431720405817032
1790592445103722800,9.15872265625,-0.33276861906051636,-1.0605416297912598,-0.1413525938987732
1790592445113735700,9.168735595703126,-0.32895365357398987,-1.0010838508605957,-0.07950281351804733
1790592445123748900,9.178748779296875,-0.3627225458621979,-1.0780915021896362,-0.009813215583562851
1790592445133761500,9.188761474609375,-0.29902559518814087,-1.0798708200454712,0.022976422682404518
1790592445143774700,9.198774658203124,-0.21973475813865662,-1.057545781135559,0.011884089559316635
1790592445153787600,9.20878759765625,-0.23615127801895142,-1.1289854049682617,0.01395656168460846
1790592445163800800,9.21880078125,-0.30089059472084045,-1.1341060400009155,0.0016378440195694566
1790592445173813800,9.228813720703124,-0.3267168700695038,-1.1172219514846802,-0.0016636766958981752
1790592445183826700,9.23882666015625,-0.2824766933917999,-1.1554909944534302,-0.08050123602151871
1790592445193838800,9.2488388671875,-0.2600427567958832,-1.1332815885543823,-0.14912450313568115
1790592445203851800,9.258851806640624,-0.27368906140327454,-1.1529306173324585,-0.05897490307688713
1790592445213864700,9.26886474609375,-0.2288193255662918,-1.1703583002090454,0.029920082539319992
1790592445223877600,9.278877685546876,-0.17562907934188843,-1.1775707006454468,0.1254865527153015
1790592445233890800,9.288890869140625,-0.2577684223651886,-1.2115060091018677,0.11622647196054459
1790592445243903700,9.29890380859375,-0.3157348036766052,-1.1324524879455566,-0.04970710352063179
1790592445253916700,9.308916748046874,-0.3135664463043213,-1.04441237449646,-0.10944446921348572
1790592445263929600,9.3189296875,-0.2815142273902893,-1.0269221067428589,-0.05991819500923157
1790592445273941800,9.328941650390625,-0.18409819900989532,-1.0371545553207397,0.04349154978990555
1790592445283954700,9.33895458984375,-0.08266665041446686,-1.0262874364852905,0.09483303874731064
1790592445293967600,9.348967529296875,-0.046301718801259995,-1.036415696144104,0.08492954075336456
1790592445303980800,9.358980712890625,-0.04483351856470108,-0.9827002882957458,0.09726982563734055
1790592445313993700,9.36899365234375,-0.06871940940618515,-0.9335823059082031,0.21352027356624603
1790592445324007000,9.3790068359375,-0.0645771250128746,-0.8900859355926514,0.19489465653896332
1790592445334019600,9.38901953125,-0.015080149285495281,-0.8164905905723572,0.13507845997810364
1790592445344032800,9.39903271484375,0.04855342209339142,-0.7468992471694946,0.0875018835067749
1790592445354045700,9.409045654296875,0.09896306693553925,-0.7084195017814636,0.10640260577201843
1790592445364057900,9.419057861328126,0.12183748930692673,-0.6601225137710571,0.13193432986736298
1790592445374070500,9.429070556640625,0.0943392887711525,-0.5511771440505981,0.1326320767402649
1790592445384083700,9.439083740234375,0.08507494628429413,-0.45230036973953247,0.0630095899105072
1790592445394096600,9.4490966796875,0.14582137763500214,-0.30192309617996216,0.11981188505887985
1790592445404109800,9.45910986328125,0.22423683106899261,-0.2942662537097931,0.20666024088859558
1790592445414122800,9.469122802734375,0.29746684432029724,-0.28933781385421753,0.12758778035640717
1790592445424135700,9.4791357421875,0.3166237473487854,-0.25799453258514404,0.10402706265449524
1790592445434148900,9.48914892578125,0.2416112869977951,-0.24266085028648376,0.09132511913776398
1790592445444161500,9.49916162109375,0.2908041477203369,-0.13192927837371826,0.12623330950737
1790592445454173700,9.509173583984374,0.3876883387565613,-0.05032096058130264,0.20422610640525818
1790592445464186600,9.5191865234375,0.44420886039733887,0.007253651972860098,0.21676293015480042
1790592445474199800,9.52919970703125,0.3950490653514862,0.09672307968139648,0.22000400722026825
1790592445484212700,9.539212646484375,0.3163608908653259,0.15758083760738373,0.12229102104902267
1790592445494225700,9.5492255859375,0.3898886442184448,0.2220916599035263,-0.005891977343708277
1790592445504238600,9.559238525390626,0.5267612934112549,0.2878884971141815,-0.08559692651033401
1790592445514251800,9.569251708984375,0.5339997410774231,0.32252851128578186,-0.013287309557199478
1790592445524264700,9.5792646484375,0.41541850566864014,0.33970749378204346,0.165499746799469
1790592445534277600,9.589277587890624,0.40723514556884766,0.3701367676258087,0.28597715497016907
1790592445544289800,9.599289794921875,0.5253990888595581,0.43630459904670715,0.21758665144443512
1790592445554302700,9.609302734375,0.556490957736969,0.5420254468917847,0.04562980309128761
1790592445564316000,9.61931591796875,0.4658539891242981,0.5888621807098389,0.05814000219106674
1790592445574328600,9.62932861328125,0.41603291034698486,0.6306072473526001,0.12077142298221588
1790592445584341800,9.639341796875,0.5618652105331421,0.7207092046737671,0.10894432663917542
1790592445594354700,9.649354736328124,0.6542044281959534,0.7280653715133667,0.17926669120788574
1790592445604367600,9.65936767578125,0.5659230351448059,0.7144323587417603,0.17881129682064056
1790592445614380800,9.669380859375,0.5264238715171814,0.8494011163711548,-0.02316390909254551
1790592445624392700,9.679392822265624,0.5914446711540222,0.9141910076141357,-0.016168583184480667
1790592445634405600,9.689405517578125,0.6084668040275574,0.893031120300293,0.06040315702557564
1790592445644418800,9.699418701171876,0.6391804814338684,0.9483916163444519,0.07288406044244766
1790592445654431700,9.709431640625,0.6476147174835205,0.9659114480018616,0.09916919469833374
1790592445664444700,9.719444580078125,0.6224116086959839,0.9779899716377258,0.1831386685371399
1790592445674457900,9.729457763671874,0.6334938406944275,0.9868079423904419,0.1954677700996399
1790592445684470500,9.739470458984375,0.6345700025558472,0.9828941822052002,0.1053977981209755
1790592445694483700,9.749483642578125,0.5872927904129028,1.0181964635849,-0.004574245307594538
1790592445704496600,9.75949658203125,0.5197179913520813,1.0216338634490967,0.006009955424815416
1790592445714508800,9.7695087890625,0.48881015181541443,0.9959282279014587,-0.0121277691796422
1790592445724521700,9.779521728515626,0.5229223370552063,1.0254487991333008,-0.03019571863114834
1790592445734534700,9.78953466796875,0.535131573677063,0.9127441048622131,0.06450149416923523
1790592445744547600,9.799547607421875,0.4705592691898346,0.8042871356010437,0.17888639867305756
1790592445754560800,9.809560791015626,0.3519436717033386,0.7809336185455322,0.1572388857603073
1790592445764573700,9.81957373046875,0.3077554404735565,0.769589900970459,-0.0010237190872430801
1790592445774586600,9.829586669921875,0.35417672991752625,0.7587289810180664,-0.015019962564110756
1790592445784599800,9.839599853515624,0.32963836193084717,0.7122347354888916,0.053526874631643295
1790592445794612700,9.84961279296875,0.3219141364097595,0.6936730146408081,0.019689548760652542
1790592445804625000,9.859625,0.3479161560535431,0.6805788278579712,-0.04210697486996651
1790592445814637600,9.869637451171876,0.2980615198612213,0.6437398195266724,-0.06995724886655807
1790592445824650800,9.879650634765625,0.2719974219799042,0.6557296514511108,-0.07770251482725143
1790592445834663700,9.88966357421875,0.3221069276332855,0.6666361093521118,0.031930502504110336
1790592445844676600,9.899676513671874,0.337764710187912,0.5873109102249146,0.23139433562755585
1790592445854689800,9.909689697265625,0.2691670060157776,0.5384882092475891,0.18221907317638397
1790592445864702700,9.91970263671875,0.16926918923854828,0.5963840484619141,-0.03296513855457306
1790592445874716000,9.9297158203125,0.14918601512908936,0.6368800401687622,-0.1374926120042801
1790592445884728600,9.939728515625,0.21150825917720795,0.6540862321853638,-0.0842384472489357
1790592445894740700,9.94974072265625,0.223105788230896,0.6201682090759277,0.015767777338624
1790592445904753700,9.959753662109375,0.1806880235671997,0.5966681838035583,0.07885833084583282
1790592445914766800,9.969766845703125,0.12869219481945038,0.5663944482803345,0.0750926211476326
1790592445924779800,9.97977978515625,0.13126134872436523,0.5481541752815247,-0.06003963574767113
1790592445934792700,9.989792724609375,0.1581006944179535,0.5316244959831238,0.01937423087656498
1790592445944805600,9.9998056640625,0.03629515692591667,0.46304649114608765,0.2361278384923935
1790592445954818800,10.00981884765625,-0.07070852071046829,0.3421038091182709,0.15824928879737854
1790592445964831700,10.019831787109375,0.08467121422290802,0.5101698040962219,-0.025901904329657555
1790592445974844700,10.0298447265625,0.23314084112644196,0.5208916664123535,0.013552826829254627
1790592445984856600,10.039856689453124,0.181300550699234,0.48140764236450195,0.022852851077914238
1790592445994869800,10.049869873046875,0.19974187016487122,0.5731649994850159,-0.10449045896530151
1790592446004882700,10.059882568359376,0.3599288761615753,0.6531620621681213,-0.1196017637848854
1790592446014895900,10.069895751953124,0.3534022867679596,0.6115598082542419,-0.027882764115929604
1790592446024908800,10.07990869140625,0.2605101466178894,0.6017689108848572,-0.0035712989047169685
1790592446034922000,10.089921875,0.28632470965385437,0.6142610311508179,0.02942420169711113
1790592446044934700,10.0999345703125,0.22857539355754852,0.5992487668991089,0.18926607072353363
1790592446054947800,10.10994775390625,0.18347448110580444,0.5374671816825867,0.27680736780166626
1790592446064960800,10.119960693359374,0.22152812778949738,0.550066351890564,0.3224305212497711
1790592446074973000,10.129972900390625,0.22440621256828308,0.5603634715080261,0.23552782833576202
1790592446084985900,10.13998583984375,0.13544917106628418,0.5605373382568359,0.06054377183318138
1790592446094998800,10.149998779296874,0.05028234422206879,0.6153092384338379,-0.22483816742897034
1790592446105011700,10.16001171875,0.06884537637233734,0.6578183770179749,-0.34163883328437805
1790592446115025000,10.17002490234375,0.05220940709114075,0.5480058193206787,-0.13153326511383057
1790592446125037800,10.180037841796874,-0.007932491600513458,0.4959615468978882,0.11303867399692535
1790592446135050800,10.19005078125,-0.04373762756586075,0.4327407777309418,0.26984453201293945
1790592446145064000,10.20006396484375,-0.04509184509515762,0.38302406668663025,0.22583046555519104
1790592446155076900,10.210076904296875,-0.08080749958753586,0.35628193616867065,0.11480727791786194
1790592446165088800,10.2200888671875,-0.06512413918972015,0.3253626525402069,-0.06270492821931839
1790592446175101700,10.230101806640626,0.05273378640413284,0.3344038128852844,-0.11542699486017227
1790592446185115000,10.240114990234375,0.0658557116985321,0.30452632904052734,-0.0720030888915062
1790592446195127800,10.2501279296875,0.00449781259521842,0.3319720923900604,0.0569748692214489
1790592446205140700,10.260140625,0.017943046987056732,0.35205206274986267,0.017167268320918083
1790592446215153700,10.270153564453125,0.04899417236447334,0.4233187735080719,-0.006234992761164904
1790592446225166800,10.280166748046875,0.06742911040782928,0.4278562664985657,0.14575479924678802
1790592446235179800,10.2901796875,0.051711663603782654,0.36554041504859924,0.20208625495433807
1790592446245192000,10.30019189453125,0.01667298562824726,0.39475318789482117,0.08720654249191284
1790592446255204900,10.310204833984375,0.002945722546428442,0.4743529260158539,-0.04568706080317497
1790592446265217800,10.3202177734375,0.02845880575478077,0.49263232946395874,-0.10354636609554291
1790592446275231000,10.33023095703125,0.05132976546883583,0.5016838908195496,-0.020049873739480972
1790592446285243600,10.34024365234375,-0.010865431278944016,0.48934972286224365,0.14219442009925842
1790592446295256800,10.3502568359375,-0.02863217703998089,0.48960617184638977,0.11394281685352325
1790592446305269800,10.360269775390625,0.09175042808055878,0.581233024597168,0.04435388371348381
1790592446315283000,10.370282958984374,0.11177340149879456,0.5472699999809265,0.02558259107172489
1790592446325295600,10.380295654296875,0.02666516602039337,0.5654346346855164,0.04640238732099533
1790592446335307800,10.390307861328125,0.022008629515767097,0.5832575559616089,0.03292332962155342
1790592446345320700,10.40032080078125,0.058810051530599594,0.565614640712738,-0.022885074838995934
1790592446355334000,10.410333984375,0.05348319932818413,0.584518313407898,0.03684430196881294
1790592446365346800,10.420346923828125,-0.009554356336593628,0.539912760257721,0.1317702829837799
1790592446375359700,10.43035986328125,-0.036621659994125366,0.5108757615089417,0.11301390081644058
1790592446385373000,10.440373046875,0.007417968939989805,0.5412685871124268,0.010614827275276184
1790592446395385900,10.4503857421875,0.018397383391857147,0.5416573882102966,0.11882811784744263
1790592446405398800,10.460398681640624,-0.058697134256362915,0.4446083605289459,0.17721526324748993
1790592446415411700,10.47041162109375,-0.10719196498394012,0.48126277327537537,0.07929722219705582
1790592446425424000,10.480423828125,-0.07640582323074341,0.4896506667137146,0.12434086203575134
1790592446435436800,10.490436767578124,-0.05881085246801376,0.38610002398490906,0.08904651552438736
1790592446445449700,10.50044970703125,-0.026339462026953697,0.4107166826725006,-0.014706508256494999
1790592446455462700,10.510462646484376,-0.10302598029375076,0.33380913734436035,0.0181110929697752
1790592446465475800,10.520475830078125,-0.2065236121416092,0.2488556206226349,0.006986536551266909
1790592446475489000,10.530489013671875,-0.1336989402770996,0.25793302059173584,-0.024577781558036804
1790592446485501700,10.540501708984374,-0.07773660868406296,0.19452022016048431,0.04422631859779358
1790592446495515000,10.550514892578125,-0.14813567698001862,0.16845212876796722,0.09736809879541397
1790592446505527800,10.56052783203125,-0.18495866656303406,0.16930007934570312,0.10009943693876266
1790592446515540000,10.5705400390625,-0.14554308354854584,0.1456698477268219,0.19168953597545624
1790592446525552600,10.580552734375,-0.13976162672042847,0.07204596698284149,0.22049401700496674
1790592446535565800,10.59056591796875,-0.1642661690711975,0.05139634385704994,0.04387078434228897
1790592446545578800,10.600578857421874,-0.21144060790538788,0.059056393802165985,-0.09155095368623734
1790592446555592000,10.610592041015625,-0.21660447120666504,0.023741016164422035,-0.14860092103481293
1790592446565604600,10.6206044921875,-0.1731368899345398,-0.011611382476985455,-0.10534905642271042
1790592446575617800,10.63061767578125,-0.1873706877231598,-0.048953428864479065,-0.05416550114750862
1790592446585631000,10.640630859375,-0.21494373679161072,-0.06114937365055084,0.049553439021110535
1790592446595643000,10.650642822265626,-0.21930278837680817,-0.09358774125576019,0.15717551112174988
1790592446605655800,10.66065576171875,-0.19045382738113403,-0.11113424599170685,0.17929279804229736
1790592446615668700,10.670668701171875,-0.21902528405189514,-0.09102711081504822,0.07823328673839569
1790592446625682000,10.680681884765624,-0.2573074400424957,-0.09633053094148636,-0.015196263790130615
1790592446635694800,10.69069482421875,-0.22079603374004364,-0.08550158143043518,-0.11583578586578369
1790592446645707800,10.700707763671875,-0.2215246707201004,-0.07569662481546402,-0.06744455546140671
1790592446655720700,10.710720703125,-0.23802508413791656,-0.09567698836326599,0.040103476494550705
1790592446665734000,10.72073388671875,-0.2398964911699295,-0.142580047249794,0.10683190822601318
1790592446675746800,10.730746826171876,-0.2095785290002823,-0.1662616729736328,0.03507170081138611
1790592446685758700,10.7407587890625,-0.20348520576953888,-0.16881325840950012,0.06322743743658066
1790592446695771600,10.750771728515625,-0.24740047752857208,-0.24019023776054382,0.03345516324043274
1790592446705784800,10.760784912109376,-0.2729537785053253,-0.2037230283021927,-0.034751854836940765
1790592446715798000,10.770798095703125,-0.24384301900863647,-0.17497846484184265,-0.022661102935671806
1790592446725810700,10.780810791015625,-0.24815547466278076,-0.2494652271270752,0.10718104988336563
1790592446735824000,10.790823974609374,-0.24251091480255127,-0.3005659580230713,-0.12368039786815643
1790592446745836800,10.8008369140625,-0.21996724605560303,-0.21814565360546112,-0.2286827117204666
1790592446755849700,10.810849609375,-0.24763110280036926,-0.32744842767715454,-0.07231787592172623
1790592446765862700,10.820862548828124,-0.24951794743537903,-0.3790876567363739,0.005329518113285303
1790592446775874800,10.830874755859375,-0.1951977163553238,-0.32959413528442383,0.11365891993045807
1790592446785887700,10.8408876953125,-0.25648370385169983,-0.3070816397666931,0.20200848579406738
1790592446795901000,10.85090087890625,-0.30566829442977905,-0.2554813027381897,0.14287619292736053
1790592446805913600,10.86091357421875,-0.21104033291339874,-0.15174825489521027,-0.00401498144492507
1790592446815926800,10.8709267578125,-0.15648947656154633,-0.1308341771364212,-0.1410338133573532
1790592446825940000,10.88093994140625,-0.19095930457115173,-0.14636893570423126,-0.19549226760864258
1790592446835952600,10.89095263671875,-0.22425493597984314,-0.1500598043203354,-0.10210506618022919
1790592446845965800,10.9009658203125,-0.21058227121829987,-0.18316476047039032,-0.024647822603583336
1790592446855978800,10.910978759765625,-0.20138956606388092,-0.1988545060157776,0.08305547386407852
1790592446865991000,10.920990966796875,-0.2228887379169464,-0.2482532113790512,0.149845689535141
1790592446876003800,10.93100390625,-0.18934541940689087,-0.24848304688930511,0.03813140466809273
1790592446886016800,10.941016845703125,-0.12056715786457062,-0.2117769718170166,-0.0933360755443573
1790592446896029700,10.95102978515625,-0.13071885704994202,-0.2440936267375946,-0.08493006974458694
1790592446906043000,10.96104296875,-0.16758207976818085,-0.2560648024082184,-0.08860203623771667
1790592446916055800,10.971055908203125,-0.16917598247528076,-0.263683557510376,-0.16334179043769836
1790592446926068700,10.98106884765625,-0.1821650117635727,-0.3006186783313751,-0.06708316504955292
1790592446936082000,10.99108203125,-0.16647952795028687,-0.3878513276576996,0.014053234830498695
1790592446946094800,11.0010947265625,-0.15339568257331848,-0.4428599774837494,0.031795747578144073
1790592446956107000,11.01110693359375,-0.1905001699924469,-0.46765586733818054,-0.10084591805934906
1790592446966119700,11.02111962890625,-0.14778147637844086,-0.4574674367904663,-0.03519314154982567
1790592446976132900,11.0311328125,-0.1346912384033203,-0.5230048894882202,0.0529702752828598
1790592446986145800,11.041145751953126,-0.16706036031246185,-0.49673041701316833,-0.0421794131398201
1790592446996158700,11.05115869140625,-0.1607673168182373,-0.4581547975540161,-0.009120794013142586
1790592447006171600,11.061171630859375,-0.16333726048469543,-0.534000813961029,0.09540827572345734
1790592447016184800,11.071184814453124,-0.15923146903514862,-0.5901058912277222,-0.04517706483602524
1790592447026198000,11.081197998046875,-0.17877213656902313,-0.5588678121566772,-0.07303905487060547
1790592447036210700,11.091210693359375,-0.2727798521518707,-0.6509252786636353,-0.043295010924339294
1790592447046222600,11.10122265625,-0.2834208011627197,-0.6657487154006958,-0.041243843734264374
1790592447056235800,11.11123583984375,-0.25126364827156067,-0.6459148526191711,0.05239902436733246
1790592447066249000,11.1212490234375,-0.2554331123828888,-0.6952730417251587,0.10402520000934601
1790592447076261600,11.13126171875,-0.20145376026630402,-0.6973961591720581,0.027128024026751518
1790592447086274800,11.14127490234375,-0.20712947845458984,-0.700178325176239,-0.01918860897421837
1790592447096287700,11.151287841796876,-0.2562118172645569,-0.7615293264389038,-0.0886201485991478
1790592447106301000,11.161301025390625,-0.2201661914587021,-0.7035437822341919,-0.09070753306150436
1790592447116313600,11.171313720703125,-0.21386009454727173,-0.7355099320411682,-0.09841419011354446
1790592447126326800,11.181326904296874,-0.21901783347129822,-0.7038255333900452,-0.1026611328125
1790592447136338700,11.191338623046875,-0.16024000942707062,-0.6893075704574585,-0.0754806399345398
1790592447146351900,11.201351806640625,-0.11918152123689651,-0.7159751653671265,-0.04418423771858215
1790592447156364800,11.21136474609375,-0.12319356948137283,-0.7005631327629089,-0.12536963820457458
1790592447166377700,11.221377685546875,-0.09627193957567215,-0.6551415920257568,-0.11575029790401459
1790592447176391000,11.231390869140625,-0.04600930213928223,-0.671937882900238,-0.004582501482218504
1790592447186403800,11.24140380859375,-0.044325653463602066,-0.6381258964538574,0.08245918899774551
1790592447196416800,11.251416748046875,-0.0674876943230629,-0.597302258014679,0.07526732236146927
1790592447206429700,11.2614296875,-0.04754701256752014,-0.5066434741020203,-0.05931578576564789
1790592447216443000,11.27144287109375,0.0326644703745842,-0.41873493790626526,-0.13187254965305328
1790592447226454800,11.281454833984375,0.09086545556783676,-0.36469781398773193,-0.13351544737815857
1790592447236467700,11.2914677734375,0.0752425566315651,-0.2765892446041107,-0.01878061145544052
1790592447246480600,11.301480712890625,0.07865379750728607,-0.21590645611286163,0.10676959156990051
1790592447256493800,11.311493896484375,0.10992064327001572,-0.11030573397874832,0.1978563517332077
1790592447266507000,11.321507080078124,0.1774671971797943,-0.01429291907697916,0.23136025667190552
1790592447276519700,11.331519775390625,0.18911266326904297,0.06219892576336861,0.1743512898683548
1790592447286532900,11.341532958984375,0.2336399257183075,0.16249623894691467,0.05621720105409622
1790592447296545800,11.3515458984375,0.3073386549949646,0.2771461308002472,-0.01955266296863556
1790592447306558700,11.361558837890625,0.33724701404571533,0.35544970631599426,-0.04964052513241768
1790592447316571000,11.37157080078125,0.355508029460907,0.4211094081401825,0.010440656915307045
1790592447326583800,11.381583740234374,0.32960960268974304,0.43763139843940735,0.08895224332809448
1790592447336596700,11.3915966796875,0.2851518392562866,0.4917939603328705,0.10169839859008789
1790592447346610000,11.40160986328125,0.3234270513057709,0.5752270817756653,-0.011903797276318073
1790592447356622600,11.41162255859375,0.36400192975997925,0.6229059100151062,-0.08416441082954407
1790592447366635800,11.4216357421875,0.3948141634464264,0.6582159996032715,-0.037635527551174164
1790592447376649000,11.43164892578125,0.3968959450721741,0.6508110761642456,0.07354985177516937
1790592447386662000,11.441661865234375,0.3587062358856201,0.607461154460907,0.05433647707104683
1790592447396674800,11.4516748046875,0.35228481888771057,0.6669639348983765,0.04029975086450577
1790592447406686700,11.461686767578126,0.29963386058807373,0.6107701659202576,0.071318119764328
1790592447416700000,11.471699951171875,0.2049265205860138,0.6047479510307312,0.01998569257557392
1790592447426712800,11.481712890625,0.20840993523597717,0.6556737422943115,0.0021382521372288465
1790592447436725800,11.491725830078124,0.2334202080965042,0.617773711681366,0.015604525804519653
1790592447446738700,11.50173876953125,0.3080417215824127,0.6217546463012695,-0.047560062259435654
1790592447456751900,11.511751953125,0.33970803022384644,0.5916851758956909,-0.006118346471339464
1790592447466764800,11.521764892578124,0.2596108019351959,0.5031600594520569,0.09737049788236618
1790592447476777700,11.53177783203125,0.13403236865997314,0.4515751898288727,0.07370644807815552
1790592447486791000,11.541791015625,0.08729548752307892,0.44839802384376526,-0.02094549499452114
1790592447496802800,11.551802734375,0.11023595929145813,0.39932823181152344,-0.0812048390507698
1790592447506816000,11.56181591796875,0.1073264554142952,0.33053237199783325,-0.1336051970720291
1790592447516828700,11.57182861328125,0.07883249968290329,0.29543536901474,-0.17251132428646088
1790592447526841900,11.581841796875,0.09108676761388779,0.27124589681625366,-0.08572688698768616
1790592447536854800,11.591854736328125,0.10101636499166489,0.2201901525259018,0.06409669667482376
1790592447546868000,11.601867919921874,0.12814411520957947,0.19930937886238098,0.20202820003032684
1790592447556880600,11.611880615234375,0.09885413944721222,0.16352741420269012,0.26718616485595703
1790592447566893800,11.621893798828125,0.0068094367161393166,0.1342659294605255,0.16875706613063812
1790592447576907000,11.631906982421874,0.014525147154927254,0.19389064610004425,-0.03284689784049988
1790592447586919700,11.641919677734375,0.04586655646562576,0.188943549990654,-0.05889634042978287
1790592447596931600,11.651931640625,0.011738414876163006,0.09521280229091644,-0.04133332520723343
1790592447606944800,11.66194482421875,0.023009711876511574,0.1268032193183899,-0.0794633999466896
1790592447616958000,11.6719580078125,0.014491590671241283,0.10228695720434189,-0.12434112280607224
1790592447626971000,11.681970947265626,-0.016878848895430565,0.1171276867389679,-0.03861397132277489
1790592447636983800,11.69198388671875,-0.008730906993150711,0.12954840064048767,0.07741915434598923
1790592447646996700,11.701996826171875,-0.023303724825382233,0.18225395679473877,0.13796718418598175
1790592447657010000,11.712010009765624,0.011611648835241795,0.23020683228969574,0.10661698877811432
1790592447667022600,11.722022705078125,0.013468404300510883,0.29577013850212097,0.029823143035173416
1790592447677035800,11.732035888671875,0.012035890482366085,0.3281307518482208,-0.1441904604434967
1790592447687047700,11.742047607421876,0.0571567639708519,0.3974975645542145,-0.2593687176704407
1790592447697060900,11.752060791015625,0.0842064917087555,0.40991082787513733,-0.08843851834535599
1790592447707073800,11.76207373046875,0.06576143950223923,0.3832959830760956,0.0539654977619648
1790592447717086700,11.772086669921874,0.11642701178789139,0.4373784065246582,0.011786884628236294
1790592447727100000,11.782099853515625,0.1213701069355011,0.5076360702514648,0.16666701436042786
1790592447737112800,11.79211279296875,0.05155853182077408,0.4312611222267151,0.22859136760234833
1790592447747125800,11.802125732421874,0.06391213834285736,0.46854856610298157,-0.024643827229738235
1790592447757138700,11.812138671875,0.09703519940376282,0.5575016140937805,-0.12988317012786865
1790592447767151900,11.82215185546875,0.06706265360116959,0.5310266017913818,-0.07599543035030365
1790592447777164800,11.832164794921875,0.10108426958322525,0.5428153276443481,0.0693468526005745
1790592447787177000,11.842177001953125,0.12237464636564255,0.5377036929130554,0.18777789175510406
1790592447797189600,11.852189697265626,0.09550414979457855,0.5243495106697083,0.2100333869457245
1790592447807202800,11.862202880859375,0.09702668339014053,0.4867483377456665,0.12083134800195694
1790592447817216000,11.872216064453125,0.116755910217762,0.493657648563385,-0.1557275503873825
1790592447827228700,11.882228759765624,0.08655273169279099,0.5028490424156189,-0.19563262164592743
1790592447837241900,11.892241943359375,0.008289088495075703,0.45831137895584106,-0.05578896403312683
1790592447847254800,11.9022548828125,0.010604441165924072,0.42529749870300293,0.15121588110923767
1790592447857268000,11.91226806640625,0.014092116616666317,0.3794064521789551,0.2568565607070923
1790592447867280600,11.92228076171875,-0.008422247134149075,0.3361932039260864,0.12449692189693451
1790592447877293800,11.9322939453125,-0.01426149345934391,0.343927800655365,0.06130676716566086
1790592447887305700,11.9423056640625,-0.041003890335559845,0.24979199469089508,-0.030729416757822037
1790592447897319000,11.95231884765625,-0.07435039430856705,0.24265605211257935,-0.10930971056222916
1790592447907331600,11.96233154296875,-0.09567485749721527,0.21608330309391022,-0.10851049423217773
1790592447917344800,11.9723447265625,-0.109592005610466,0.16838422417640686,-0.02864176407456398
1790592447927358000,11.98235791015625,-0.15081268548965454,0.09703786671161652,0.058574896305799484
1790592447937371000,11.992370849609374,-0.19168980419635773,0.06342371553182602,0.03898468241095543
1790592447947383800,12.0023837890625,-0.16337187588214874,0.05217292159795761,0.027459321543574333
1790592447957396700,12.012396728515625,-0.13911661505699158,-0.03434199467301369,0.009982326999306679
1790592447967410000,12.022409912109374,-0.17837506532669067,-0.10578981041908264,0.09179170429706573
1790592447977421800,12.032421875,-0.18608997762203217,-0.16052229702472687,0.09582000225782394
1790592447987434800,12.042434814453125,-0.18830519914627075,-0.2054751217365265,-0.07804659754037857
1790592447997447700,12.05244775390625,-0.2320939600467682,-0.23120632767677307,-0.14393480122089386
1790592448007460900,12.0624609375,-0.31044840812683105,-0.28734442591667175,-0.065545454621315
1790592448017474000,12.07247412109375,-0.33187007904052734,-0.33572980761528015,0.007801463827490807
1790592448027486700,12.08248681640625,-0.2924680709838867,-0.37028592824935913,0.08551889657974243
1790592448037500000,12.0925,-0.297005295753479,-0.4055040776729584,0.18802636861801147
1790592448047512800,12.102512939453124,-0.3285863995552063,-0.4436911642551422,0.11870347708463669
1790592448057525800,12.11252587890625,-0.32100704312324524,-0.3725389540195465,-0.151468887925148
1790592448067538700,12.12253857421875,-0.31125110387802124,-0.3669130206108093,-0.21978509426116943
1790592448077550800,12.13255078125,-0.3197934329509735,-0.4433542788028717,-0.138059601187706
1790592448087563800,12.142563720703125,-0.31115254759788513,-0.4383520483970642,-0.02365552820265293
1790592448097577000,12.152576904296875,-0.36514973640441895,-0.4784267544746399,0.03882782161235809
1790592448107590000,12.16258984375,-0.35404834151268005,-0.47988083958625793,-0.07028854638338089
1790592448117602800,12.172602783203125,-0.2890035808086395,-0.45747220516204834,-0.18261802196502686
1790592448127616000,12.182615966796876,-0.27523157000541687,-0.5103572607040405,-0.15218713879585266
1790592448137628700,12.192628662109374,-0.289940744638443,-0.5417162775993347,-0.008284294977784157
1790592448147641900,12.202641845703125,-0.2793533504009247,-0.5794468522071838,0.06018877029418945
1790592448157654800,12.21265478515625,-0.25049638748168945,-0.571801483631134,0.05434899032115936
1790592448167668000,12.22266796875,-0.2605634033679962,-0.5928865075111389,0.06591163575649261
1790592448177680000,12.232679931640625,-0.2474319040775299,-0.5887394547462463,-0.06106441840529442
1790592448187692800,12.24269287109375,-0.206780344247818,-0.5387345552444458,-0.13765719532966614
1790592448197705700,12.252705810546875,-0.2199763059616089,-0.5509273409843445,-0.1476307362318039
1790592448207719000,12.262718994140625,-0.21844126284122467,-0.5671859383583069,-0.07128403335809708
1790592448217731800,12.27273193359375,-0.21067628264427185,-0.5881942510604858,0.06542374938726425
1790592448227744800,12.282744873046875,-0.23893028497695923,-0.5718781352043152,0.044196221977472305
