time,seconds_elapsed,z,y,x
1789064088064109300,0.042109375,-0.11005202782452106,0.3062877166301012,0.05530837451759726
1789064088074145300,0.052145263671875,-0.10127543165087699,0.32876667494177814,0.09414685841258615
1789064088084182300,0.062182373046875,-0.11609130798876285,0.31742519671618935,0.02593867031149566
1789064088094219300,0.07221923828125,-0.27036884650886056,0.3822258779287338,-0.07747099688909947
1789064088104256300,0.08225634765625,-0.3869891468077898,0.39517362230718134,-0.13204904783815144
1789064088114293000,0.09229296875,-0.3908762173742056,0.3743219729363918,-0.17673443113043905
1789064088124330200,0.102330322265625,-0.36139293325841426,0.29754560724794865,-0.13417272546123712
1789064088134367200,0.1123671875,-0.2813870841294527,0.27465573004782196,-0.040493996017053724
1789064088144404200,0.122404296875,-0.1887035397350788,0.28198738811016083,0.04718640632778406
1789064088154440200,0.132440185546875,-0.15987608917951582,0.30876842752993106,0.1518948811672628
1789064088164477200,0.142477294921875,-0.0012403554499149322,0.35668694752454755,0.17355371873509137
1789064088174514200,0.15251416015625,-0.4063981961548328,0.3394312768191099,0.11226561222076416
1789064088184551200,0.16255126953125,-1.1498112556368112,0.5179945308119058,-0.5253090185437351
1789064088194588200,0.172588134765625,-0.6641770256817341,0.2868810053706169,-0.49665509792417284
1789064088204625200,0.182625244140625,-0.1728092205107212,-0.12538286794722078,0.14096614846102892
1789064088214662400,0.192662353515625,-0.866787510216236,0.2855260836303234,-0.08231098426617682
1789064088224699100,0.20269921875,-0.5859200660467148,0.37887013776004314,-0.17880827826242893
1789064088234735400,0.2127353515625,-0.2635615045815706,0.1643394983291626,-0.07298259942866861
1789064088244772000,0.222772216796875,0.4087678478956222,0.42536768504083156,-0.40407147024031725
1789064088254809000,0.23280908203125,0.06961597253978252,0.4302361678600311,-0.10891798229329287
1789064088264846300,0.242846435546875,-0.12751286571323872,0.6582716010302305,-0.04467727305106818
1789064088274883300,0.25288330078125,-0.19832535456120967,0.7513584655284881,0.04055522468499839
1789064088284920300,0.26292041015625,-0.00006429740786552428,0.49291211200356483,0.16133235240243374
1789064088294957000,0.27295703125,0.16281214263141155,0.4907938046753406,0.08206818848624825
1789064088304994000,0.282994140625,-0.214279879540205,0.3872410757422447,0.09641220952868461
1789064088315030000,0.293030029296875,-0.3895616276443004,0.26617840908169743,0.06189969907402992
1789064088325067300,0.3030673828125,-0.34139819297790525,0.14170096554160116,0.09395809437483549
1789064088335104300,0.313104248046875,-0.2857347579449415,-0.04506839126050472,0.21416538631506263
1789064088345141200,0.323141357421875,-0.4666518815875053,-0.00014554595053195953,0.316161825716868
1789064088355178200,0.33317822265625,-0.5526970108807087,0.029531214910745618,0.5720787338294089
1789064088365215200,0.34321533203125,-0.7378145088225603,0.0932622210651636,0.5370464372843503
1789064088375252200,0.353252197265625,-1.03058398770988,0.390927655300498,0.04734225447662174
1789064088385289200,0.363289306640625,0.00744447078704834,0.19750643939375875,0.12706198014058173
1789064088395325200,0.3733251953125,-0.33185587312877174,0.19348200618326664,0.48802222107015547
1789064088405362200,0.383362060546875,-0.09940846873521804,0.49907647985219955,0.2567519706971943
1789064088415399400,0.3933994140625,-0.043971243673563004,0.3900999723047018,0.3451443937689066
1789064088425436200,0.403436279296875,0.36843759107291696,0.42413142124414444,0.0005581453394144773
1789064088435473200,0.41347314453125,0.612663696065545,0.4380144006460905,-0.20032778042480348
1789064088445510100,0.42351025390625,0.24223113178312777,0.42668870451152324,-0.10341909261606633
1789064088455547400,0.43354736328125,-0.13815057958364485,0.5217500839531422,-0.016424042186886072
1789064088465584400,0.44358447265625,-0.40098493893444537,0.3369266005218029,0.21570114451497793
1789064088475620400,0.453620361328125,-0.21373276705145836,0.06800386116802692,0.3070874887056649
1789064088485657000,0.463656982421875,-0.2692997559726238,-0.04403144942820072,0.243272311399132
1789064088495694000,0.473694091796875,-0.19281155957579613,-0.35367958240211006,1.1306329463057219
1789064088505731000,0.48373095703125,0.14461363811790942,-0.4775719195306301,0.9007274814799427
1789064088515768300,0.493768310546875,0.41109249145090576,-0.5352969632685184,1.0456339650645852
1789064088525805300,0.503805419921875,-0.5258586883157491,-0.4868903674960136,0.8852216501165181
1789064088535842300,0.51384228515625,0.01871054568886757,-0.08113631446361541,-0.15629508888758717
1789064088545879000,0.523879150390625,-0.10409107359349727,-0.26547581377029417,-0.29097989205680785
1789064088555915000,0.5339150390625,0.07161620644629,-0.1084253034055233,-0.42232437182217836
1789064088565952300,0.5439521484375,0.41502340115904807,-0.03220832516551018,-0.4099737896192819
1789064088575989200,0.5539892578125,0.5743500397622585,-0.12140168935656546,-0.20606647020727395
1789064088586026200,0.564026123046875,0.4542342985630035,0.05829261449277401,-0.3251287568308413
1789064088596063200,0.574063232421875,0.39701135912835595,0.05118132118284702,-0.5119411490570753
1789064088606100200,0.584100341796875,0.9322902022182941,-0.29763153196573255,-0.6869132466901093
1789064088616137200,0.59413720703125,1.0781237375199795,-0.4558025707930326,-0.9069983784429728
1789064088626174200,0.60417431640625,0.7083493448853493,-0.5671446384280919,-0.7514847222566604
1789064088636210200,0.614210205078125,0.10642156236767768,-0.591647211521864,-0.4977960846528411
1789064088646247200,0.6242470703125,-0.09114332921504974,-0.5876105033516883,-0.37323110895976425
1789064088656284400,0.634284423828125,-0.3220867587864399,-0.7386585584312677,-0.2592137577008456
1789064088666321200,0.644321044921875,-0.25800796210765836,-0.615364187195897,-0.6322460561528802
1789064088676358100,0.654358154296875,-0.014540566527843475,-0.6737988405078649,-0.6783026547331362
1789064088686395100,0.66439501953125,0.2917722845435142,-0.7704635634928941,-0.5353109187286347
1789064088696432000,0.67443212890625,0.42666532363593573,-0.6508984419137239,-0.30548122255280613
1789064088706469400,0.684469482421875,0.2096516352176666,-0.4913531921237707,0.02632292038872838
1789064088716505300,0.69450537109375,0.13655308125913143,-0.09044599460065364,0.18701741327904164
1789064088726542300,0.704542236328125,-0.14771335769891739,0.2710650120794773,0.42693588420562445
1789064088736579000,0.7145791015625,0.12616437371373176,0.3130284230619669,0.8222752184685319
1789064088746616600,0.724616455078125,-0.761185447537899,0.7777706716358661,0.7603035501368344
1789064088756653600,0.734653564453125,-0.6983546050935984,0.9195242441475391,0.1988745128765702
1789064088766690800,0.74469091796875,0.161436762624979,0.4867418989360332,-0.1769043808698654
1789064088776727600,0.7547275390625,1.073922778698802,0.10541618471741676,-0.3524597582835704
1789064088786763800,0.764763671875,0.934810076084733,0.0019295067578554152,0.24053294956311583
1789064088796800500,0.774800537109375,0.048587213036417956,0.2447001522451639,0.8229318557463586
1789064088806837500,0.78483740234375,-0.1453770237058401,0.4203893121063709,1.2220493203084914
1789064088816874800,0.794874755859375,-0.19661328994631766,0.3306576032549143,1.332036685398966
1789064088826911700,0.804911865234375,0.07645604769289494,0.46873219499289986,1.0344445355955512
1789064088836948700,0.81494873046875,-0.7724334022611379,0.7098954052835702,1.0591243649523705
1789064088846985500,0.8249853515625,-0.9350649276286364,0.3797866680830717,1.1704080534636974
1789064088857022500,0.8350224609375,-0.5154103595376014,0.14348375730514526,0.7417752291470766
1789064088867058400,0.845058349609375,-0.4821037177413702,0.008587211081385613,0.29408465313911436
1789064088877095700,0.855095703125,-0.2727040114581585,-0.07014321128427982,-0.1331780518680811
1789064088887132700,0.865132568359375,0.028852000474929806,-0.10104688359200954,-0.15065036099888385
1789064088897169700,0.875169677734375,-0.4575292484551668,0.17896306696534156,0.3280255742508918
1789064088907206700,0.88520654296875,-0.585822450891137,0.44352644206583497,0.7101417812600731
1789064088917243600,0.89524365234375,-0.31800621147453784,0.4658920031309128,0.8298765603177249
1789064088927280600,0.90528076171875,-0.6055266837924719,0.6811088712602853,0.703054014956206
1789064088937317600,0.915317626953125,-0.8125707668602467,0.8337251985698938,0.34356494255773723
1789064088947353600,0.925353515625,-0.1599777959883213,0.617878215843439,-0.013119082357361912
1789064088957390600,0.935390625,0.26107202585339545,0.3952613005906343,-0.21347674646377562
1789064088967427800,0.945427734375,0.3303945684045553,0.42436873713135714,-0.46357934227436776
1789064088977464600,0.955464599609375,0.096521515122056,0.5000543849736452,-0.4368582894135266
1789064088987501600,0.96550146484375,-0.20114976433217524,0.568377395093441,-0.36024580904990433
1789064088997538600,0.97553857421875,-0.04523439547717571,0.6519926668912172,-0.23196678126975892
1789064089007575800,0.985575927734375,-0.13307868314683435,0.49844753429889677,0.09941869786828755
1789064089017612800,0.99561279296875,-0.34928047066032886,0.5974281330108642,0.04846219841726124
1789064089027648800,1.005648681640625,-0.8784732718348502,0.5710767171800136,0.15443287521228194
1789064089037685800,1.015685791015625,-0.561922519865632,0.11491641899049282,0.1503847688652575
1789064089047722500,1.025722412109375,0.056017070776224136,-0.1514332550048828,-0.20916801641918717
1789064089057759500,1.035759521484375,-0.24416706828176973,-0.2188753906369209,-0.23953334406651555
1789064089067796700,1.045796630859375,-0.487117161989212,-0.16337854434251783,-0.3099724695574492
1789064089077833700,1.055833740234375,-0.518216064608097,0.005761047744750976,-0.30221257614567876
1789064089087870700,1.06587060546875,-0.5973790331721306,0.15888590909838676,0.01997998110279441
1789064089097906700,1.07590673828125,-0.2188590240240097,0.20808336298763752,0.45637445239685476
1789064089107943400,1.085943359375,-0.28685002571046353,0.3515373096764087,0.7354075938113034
1789064089117980700,1.095980712890625,-0.4923012866288423,0.5830161612987518,0.7473762640245258
1789064089128017700,1.106017578125,0.29044249724447724,0.31732056729793545,0.3292894567068666
1789064089138054700,1.1160546875,0.5890063416242599,0.25073534075617787,-0.2259610380489379
1789064089148091600,1.126091552734375,0.015394553008675574,0.49300914263725276,-0.4764180002551526
1789064089158128600,1.136128662109375,0.16616963636577128,0.46262920194268226,-0.42400399547219275
1789064089168165600,1.14616552734375,0.4709744209617376,0.30889351521432395,0.009025748629122973
1789064089178201600,1.15620166015625,0.4031207819193601,0.29296061754524705,0.4171413431610912
1789064089188238600,1.166238525390625,-0.19070143555402755,0.44206747542917724,0.5867341589085757
1789064089198275600,1.176275634765625,-0.6635241147309542,0.4162982434004545,0.49187663147598504
1789064089208312800,1.186312744140625,-0.6212532452344894,0.16667583232223987,0.2639214970003813
1789064089218349600,1.196349609375,-0.3199333801448345,-0.10683306577801704,-0.12999686454869805
1789064089228386600,1.206386474609375,-0.1326063894599676,-0.3230909673929214,-0.4484444631151855
1789064089238423600,1.216423583984375,-0.1391197168767452,-0.4176461508780718,-0.6341558352969586
1789064089248460500,1.22646044921875,-0.38187574931681156,-0.2438987727344036,-0.6944329016052186
1789064089258496500,1.23649658203125,-0.7203513328462838,-0.0407557887583971,-0.4289630791842937
1789064089268533800,1.24653369140625,-0.487615174639225,0.03700082013905048,-0.13232567282244562
1789064089278570800,1.25657080078125,-0.26312019055485725,0.11311667609214782,0.10987988612800836
1789064089288607500,1.266607421875,-0.47637014252543447,0.2594534847408533,0.16927140177339314
1789064089298644500,1.27664453125,0.09287702113986014,0.24872166284620761,-0.2392716243904084
1789064089308681700,1.286681640625,0.673302581423521,0.11333470275700092,-0.7047757241822779
1789064089318718700,1.29671875,0.6628408086419105,0.09265548734366894,-1.025856447731331
1789064089328754700,1.306754638671875,0.4217097470551729,0.22275544694066046,-1.229906975006312
1789064089338791700,1.316791748046875,0.18920739760398864,0.18889350934922694,-1.1433072075050323
1789064089348828700,1.32682861328125,0.06834814456105232,0.09229717542529106,-1.0169612666793166
1789064089358865700,1.33686572265625,-0.252861246868968,0.07729892825782299,-0.863771596461162
1789064089368902700,1.346902587890625,-0.7144365558445454,0.03438274659514427,-0.687260379627347
1789064089378939600,1.356939697265625,-0.5598509742885828,-0.12494623009562492,-0.6752334764208644
1789064089388976600,1.3669765625,-0.21614976506531236,-0.3218710702091455,-0.6209768394459039
1789064089399013600,1.377013671875,-0.35167174971103665,-0.3300549611866474,-0.5431017918005585
1789064089409049900,1.3870498046875,-0.6208440799117088,-0.0854413181811571,-0.6268150440800935
1789064089419086600,1.397086669921875,0.26043548151552676,-0.41431437610685823,-0.41856881868094203
1789064089429123600,1.40712353515625,-0.8453934245318174,0.11650748757421969,-0.45612544607184824
1789064089439160600,1.41716064453125,-0.23178455657064914,0.7491361133038997,-0.45572607149071986
1789064089449197600,1.427197509765625,1.9584967054963112,-1.5212784236639738,0.9968673768732697
1789064089459234800,1.43723486328125,-2.108682006266713,1.3222323536127805,0.1488145238738507
1789064089469271600,1.447271484375,-0.3243237240582704,0.8721674496889114,0.879229058638215
1789064089479308500,1.45730859375,-0.11650631853044033,-0.5107669176459312,1.6237549016676842
1789064089489344500,1.467344482421875,1.7284569467663764,0.8572901985526085,0.3463064232856035
1789064089499381500,1.477381591796875,0.7293114688932896,0.5213830042064189,0.7359981070503592
1789064089509418800,1.487418701171875,-0.2937245876550674,0.4956090960025787,1.7128572265744209
1789064089519455700,1.497455810546875,-2.931649079456925,1.7845576041728257,0.06385945483967662
1789064089529492700,1.50749267578125,0.47199207357168194,1.4724328519523142,0.2931863160599023
1789064089539529500,1.517529541015625,-5.004611537566781,2.549725983867049,0.2837785093106329
1789064089549566700,1.527566650390625,-0.5551952574372291,0.7980512431204319,1.9575491955131292
1789064089559602700,1.537602783203125,2.8336557382166383,0.5778630163192748,0.7386611157145351
1789064089569639700,1.5476396484375,2.723772052696347,-0.0043014965862035745,2.366896742992848
1789064089579676700,1.5576767578125,2.5302549751996994,-0.36982524603903294,1.1993891602110116
1789064089589713700,1.567713623046875,1.5488228486716746,-0.0054202714830636975,0.050784869211167094
1789064089599750400,1.57775048828125,-3.156342216461897,0.9822206465572119,-0.08368760638162494
1789064089609787600,1.58778759765625,-2.387614098459482,0.5147597866743803,-0.7614597344346344
1789064089619824600,1.59782470703125,0.7015484326988458,-0.7910685446262359,-0.192933505455032
1789064089629861600,1.607861572265625,-0.3197773128002882,-0.512199580797553,0.49135954879932103
1789064089639897600,1.617897705078125,0.8414695290863513,-0.5731961935520172,0.49287806360349057
1789064089649934600,1.6279345703125,1.437255740109086,-1.1188187360018491,0.4719810407210141
1789064089659971800,1.637971923828125,-0.320486337852478,-0.5647586200743914,0.8528327807523309
1789064089670008600,1.648008544921875,-0.5260235234886408,-0.09913023631572723,0.7288760731507092
1789064089680045600,1.658045654296875,0.5946762039542198,-0.7349813312232494,1.013412853482738
1789064089690082600,1.66808251953125,0.015717793613672256,-0.7972662302225828,1.5582323359213768
1789064089700119800,1.678119873046875,-1.143638704481721,-0.0828448719471693,0.9763665137015283
1789064089710155800,1.68815576171875,-0.3022200287997722,-0.04552899450957775,0.5678580473944544
1789064089720192800,1.69819287109375,-0.1888040775001049,-1.008494320976734,1.5481846968986093
1789064089730229500,1.7082294921875,-1.4373130232542752,-0.0789975488692522,0.5144345002427697
1789064089740266500,1.7182666015625,-2.8489661200731993,0.9519505959779023,-0.7145096941459923
1789064089750303500,1.728303466796875,-4.690399457678199,1.8357342491805553,-1.3952363611556589
1789064089760340500,1.738340576171875,0.8744704659342766,0.5510030664443969,-0.7901883277256041
1789064089770377500,1.74837744140625,3.001054039594531,0.05113748204112053,0.8488450993556529
1789064089780414500,1.75841455078125,-0.2458463996708393,1.646889839670062,2.0891189354017374
1789064089790450700,1.76845068359375,-0.5250912110745907,2.3334932166934013,2.6707842666134236
1789064089800487400,1.7784873046875,1.8058961602777241,2.0833488275676966,1.4906328177705406
1789064089810524400,1.7885244140625,0.8441828796982764,2.106518690752983,-0.2882130576919764
1789064089820561400,1.7985615234375,-0.8642875100940466,2.9547108060926197,-0.7906373136021196
1789064089830598400,1.808598388671875,-1.6513368822067975,2.55796774251163,-0.843512067764625
1789064089840635600,1.8186357421875,-0.11971242109537124,1.345588679280877,-0.7491253727141768
1789064089850672400,1.82867236328125,0.03840075006484985,0.8827081329256296,-1.0916104110807179
1789064089860708400,1.838708251953125,-1.4284399809688328,0.78902797870934,-1.500746215505898
1789064089870745300,1.848745361328125,-2.776225878033042,0.766642543900013,-1.3361923437736927
1789064089880782300,1.8587822265625,-2.90435482981801,0.33118484199941156,0.028282676154375075
1789064089890819600,1.868819580078125,-1.296822602546215,-0.18454057483673095,1.3644303040035068
1789064089900856600,1.878856689453125,-0.5690560250073671,-0.4451280320435762,2.7848689109548923
1789064089910893600,1.8888935546875,-1.2499527148216962,-0.06566694265305996,2.871066892722249
1789064089920930300,1.898930419921875,-1.7629338013857603,0.67897419731915,1.6848101127415895
1789064089930966300,1.90896630859375,-2.0706980203092096,1.1711463046103716,0.32391229371316727
1789064089941003500,1.91900341796875,-0.8753530939877032,1.1057967573434113,-0.9131571933336555
1789064089951040500,1.92904052734375,-0.43195875386893745,1.4012848475396633,-1.452798469416797
1789064089961077500,1.939077392578125,-0.6777589763104915,1.598575013834238,-1.1565245626050977
1789064089971114500,1.949114501953125,-0.6225573135703801,1.6696102055221795,-0.509343460714072
1789064089981151500,1.9591513671875,-0.12643909900188446,1.3663041350513696,-0.015820158009603617
1789064089991188500,1.9691884765625,0.3772767310887575,1.2026315761983395,0.2538254887912422
1789064090001225500,1.9792255859375,-0.41076749728024003,1.245042730948329,0.1859869011875242
1789064090011261400,1.989261474609375,-0.6678811408966779,1.1197510484158992,-0.044977571171894666
1789064090021298400,1.99929833984375,-0.9000368688672781,0.928099764791131,-0.5871166554201394
1789064090031335400,2.00933544921875,-1.2629606649547815,0.8957645983755588,-1.2300634807422757
1789064090041372400,2.019372314453125,-1.207395429599285,0.7730787144273519,-1.3631596995458006
1789064090051409400,2.029409423828125,-1.1402525691747665,0.5773579894065857,-1.1487095049399882
1789064090061446400,2.0394462890625,-2.004689716872573,1.0944885968655347,-0.5143366658914834
1789064090071483400,2.0494833984375,-1.9672084197402,0.7504220614612102,0.5566893684525043
1789064090081519400,2.059519287109375,-1.0401835907042025,0.7060474976837635,0.9663264003980905
1789064090091556600,2.069556640625,-0.6389718572765588,0.677890493735671,0.8670634776134043
1789064090101593600,2.079593505859375,-0.232709854722023,0.6445698234140873,0.3375263199806213
1789064090111630300,2.08963037109375,-1.0668202532172202,1.1400059009373187,-0.26409378482736645
1789064090121667300,2.099667236328125,-1.4826532171934843,1.4110808498889207,-0.6770242322951555
1789064090131704600,2.10970458984375,-0.7092536002486943,1.2241875744462012,-0.587473140707612
1789064090141741600,2.119741455078125,-0.8845604827940463,1.3511843073308467,-0.2126861806079745
1789064090151778600,2.129778564453125,-0.36223756738901136,1.2880337314128876,0.025033392034843564
1789064090161814500,2.139814453125,-0.15343991865217685,1.1153390771925449,0.27424831829071045
1789064090171851500,2.1498515625,-1.0035422515273094,1.4346785830974578,0.11220905972793697
1789064090181888500,2.159888427734375,-1.0989835701972246,1.4099708428204059,-0.38505964004993437
1789064090191925500,2.169925537109375,-0.13665537258982657,0.9140794227451086,-1.1592682352900505
1789064090201962500,2.17996240234375,0.601747749775648,0.6281915200650692,-1.9171344752773642
1789064090211999500,2.18999951171875,-0.5145312386155129,0.7531979559153318,-2.3377497050940987
1789064090222036500,2.200036376953125,-2.3916022913128137,1.3939198717296122,-2.247643902233243
1789064090232072400,2.210072509765625,-3.081170947882533,1.2289485052376985,-1.4411235214531422
1789064090242109400,2.220109375,-3.8951463208436965,1.3678221383988856,-0.78663867242001
1789064090252146400,2.230146484375,-3.34149361667335,1.093576158195734,-0.4061536468092352
1789064090262183400,2.240183349609375,-2.6932781302332875,0.8721370545506477,-0.6976719565916806
1789064090272220400,2.250220458984375,-2.6662697117984293,0.974284592860937,-1.140717483272776
1789064090282257700,2.260257568359375,-1.380432613646984,1.0913467917084694,-1.8698893244996666
1789064090292294400,2.27029443359375,1.2206418646633623,0.4549064987361431,-2.2038129438132046
1789064090302330400,2.280330322265625,1.1537620390892027,1.1217758322417735,-1.9581487688414752
1789064090312367400,2.290367431640625,-0.521953497570753,1.8052531861990688,-0.9056569737713783
1789064090322404400,2.300404296875,-1.0563812767893075,2.190539036220312,-0.24714243083074688
1789064090332441600,2.310441650390625,1.8002198682069777,2.278778460687399,-0.9037271016873418
1789064090342478600,2.320478515625,3.9321407112419604,0.719952104395628,-1.6737278699740767
1789064090352515600,2.330515625,2.585496969950199,0.7390484345316887,-2.5362767197072507
1789064090362552300,2.34055224609375,1.322354518687725,0.4967383922934532,-2.7357056515961884
1789064090372589300,2.35058935546875,-0.5745739116460085,-0.07879062812030314,-1.5043299192115664
1789064090382625500,2.36062548828125,-1.3427081554085016,-0.7513795083165168,0.3925722076371312
1789064090392662500,2.37066259765625,-0.952829716899991,-1.4053630567640065,2.4384676489926873
1789064090402699500,2.380699462890625,-0.8935644579827785,-1.7580641495227813,3.577391161520779
1789064090412736500,2.390736572265625,-0.7187018120735883,-1.582306600600481,3.944017026996612
1789064090422773200,2.400773193359375,-2.239851640921831,-0.5110954189479351,3.245379221047461
1789064090432810500,2.410810546875,-2.4516262596428393,-0.717126525580883,2.9960283203870057
1789064090442847500,2.420847412109375,-1.9822347239583729,-0.4818137948840856,3.2472599202275276
1789064090452883500,2.430883544921875,-0.5688508578240871,0.5495931996464729,3.6738767285466194
1789064090462920400,2.44092041015625,0.8016016290783882,1.2439970212876796,3.5943098553568125
1789064090472957400,2.45095751953125,0.6805161660641431,1.901837829685211,3.629191783645749
1789064090482994400,2.460994384765625,0.13972294346690178,2.715720848187804,4.3006577972918745
1789064090493031400,2.471031494140625,1.3246949443340301,2.906815082451701,5.194785149854422
1789064090503068400,2.481068359375,1.8258704422920942,2.3180817125499247,4.954560681718587
1789064090513105400,2.49110546875,1.1678045929670333,1.9670587821364403,4.135264990517497
1789064090523142700,2.501142578125,0.8817740669459104,1.6157698942631482,3.7620138616830108
1789064090533178600,2.5111787109375,0.14937924508452416,0.7136480358153581,3.364599182450771
1789064090543215600,2.521215576171875,-0.14322189149856568,0.6188274793922901,2.6811092612728475
1789064090553252400,2.53125244140625,-2.577306064710021,1.3482564371854067,1.9842155225120484
1789064090563289300,2.541289306640625,-5.8529527059882875,2.1597814943850038,0.9307249256629496
1789064090573326300,2.551326416015625,-6.001771394580603,0.5186117859274149,0.9909264425169676
1789064090583363600,2.561363525390625,-3.64521002151072,-1.0751040974378585,2.3372245121762156
1789064090593400600,2.571400634765625,-1.6206272711664438,-1.4051035290449856,1.500895560848713
1789064090603436500,2.5814365234375,-0.06919102512598037,-0.36705870393514634,-0.28676048426348716
1789064090613473500,2.5914736328125,-0.20065701237916944,-0.657886401104927,-0.5082362666571513
1789064090623510300,2.60151025390625,0.04325578888058662,-0.7627098806262016,-0.8348306025285274
1789064090633547500,2.611547607421875,0.8681552914381027,-0.3485276064664125,-1.7486019091725349
1789064090643584500,2.62158447265625,0.8746750485956668,-0.06566402004361152,-2.2107921351760624
1789064090653621500,2.63162158203125,-0.4766746784299612,0.847721575218439,-2.024961082137376
1789064090663658500,2.641658447265625,-2.0286416703462598,1.2306798590749501,-2.0597715526252984
1789064090673694500,2.651694580078125,2.3802070370733737,0.4870680621504783,-3.7810891490310428
1789064090683731500,2.6617314453125,4.392851512342691,-0.7445359260320663,-4.762580896791816
1789064090693768400,2.6717685546875,1.8033833006739615,-1.0058172107219696,-4.306422936689853
1789064090703805400,2.681805419921875,-1.89868784122169,-0.5750409446358681,-3.739351948019862
1789064090713842400,2.691842529296875,-2.7148446498751637,-1.0931588095664977,-4.713156648409367
1789064090723879700,2.701879638671875,-0.6319663624286651,-1.4965654226899145,-6.369767671626806
1789064090733916400,2.71191650390625,-1.7637573927283285,-1.3011895655840635,-5.700045871299505
1789064090743952400,2.721952392578125,-2.3762574226647613,-0.8474117786169052,-5.595065739911794
1789064090753989000,2.731989013671875,-1.8075830904513597,-0.18785539847314356,-5.670751387754082
1789064090764026000,2.742026123046875,0.6993009460330009,0.48149932210743424,-5.809468369048833
1789064090774063000,2.75206298828125,2.4405980851501226,1.1641752965539693,-5.07550176782608
1789064090784100400,2.762100341796875,-0.36279987744688985,1.8470657905340193,-3.4695854513183235
1789064090794137300,2.772137451171875,-1.6175789895117283,2.821705772703886,-3.463739940160513
1789064090804174000,2.782174072265625,1.7031202609360216,2.560935944667458,-3.509529046911001
1789064090814210300,2.792210205078125,0.12209434779584408,0.04953706110715866,-2.736307124620676
1789064090824247000,2.8022470703125,1.291887484231591,-0.5954805060744285,-2.6274691487610338
1789064090834284300,2.8122841796875,3.1381980724841356,-2.6657716991484164,-2.454412675490975
1789064090844321300,2.8223212890625,2.1389333521455525,-2.5053812307059764,-1.9732227115936576
1789064090854358300,2.832358154296875,1.1221844130426644,-2.2776894964069125,-1.5541098491638898
1789064090864395300,2.842395263671875,-0.09990355877578258,-2.5461253290265797,-0.8708204920593648
1789064090874432300,2.852432373046875,-1.771352670162916,-2.4774223796784876,-0.23051435397174208
1789064090884469200,2.86246923828125,-2.643360545375943,-2.6567788298755883,-0.20482289988696573
1789064090894505200,2.872505126953125,-1.4324749355733393,-3.5108763698667285,-0.7819398470792919
1789064090904542200,2.882542236328125,1.658592552423477,-2.432393151384592,-0.2513531073283404
1789064090914579200,2.8925791015625,3.1214146954655644,-2.779372943887114,0.8527733056500554
1789064090924616200,2.9026162109375,3.3335108012259003,-1.8954133495956658,1.596472050205618
1789064090934653200,2.912653076171875,1.9368892693221569,-0.6357149013072252,1.178968230407685
1789064090944690200,2.922690185546875,1.3897569068312645,0.9086375239521265,0.6253792391233146
1789064090954727200,2.93272705078125,2.3543840290307996,0.653641603142023,0.9471701567683368
1789064090964763100,2.94276318359375,3.477348194274306,0.32458909699618815,0.9024120005007833
1789064090974800100,2.952800048828125,3.124399848756194,0.14938801291286943,1.1913869094107299
1789064090984837400,2.96283740234375,-0.6985153486132621,0.22510464041531084,1.3071562189035117
1789064090994874000,2.9728740234375,-5.408121611064672,0.9912129313081502,0.2810428738016635
1789064091004911000,2.9829111328125,-7.217942251309752,1.978718824791908,-1.7897171788930892
1789064091014948000,2.992947998046875,-0.6127350077360868,-1.524336642190814,3.1935107943832874
1789064091024985300,3.0029853515625,6.507177077454328,-3.7580847055405378,7.174128244024515
1789064091035021300,3.013021240234375,7.348601013833284,-1.3851310005962847,2.83151726488322
1789064091045058300,3.023058349609375,1.0683441017836333,2.043106833550334,0.3409866165023297
1789064091055095300,3.03309521484375,-5.7908910943508145,3.5866853518277404,-0.9557054915320128
1789064091065132000,3.043132080078125,-2.7707565067112445,3.748837569245696,-1.3993614782616495
1789064091075169300,3.053169189453125,5.329992077201605,1.9020295528650282,0.8130231137376278
1789064091085206300,3.063206298828125,3.5230852785766125,1.1979875497847794,2.7292285645365713
1789064091095243300,3.0732431640625,0.9994079282015561,2.3976398179113865,3.463941015690565
1789064091105279200,3.083279296875,0.3674088325470686,2.535057407045364,4.59214834228456
1789064091115316200,3.093316162109375,-0.07371113289892674,-0.353355172753334,3.860246856898069
1789064091125353200,3.103353271484375,-1.717530479082465,-0.282414089089632,-0.20735241836458443
1789064091135390200,3.11339013671875,-2.1107044520050287,0.46583121285438533,-2.538010119371116
1789064091145427200,3.12342724609375,-2.595362530404329,-1.8256512465834616,-3.2825720566272736
1789064091155464200,3.133464111328125,-3.1171412559300657,-2.381787584263086,-2.7610785777837035
1789064091165501200,3.143501220703125,-1.8821891263633965,-1.5131728586196898,-1.5958802217923105
1789064091175538200,3.1535380859375,-1.3678840977191924,-1.31951023517251,-1.2429922281593084
1789064091185574400,3.163574462890625,-2.648854466617107,-0.046972179055213927,-0.6319190892208367
1789064091195611100,3.173611083984375,-1.9598966354221103,0.9819459212690591,-0.5455980655957013
1789064091205648100,3.183648193359375,0.18433949930667876,0.9237561826288699,0.27195702901575713
1789064091215685000,3.19368505859375,-0.48044659818410873,1.06726799698472,0.7543939607668667
1789064091225722400,3.203722412109375,0.6896247706711292,2.400232757014036,0.9419186659809201
1789064091235759400,3.21375927734375,3.712561556249857,2.121143428432941,0.49155357353407886
1789064091245796000,3.223796142578125,0.4657786058843136,1.822138854548335,-0.22537012295108289
1789064091255832300,3.233832275390625,0.13246435064077378,2.70575065831542,-1.291429219070077
1789064091265869000,3.243869140625,0.4686246429651975,1.3741630318582057,-0.8473864980451762
1789064091275906300,3.25390625,-0.43771454091668127,1.1131968044668434,-0.40965493292845784
1789064091285943300,3.263943359375,-0.42522330813407894,0.32355683133900165,0.3445133658563718
1789064091295980300,3.273980224609375,-1.7006547476053238,-0.2747895855605602,1.3733409018203615
1789064091306017300,3.284017333984375,-2.544733582407236,-0.15153028563857077,1.934843881099671
1789064091316054000,3.294053955078125,-1.8696587306141852,-0.8888438592016696,2.603449390748143
1789064091326090000,3.304090087890625,0.33861528426110743,-1.6079729567766188,2.8202146573632954
1789064091336127200,3.314127197265625,1.124704871430993,-1.5900328109383581,2.4182279940403997
1789064091346164200,3.324164306640625,-1.871305913299322,-0.4328606711447239,2.0531500886589287
1789064091356201200,3.334201171875,-2.0523224056631326,0.44305765551030635,2.294909803538024
1789064091366238200,3.34423828125,0.6268553030252456,0.16524667630195616,2.541056355199218
1789064091376275200,3.354275146484375,2.4033628717333078,0.3431564348220825,3.0345860145792365
1789064091386312200,3.364312255859375,0.6136807641535997,2.089021612507105,3.004386983409524
1789064091396348200,3.37434814453125,-0.5248316833555698,2.896488918748498,2.4715260151162743
1789064091406385200,3.38438525390625,-0.4095581214904785,3.3159424113094804,2.6619480492070315
1789064091416422100,3.394422119140625,0.12397007853984832,3.7069729424625635,2.715674670958519
1789064091426459400,3.40445947265625,-0.6667518446058035,3.486917986652255,2.267873328052461
1789064091436496400,3.414496337890625,0.12080080085396766,2.5188491995662448,1.7594411369644105
1789064091446533000,3.424533203125,1.8887328489184378,1.1021686299741267,1.563789970048517
1789064091456570000,3.434570068359375,-1.644616049519181,1.6001614062428473,1.06150789908804
1789064091466606000,3.444606201171875,-3.827353472077846,1.977508864480257,0.7582593309581279
1789064091476643300,3.454643310546875,-3.786642691504955,0.9907838922411203,0.36755039644222703
1789064091486680300,3.464680419921875,-2.3982944824278354,-0.8677683379471302,0.4224309009365737
1789064091496717300,3.47471728515625,-1.4238514841347931,-0.07130114914774895,0.13305374963497743
1789064091506754000,3.484754150390625,-1.1381845307290552,-0.31271102767586706,-0.20154154012873768
1789064091516791000,3.494791015625,1.263036068278551,-0.924160671776533,-0.18306736047901212
1789064091526828300,3.504828369140625,0.5193973833471537,-0.34361528450548645,-0.971963894828409
1789064091536864300,3.5148642578125,0.3219569949269295,0.3118032651811838,-0.8133720002405345
1789064091546901200,3.5249013671875,-2.269212175440788,1.2520815435439347,-0.49223870625402777
1789064091556938200,3.534938232421875,1.3447925604671238,0.7928583506524562,-0.34576245260201394
1789064091566975200,3.544975341796875,2.2915835817247627,0.2879354828596115,-0.30083891317229716
1789064091577012200,3.55501220703125,1.4549649998009204,0.8782803796112537,-0.4178321749694645
1789064091587049200,3.56504931640625,0.05397475129365921,0.5332651651799678,-0.20331406622659415
1789064091597086200,3.575086181640625,-0.8201713049918413,0.705106417441368,-0.3996154772121459
1789064091607122200,3.5851220703125,0.19353753576278684,-0.6315390769273043,-0.2183237481035292
1789064091617159200,3.5951591796875,-0.4943412680238485,-0.5948217499047518,-0.4748399007508531
1789064091627196400,3.605196533203125,-0.9178659555464982,-0.578817540565133,-0.25944117324855176
1789064091637233200,3.615233154296875,-1.1774988885074853,-0.7249088500201701,0.004070172048360109
1789064091647270100,3.625270263671875,-0.8324521098941564,-0.545918895047903,0.4657442652232945
1789064091657307100,3.63530712890625,-2.085369519740343,0.012596446722745895,0.6600662293620407
1789064091667344400,3.645344482421875,-1.6318343093574046,0.856787509727478,0.5977814764931798
1789064091677380400,3.65538037109375,1.2737141141593455,0.03188157742917538,0.6741667970374227
1789064091687417300,3.665417236328125,2.5376100141376257,-0.07730068182349205,0.891251943256706
1789064091697454300,3.675454345703125,-0.8352449554830789,1.4844845242738722,1.0783183833092451
1789064091707491000,3.685490966796875,-2.640498141682148,1.837818069717288,1.002698640310019
1789064091717528000,3.695528076171875,0.2616799286186695,0.5840916815757751,0.9184457281958311
1789064091727565300,3.7055654296875,3.01875394693613,-0.7787924158990382,0.4410512110587209
1789064091737602300,3.715602294921875,1.8314210621565579,-0.30355332323014733,0.45055188372321425
1789064091747638300,3.72563818359375,-5.847392733773589,2.2992647838771343,0.6218257113602011
1789064091757675300,3.73567529296875,-7.5158473395198575,2.7345845386117693,0.7430698720674961
1789064091767712300,3.745712158203125,-4.7327053984880445,-0.2437497196525335,0.8484070001993328
1789064091777749200,3.755749267578125,2.1716601482272146,-2.466440382415056,0.8862905214570462
1789064091787786200,3.7657861328125,2.281756015193462,-1.0529477952092885,-0.5435456631105393
1789064091797823200,3.7758232421875,1.013722284758091,-1.6311095022141933,-0.6043330170284956
1789064091807860500,3.785860595703125,3.1455648018598557,-1.9319371998727322,0.02680873114429414
1789064091817896400,3.795896484375,-0.4080822037190199,-0.525569934502244,-0.5204988417830317
1789064091827933200,3.80593310546875,-0.9221920020520686,0.3120423346340656,-0.013477467340975999
1789064091837970200,3.81597021484375,1.2010644730120896,-0.3469032201349735,0.7432595494206994
1789064091848007200,3.826007080078125,0.8992495178818702,0.4962707747817039,0.4768273117084056
1789064091858044200,3.836044189453125,1.5295850642383098,1.1308622250169515,0.32015447554960846
1789064091868081400,3.846081298828125,3.407712932512164,0.23417934275269506,0.6134260587401688
1789064091878118400,3.856118408203125,1.441101309621334,0.4353057262092829,0.6019501404799521
1789064091888155100,3.866155029296875,-1.1410206309378146,1.508206176123023,0.15140256760567425
1789064091898191000,3.876191162109375,0.25008885954618454,-0.20685352893173695,0.4596196448631584
1789064091908228000,3.88622802734375,0.9044739745318889,-0.9841109903484583,0.6589073416505008
1789064091918265300,3.896265380859375,0.14278174651563166,-1.0552461352795361,0.5616149882864206
1789064091928302300,3.90630224609375,-2.7631080377846953,-0.3813537712693214,0.18941234559156
1789064091938339300,3.91633935546875,-2.798670934075117,-0.45085108586549755,-0.7382590377196669
1789064091948376000,3.9263759765625,-2.9159008907049895,-0.7978741329878568,-1.2085421154163778
1789064091958413300,3.936413330078125,-2.0609692379772664,-0.7735773115992546,-1.4268833991765975
1789064091968449300,3.94644921875,-2.637878899094462,0.10487316388189792,-1.0693640924811363
1789064091978486300,3.956486328125,-1.9515829805850982,0.18238368906378746,-1.116900408225134
1789064091988523300,3.966523193359375,3.6330922982156273,-1.2548761426985262,-1.123326568815112
1789064091998560300,3.976560302734375,3.273409676006436,-0.4311562053143978,-1.720341152589023
1789064092008597200,3.98659716796875,0.6621797143846749,1.1060907718539237,-1.7669051892347634
1789064092018634200,3.99663427734375,-0.43686172347962854,0.9471066630780697,-1.4706310632273554
1789064092028670200,4.006670166015625,0.030381694260239598,1.085256073617935,-1.8538462444543837
1789064092038707200,4.016707275390625,0.5891454578340053,0.5469610975772142,-1.9767975013405084
1789064092048744200,4.026744140625,0.23163433444499967,0.028715806874632835,-2.1230457549229262
1789064092058781200,4.03678125,-2.245629055279493,0.2347790622115135,-2.3322096066236493
1789064092068818400,4.046818359375,-2.9879695170938967,0.13685001837909222,-2.137204482526332
1789064092078855200,4.056855224609375,-0.09967150358557701,-1.1920178277254103,-1.8668910194665191
1789064092088892200,4.06689208984375,1.0620768580824136,-1.4658680866092442,-1.6855213297508655
1789064092098928000,4.07692822265625,1.3547078052818775,-1.2696247990190983,-0.9065344141930342
1789064092108965000,4.086965087890625,-1.029860349610448,-0.0810410373955965,-0.8382425298638642
1789064092119002400,4.09700244140625,-1.009438323828578,0.9084569066882133,-1.135222904444486
1789064092129039400,4.107039306640625,1.0372709181278943,0.47467035287022585,-1.408985923436284
1789064092139076400,4.117076416015625,2.3234967233359813,0.9839671979635953,-2.165735288222879
1789064092149113000,4.127113037109375,0.8932961624354123,1.5937024393618107,-2.6236533898651597
1789064092159150300,4.137150390625,-0.9557546644359827,1.7824457265853881,-2.3732246308401224
1789064092169187300,4.147187255859375,-0.7574848394542932,2.352542785078287,-2.7876307768836615
1789064092179223300,4.157223388671875,-0.31000761393606663,1.2343582553267478,-1.89707967537269
1789064092189260300,4.16726025390625,0.7188005962729453,-0.06874854205548762,-0.4442538064923137
1789064092199297300,4.17729736328125,-0.1592635102391243,-0.11534721162319182,-0.026592670390952842
1789064092209334300,4.187334228515625,-1.2735796741247176,-0.18031915774941443,-0.1290972853604704
1789064092219371300,4.197371337890625,-3.4736323886215685,0.23687866483926773,-0.5584678493671119
1789064092229408300,4.207408203125,-2.5783085197508333,0.3472609475314617,-1.1907453235715626
1789064092239445200,4.2174453125,1.9754682985633611,-1.2696300597161054,-0.5809695309672505
1789064092249481200,4.227481201171875,-0.690656451806426,-0.08936638267040252,0.0979270345384255
1789064092259518200,4.237518310546875,-3.7979964446902272,1.6342179896235465,0.5900633763965218
1789064092269555500,4.247555419921875,-1.402109607926011,0.8919248740822077,0.4144755214853212
1789064092279592200,4.25759228515625,0.3209650612801313,0.5886971295446157,0.06783303464576601
1789064092289629200,4.267629150390625,-0.14288696045577526,1.1413754357248544,0.6464831096895038
1789064092299666200,4.277666259765625,-1.1949182253420352,1.1565753429442645,1.8051850893989205
1789064092309702100,4.2877021484375,-2.9212270541638135,1.7193606171190738,2.253844510439038
1789064092319739400,4.297739501953125,-1.7168658776938914,1.256210021650791,2.02306956930235
1789064092329776400,4.3077763671875,-0.4513286402493715,0.8848030593782663,1.5202740689270198
1789064092339813000,4.317813232421875,-0.3449707907676697,1.1689344737797975,0.723970984648168
1789064092349850000,4.32785009765625,-0.1222936697602272,0.5525970576375723,1.0688598692860454
1789064092359887400,4.337887451171875,-2.8387615369230508,1.8202210382282733,1.282128306761384
1789064092369924400,4.34792431640625,-2.2780630058944222,1.6161287907034159,1.2932358301006257
1789064092379960300,4.357960205078125,-0.13414602011740206,0.650901949045062,1.2638541066631674
1789064092389997300,4.367997314453125,-0.8714660234212875,1.3410498668074606,1.1355388385258613
1789064092400034300,4.378034423828125,-3.046140551033616,1.8868512729555367,1.0740228780724108
1789064092410071300,4.3880712890625,-2.324060786959529,2.0677029301464556,0.5952675939761102
1789064092420108300,4.3981083984375,2.703704247179627,0.7706611318916082,-0.17264000142365693
1789064092430145300,4.408145263671875,3.7974832344710823,0.4448924697220325,-0.5557059103731066
1789064092440182300,4.418182373046875,1.137101411667466,1.6125246287316084,-0.38187626077346504
1789064092450218200,4.42821826171875,0.127765963691473,1.4891554386943577,-0.18347477223612366
1789064092460255200,4.438255126953125,-0.2737748555600643,1.1092302389234303,0.2974575636383146
1789064092470292200,4.448292236328125,0.23236031063199042,0.4493430193901062,0.7143469778649508
1789064092480329200,4.4583291015625,1.2646078476399183,-0.9330670318096875,0.7691879175338894
1789064092490366200,4.4683662109375,0.9545675004780292,-0.9722299984186887,0.22069164627864957
1789064092500403200,4.4784033203125,0.524094601252675,-1.4492109663188457,-0.38559075125195086
1789064092510440400,4.4884404296875,0.007801613661646842,-1.6927479200035334,-0.8223618007734418
1789064092520476400,4.498476318359375,-0.0920773951947689,-2.027887052586675,-0.6229487971059977
1789064092530513400,4.508513427734375,-1.4679635975837706,-1.3683762651503086,-0.5367090220235288
1789064092540550100,4.518550048828125,-1.7626128988683223,-1.1238105529397726,-0.2893579899434
1789064092550587100,4.528587158203125,-2.8450416401058436,-0.2555927176594734,-0.13470104191796853
1789064092560624400,4.538624267578125,1.4455536128550768,-0.8161807740509509,0.16594563661785797
1789064092570661400,4.548661376953125,4.490958835351467,-1.6683207502335309,0.8369540974885225
1789064092580698400,4.558698486328125,2.138048386004567,-0.19239771807789802,1.4032459184795618
1789064092590734300,4.568734375,-2.5087235268712043,1.2277630948454141,1.521489582196623
1789064092600771000,4.57877099609375,-3.0209856515109537,1.1483663175255059,1.3283062666989862
1789064092610808300,4.588808349609375,0.9254951352506875,-0.30001638127565383,0.5067665959633887
1789064092620845300,4.59884521484375,3.0634932523727416,-1.3731401185512542,-0.07894850382944568
1789064092630882300,4.60888232421875,2.599062553966045,-1.4334353050380944,0.23434337420798837
1789064092640919300,4.618919189453125,-0.08723404681682587,-0.809805978322029,0.7939905695527791
1789064092650956000,4.6289560546875,-1.5055553693532944,-0.8039344559401274,1.2906209714271129
1789064092660992300,4.6389921875,-0.9921282925873994,-1.0312854139775036,1.146992837215215
1789064092671029200,4.649029296875,-1.5681617553919553,-0.6125958915263414,0.8172500107176601
1789064092681066200,4.659066162109375,-2.6695623236030337,0.05194587581455707,0.9417182480379939
1789064092691103200,4.669103271484375,-2.78092952567935,0.8388041092693805,1.3218645432136953
1789064092701140200,4.67914013671875,0.6328799701422453,0.279107448759675,1.567697937272489
1789064092711177500,4.689177490234375,0.5613508574575186,1.1276742426306008,1.4171850119829177
1789064092721214200,4.699214111328125,0.8514952485382556,2.359525483572483,0.5311935830703005
1789064092731250200,4.709250244140625,3.4652439149826764,2.313295062795281,0.5976813040543347
1789064092741287200,4.719287109375,4.282169954442978,2.917663224202394,0.5919185027439147
1789064092751324200,4.72932421875,4.646487250715494,3.247614725014567,0.9949828052356838
1789064092761361200,4.739361083984375,4.899490536403656,3.088522479689121,1.4905217586115003
1789064092771398400,4.7493984375,2.5424855112195015,2.52814602022171,1.5571012860648332
1789064092781435100,4.75943505859375,2.1535960837483406,1.6590975793361662,1.1902467263996601
1789064092791472000,4.76947216796875,0.38200492865443225,0.303934431502223,1.1754448785871268
1789064092801508000,4.779508056640625,-1.1244243009239434,-0.679572747734189,0.8045378286607563
1789064092811545000,4.789545166015625,0.47017187240719793,-2.1469389639467,0.4106797824641689
1789064092821582300,4.799582275390625,-1.6706617604017258,-2.344844047269225,0.2779503146138042
1789064092831619300,4.809619384765625,-4.468427270069718,-3.063046677649021,-0.3503651971571147
1789064092841656300,4.81965625,-5.186591322004794,-3.5817280216813083,-0.38007012466695156
1789064092851693000,4.829693115234375,-5.383206950038671,-3.3195471578031777,-0.5074577200327068
1789064092861730000,4.83972998046875,-5.581928025919199,-3.0966198614269493,-0.9207940448876469
1789064092871766300,4.849766357421875,-4.257145403301716,-2.609309222692251,-1.1507502900525928
1789064092881803300,4.85980322265625,-3.154102328580618,-1.0701169566750526,-1.5067181295223533
1789064092891840300,4.86984033203125,-0.8545522980213165,0.4926034844458103,-2.187398692367971
1789064092901877200,4.879877197265625,2.8076018440276385,1.193277472397685,-2.8050094894468782
1789064092911914000,4.8899140625,3.532485559606552,1.660312215822935,-2.3163380837529894
1789064092921951200,4.899951171875,2.8151135348320007,1.9243086046904325,-1.5659678986094892
1789064092931988200,4.90998828125,2.3222072680473325,2.2191256637573242,-1.6727739302501081
1789064092942024200,4.920024169921875,1.4603800105869769,3.435357895284891,-1.9794418783694505
1789064092952061200,4.930061279296875,2.7100410489857194,3.209690360289812,-1.8886872562110424
1789064092962098200,4.94009814453125,1.6081261015117168,1.3627999263226984,-0.7910346423566341
1789064092972135400,4.950135498046875,0.3496089719623327,1.3394728267490863,-0.8759404654216021
1789064092982172200,4.960172119140625,-1.1064806479543448,0.3051420537263155,-0.8654504894588142
1789064092992209200,4.970209228515625,-2.6301871755480764,0.0918465090483427,-0.6833760855399071
1789064093002245000,4.9802451171875,-6.016629356494546,0.4516472046792507,-0.4877940383374691
1789064093012282000,4.9902822265625,-6.101393213805556,-3.04913564119637,-1.4432029580757022
1789064093022319400,5.0003193359375,-0.563513588449359,-4.120882829421759,-0.9615973991148173
1789064093032356400,5.0103564453125,0.03949848217368126,-1.5558762743145227,-0.5054248990308493
1789064093042393000,5.02039306640625,-2.4744910024017095,-0.8545335933208466,-0.6308705300159752
1789064093052430000,5.03043017578125,-0.03782908765673637,-0.3907213190734386,-0.5867300672553479
1789064093062467000,5.040467041015625,2.087478474718332,0.8044903362572192,-0.7750902003802359
1789064093072503300,5.05050341796875,2.512903442904353,2.627802326238155,-0.9137047442138194
1789064093082540300,5.060540283203125,2.1948159828871487,4.079976818537712,-0.8203662430420517
1789064093092577300,5.070577392578125,2.4584686728835106,4.124466533127427,-0.5970759585723281
1789064093102614300,5.0806142578125,2.839369439688325,3.0062656367629765,-0.1084550409566611
1789064093112651000,5.090651123046875,2.7874457757055757,1.7186147671878338,0.6784336607016622
1789064093122688300,5.100688232421875,2.281739648580551,0.6076262864202261,1.1330402266431598
1789064093132725200,5.110725341796875,-0.3824842366039753,0.08063304111659526,1.3337351598799227
1789064093142761200,5.12076123046875,-1.9122481645405291,-0.4726823939234018,1.3121231936611235
1789064093152798200,5.130798095703125,-0.36248715823590755,-1.4215665880680084,1.573734587088227
1789064093162835200,5.140835205078125,-1.9288070851534604,-0.9956716642826795,1.7481623487114906
1789064093172872200,5.1508720703125,-3.7428438817888496,-0.9338263257443904,2.1253559315614403
1789064093182909200,5.1609091796875,-3.1489737335205077,-1.5735118842482565,2.8882477446258066
1789064093192946200,5.1709462890625,-1.462529882097244,-1.6617162374019623,4.352891842398047
1789064093202983200,5.180983154296875,0.30883272493779657,-1.0608055229723452,6.551791295206546
1789064093213019100,5.19101904296875,0.2695359028160572,-0.4054588694781065,7.455313668102026
1789064093223056400,5.201056396484375,-1.154069497603178,0.6440764869391917,5.681624663946033
1789064093233093400,5.21109326171875,-0.04420739051699638,1.4876771828353403,4.272602500152588
1789064093243130000,5.221130126953125,3.9736400118440387,0.9924398427546024,4.520904476282
1789064093253167000,5.2311669921875,5.368626636022329,0.7662187655299901,4.427848006922006
1789064093263204000,5.2412041015625,1.5584078386187552,1.8284855932265518,4.502681421849132
1789064093273240300,5.251240234375,0.2861550291836262,2.293532377704978,5.143862771868705
1789064093283277300,5.26127734375,2.82598739554584,0.5406096827238798,4.772717383141815
1789064093293314300,5.271314208984375,-0.10811784489154815,0.3895411693781614,3.9341280856668948
1789064093303351000,5.28135107421875,-1.4599422036916017,0.13361059806644915,3.431506188292801
1789064093313388000,5.291387939453125,-4.076871253737807,-0.1732055263519287,2.8047552224248644
1789064093323425300,5.30142529296875,-1.8422855705201624,-2.3761790967315433,2.163731254924089
1789064093333462300,5.311462158203125,-0.974946856161952,-2.543890701842308,1.780517681132257
1789064093343498200,5.321498291015625,-3.5471336781620977,-1.7892144900679587,1.724216094326228
1789064093353535200,5.33153515625,-3.172546916809678,-3.0668396401911973,2.4531512772530317
1789064093363572200,5.341572265625,0.20441665717363355,-2.7986417079806327,2.540339146840572
1789064093373609200,5.351609130859375,1.3458458689123391,-1.8244108911335468,2.2944376559816297
1789064093383646200,5.361646240234375,1.5780845989912748,-1.7170336354762314,2.312403520783037
1789064093393683200,5.37168310546875,2.0420991178125143,-0.606175503090024,1.3823562751859426
1789064093403720200,5.38172021484375,0.9367115257918834,0.38642917483747,0.46126682754829523
1789064093413756200,5.391756103515625,1.697019021451473,1.2803700649172067,-0.2463385671019554
1789064093423793400,5.40179345703125,4.152444673377275,1.3926584734916687,-0.510922108207643
1789064093433830100,5.411830078125,4.0600212412238115,0.7832230918228625,0.2799601200662553
1789064093443867100,5.4218671875,2.5791046385645866,0.8989052344888449,1.1031515035316348
1789064093453904100,5.431904052734375,-0.5156646265596151,1.3251491178423165,1.1655294876419007
1789064093463941000,5.441941162109375,-0.9309797041416168,0.7548433850347995,0.7918469816528261
1789064093473978400,5.451978271484375,0.15946517029106616,-0.5703764599561691,0.3569936753861606
1789064093484014300,5.462014404296875,-0.3659095339000225,-1.1273954256892205,-0.044827568241953844
1789064093494051300,5.47205126953125,-1.246498774975538,-1.1949380990862846,-0.2473458444483578
1789064093504088000,5.482088134765625,-1.8286264630019664,-1.579430752903223,-0.44549481952935455
1789064093514125000,5.492125,-2.173036112755537,-1.078544008758664,-0.8583874922700225
1789064093524162300,5.502162353515625,-2.011429838782549,-1.119291029688716,-1.351738580212742
1789064093534199300,5.51219921875,0.3456500052034855,-1.0647446159869431,-1.357105952464789
1789064093544235300,5.5222353515625,1.067421141719818,-0.2459983753621578,-1.667010690548271
1789064093554272300,5.532272216796875,0.6278858151167631,0.5788701475352048,-1.5453408517748117
1789064093564309200,5.542309326171875,1.6277029086411,0.6518950517356396,-1.3789157793432474
1789064093574346200,5.55234619140625,1.4675982714027165,1.3601795146912337,-1.401762694184482
1789064093584383200,5.56238330078125,0.14641338101625442,2.331426931813359,-1.563463514573127
1789064093594420200,5.572420166015625,1.6094167258441447,2.3248171582847834,-3.142297909018397
1789064093604457200,5.582457275390625,3.1649346882402893,1.9397236159652471,-4.420020674297214
1789064093614493200,5.5924931640625,0.7363952896744013,1.1068237623035908,-3.02186886408627
1789064093624530400,5.602530517578125,-0.6008709669411182,1.0252075553685427,-2.697067001122236
1789064093634567200,5.612567138671875,-1.372484284991026,0.32140812887251374,-1.647982311081886
1789064093644604200,5.622604248046875,-4.440730869370698,1.0548860697954892,-0.04044043919891119
1789064093654641200,5.63264111328125,-7.268921327918767,-1.0620990699142216,-0.1817358926795423
1789064093664678100,5.64267822265625,-3.644564709344506,-2.8619547809839245,-3.2094431075304746
1789064093674715400,5.65271533203125,0.9873153393477201,-2.53892577291131,-5.0963241911023855
1789064093684751400,5.66275146484375,-0.1455430279225111,-1.4242717553734778,-2.838362308472395
1789064093694788000,5.6727880859375,-2.151398281443119,-0.9350783716320991,-0.7478020882211626
1789064093704825000,5.6828251953125,-1.2834101632654666,-0.6749392427146435,-1.6705847496427595
1789064093714862000,5.692862060546875,-1.0344687201887368,-0.32789164567291734,-2.6182027232438325
1789064093724899300,5.7028994140625,1.7455740857839583,0.9047691580861806,-3.9778234350085255
1789064093734936300,5.712936279296875,2.6568483879804607,1.3911498224943875,-4.350551416751742
1789064093744972800,5.722972900390625,1.8990338781803846,1.9054671260982752,-2.847495170737803
1789064093755009500,5.733009521484375,-1.945529671895504,1.8846756824821234,-0.8311136278320104
1789064093765046500,5.743046630859375,-3.138836954909563,1.924842857697606,-1.21166411989443
1789064093775083800,5.753083740234375,-0.8161024481177329,0.7985784818649292,-2.2347890968352555
1789064093785120800,5.763120849609375,-1.5405553710639477,-1.119169449135661,-2.421798984394967
1789064093795157800,5.77315771484375,-0.2209317386448383,-1.5719026954859494,-1.6067606583774088
1789064093805194500,5.783194580078125,-0.3504273026078939,-2.3823756132841107,-1.0790602146524935
1789064093815230700,5.793230712890625,-1.5765034672796725,-1.7396937955737113,-0.9617888300336896
1789064093825267700,5.803267822265625,-3.321159269174933,-0.6321861426591873,-0.28310674752891063
1789064093835304700,5.8133046875,-1.667889957600832,-0.30740356891751286,0.2309418221361935
1789064093845341700,5.823341796875,3.6255519658386706,-0.9958435137182473,0.1395449200188741
1789064093855378700,5.833378662109375,3.4598651445537802,-0.36211949396729465,0.025756080286204814
1789064093865416000,5.843416015625,-3.155596951052546,2.8440736718565223,-0.19032836445793508
1789064093875452700,5.85345263671875,-1.639168305507302,3.5722254493206735,0.22378285375963894
1789064093885488600,5.863488525390625,4.220355595564842,2.134208077189326,0.1830922391919419
1789064093895525600,5.873525634765625,3.5465479872286316,1.3003683123290537,0.319744323846139
1789064093905562600,5.883562744140625,1.7196277436226606,2.09427120359838,1.0199342911407352
1789064093915600000,5.893599853515625,-0.10703121869862078,1.2679302700608968,0.8270373913690447
1789064093925636900,5.903636962890625,-1.400906661877036,0.9940846873521805,0.9192647164285183
1789064093935673600,5.913673583984375,-1.2352449750334025,-0.1526484760135412,1.430729114819318
1789064093945709800,5.923709716796875,-0.26248247717320916,-1.6321499511778355,1.3590386740930378
1789064093955746600,5.93374658203125,-0.8956646451324224,-1.116713288155198,0.8468034374602138
1789064093965783600,5.943783447265625,-4.566899334737658,1.237591830420494,-0.4665649339564144
1789064093975820800,5.95382080078125,-7.562347809410094,-0.1768967820852995,-0.9288614698786288
1789064093985857800,5.96385791015625,2.248909392124414,-4.420322287592292,4.087780770286917
1789064093995894800,5.973894775390625,9.488265018340945,-2.814077762043476,2.0633844824254512
1789064094005931500,5.983931640625,3.6981086680054664,1.559693202254176,1.6362911426357925
1789064094015967500,5.993967529296875,2.211369642803073,1.9529425785005092,1.7037515445768832
1789064094026004700,6.004004638671875,6.999899219843745,1.893182229542732,0.4837859717398882
1789064094036041700,6.014041748046875,4.455567203974724,2.6619278832018374,0.1405970046213828
1789064094046078700,6.02407861328125,2.1400597258269785,4.0143700816392895,0.6572478109404444
1789064094056115700,6.03411572265625,3.755508133050799,4.138188769009709,0.3185711518809199
1789064094066152700,6.044152587890625,-0.15032500150203704,2.541421681380272,-1.0091327650107442
1789064094076189000,6.05418896484375,-0.7738800939381122,1.734080631867051,-1.8984125314116478
1789064094086225700,6.0642255859375,1.8100784143984316,-0.8868857108712196,-2.154636678842455
1789064094096262700,6.0742626953125,1.5611925009012222,-2.6438310854971405,-1.4084773893922566
1789064094106299600,6.084299560546875,-1.3018185111373661,-1.5521873566687105,-0.9121798727340996
1789064094116337000,6.0943369140625,-3.241559662759304,-1.2514192802429198,-0.385899269211851
1789064094126374000,6.104373779296875,-3.0365538075208662,-3.495595214104652,0.24305991075746713
1789064094136410600,6.11441064453125,-2.9951258185893295,-2.4183055893212555,-0.07344088742306921
1789064094146446600,6.124446533203125,-5.425380788901448,-0.16694763500094412,-1.5992198876090347
1789064094156483600,6.134483642578125,-4.49479622155726,-1.2788947316676378,-1.9546525972887872
1789064094166520800,6.144520751953125,-2.396296586608887,-1.5006740270525216,-2.097148074208945
1789064094176557800,6.154557861328125,-1.3161094868183134,-0.27096155170500275,-2.1177162304632366
1789064094186594800,6.1645947265625,2.641156313329935,-1.4773106871217487,-1.5068062461972236
1789064094196631600,6.174631591796875,4.294519732928276,-1.0740314997702836,-1.1066214446645228
1789064094206668500,6.18466845703125,1.2657248689711094,0.47133799357712264,-0.3365614204712212
1789064094216704500,6.19470458984375,-1.4567910461843012,1.1447393592000008,0.34116803748384117
1789064094226741800,6.20474169921875,1.0072288310855626,2.185299966523051,0.3942909942537546
1789064094236778800,6.21477880859375,1.0362322227299212,1.196058043026924,-1.4237693588092923
1789064094246815700,6.224815673828125,1.63650522377789,0.5071440509736538,-2.4170357155159112
1789064094256852700,6.234852783203125,0.6358358973383903,-0.02509177115857601,-2.7542347032383083
1789064094266889700,6.2448896484375,-0.0547071572214365,-0.42274785793125624,-2.7504823649674655
1789064094276925700,6.25492578125,0.12012041737437247,-1.1773749698668718,-1.1556775173217058
1789064094286962700,6.264962646484375,-0.12056114687919615,-1.4023849177360534,0.4120582312105223
1789064094296999700,6.274999755859375,-0.45556642394959923,-1.3109049039125442,1.4407676937527953
1789064094307036700,6.28503662109375,-1.19166419198215,-0.9133283121168613,1.7567070358254013
1789064094317074000,6.295073974609375,-1.0302531483203172,-0.13967501267194746,1.3176692834809423
1789064094327110700,6.305110595703125,0.064318450653553,-0.35735330247879027,1.1277785067226738
1789064094337147600,6.315147705078125,-2.64058698900938,0.7204337504327297,0.9765104522168636
1789064094347183600,6.32518359375,-3.4393630392730232,1.4345388823658227,0.29585407396443186
1789064094357220600,6.335220703125,0.9765952078908682,0.5620049374520778,-0.35155356669146565
1789064094367257900,6.3452578125,0.7181681435883045,0.050614334949851035,-0.21728397499332203
1789064094377294800,6.355294921875,-3.1414111893117425,1.94868901270926,0.03488978280182928
1789064094387331800,6.365331787109375,-1.5132318953305481,1.4041121799200773,0.8971941197220236
1789064094397368600,6.37536865234375,3.7956495893031357,-1.502571969628334,1.4867172517620026
1789064094407404500,6.385404541015625,4.501331760805845,-1.608377445924282,1.0890366881351918
1789064094417441500,6.395441650390625,0.5935837325423956,0.3538601996660232,0.46686464755535123
1789064094427478800,6.405478759765625,-1.9904770671248435,0.21665654554367064,0.2544964285890572
1789064094437515800,6.415515869140625,-2.4871055693030355,-0.031576457002758976,-0.4011898503893986
1789064094447552800,6.425552734375,-2.151077378925681,-0.2141746656000614,-0.8800866983808576
1789064094457589500,6.435589599609375,-1.7381787148356436,-0.24262100788354873,-1.5470269051656127
1789064094467626800,6.445626708984375,-1.0639923363149166,-0.5645803408980369,-1.283774174272269
1789064094477662700,6.455662841796875,-1.595952848637104,-0.7891957364916801,-0.03323346696216613
1789064094487699700,6.46569970703125,0.48129357040226456,-0.9634463879823684,0.24625706283096221
1789064094497736700,6.47573681640625,2.5579770948618648,-1.4993237814873457,0.25532504316661503
1789064094507773700,6.485773681640625,2.896694085931778,-1.0610393317282198,-0.3030954233948141
1789064094517811000,6.49581103515625,0.36083237676620483,0.5490308895885944,-0.6082153018219396
1789064094527847700,6.50584765625,-0.834472802066803,1.253341772738099,-0.968860375855118
1789064094537883600,6.515883544921875,-1.078182189708948,1.6842992406100035,-0.9986875780377537
1789064094547920600,6.525920654296875,0.8492144441246986,0.7061871984153986,-1.5420916407205163
1789064094557957600,6.53595751953125,3.2410441144526003,0.4162801232218742,-1.2956754783377051
1789064094567995000,6.545994873046875,1.7578806096494197,-0.03179506818950176,-1.0305630910523236
1789064094578031900,6.556031982421875,0.45783729149103164,0.43879882902204986,-0.5779487949065863
1789064094588068600,6.566068603515625,-0.4095405858337879,-0.15734627844095228,0.0864105011400301
1789064094598105600,6.576105712890625,0.1205810206234455,-0.14495382985770702,0.0930884810666088
1789064094608141600,6.5861416015625,1.5247253492474555,-0.9891799641758203,0.2090514408348128
1789064094618178600,6.596178466796875,0.12038929744362831,-0.7067635369986295,0.5207279743637889
1789064094628215800,6.6062158203125,-2.510038701122999,0.7067886714398861,0.24933816904304548
1789064094638252800,6.616252685546875,-0.5965864214897155,0.08488485334217548,0.09486013951478525
1789064094648289800,6.626289794921875,1.225456571468711,-0.9303682942450046,0.2671069586360827
1789064094658326500,6.636326416015625,0.3605909692257643,0.4117459869235754,-0.08030514260279015
1789064094668362500,6.646362548828125,0.729082920834422,0.007027706679701804,0.4522196708049625
1789064094678399700,6.656399658203125,-1.139699611467123,0.4950853643894195,0.799054282683134
1789064094688436700,6.666436767578125,-1.1594961988270283,0.9616168344676495,0.7657162228353321
1789064094698473700,6.6764736328125,0.9448737894594669,-0.14358546411395073,0.9291668095007538
1789064094708510700,6.6865107421875,1.8117361184775829,-0.9888070392102003,1.067620755945146
1789064094718547700,6.696547607421875,-0.48816930139064785,-0.011384732845425604,0.9743771665152162
1789064094728584700,6.706584716796875,1.4406839609920978,-0.8832038074880838,1.0218267538238317
1789064094738620700,6.71662060546875,2.812059992480278,-1.787949584698677,0.5806888508623466
1789064094748657000,6.726656982421875,0.9377472985804081,-0.8506658119767904,0.005471191102836746
1789064094758694100,6.736694091796875,-1.316820849958062,0.18366437652409076,-0.28842364996904507
1789064094768731100,6.746731201171875,-0.3726888187766075,0.20463409931659698,-0.19138554536066948
1789064094778768100,6.75676806640625,1.8485551523089407,-0.5090647899031638,0.18903447045618668
1789064094788805000,6.76680517578125,1.2564403232753276,0.16063479859232901,0.48195835445392876
1789064094798841000,6.776841064453125,0.14296645543277262,0.6798498111099004,0.20251970097851008
1789064094808878000,6.786878173828125,0.6702490390717983,0.35291035159528256,-0.22996866625510154
1789064094818915000,6.7969150390625,-0.12058745036423206,0.33830022696256634,-0.8307800850287079
1789064094828952000,6.8069521484375,-0.22599778986275196,0.18165654383301733,-1.0664560960799454
1789064094838989000,6.816989013671875,-0.8297031034469604,-0.5307207413941621,-0.5109108926938847
1789064094849026300,6.8270263671875,-2.6030793883919716,0.3175087833464145,-0.24154092102926222
1789064094859062300,6.837062255859375,0.4307458709478378,-1.1677256825119255,0.16695751707414164
1789064094869099300,6.847099365234375,0.7324106039524078,-1.2689450000613927,0.26792824842371044
1789064094879136000,6.857135986328125,-0.5659317555069923,-0.005544190123677253,-0.06441337152854539
1789064094889173000,6.867173095703125,-0.3954401642888784,-0.4114975651204586,0.24527491992581635
1789064094899210000,6.8772099609375,0.027829671689867972,0.17062778481841087,-0.04640381371588446
1789064094909247200,6.887247314453125,0.6150526370286942,0.24428923335671424,-0.22048887198185546
1789064094919284200,6.8972841796875,1.5448913544416427,0.07424187877476215,-0.7314793875169009
1789064094929320200,6.9073203125,-0.6732844612449407,1.3695435553640127,-1.5105672061659394
1789064094939357000,6.91735693359375,-1.1040952141225338,1.4383417817801236,-1.6867590548522768
1789064094949394000,6.927393798828125,1.18246966265738,0.4601730409622192,-1.098149895852059
1789064094959431200,6.93743115234375,0.9102502198457717,0.2029471691429615,-0.26422205084953454
1789064094969468200,6.94746826171875,-0.37380057941079137,-0.1951122377336025,0.4520272169727832
1789064094979505200,6.957505126953125,-2.141622152838111,0.5209697472304106,0.09841645289002918
1789064094989541000,6.967541015625,0.894490340656042,-1.1433125412672758,-0.35586795929186044
1789064094999578000,6.977578125,1.396152745348215,-1.577659067055583,-0.42772707111593333
1789064095009615000,6.987614990234375,-1.278271046811342,-0.340423210465908,-0.6379646529953926
1789064095019652000,6.997652099609375,-2.818656322005391,0.37988369871675964,-0.44825394551176573
1789064095029689000,7.007689208984375,-1.1516314568012953,0.04921849667727947,0.015028094316460192
1789064095039726000,7.01772607421875,1.5254220993399619,-0.5530424633175134,0.2541884403521195
1789064095049763300,7.027763427734375,1.2525988454163073,-0.13384265325665473,0.2404508059713058
1789064095059799300,7.03779931640625,-1.1643670197337865,1.0725000524193047,0.1796350114101544
1789064095069836000,7.0478359375,-1.5192127233058212,1.180998421061039,0.141970886790473
1789064095079873000,7.057873046875,1.6449568257808684,-0.025075404545664787,0.23235607284829018
1789064095089910000,7.067909912109375,2.847371544358134,-0.357549701833725,0.30129381733294575
1789064095099947000,7.077947021484375,3.6678538149952886,-0.019717676904797553,0.15852679346241055
1789064095109984300,7.087984375,2.5972645646333694,-0.15505787524282932,0.10610054111923091
1789064095120020200,7.098020263671875,-1.1781325102359055,1.4580249718934297,-0.0642719354975503
1789064095130057200,7.10805712890625,-2.546542677655816,1.6533377006351946,0.40609607140310106
1789064095140094000,7.118093994140625,-0.7894593558639288,0.792750798624754,0.871092221672833
1789064095150131000,7.128130859375,2.56429051579237,-0.6494307074487209,1.2014366673253476
1789064095160168200,7.138168212890625,-0.5943430264770985,-0.147516373822093,1.0977497175533324
1789064095170205200,7.148205078125,-2.1137667621850964,0.42401802399754523,0.8807654744252562
1789064095180242200,7.1582421875,-1.2313362771570682,-1.1171306367844342,0.9853320565760135
1789064095190278100,7.168278076171875,-0.9748854813635349,-0.9255904123187064,0.9000997780356556
1789064095200315000,7.17831494140625,-0.24032851303219793,-1.3276853583216666,1.0925297178827225
1789064095210352000,7.18835205078125,-1.2914204512417315,-1.1447253306746483,1.1013105518400668
1789064095220389000,7.19838916015625,-2.063061826342344,-0.3719254331886768,0.5648601442201062
1789064095230426000,7.208426025390625,-2.899191163444519,0.035572248640656466,0.6064560735970735
1789064095240463000,7.218463134765625,-0.9551128594011068,-0.07793547259569168,0.46301783593408763
1789064095250499000,7.2284990234375,2.3760288746058937,-1.176598724797368,0.5062873610790819
1789064095260536300,7.238536376953125,0.8222679850101471,-0.017515782946348188,0.5222743270229548
1789064095270573000,7.248572998046875,0.29935294893085956,0.40148295158445835,1.0511421340268106
1789064095280610000,7.258610107421875,1.6869050391942262,0.01718202094733715,1.1152849358525128
1789064095290647000,7.26864697265625,3.240598708772659,-0.4896522334247827,0.917259367955476
1789064095300684000,7.27868408203125,0.525452445602417,0.4816144729197025,0.22393592542950064
1789064095310720300,7.28872021484375,-0.2597013220220804,0.6985574341893196,-0.1763338509729132
1789064095320757200,7.29875732421875,-0.008196750459074973,0.020952771657705305,-0.029862748420052227
1789064095330794000,7.3087939453125,2.2180185792982576,-1.3619903635054826,0.2937824553221464
1789064095340831000,7.3188310546875,-0.30496552811563016,-0.712872375267744,0.7109811546936631
1789064095350868000,7.328867919921875,-0.6053232701748609,-0.8987193565279245,0.8479197281390428
1789064095360905200,7.3389052734375,0.2805763522684574,-1.4788269369035958,0.7386305013805627
1789064095370941200,7.348941162109375,1.507424670356512,-1.4710247387200592,0.6422887267395854
1789064095380978200,7.358978271484375,0.4694289450854063,-1.3480161986887453,0.5026056768916547
1789064095391015200,7.36901513671875,-1.0689572652459145,0.07698737809062003,0.17518643450345844
1789064095401052000,7.379052001953125,-1.5123971980720758,0.2961211274027824,0.09309727629441768
1789064095411089200,7.389089111328125,0.1671715068846941,0.5018371767371893,-0.4227363866891712
1789064095421126100,7.399126220703125,0.9973562563687562,0.6385784740447997,-0.6968886241942643
1789064095431163100,7.4091630859375,0.7626245404303074,0.8566331959486008,-0.10427373668402433
1789064095441199000,7.41919921875,0.44306934594810005,0.8174941947370767,0.692916797953844
1789064095451236000,7.429236083984375,-0.45912674677968024,1.1054612417787313,1.2718478818960488
1789064095461273000,7.439273193359375,2.0385943245619536,-0.2894739444732666,1.0696670940157025
1789064095471310000,7.44931005859375,1.9859277332574128,-1.20339496178627,0.3592544599249959
1789064095481347000,7.45934716796875,-1.543092780587077,0.5405751959323882,-0.4847982905875891
1789064095491384000,7.469384033203125,-1.662716354355216,-0.37675884469449517,-0.04404650086686015
1789064095501420000,7.479419921875,-0.053332946258783334,-0.9863146378725767,0.13074724452458322
1789064095511457300,7.489457275390625,-0.8485264618605375,-0.8998913229167461,0.5525738959576935
1789064095521494300,7.499494384765625,-4.4488399415463205,0.4359475312441587,0.6199847596686333
1789064095531531000,7.509531005859375,-1.364801913794875,-0.6440893464207649,0.2502344785619527
1789064095541568000,7.519568115234375,2.1075299136221406,-1.9069255082130432,-0.012677476069703698
1789064095551605000,7.52960498046875,1.919859224066138,-1.2780524356245995,-0.13772132132090628
1789064095561641000,7.539640869140625,-0.8582745334148406,-0.25529461149573324,0.4330472066927701
1789064095571678200,7.54967822265625,-1.3448697173565625,0.1984334911108017,0.7540757616631686
1789064095581715200,7.559715087890625,-0.028183307433128354,0.39057168146967886,0.4444479408249259
1789064095591752000,7.569751953125,2.726253932639956,-0.07606500254869461,0.18911365490593016
1789064095601789000,7.579788818359375,1.9188941784262656,0.27322832759320737,1.155002102278173
1789064095611826200,7.589826171875,-0.3073112144589424,1.503275149461627,1.5019626055583357
1789064095621863200,7.59986328125,-0.2906897500038147,1.1599842746049165,2.014712221454084
1789064095631899100,7.609899169921875,-1.071218195915222,0.511582325682044,1.7693910147011278
1789064095641936100,7.61993603515625,-0.04355389504432678,0.20339257482290266,0.5080290901798754
1789064095651973000,7.62997314453125,1.8171417769134044,-0.8498667705535888,-0.3426187477488071
1789064095662010000,7.640010009765625,0.44327568217515945,-0.9793816237390041,-0.7183177811920642
1789064095672047000,7.650047119140625,-2.7536259236902,0.11310498565435409,-0.5659633927542715
1789064095682084000,7.660083984375,-1.5888246041923761,0.06434884579181671,0.03103087888397276
1789064095692120000,7.6701201171875,1.2588479689389467,-0.9082207598447799,0.11049984465725719
1789064095702157000,7.680156982421875,-0.3987701854944229,0.6734165631920099,0.0661006578952074
1789064095712194300,7.6901943359375,-1.6921955468177794,1.446209446415305,0.07779372603744268
1789064095722231000,7.70023095703125,-0.7552455360949039,1.3442939632952213,0.6552608018416911
1789064095732268000,7.71026806640625,0.5482622433036566,0.854115075647831,1.2439451449699699
1789064095742305000,7.720304931640625,1.3625626104354858,0.42358021710217,1.4599246680349112
1789064095752341200,7.73034130859375,2.002358059054613,0.17528876236677168,0.35838929446302353
1789064095762378200,7.740378173828125,3.7478947354376313,-0.0327431626945734,-1.0990307703398168
1789064095772415200,7.750415283203125,1.7968389935970306,0.026025252616405484,-2.051308844706416
1789064095782452200,7.7604521484375,-2.242212524834275,1.7355027736246584,-2.3912536240056155
1789064095792489200,7.7704892578125,-3.1919851922512055,1.5234610284000634,-1.7848098253682254
1789064095802526200,7.780526123046875,0.3640612756848335,-0.09267185395658016,-0.8186958256117999
1789064095812562200,7.790562255859375,0.564736992764473,-0.38592356340289113,0.025758783699944613
1789064095822599200,7.80059912109375,-0.28191198478639123,-0.8650403742879629,0.8074869607899338
1789064095832636200,7.81063623046875,-2.3868507128715515,-0.5772358243316411,0.5829520100213587
1789064095842673400,7.82067333984375,-3.047339405429363,-0.6257955648392438,-0.16514599240645766
1789064095852710100,7.830710205078125,-0.7753507510125637,-1.5288503202229737,-0.7614317504491657
1789064095862747100,7.8407470703125,2.438645782038569,-2.6006144595831633,-0.690372958689928
1789064095872784100,7.8507841796875,1.407490131920576,-1.4820231025964021,-0.5826824723649769
1789064095882820000,7.860820068359375,-1.1351982083946466,0.044317865154147144,-0.4806734657425433
1789064095892857300,7.870857421875,-2.152826852941513,0.4966898769766092,-0.08499079793468117
1789064095902894300,7.880894287109375,-3.8256320551127194,1.3851543814718723,-0.38186822359748185
1789064095912931300,7.890931396484375,0.6299141060739756,0.8100731048256158,0.1324234341084957
1789064095922968000,7.900968017578125,3.416584221231937,-0.24647534522414205,0.6650748513042927
1789064095933005300,7.91100537109375,2.692776025930047,-0.022249825730919836,1.059476320195198
1789064095943041300,7.921041259765625,0.4110854771882295,0.9100923989355564,0.8929161501418799
1789064095953078300,7.931078369140625,1.3192004385709761,0.6647299833893776,0.37593423043861984
1789064095963115300,7.941115234375,2.9894641395658255,-0.1926204209178686,0.19573351143710313
1789064095973152300,7.95115234375,0.8216893083393574,0.5684305865854025,0.1684473720394075
1789064095983189000,7.96118896484375,-1.7485726830780506,1.5319506243258714,0.6510873155493289
1789064095993226200,7.971226318359375,-2.4524668021202087,0.8325321893930435,0.881307107021287
1789064096003262200,7.98126220703125,-1.3056032903730868,0.03459317447543144,0.7459131326694041
1789064096013299200,7.99129931640625,-0.6600204905241728,-0.8514613462686538,0.3854157600112259
1789064096023336200,8.001336181640625,0.08975684329271316,-1.2186831318110227,0.13644998621083795
1789064096033373200,8.011373291015625,2.7314526703268287,-2.101716258907318,0.30525464725531637
1789064096043410200,8.02141015625,1.5663263566583394,-1.8471809413462876,0.07638115582577884
1789064096053447200,8.031447265625,-0.5910387242347002,-0.4730021273970604,0.06386617684140801
1789064096063484200,8.041484130859375,-1.5976298419386148,0.43080023148357866,0.3883916340168565
1789064096073520000,8.05152001953125,0.13890870447456835,0.33307050961554047,0.4957784612201154
1789064096083557000,8.06155712890625,-0.34487960535287854,0.8634533973574637,0.33198344503119587
1789064096093594400,8.071594482421874,0.05954992107748985,0.8823632650107145,-0.09589607670009136
1789064096103631400,8.08163134765625,0.7213590485841035,0.5724082580447196,-0.059108168659359216
1789064096113668000,8.091668212890625,0.9061357702642678,0.14208908807635307,-0.05865721002146601
1789064096123705000,8.101705078125,1.7843682190805672,-0.34168051705062386,0.030473537262156604
1789064096133741000,8.111740966796875,2.2732284253448247,-0.8519137662112712,0.1835438188843429
1789064096143778300,8.1217783203125,0.5179565368890762,-0.4808434885472059,0.13963446146585046
1789064096153815300,8.131815185546875,-2.876281412500143,0.7234902153939008,0.3391428883317858
1789064096163852300,8.141852294921875,-2.0905437075078486,0.6608242081224918,0.5152853449184447
1789064096173889300,8.15188916015625,1.0384686034798623,-0.5276671990424394,0.6473359271265566
1789064096183926000,8.161926025390626,0.26686756038963794,0.3056067486286163,0.46268597363121805
1789064096193962000,8.1719619140625,0.603359276625514,0.4819646015316248,-0.10039799122922122
1789064096203999200,8.181999267578124,1.847446898806095,-0.21947043392062185,-0.44155653023235497
1789064096214036200,8.1920361328125,1.2756874600589274,0.18521920475065706,-0.5818992130327969
1789064096224073200,8.2020732421875,-0.7603951739430427,0.8948492370963096,-0.2286587527003139
1789064096234110200,8.212110107421875,-1.3802140024602412,0.7450467981636524,0.22745708529297262
1789064096244147200,8.222147216796875,-0.6982073055773973,0.6290805778592825,0.4447006734769791
1789064096254183200,8.23218310546875,1.3493120837181807,-0.1836936026185751,0.41149420411959287
1789064096264220200,8.24222021484375,0.3962824603319168,-0.05682721811532974,0.6902028628200292
1789064096274257200,8.252257080078126,-0.3655155661463737,0.06862462341487408,0.8553206520453095
1789064096284294100,8.262294189453126,-0.8429805181711911,-0.1553589040160179,0.5882184061169624
1789064096294331400,8.272331298828124,0.4107604830175638,-0.3904916019707918,-0.01012647641263902
1789064096304368400,8.282368408203125,-0.15301730932593344,-0.7798480624318123,-0.1175795737851411
1789064096314404400,8.292404296875,-0.5294716181159019,-0.01708265222609043,-0.6314654271692037
1789064096324441000,8.302441162109375,-1.8507558772236108,0.20901742896735667,-0.34777434041369704
1789064096334478000,8.31247802734375,-1.7207932802706956,0.8489081546545029,-0.2585185054456815
1789064096344515300,8.322515380859375,-1.0596668743312359,0.4380518100470304,0.5332606716679409
1789064096354552300,8.33255224609375,-0.6979325802892447,0.5114233357280492,0.8642730431772768
1789064096364589300,8.34258935546875,0.7299234633117914,0.15578735856115816,0.6680681879013777
1789064096374626000,8.3526259765625,0.685635993295908,-0.14137538684904574,0.46765207160599526
1789064096384662300,8.362662353515624,-0.48932022499144073,0.10663608190119266,0.6587950403824449
1789064096394699000,8.372698974609374,-0.3568418458253145,-0.12275193492174148,0.6019550358507781
1789064096404736300,8.382736328125,0.4655021270304918,-0.4130670063942671,0.5625048863308504
1789064096414773200,8.392773193359375,-1.142560261595249,-0.2823006918430328,0.7624950688317418
1789064096424810200,8.402810302734375,-3.6409324903219935,1.03729780613482,0.5846688238766043
1789064096434847200,8.41284716796875,0.12424772643744945,-0.12156944713890552,0.6389383933983743
1789064096444883200,8.42288330078125,0.6026718788832426,-0.6792372321695089,0.8963782732944935
1789064096454920200,8.432920166015625,0.7257037997901439,0.29053309813737865,0.9337924234747886
1789064096464957200,8.442957275390626,1.0816051498949526,-0.05966507188975811,0.9274676043674349
1789064096474994200,8.452994140625,1.6648989590913057,0.4490794000178575,0.32267639524266123
1789064096485031200,8.46303125,0.5375654927223921,1.2086328624397515,0.2276313093487173
1789064096495068400,8.473068359375,-0.02007774238884449,1.6229647742033004,0.5636510606912896
1789064096505104400,8.4831044921875,0.7308744804263114,1.2188292622834442,0.9531037115357816
1789064096515141400,8.493141357421875,0.4119850563764572,1.3231950611650942,0.9243949919890612
1789064096525178000,8.50317822265625,-0.016689853516221046,1.0032798011988402,0.5017155231188982
1789064096535215000,8.513215087890625,0.06546235999166965,0.7784475479841232,-0.687677289865166
1789064096545252400,8.52325244140625,3.2839450985461474,-0.2878700164079666,-1.1977082944519817
1789064096555289300,8.533289306640626,3.000270195740461,-0.9692688105255365,-1.0222113692272454
1789064096565325300,8.5433251953125,-0.27579730129837987,0.2421212416678667,-0.7413167447898537
1789064096575362300,8.5533623046875,-2.339709606990218,0.7589888142764568,-0.41758273025304077
1789064096585399000,8.56339892578125,0.37587329403162,0.07055939086973667,-0.8136473100505769
1789064096595436000,8.57343603515625,1.202802256590128,-0.5270511129707097,-0.8284704929120839
1789064096605473300,8.583473388671875,-2.1814590731859207,0.8743050462394952,-0.9620787528909742
1789064096615510300,8.59351025390625,-1.4221212993413208,0.11294073500335215,-1.0765636485964059
1789064096625546200,8.603546142578125,-0.8429179743289947,-0.5166396090716123,-0.8876962966017424
1789064096635583200,8.613583251953125,0.1559954483538866,-0.9633955345779657,-0.4066896899146959
1789064096645620200,8.6236201171875,2.150192997306585,-2.2262644295960663,0.035762985439784824
1789064096655657200,8.6336572265625,0.840884422674775,-1.5247323635101317,-0.20828356173485515
1789064096665694200,8.643694091796876,-0.530844075512886,-0.22017069114446639,-0.7408043382883072
1789064096675731200,8.653731201171874,1.7865537464261054,-1.1658230637609959,-0.8881080922730267
1789064096685767200,8.66376708984375,1.0042752419769763,-0.4484533770740032,-1.1618277105145156
1789064096695804200,8.67380419921875,-0.9783692318260669,1.175320959946513,-1.0801417993441222
1789064096705841400,8.68384130859375,-1.1932488308250904,0.9863462020546198,-0.8284693969335406
1789064096715878100,8.693878173828125,2.2039286791473627,-0.04838321489691734,-0.9148044490840286
1789064096725915100,8.7039150390625,1.5058166506379842,-0.4888619598299265,-0.5631803744396194
1789064096735952100,8.7139521484375,-1.1187310577183962,0.3874024037837982,-0.7411540285088122
1789064096745989400,8.7239892578125,-0.29847558157444,-1.0153981090158224,-0.6435034362915903
1789064096756025300,8.734025390625,-1.0610738185197115,-1.2419967873811721,-0.91538444092907
1789064096766062300,8.744062255859374,-1.6436480812698602,-1.2249801861286163,-1.0330075615949927
1789064096776099300,8.754099365234374,-1.4708254167556762,-1.6914432671457529,-0.2939378650795668
1789064096786136300,8.76413623046875,-1.2175053202033042,-1.6823907766401767,0.26724492406835776
1789064096796173300,8.77417333984375,-1.5672797118604183,-1.2574433628380297,0.6327639425471425
1789064096806210300,8.784210205078125,-3.305491744443774,-0.5001712893515825,-0.0889946084822528
1789064096816246300,8.794246337890625,-1.8625567896544932,-0.06792144358158111,-1.2226236861303448
1789064096826283500,8.804283447265625,2.2300983086705206,-0.9794780698508023,-1.230842356160283
1789064096836320500,8.814320556640626,2.478079966804385,-0.7126666235625744,-0.6514375172264874
1789064096846357200,8.824357177734376,-0.12542027734816075,0.9468056343048811,-0.1693041349992156
1789064096856394200,8.834394287109374,0.338123701351881,1.4944997223317622,0.0036411147150211035
1789064096866431200,8.84443115234375,2.7920699283748864,0.5997679741352796,0.0812968753201887
1789064096876467200,8.85446728515625,3.560809152293205,0.9466688561826944,-0.0017976240064948796
1789064096886504400,8.86450439453125,2.7320424529135225,1.0722224045217037,0.1798136741789989
1789064096896541400,8.87454150390625,0.522539188504219,1.3408131354421375,0.5088930865980684
1789064096906578200,8.884578125,-0.9262047448247671,1.456873463770747,0.5825989222673699
1789064096916615200,8.894615234375,-0.4595335740149021,0.32082009985148907,0.596309650374949
1789064096926652400,8.90465234375,0.29235563738942144,-0.3079471742749214,0.3759524236824363
1789064096936688400,8.9146884765625,0.91017890817523,-0.8566624220430851,0.7517725992873311
1789064096946725400,8.924725341796876,-0.09769114342331886,-0.959549380543828,0.9960185780242085
1789064096956762400,8.934762451171874,-3.3719396083414552,0.6482797838479281,1.102384245486185
1789064096966799400,8.94479931640625,-1.4368120879948139,-0.18600012599527835,1.2009119127988814
1789064096976836400,8.95483642578125,1.831031186056137,-1.1140063672840594,1.4772031350940464
1789064096986873300,8.964873291015625,0.11294424213469027,-0.10490998876094818,1.7866918397225438
1789064096996909300,8.974909423828125,-1.780069645103812,0.8284253385961056,2.049150351498276
1789064097006946300,8.9849462890625,-0.4122235413074493,0.4278308602839708,2.182769279001653
1789064097016983300,8.9949833984375,-0.00135024556517601,0.5094517433941363,2.133651027828455
1789064097027020500,9.0050205078125,1.053715272450447,0.5542471629321575,1.7169081094004213
1789064097037057300,9.015057373046876,2.4620868633806703,0.024531214666366576,1.7582785229258238
1789064097047094300,9.02509423828125,1.0517547860324383,0.355908364367485,1.913201519742608
1789064097057130200,9.035130126953124,-1.0028408252596854,1.0426941122204065,1.4509382285028696
1789064097067167200,9.045167236328124,-0.8776701387584209,0.9469178625077008,1.1305877919897436
1789064097077204200,9.055204345703125,1.0556728362590073,-0.7807780367583036,0.9074334088593721
1789064097087241500,9.065241455078125,-0.1280880352526903,-0.11243979974389076,0.2783634985245764
1789064097097278500,9.075278564453125,0.7793751842230557,-0.7389765383392572,0.13967804487925023
1789064097107315200,9.085315185546875,0.3749509184896946,-1.5263625950604676,0.4670137006372213
1789064097117352200,9.095352294921875,-0.43773558370471,-0.6822118640661239,0.18853022899478672
1789064097127388200,9.10538818359375,-0.9605874914199113,-0.884402661883831,0.37577812656145543
1789064097137425400,9.11542529296875,-1.3032505897670983,-0.3860159178614616,-0.1408789816342294
1789064097147462400,9.12546240234375,-0.9943640888154506,-0.10237842445671558,-0.5633471093086525
1789064097157499400,9.13549951171875,0.7411456990718841,-0.4680599948197603,-0.6555453909367323
1789064097167536400,9.145536376953125,1.154940435218811,0.0033849662631750105,-0.7263995269693434
1789064097177573400,9.155573486328125,0.6404477750480174,0.33431203410923477,-0.40053467441629614
1789064097187609300,9.165609375,-0.037682957184314726,0.37272973530888553,-0.20663024156987667
1789064097197646300,9.175646240234375,-3.8512919815480706,1.4098790728837252,-0.5859506073154509
1789064097207683300,9.185683349609375,-2.81906840993762,0.8775029654979706,-0.7015875956654548
1789064097217720300,9.19572021484375,0.4622217901855707,-1.1072644918084145,-0.28409385887011884
1789064097227757600,9.205757568359376,-0.08939794685244559,-1.3049907114326953,-0.2499786041047424
1789064097237794300,9.215794189453124,-3.573950373417139,-0.1969692637771368,-0.213309134811908
1789064097247830300,9.225830322265624,-3.7296360251694916,-0.690568773522973,-0.43184689099229867
1789064097257867300,9.2358671875,-0.41024785732030866,-1.7054612711042165,-0.6838830121487378
1789064097267904300,9.245904296875,1.1085416721373795,-1.7776929791003464,0.04934102707840502
1789064097277941200,9.255941162109375,1.511503464102745,-1.1966817278832196,0.7284267950132489
1789064097287978500,9.265978515625,-0.31645021420419217,-0.3362058850318193,1.090529118650034
1789064097298015200,9.27601513671875,-0.6417185256361961,0.544910010266304,0.8831068499196321
1789064097308051500,9.286051513671875,-0.6121148300111293,0.9906710795164108,0.12817659031897782
1789064097318088200,9.296088134765625,3.895620952618122,0.9349562065571546,-1.2783502495273946
1789064097328125200,9.306125244140626,12.48373570484519,-1.8982506188482045,-0.7086285271529108
1789064097338162400,9.316162353515624,6.032600832608342,1.8677976129174232,-0.8477313659600914
1789064097348199400,9.326199462890624,-0.8176327264249325,2.777771353909373,-1.0658505314022302
1789064097358236400,9.336236328125,-0.723034872841835,2.785270769754052,-0.8049621915526688
1789064097368272400,9.3462724609375,4.548406815713644,1.6183564036250113,-1.6635136422127483
1789064097378309400,9.356309326171875,0.7409311795383692,0.571518031206727,-1.066669008178264
1789064097388346400,9.366346435546875,-3.7437750251591204,1.1486433809012173,-0.924536007894948
1789064097398383400,9.37638330078125,-3.7708787206619974,-1.0491530791014432,-0.6316853535301983
1789064097408420400,9.38642041015625,-4.078762182050943,-1.4435691610395907,-0.6432365289837122
1789064097418457300,9.396457275390626,-4.187974251919985,-3.4258623371869326,-0.9552584053516388
1789064097428493300,9.406493408203126,0.5201876569420099,-5.8126563514351846,-0.5902209781110286
1789064097438530600,9.416530517578124,0.33586744685769077,-3.3509149404913185,-0.1759503680806607
1789064097448567300,9.4265673828125,-3.106821521967649,-1.4303244795411825,-0.289796746686846
1789064097458604300,9.436604248046875,-3.226312993788719,-0.7979273244798183,0.34489831005334853
1789064097468641300,9.446641357421875,-1.8049053956747054,0.010258943685889244,-0.10326755531616508
1789064097478678300,9.45667822265625,0.9347294120639562,0.43949733268022534,-0.10402929693628102
1789064097488715500,9.466715576171875,2.169406816342473,2.0060498993098737,-0.1644171666752547
1789064097498751500,9.47675146484375,4.500167977723479,2.922847933363914,-0.9603745062563568
1789064097508788200,9.486788330078125,4.946227737659216,2.0743185488939284,-1.2445293745987116
1789064097518825200,9.4968251953125,3.5002345643430948,2.803183443063497,-0.9025846536539495
1789064097528862200,9.5068623046875,3.392002153161168,2.233331883764267,-0.1727795560248196
1789064097538899500,9.5168994140625,1.4228957908451556,1.2722779438763856,-0.001055427337065339
1789064097548936400,9.5269365234375,-1.7094658305704593,1.4805103599458933,0.08831475472562014
1789064097558972400,9.536972412109375,-3.4498967082470653,0.20135843864679334,0.14715349532645194
1789064097569009400,9.547009521484375,-2.5109131458699703,-1.3343857327431439,-0.09057553926445543
1789064097579046100,9.557046142578125,-1.7211948468089102,-2.363592586880922,-0.5182766356889158
1789064097589083400,9.56708349609375,-1.5953174733430147,-2.9234914919644592,-0.6356685779474676
1789064097599120400,9.577120361328125,0.5812836384177208,-2.980833673864603,0.03130931223286316
1789064097609157400,9.587157470703126,-0.15720131701231002,-2.5335914261460304,-0.08233653883254155
1789064097619193300,9.597193359375,-0.2079489229530096,-0.8338660683453083,0.361141588845849
1789064097629230300,9.607230224609374,-2.985811462277174,0.930887934204936,0.20576352347163482
1789064097639267300,9.617267333984374,0.3616840251594782,1.7002543501108884,-0.2343620241095312
1789064097649304300,9.62730419921875,1.8371955539047717,1.4081407047837973,-0.38693909712098534
1789064097659341300,9.63734130859375,1.0293161597311495,2.020506879207492,-0.5307063110100105
1789064097669378300,9.64737841796875,2.4364818820029495,3.532959606859088,-0.6239653537373989
1789064097679414300,9.657414306640625,2.880667664760351,1.6770242811709641,-1.084722332067415
1789064097689451500,9.667451416015625,1.9662544800162314,0.7947814276695251,-0.45788076530657706
1789064097699488500,9.677488525390626,0.8904927954524755,0.48556408732831474,-0.15738529527708886
1789064097709525200,9.687525146484376,0.13411679402291773,-0.4754898525595665,0.17395618032244964
1789064097719562200,9.697562255859374,-2.0232354273885487,-0.5455886401802301,0.42619551416710016
1789064097729599200,9.70759912109375,-3.1887977943867445,-0.022349194452166557,0.331725305551663
1789064097739635200,9.71763525390625,-3.341532779639959,-0.13624386917948722,0.3580259775759652
1789064097749672200,9.727672119140625,-5.980227086770534,-0.9689677817523479,0.5201227750122547
1789064097759709200,9.737709228515625,-2.537333535283804,-4.234064971965551,2.809797892767191
1789064097769746200,9.74774609375,1.3017173888504505,-3.499629584187269,1.2883596023663877
1789064097779783200,9.757783203125,2.973876694333553,-1.6024807891011237,0.7379824127353727
1789064097789820200,9.767820068359375,0.7881243078678846,-0.5374754763513803,2.07902424236685
1789064097799856000,9.777856201171875,-1.1100672742694615,0.8842705599367618,2.265765834379196
1789064097809893000,9.78789306640625,-0.44106618943214415,0.9550964927881955,2.356190201669931
1789064097819930400,9.797930419921874,2.433085225301981,1.5178741681784391,3.526413546216488
1789064097829967400,9.80796728515625,3.827631704497337,2.724045024418831,3.1267838212832806
1789064097840004000,9.818004150390625,2.4240216288805008,2.3344985943436622,1.2636299425184725
1789064097850041000,9.828041015625,0.24429274048805236,1.6046312451332807,0.7987478470824658
1789064097860077000,9.8380771484375,-4.324271897113323,1.6760837854504584,-0.3518306665997952
1789064097870114300,9.8481142578125,-6.566926905018091,0.3801823894023895,-1.1276331069026142
1789064097880151300,9.8581513671875,2.443076457962394,-3.04486453974843,-0.07241619771756232
1789064097890188300,9.868188232421875,5.409718524867296,-3.321358591139316,1.67227620986104
1789064097900225300,9.878225341796876,-0.8100731048256158,-1.1334990032613277,2.9527473970651625
1789064097910262000,9.888261962890626,0.12607318829894065,-1.4069126242935657,2.3963790041953326
1789064097920299300,9.89829931640625,3.5952497665554284,-0.6011994682431221,1.557768663932383
1789064097930335200,9.908335205078124,0.6009685820966959,0.7644102548032998,1.0277388274118304
1789064097940372200,9.918372314453125,0.620422055107355,2.170855261585116,0.22068269578721372
1789064097950409200,9.9284091796875,0.5204734881460666,1.7273212207347153,-0.27242424466870724
1789064097960446200,9.9384462890625,-0.5643301655292511,2.29975812035203,-0.32482674167696385
1789064097970483200,9.948483154296875,1.7753724271982907,2.572278007414937,-0.8415797845277935
1789064097980520200,9.958520263671875,0.9756418526887893,0.18415888204276562,-0.5855393231008201
1789064097990556200,9.96855615234375,0.4193348346173763,0.2742027255833149,-0.5821671797866002
1789064098000593200,9.97859326171875,0.1401671801030636,-0.8220271619915962,0.06945599620509892
1789064098010630100,9.988630126953124,-2.1979320690810678,-1.1196429118663072,0.47804782994668926
1789064098020667400,9.99866748046875,-0.5049819045037031,-2.422036592543125,0.7236347384311258
1789064098030704400,10.008704345703125,-1.5415455511450766,-2.390782791623473,0.4121432426128536
1789064098040741000,10.0187412109375,-2.569569332978129,-2.0607786838412285,-0.14044457227233798
1789064098050777000,10.028777099609375,-2.8202684333771466,-2.6948510786384343,0.04453391905762255
1789064098060814000,10.03881396484375,-0.9303267931908369,-1.8168892634570597,-0.12104147774204611
1789064098070851300,10.048851318359375,-1.1337544393271206,-0.9625625908851623,-0.2864624146323651
1789064098080888300,10.058888427734376,1.3448042509049176,-0.7162596796184778,-0.5739158130634576
1789064098090925300,10.06892529296875,2.1322925989568233,-0.047804538226127624,-0.8579843913618475
1789064098100962000,10.078962158203124,1.3277186760693789,1.351869951507449,-0.5205899541325867
1789064098110998300,10.088998291015624,1.8347662809312342,1.247843759843707,0.4745052254363894
1789064098121035000,10.099034912109374,-1.6186077480375767,1.0568816275268793,0.49543417782709
1789064098131072300,10.109072265625,-4.535478945079445,1.342265087816119,-0.5159450509361923
1789064098141109200,10.119109130859375,0.636696313560009,-0.04623042077720165,-1.7366306086108088
1789064098151146200,10.129146240234375,2.0605226632535456,-2.2622288924247025,-1.7818012912020087
1789064098161183200,10.139183349609375,2.5114029752135276,-2.3595056098282337,-1.05532994110547
1789064098171219200,10.14921923828125,0.9145967246174812,-1.771504061332345,-0.3640213820658624
1789064098181256200,10.159256103515625,1.576664795321226,-1.2026742462962865,0.5801900710273534
1789064098191293200,10.169293212890626,1.5164794989496468,-0.4278501495063305,1.4367051204890011
1789064098201330200,10.179330078125,0.3819546597719192,0.4541074573129415,1.8114532098829745
1789064098211367200,10.1893671875,-1.3933037856578827,2.347964225116372,0.6087354897711426
1789064098221404400,10.199404296875,-1.2612480158179997,2.613094001927972,-0.2829220386117697
1789064098231440400,10.2094404296875,0.4390460817813873,2.4357003762364386,-0.6049076020460575
1789064098241477400,10.219477294921875,2.191515187776089,1.6724357843369244,-0.5937707795470952
1789064098251514000,10.22951416015625,-1.1357950052440167,0.839120335611701,0.07498648659698665
1789064098261551000,10.239551025390625,-4.240518093627691,1.8598580520898103,0.20793029131777582
1789064098271588400,10.24958837890625,1.1835855149447918,-1.0762392389476299,0.28557182246819135
1789064098281625300,10.259625244140626,5.8783665487080805,-3.2889211333930493,0.5296980472829192
1789064098291661300,10.269661376953126,-2.3370079468160867,0.6957564052939414,0.3579625204183161
1789064098301698300,10.2796982421875,-7.644497100308537,2.60004162813127,0.38791451802439986
1789064098311735000,10.289735107421874,-5.56722963848114,-0.26512451611459253,0.8763576679203658
1789064098321772000,10.29977197265625,-0.18588731327056884,-3.437863740625977,2.3903812250852585
1789064098331809300,10.309809326171875,1.4434218615233898,-0.7862965079188347,0.5066994490113109
1789064098341846300,10.31984619140625,-0.6732979052484035,-0.5231488448351621,0.0857835557475686
1789064098351882200,10.32988232421875,-3.0084266141891476,-0.05254208814203739,0.7997809895224869
1789064098361919200,10.339919189453125,1.710370670455694,-0.25189503218531606,-0.2462556380588561
1789064098371956200,10.349956298828126,16.575670672202108,-2.7006659023970365,1.1540552498821168
1789064098381993200,10.3599931640625,12.721790427726507,1.6653484564244747,1.900377694004774
1789064098392030200,10.3700302734375,1.0071943442940712,4.387845666879415,0.3028624183565378
1789064098402067200,10.380067138671874,-2.0923042874395845,4.257269321942329,0.14196093165203927
1789064098412103200,10.390103271484374,3.679028119960427,5.1548611357450485,-0.8051710850629955
1789064098422140200,10.40014013671875,6.252903625699878,3.7507811045289037,-0.6354713748749345
1789064098432177400,10.410177490234375,-0.3460585860043764,2.3023446297138928,0.36607159259393807
1789064098442214100,10.420214111328125,-5.436653293544054,1.5047656802803278,0.5159047189258039
1789064098452251100,10.430251220703125,-6.660501845294236,1.4569512051820754,0.7955910635519773
1789064098462288100,10.4402880859375,-7.640608860698342,-0.3022679595947265,0.5003405815038829
1789064098472324000,10.450323974609375,-7.061158867448568,-1.7541326552927492,-0.08625913737006485
1789064098482361300,10.460361328125,-2.383261163946986,-5.7900569816142315,-2.1089289667651054
1789064098492398300,10.4703984375,-1.3377543323934078,-6.639550827202201,-0.5167392700538039
1789064098502435300,10.480435302734374,-5.848468838572502,-5.9367924341917035,-0.34039033110961314
1789064098512472000,10.49047216796875,-2.9887796644330025,-5.703111688610911,0.14973485358916222
1789064098522509000,10.500509033203125,-0.8882412171334028,-2.3762404715299605,-0.1311555330645293
1789064098532546300,10.51054638671875,-3.9439293487131595,-2.006830236032605,-1.2196543149307368
1789064098542582300,10.520582275390625,3.2068168506801125,-0.6478764637440443,-1.7890157526254653
1789064098552619300,10.530619384765625,5.7102539615809915,1.7134645448178052,-1.5471873564243315
1789064098562656300,10.54065625,0.987242858633399,2.8821067576527595,-1.3812231795027852
1789064098572693000,10.55069287109375,4.363090580329299,4.166486642733216,-1.3844222678050397
1789064098582730200,10.560730224609374,6.222612532332539,4.343684453591704,-0.8475267102334648
1789064098592767200,10.570767333984374,6.6250330570280545,2.3331863427013158,0.11837423129417002
1789064098602803200,10.58080322265625,2.25479202042222,2.8778952774375677,0.9445950455833226
1789064098612840200,10.590840087890625,-1.2137713943719863,2.70873522708416,1.3133826922029257
1789064098622877200,10.600877197265625,-0.7873919019401073,0.22453239348530768,1.467566853351146
1789064098632914400,10.61091455078125,1.6782675592303276,-1.9795798255354164,0.17584157394394279
1789064098642951200,10.620951171875,4.817347675246,-2.779879139843583,-0.025743805326521395
1789064098652988200,10.63098828125,0.38360885671973227,-1.6503127998560667,0.2666014567993581
1789064098663024000,10.641024169921875,-3.3384067565739155,-0.47653205508887764,-0.05199037254340946
1789064098673061000,10.65106103515625,-5.890194349145889,-0.28665596444308755,-0.09224807558655738
1789064098683098400,10.661098388671874,-4.257980100560188,-1.8522189355134964,1.7694830768987535
1789064098693135400,10.67113525390625,-0.7734095538169146,-0.6447200455397367,2.0848539714336396
1789064098703172000,10.681172119140625,-1.4424696753650903,-0.17032149534821509,0.06695442518033087
1789064098713209000,10.691208984375,-1.795034574523568,-0.10023264459967612,0.046916064953804015
1789064098723245000,10.7012451171875,-0.10478723916411399,0.7700052983313799,-0.06928864028155804
1789064098733282300,10.7112822265625,3.1393034033775327,-0.12237842543423175,0.03905139599330723
1789064098743319300,10.7213193359375,4.258066609799862,-2.3995126260459423,0.1350791362490505
1789064098753356000,10.73135595703125,2.4144869078159332,-0.3412093924075365,-0.3331957434304058
1789064098763393000,10.74139306640625,-1.0682476556718348,0.49105450143814083,-0.3544061431109905
1789064098773429800,10.7514296875,-0.007930208477377892,-0.23631343217194078,-0.28245610160045326
1789064098783466000,10.761466064453124,-4.059319230434299,0.8878408196389674,-0.016051409482210875
1789064098793502700,10.771502685546874,-3.801965348321199,0.07847790890932083,0.1559461293194443
1789064098803540000,10.7815400390625,2.2089678423583505,-2.5016186633020636,0.31795068189501763
1789064098813577000,10.791576904296875,2.3293951337248084,-2.812296139323711,-0.7184249678935856
1789064098823614000,10.801614013671875,0.22675123857855795,-2.115110578009486,0.16545228187665342
1789064098833651000,10.81165087890625,-4.012106812882423,0.286933027818799,0.8266279337853193
1789064098843687000,10.82168701171875,-4.973588622793555,0.3548638237506151,1.23107148874104
1789064098853723600,10.8317236328125,-1.1179770244807004,-1.3438853824943304,2.268459018985927
1789064098863761000,10.841760986328126,3.1674954786390064,-0.29018121595978735,1.15618919317089
1789064098873798000,10.8517978515625,4.314194155213237,0.7329770056635141,-0.002344078908115625
1789064098883835000,10.8618349609375,2.2560838137984276,1.1638543940365313,-0.46572851966489104
1789064098893871900,10.871871826171875,0.42923721995055675,2.2678590072661637,-0.9389879462912678
1789064098903907800,10.881907958984375,0.4867278704106807,4.015623296570777,-1.6822154200732706
1789064098913944800,10.89194482421875,7.388540810033678,2.1662077280402183,-1.5827432384520768
1789064098923981800,10.90198193359375,3.8359658176004885,-0.14218845679759978,-0.6464813561238348
1789064098934018800,10.912018798828125,0.35246962209045885,2.540814947658777,-0.2799026542579755
1789064098944055800,10.922055908203125,-1.6333821233212946,1.048560373905301,-0.42166693082675333
1789064098954093000,10.932093017578126,-0.5215449167698621,-0.2808890714794397,-0.5016385123599321
1789064098964129000,10.94212890625,-1.9912673407196997,0.093009707608819,-0.7694805438049137
1789064098974166000,10.952166015625,-4.098958582383394,0.029392683222889897,-0.7429156313538551
1789064098984202800,10.96220263671875,-3.4440473976969717,-2.613565711092949,-0.22016835305690763
1789064098994239700,10.97223974609375,-2.106371391236782,-3.6900475266247987,0.031472192910686134
1789064099004277000,10.982277099609375,-2.239929966855049,-1.6451894654929637,-0.15574947423618285
1789064099014314000,10.99231396484375,-2.061361452165246,-1.8929238708674907,0.24765472773443906
1789064099024350000,11.002349853515625,-0.2948848636060953,-2.0505998196542263,0.5575452180968598
1789064099034387000,11.012386962890625,0.7969517574459314,-0.4987234286308288,0.04470657221078873
1789064099044424000,11.022423828125,2.686462604999542,0.1346282506763935,0.009652684888429939
1789064099054460700,11.032460693359376,0.12301730785965918,0.8219821538060903,-0.2762300301598385
1789064099064498000,11.042497802734376,-0.6029255613833665,2.084455327504873,-0.7480329743675888
1789064099074535000,11.052534912109374,5.077187528955936,3.3731437234342097,-1.3104469310119746
1789064099084571000,11.06257080078125,4.291412999084591,0.7885258744060992,-1.2123333243928849
1789064099094608000,11.07260791015625,2.209284068700671,1.0835077686458825,-0.2064125071659684
1789064099104644900,11.082644775390625,-1.6117495527058838,1.8227473418354987,-0.3729210931625217
1789064099114681900,11.092681884765625,-2.9470436324656006,0.9595330139309167,-0.16368899853117763
1789064099124718800,11.10271875,-2.564791451051831,-0.32362755848765373,0.3789031632468104
1789064099134755800,11.112755859375,0.24239830504357812,-2.0778373706698416,0.7400871299296617
1789064099144791800,11.122791748046875,1.6055588813722133,-2.6156962933808563,0.8802358975932002
1789064099154828800,11.132828857421876,-1.1652093157768248,-1.5931880600988864,0.25504282869175077
1789064099164866000,11.142865966796874,-2.721517551767826,-0.8607271872639656,0.24994897615145892
1789064099174903000,11.152903076171874,0.20989070467054843,-1.5413216792613267,0.8504765730150043
1789064099184939800,11.162939697265625,2.2525293361872434,-1.2699743431091308,0.5732474853478372
1789064099194976800,11.172976806640625,-0.9854285026878118,0.9971955128490925,0.2557966427337378
1789064099205012700,11.1830126953125,-2.014973210477829,2.083839825955033,-0.08150397873222827
1789064099215050000,11.193050048828125,1.7403724254876374,1.1686691008418797,-0.4107177398543805
1789064099225087000,11.2030869140625,3.8798996518731115,0.392630367565155,-0.47149848136845973
1789064099235124000,11.2131240234375,-0.4196826251417398,2.0322493394494057,-0.3232930658362806
1789064099245160700,11.22316064453125,-1.085323293635249,1.8244617445379494,-0.16837335695512592
1789064099255197700,11.23319775390625,0.2678109787195921,0.1277402447283268,0.014889653960149735
1789064099265234000,11.24323388671875,0.2665589328318834,0.03952069400548935,0.006710640087164938
1789064099275271000,11.25327099609375,0.8382505670398473,-1.0136638325691223,0.22798045157995073
1789064099285308000,11.263307861328125,-0.33832185427248473,-1.2738216661870478,0.058697140173055225
1789064099295345000,11.273344970703125,-2.1797926012784243,-0.6241875451207161,-0.2782617917157709
1789064099305382000,11.2833818359375,-2.460366030937433,-0.7901543523907661,-0.13992790972078217
1789064099315419000,11.2934189453125,-5.570501792019606,0.24778759686648844,-0.5933066691666841
1789064099325454800,11.303454833984375,-4.762466915023326,-2.525893272858858,-0.2583899654288776
1789064099335491800,11.313491943359375,0.6448159071296453,-2.715316943562031,-0.3751988288361579
1789064099345528800,11.32352880859375,4.659776940399408,-3.032390258100629,-0.8120062648452818
1789064099355565800,11.33356591796875,2.8715169745773075,-1.7131483184754848,-0.698948187072575
1789064099365603000,11.34360302734375,3.3697534964740274,-1.0304062930554152,-0.7759303775314241
1789064099375639800,11.353639892578125,2.1960060694545507,0.8390349954158067,0.07662442652974277
1789064099385676000,11.363676025390625,1.5865022987246513,1.1405308015942572,0.1863401350719854
1789064099395712800,11.373712646484375,1.023643959313631,1.7309633766293524,0.16578264634218065
1789064099405749800,11.383749755859375,1.7005296599209307,2.575323366460204,-0.2968079771557823
1789064099415787000,11.393787109375,1.764670415920019,2.9920559096246957,-0.9991750692937522
1789064099425824000,11.403823974609375,1.093147119128704,1.720716123381257,-1.3931797208867966
1789064099435861000,11.413861083984376,1.0626210479617118,0.18648411011993885,-0.9714948890771716
1789064099445897700,11.423897705078126,-2.2886598032325507,0.295316240760684,-1.1322231381066143
1789064099455933700,11.43393359375,-1.1726105319440363,-0.83076693328619,-0.7009137149918824
1789064099465971000,11.443970947265624,-0.3734720781087875,-2.6239766304701564,0.2383127710293047
1789064099476008000,11.454008056640625,-0.9508160389900207,-2.0540642808943987,0.1676576099012047
1789064099486045000,11.464044921875,-1.723875464195013,-1.5390145713627337,0.27377428930448366
1789064099496082000,11.47408203125,-2.4702830293178555,-1.6068249557852745,0.39777313728109
1789064099506118000,11.484117919921875,-0.440505048418045,-1.072771855098009,0.8064394244983791
1789064099516155000,11.49415478515625,-0.4466974733173847,0.04719195928573608,1.080688254245743
1789064099526191900,11.50419189453125,-0.35062662457227706,1.1410253071129322,1.0580573933079838
1789064099536228900,11.514228759765626,-0.15638181732296944,1.659746983155608,0.7494453984487801
1789064099546265900,11.524265869140624,2.538130823141336,1.712801112473011,0.30594206326389684
1789064099556302800,11.534302734375,3.1125182723045346,2.07925775886178,-0.11104242710135877
1789064099566340000,11.544340087890625,1.9244488899439571,1.9422119256496428,-0.1409298898375593
1789064099576376000,11.5543759765625,0.6220294903039932,1.5108832863777875,0.44316907999552785
1789064099586412800,11.564412841796875,-0.759120916223526,1.2884914120525122,0.7984711490329355
1789064099596449800,11.57444970703125,-1.1535258922457694,-0.07994272076487541,0.6562680061228573
1789064099606486800,11.58448681640625,-2.534970313283801,-0.35499534117579457,0.2205697734646499
1789064099616524000,11.59452392578125,-0.7998603383690118,-2.082790024641156,0.25635581098645926
1789064099626561000,11.60456103515625,-1.3507909240990876,-2.209134431096911,0.5570264183871447
1789064099636597000,11.614596923828126,-2.1328478947520253,-1.5100643712103365,0.877734290035814
1789064099646634000,11.624634033203124,-2.8694389992594718,-2.021030610820651,1.4617472072869537
1789064099656670700,11.634670654296874,-2.624824771732092,-1.6217840399861334,1.3298521809667347
1789064099666708000,11.6447080078125,-2.334373506659269,0.5243833550661802,0.37469840503334995
1789064099676745000,11.654744873046875,1.2896814986199139,-0.13242226506471633,-0.31814200321603564
1789064099686782000,11.664781982421875,3.532962529468536,0.21338965270221233,-0.4697223385414108
1789064099696818000,11.67481787109375,-0.10451602100729941,1.239966158336401,-0.5826693936876952
1789064099706855000,11.68485498046875,1.1796920146375893,3.03563260102272,-0.3662854545403272
1789064099716891600,11.6948916015625,4.0913551216423505,2.4865882674306627,-0.5273018363287673
1789064099726929000,11.704928955078126,4.914585229682922,0.670007047009468,-0.3842077724609524
1789064099736966000,11.7149658203125,5.182482133120298,0.5698480521678925,-0.6333366278685629
1789064099747003600,11.725003662109375,-1.754733543795347,2.1844693609178063,-1.03574999217093
1789064099757039600,11.73503955078125,-4.583219770419597,2.3448750269293783,-1.0992328687831758
1789064099767076600,11.74507666015625,-0.40151977646350856,-0.6298802038043737,-0.4653377667816356
1789064099777113300,11.75511328125,0.5079144508242607,-1.9926012196719645,-0.25255671096444127
1789064099787150600,11.765150634765625,-1.6013865641236305,-1.3457161050528288,-0.3227802574759349
1789064099797187600,11.7751875,-2.1972797426521775,-1.283364570558071,-0.4524114670500159
1789064099807224600,11.785224609375,-3.656209554430842,-1.3486708632051945,-0.263590767208673
1789064099817260500,11.795260498046876,-3.930207112830877,-2.7503157762289048,0.23698972399830817
1789064099827297500,11.805297607421876,-1.7228063736587762,-1.5782704769521951,0.4928317402437329
1789064099837334300,11.815334228515624,-0.9900772052764892,-0.2299292840927839,0.4511091888124123
1789064099847371500,11.82537158203125,1.0326496880680323,-0.16357260560989378,0.5485515085738152
1789064099857408500,11.835408447265625,4.354352562600374,0.024340076008439064,0.4223686858879402
1789064099867445500,11.845445556640625,4.340470752242207,1.0930804836332797,-0.009548238133266568
1789064099877481500,11.8554814453125,0.8304366784185171,3.1507851668566462,0.4903622448576614
1789064099887518500,11.8655185546875,-0.26587679578661916,4.661892909640073,0.6466929530479013
1789064099897555700,11.8755556640625,1.4713339507997034,3.990879315936565,1.1286723137572408
1789064099907592400,11.885592529296876,1.0579156467497348,2.0583049872040746,1.3202540392771362
1789064099917629400,11.89562939453125,0.7430974176615476,0.4575637352466583,1.5823114229060709
1789064099927666400,11.90566650390625,0.195967393258214,-0.4426514127969742,1.3423156489595771
1789064099937702400,11.915702392578124,-1.4717629898667335,-0.9622422728896141,0.6609270839750766
1789064099947739600,11.92573974609375,-0.08669161050319671,-2.0011147809952496,0.3274412715569138
1789064099957776600,11.935776611328125,-1.0568687680453062,-2.5588059469014404,0.905220555115491
1789064099967813400,11.9458134765625,-0.872097307062149,-2.9619173764705655,1.7782427219375967
1789064099977850400,11.955850341796875,2.473805942746997,-2.5899732385814187,2.36187146217674
1789064099987887600,11.9658876953125,0.252068635186553,-1.0878981125593186,1.560745049394667
1789064099997923600,11.975923583984375,-2.8263164813697337,0.9598504093170166,1.344345547351986
1789064100007960600,11.985960693359376,-1.5727420689195393,1.3024264139026402,1.3520835942581295
1789064100017997600,11.99599755859375,3.424682772013545,0.047992754274606704,1.0533801222119479
1789064100028034600,12.00603466796875,2.515173141402006,0.023137129959464073,0.5417486966911703
1789064100038071300,12.0160712890625,-0.9291331994920968,1.4778127914249897,0.4065910883784294
1789064100048108500,12.026108642578125,-0.1618517731666565,0.2071995658904314,0.35062582085467875
1789064100058144500,12.03614453125,0.46665012802183625,-0.938754429796338,0.4649639285005629
1789064100068181500,12.046181396484375,0.9222551304161548,-1.4491034142911434,0.8926046730399131
1789064100078218500,12.056218505859375,0.8676619549632072,-1.9386223767250774,1.3855512718349694
1789064100088255500,12.06625537109375,-1.1238684206068514,-1.5366852516323326,1.4851111317396164
1789064100098292500,12.07629248046875,-1.9428356105059383,-1.1824217318624257,1.553486748829484
1789064100108329500,12.08632958984375,-3.8472915137350556,-0.5793704982727765,1.1043587604295462
1789064100118365400,12.096365478515626,-2.5949036807209254,-0.6839426333814859,0.3811780493762344
1789064100128402400,12.10640234375,1.422837338656187,-0.8289514082968235,-0.2926401534192264
1789064100138439400,12.116439453125,0.8267056751966476,-0.2415016484647989,-0.5356875700213015
1789064100148476700,12.1264765625,2.3446552466988564,0.4361439305990934,0.05850735322199761
1789064100158513700,12.136513671875,2.3608804053127765,0.7783318126499652,0.4867966247979551
1789064100168550400,12.14655029296875,1.4500444945335387,1.7163450686901807,1.109134450398758
1789064100178586400,12.15658642578125,2.0302736554622647,2.0795652173757553,0.9946095149438827
1789064100188623400,12.166623291015625,1.070580482533574,2.09841078762114,0.29891455751359464
1789064100198660600,12.17666064453125,-0.2752092722773552,1.991440359199047,-0.06487104303501547
1789064100208697600,12.186697509765626,-0.007269698742032051,1.2304559871912002,-0.33197789207324385
1789064100218734600,12.196734619140624,-0.03687923958599567,0.043702363604307175,-0.6832759861662984
1789064100228771300,12.206771240234374,0.8606897778630256,-0.6819616886973381,-0.8044244314141571
1789064100238807600,12.2168076171875,-0.8395651567697524,-0.6877922945469618,-0.5580781924623995
1789064100248844500,12.226844482421875,-0.5946650980383157,-1.024209191980958,0.15022124886661767
1789064100258881500,12.236881591796875,-1.173676115348935,-1.1521996120780706,0.5003788676876575
1789064100268918500,12.24691845703125,-3.7681262070834634,0.41916181613802905,0.36182745221816004
1789064100278955500,12.25695556640625,-1.7744214100837707,-0.045242578783631325,0.2514854284711182
1789064100288992500,12.266992431640626,1.5630109485000372,-1.1274924563229083,-0.32997773123197255
1789064100299028500,12.277028564453126,0.3506114270031452,0.15147650962471962,-1.4194552950024604
1789064100309065500,12.2870654296875,-0.7990531136393546,1.220838264018297,-1.630721964201331
1789064100319102500,12.2971025390625,0.2379074233651161,0.7482172448933124,-1.718438826099038
1789064100329139500,12.307139404296874,0.9772861127644776,1.0737146889060736,-1.1959033639218657
1789064100339176400,12.317176513671875,1.3472194953531027,1.0727350302189589,-0.23797033253349362
1789064100349213700,12.327213623046875,1.0924854403495787,0.7720049477159977,0.7487398805279284
1789064100359249700,12.337249755859375,0.11037117677628994,0.8735925140559673,1.4300083993293344
1789064100369286700,12.34728662109375,-0.37951661897003647,0.8185609471857547,1.2175241710342466
1789064100379323400,12.357323486328125,0.317953604504466,0.014590250888466834,0.22436478183344005
1789064100389360400,12.3673603515625,-0.6083937636613845,-0.20382570554316043,-0.44780229275412853
1789064100399397600,12.377397705078126,0.3026110739439726,-0.566264348462224,-0.8657997412879019
1789064100409434600,12.3874345703125,0.6123065531909465,-1.1241016448408365,-0.7275190325185656
1789064100419470600,12.397470703125,-0.22378829711973666,-0.7032236724346875,-0.2538570529732853
1789064100429507600,12.407507568359375,-1.984483964189887,0.06438917780220509,0.025609584487602113
1789064100439544300,12.41754443359375,-1.2633189768731594,0.04452595494687557,-0.11880268583931028
1789064100449581600,12.42758154296875,-2.194369992685318,0.936964039248228,-0.07961677674613893
1789064100459618600,12.43761865234375,-0.46987318172156806,0.5277577999353409,0.14520809687972067
1789064100469655600,12.447655517578125,2.033137812721729,-0.26726795788407326,0.5805734443217515
1789064100479691500,12.45769140625,1.4344412672102451,0.07442308056056499,0.34428770387433466
1789064100489728500,12.467728515625,-0.2921037084549665,0.38371348613798617,0.5875581886425614
1789064100499765500,12.477765625,-4.315076198744774,0.8405845629453659,0.1742398378357291
1789064100509802500,12.487802490234374,-7.16787035267353,0.6506079345345497,-0.16117467762269078
1789064100519839500,12.497839599609375,-6.811311415442824,-1.1676631386697292,-0.2579885267548263
1789064100529876500,12.50787646484375,-2.8521266299307344,-4.625720941540599,0.14988485651910305
1789064100539912400,12.517912353515625,1.6705629762023686,-5.685151669028401,1.8363560343407093
1789064100549949400,12.527949462890625,4.34322677295208,-0.7292915951490402,1.0834414984766394
1789064100559986700,12.537986572265625,7.474335179436206,-1.097608190190792,1.0336470285423098
1789064100570023400,12.5480234375,7.445846751576662,1.5026087945073843,1.563335650409758
1789064100580060400,12.558060302734376,5.7608191966921085,2.978869680315256,0.8453975161850452
1789064100590097400,12.568097412109376,2.256025361609459,3.243596721544862,0.5201848804630339
1789064100600133400,12.57813330078125,0.021533201894164085,4.408609637966752,0.17567988057620823
1789064100610170600,12.588170654296874,4.913047937113046,5.749390624704957,-1.201862710717693
1789064100620207600,12.59820751953125,10.882822603452205,1.8781769681125877,-0.7360770905707031
1789064100630244600,12.60824462890625,5.554788090059161,0.03240647808611393,0.09555559269934892
