time,seconds_elapsed,z,y,x
1789064088060345000,0.038344970703125,0.012779977172613144,-0.018099641427397728,0.00987127237021923
1789064088070381000,0.048381103515625,0.013404754921793938,-0.0172671377658844,0.014584535732865334
1789064088080418000,0.05841796875,0.014109693467617035,-0.013255084864795208,0.02280784398317337
1789064088090455300,0.068455322265625,0.021140705794095993,-0.008644354529678822,0.024101074784994125
1789064088100492300,0.0784921875,0.02804841287434101,-0.0020530307665467262,0.023154588416218758
1789064088110529300,0.088529296875,0.04005394130945206,0.00046312372433021665,0.01980486325919628
1789064088120566000,0.09856591796875,0.0482729896903038,0.013818077743053436,0.015558186918497086
1789064088130603300,0.108603271484375,0.04843757301568985,0.02045600675046444,0.017556622624397278
1789064088140640300,0.11864013671875,0.04363616183400154,0.018906844779849052,0.017726266756653786
1789064088150676200,0.12867626953125,0.03568502515554428,0.02142992429435253,0.023980965837836266
1789064088160713200,0.138713134765625,0.025783659890294075,0.005671733990311623,0.029619144275784492
1789064088170750200,0.148750244140625,0.02767104282975197,-0.000865793670527637,0.01949646882712841
1789064088180787200,0.158787109375,0.06687863171100616,0.03165832906961441,-0.00863183755427599
1789064088190824200,0.16882421875,0.08466348797082901,0.0065018413588404655,-0.023494407534599304
1789064088200861200,0.178861083984375,0.07713446766138077,0.002490055514499545,-0.014251906424760818
1789064088210898200,0.188898193359375,0.06675799190998077,0.050332680344581604,-0.03520086407661438
1789064088220935200,0.19893505859375,0.055274974554777145,0.006886135786771774,-0.056711483746767044
1789064088230971100,0.20897119140625,0.06521601974964142,0.07055246084928513,-0.053042978048324585
1789064088241008400,0.21900830078125,0.0719548836350441,0.005889047868549824,-0.039978574961423874
1789064088251045000,0.229045166015625,0.07969775795936584,0.010400709696114063,-0.022224612534046173
1789064088261082000,0.23908203125,0.06943127512931824,0.002770486520603299,-0.008815063163638115
1789064088271119000,0.249119140625,0.06157707795500755,-0.0005190501105971634,-0.0014255901332944632
1789064088281156400,0.25915625,0.050396062433719635,0.011972506530582905,0.02816852182149887
1789064088291193300,0.269193359375,0.04348808899521828,-0.005351622123271227,0.04941282421350479
1789064088301230000,0.27922998046875,0.04578613117337227,-0.009702428244054317,0.05589522421360016
1789064088311266300,0.289266357421875,0.04793583229184151,-0.013741645030677319,0.05109966918826103
1789064088321303000,0.299302978515625,0.0499475859105587,-0.018675416707992554,0.0347750261425972
1789064088331340300,0.30934033203125,0.04716351628303528,-0.02136041596531868,0.02640976943075657
1789064088341377300,0.319377197265625,0.03604109212756157,-0.02581428736448288,0.01471662800759077
1789064088351414300,0.329414306640625,0.010485131293535233,-0.07192318886518478,-0.012834838591516018
1789064088361451300,0.339451171875,-0.0046876962296664715,-0.06611324101686478,-0.03214302286505699
1789064088371488300,0.34948828125,0.010328537784516811,-0.01835716888308525,-0.04723569005727768
1789064088381525200,0.359525146484375,0.005075985100120306,-0.1127403974533081,-0.025499766692519188
1789064088391561200,0.369561279296875,-0.0052107409574091434,-0.038659512996673584,-0.025956233963370323
1789064088401598200,0.37959814453125,-0.03291879966855049,-0.07726576179265976,-0.024096548557281494
1789064088411635200,0.38963525390625,-0.046115562319755554,-0.04677576199173927,-0.02167014218866825
1789064088421672200,0.399672119140625,-0.04579731449484825,-0.043844420462846756,-0.005249356850981712
1789064088431709200,0.409709228515625,-0.02550908923149109,-0.08122188597917557,0.020787836983799934
1789064088441746200,0.41974609375,-0.014311028644442558,-0.08678043633699417,0.04663141816854477
1789064088451783200,0.429783203125,-0.020622987300157547,-0.10283476859331131,0.05987638235092163
1789064088461820200,0.439820068359375,-0.040159668773412704,-0.0919022262096405,0.06863019615411758
1789064088471856000,0.449856201171875,-0.06365621089935303,-0.08620492368936539,0.08121735602617264
1789064088481893400,0.459893310546875,-0.07956673204898834,-0.09905946999788284,0.0781714990735054
1789064088491930400,0.469930419921875,-0.11962413787841797,-0.05324085056781769,0.06719448417425156
1789064088501967000,0.479967041015625,-0.1488533914089203,-0.053530603647232056,0.08006633818149567
1789064088512004000,0.490004150390625,-0.18832756578922272,-0.18274371325969696,0.03491351008415222
1789064088522041300,0.500041259765625,-0.17447219789028168,-0.14319629967212677,-0.003674895968288183
1789064088532078300,0.510078369140625,-0.14888188242912292,-0.25605547428131104,-0.03443547338247299
1789064088542115300,0.520115234375,-0.1218302994966507,-0.2324577420949936,-0.04442765191197395
1789064088552151300,0.5301513671875,-0.12315229326486588,-0.18476691842079163,-0.0322657935321331
1789064088562188000,0.54018798828125,-0.14947044849395752,-0.1382865011692047,-0.015503858216106892
1789064088572225300,0.550225341796875,-0.17912447452545166,-0.10249548405408859,0.026866234838962555
1789064088582262300,0.56026220703125,-0.18926313519477844,-0.11295078694820404,0.05613277852535248
1789064088592299300,0.57029931640625,-0.15537600219249725,-0.12987810373306274,0.05549095571041107
1789064088602336300,0.580336181640625,-0.09324605762958527,-0.16355617344379425,0.06651564687490463
1789064088612373000,0.590373046875,-0.019662383943796158,-0.18378448486328125,0.0703684389591217
1789064088622410200,0.60041015625,0.023312779143452644,-0.16664277017116547,0.06527701020240784
1789064088632446200,0.6104462890625,0.025838786736130714,-0.11652102321386337,0.053712762892246246
1789064088642483200,0.620483154296875,0.005607285536825657,-0.07662606984376907,0.041314415633678436
1789064088652520200,0.630520263671875,0.003743072971701622,-0.009007076732814312,0.029696643352508545
1789064088662557200,0.64055712890625,0.029709959402680397,-0.01594887301325798,0.010462228208780289
1789064088672594400,0.650594482421875,0.07840825617313385,-0.03819798678159714,-0.015962455421686172
1789064088682631200,0.660631103515625,0.12668044865131378,-0.03875724971294403,-0.04271550476551056
1789064088692668200,0.670668212890625,0.15713928639888763,-0.03621979057788849,-0.06670339405536652
1789064088702705200,0.680705078125,0.16166692972183228,0.01631292700767517,-0.08309941738843918
1789064088712741000,0.6907412109375,0.1529192477464676,0.024824123829603195,-0.09342368692159653
1789064088722778400,0.7007783203125,0.14325888454914093,0.053462427109479904,-0.09649751335382462
1789064088732815400,0.7108154296875,0.1179167851805687,0.03460085391998291,-0.04705459251999855
1789064088742852600,0.7208525390625,0.0955028235912323,0.02761751227080822,-0.042815905064344406
1789064088752889600,0.7308896484375,0.10110291838645935,0.004621915984898806,-0.0305792149156332
1789064088762926600,0.740926513671875,0.15742291510105133,0.027395937591791153,-0.023912256583571434
1789064088772963600,0.750963623046875,0.21258869767189026,0.05433354526758194,0.017060475423932076
1789064088782999600,0.76099951171875,0.21035216748714447,0.06368523836135864,0.026313629001379013
1789064088793036800,0.771036865234375,0.1673804670572281,0.09445353597402573,-0.007535147946327925
1789064088803073500,0.781073486328125,0.10359163582324982,0.05988490581512451,-0.0373777337372303
1789064088813110500,0.791110595703125,0.07107710838317871,0.07414187490940094,-0.019583821296691895
1789064088823147500,0.8011474609375,0.05104054883122444,-0.03069213218986988,0.021950572729110718
1789064088833184800,0.811184814453125,0.03843420743942261,-0.0667092576622963,0.03341441601514816
1789064088843221800,0.8212216796875,0.0018303906545042992,-0.0440920926630497,0.04483111947774887
1789064088853258500,0.831258544921875,-0.03797001764178276,-0.040408141911029816,0.05982072278857231
1789064088863294700,0.841294677734375,-0.0453224740922451,-0.0056983656249940395,0.02395699732005596
1789064088873331500,0.85133154296875,-0.01859232597053051,0.029394639655947685,-0.01798832230269909
1789064088883368700,0.86136865234375,0.016877250745892525,0.0012889700010418892,-0.030915571376681328
1789064088893405700,0.87140576171875,0.030182668939232826,0.00039414784987457097,-0.05844892933964729
1789064088903442700,0.881442626953125,0.014640994369983673,-0.01272991020232439,-0.08522674441337585
1789064088913479700,0.891479736328125,-0.020534303039312363,-0.05593863129615784,-0.05042961984872818
1789064088923516700,0.9015166015625,-0.056779660284519196,-0.07616747170686722,-0.015180816873908043
1789064088933553700,0.9115537109375,-0.07597945630550385,-0.051422711461782455,-0.01871323399245739
1789064088943589600,0.921589599609375,-0.07890014350414276,-0.04440714418888092,-0.007196926511824131
1789064088953626600,0.931626708984375,-0.0752585381269455,-0.03566878288984299,0.011725098825991154
1789064088963663600,0.94166357421875,-0.05626620352268219,-0.034927356988191605,0.010431601665914059
1789064088973700600,0.95170068359375,-0.030525417998433113,-0.025713885203003883,-0.006424343679100275
1789064088983737600,0.961737548828125,-0.007457649800926447,0.001270327833481133,-0.010006560944020748
1789064088993774600,0.971774658203125,0.006387325469404459,-0.010974087752401829,0.002270078519359231
1789064089003811600,0.9818115234375,0.013671071268618107,0.008190285414457321,0.02810407243669033
1789064089013848600,0.9918486328125,0.0037321539130061865,-0.04434802383184433,0.05615994334220886
1789064089023884500,1.001884521484375,-0.008974586613476276,-0.05571998655796051,0.06028943881392479
1789064089033921800,1.011921875,-0.01395656168460846,-0.010490191169083118,0.05758260190486908
1789064089043958800,1.021958740234375,-0.019242137670516968,-0.03243277594447136,0.05541851744055748
1789064089053995500,1.03199560546875,-0.012848952785134315,-0.011972506530582905,0.021646972745656967
1789064089064032500,1.042032470703125,0.00007163903501350433,0.0099008334800601,-0.014302239753305912
1789064089074069800,1.05206982421875,0.02130741998553276,-0.0038629150949418545,-0.049492184072732925
1789064089084106800,1.062106689453125,0.0365726575255394,0.004506334662437439,-0.07692727446556091
1789064089094142700,1.072142822265625,0.03178882226347923,-0.014725948683917522,-0.060693174600601196
1789064089104179700,1.0821796875,0.001201884588226676,-0.04779282212257385,-0.026155970990657806
1789064089114216400,1.092216552734375,-0.031076159328222275,-0.029832996428012848,-0.034873295575380325
1789064089124253700,1.102253662109375,-0.04405853897333145,-0.023619841784238815,-0.0163603313267231
1789064089134290700,1.112290771484375,-0.029616747051477432,-0.0496639609336853,0.013617807999253273
1789064089144327700,1.12232763671875,0.008650479838252068,-0.013713149353861809,-0.006277869455516338
1789064089154364700,1.13236474609375,0.03766189143061638,0.0006258428329601884,-0.02136787213385105
1789064089164401400,1.1424013671875,0.04204705357551575,0.010105897672474384,-0.00296303303912282
1789064089174437600,1.152437744140625,0.02474076673388481,-0.011041732504963875,0.03332173824310303
1789064089184474600,1.162474609375,-0.0046935551799833775,-0.02846892550587654,0.04900243133306503
1789064089194511600,1.17251171875,-0.02821752242743969,-0.048479918390512466,0.06139465048909187
1789064089204548600,1.182548583984375,-0.03845471516251564,-0.04911401495337486,0.06042872369289398
1789064089214585600,1.192585693359375,-0.03598250076174736,-0.04773076996207237,0.05336442217230797
1789064089224622800,1.202622802734375,-0.02027677558362484,-0.03423839807510376,0.027034813538193703
1789064089234659600,1.21265966796875,0.007785485126078129,-0.006512494292110205,0.00415453128516674
1789064089244696600,1.222696533203125,0.0423024483025074,-0.003745469730347395,-0.020315658301115036
1789064089254732500,1.232732666015625,0.0688677504658699,0.01782000996172428,-0.04851187393069267
1789064089264769500,1.24276953125,0.07545854151248932,0.009576461277902126,-0.05313831940293312
1789064089274806800,1.252806884765625,0.05445152521133423,-0.03368658944964409,-0.03182344138622284
1789064089284843800,1.26284375,0.03406129777431488,-0.013548566028475761,-0.03170439973473549
1789064089294880500,1.272880615234375,0.02311703749001026,-0.013970410451292992,-0.02701750211417675
1789064089304917500,1.28291748046875,0.034503914415836334,-0.02317722514271736,-0.0051569449715316296
1789064089314954500,1.29295458984375,0.06823844462633133,-0.009474461898207664,0.016144881024956703
1789064089324990700,1.30299072265625,0.10600100457668304,-0.001401089015416801,0.023751934990286827
1789064089335027700,1.31302783203125,0.14189136028289795,0.016882311552762985,0.03063647262752056
1789064089345064700,1.323064697265625,0.1711946576833725,0.027768779546022415,0.05138462781906128
1789064089355101700,1.333101806640625,0.1894064098596573,0.025122130289673805,0.06377898156642914
1789064089365138400,1.343138427734375,0.20470601320266724,0.05512956529855728,0.04892093688249588
1789064089375175700,1.35317578125,0.22080987691879272,0.06638914346694946,0.027356524020433426
1789064089385212700,1.363212646484375,0.23360636830329895,0.06316378712654114,0.008676312863826752
1789064089395249700,1.373249755859375,0.2531185448169708,0.07574483007192612,-0.0212421715259552
1789064089405285600,1.38328564453125,0.2770797908306122,0.08374922722578049,-0.06191929429769516
1789064089415322600,1.393322509765625,0.3099035322666168,0.11640863120555878,-0.01392886508256197
1789064089425359600,1.403359619140625,0.34358346462249756,0.1808169186115265,-0.07044540345668793
1789064089435396600,1.413396728515625,0.3432239294052124,0.09357894957065582,-0.09635689854621887
1789064089445433600,1.42343359375,0.3783787190914154,0.0821169763803482,0.07870866358280182
1789064089455470600,1.433470703125,0.4056907892227173,0.2591186463832855,-0.035231225192546844
1789064089465507800,1.4435078125,0.3212214410305023,0.015349661000072956,-0.1052558496594429
1789064089475544600,1.453544677734375,0.3138929605484009,0.2823435366153717,-0.09212406724691391
1789064089485580800,1.463580810546875,0.27471253275871277,0.03333904966711998,-0.07842183858156204
1789064089495617500,1.473617431640625,0.28621259331703186,0.14030463993549347,-0.0413903184235096
1789064089505654500,1.483654541015625,0.2696019113063812,0.0939592495560646,-0.004671717062592506
1789064089515691500,1.49369140625,0.2514878809452057,0.4101712703704834,0.09522771835327148
1789064089525728800,1.503728759765625,0.26039057970046997,-0.20487432181835175,0.005397162400186062
1789064089535765800,1.513765869140625,0.3901485800743103,0.25823819637298584,-0.05756982043385506
1789064089545802500,1.523802490234375,0.3370720446109772,0.30750882625579834,-0.048839446157217026
1789064089555838500,1.53383837890625,0.3118937015533447,0.09808582067489624,0.029644444584846497
1789064089565875500,1.54387548828125,0.15027445554733276,0.065994992852211,0.049498312175273895
1789064089575912700,1.55391259765625,0.1327655017375946,0.20139889419078827,0.1725749671459198
1789064089585949700,1.56394970703125,0.037642981857061386,-0.08540358394384384,0.24369707703590393
1789064089595986700,1.573986572265625,0.1051810160279274,0.0863809585571289,0.047018639743328094
1789064089606023400,1.5840234375,0.13397617638111115,0.1607116460800171,0.002948652021586895
1789064089616060700,1.594060791015625,0.1491556614637375,0.028125377371907234,0.08158647269010544
1789064089626097700,1.60409765625,0.13400866091251373,0.13219691812992096,0.053466953337192535
1789064089636133600,1.614133544921875,0.09944403171539307,0.10927961766719818,0.002239984693005681
1789064089646170600,1.624170654296875,0.09008675068616867,0.04614006355404854,0.1015671044588089
1789064089656207600,1.63420751953125,0.10932329297065735,0.09898969531059265,0.04998913034796715
1789064089666244900,1.644244873046875,0.11156754195690155,0.10871769487857819,-0.0343736857175827
1789064089676281600,1.654281494140625,0.0984560027718544,0.022336997091770172,0.004793423693627119
1789064089686318600,1.664318603515625,0.06150117889046669,0.027355192229151726,0.06205218657851219
1789064089696355600,1.67435546875,0.017103886231780052,0.06972608715295792,-0.005751628894358873
1789064089706391600,1.6843916015625,-0.00868989434093237,0.011900868266820908,-0.036556411534547806
1789064089716428500,1.694428466796875,-0.02979171834886074,0.2265859991312027,0.049614958465099335
1789064089726465800,1.7044658203125,-0.04861387610435486,0.1517343968153,0.10222809761762619
1789064089736502500,1.71450244140625,-0.006619020365178585,-0.06100289896130562,-0.06417632102966309
1789064089746539300,1.724539306640625,0.1779969036579132,0.2584667205810547,-0.2833195924758911
1789064089756576500,1.734576416015625,0.32303425669670105,0.22742676734924316,-0.21662604808807373
1789064089766613500,1.744613525390625,0.3287491202354431,0.15754862129688263,-0.07305023819208145
1789064089776650500,1.754650390625,0.20838968455791473,0.13227681815624237,-0.12055890262126923
1789064089786686500,1.7646865234375,-0.005854959599673748,0.24582600593566895,-0.12586446106433868
1789064089796723500,1.774723388671875,-0.14026443660259247,0.07803727686405182,0.027001257985830307
1789064089806760400,1.784760498046875,-0.12076742947101593,0.026687003672122955,0.1013612449169159
1789064089816797400,1.79479736328125,-0.07949269562959671,-0.04562820494174957,0.10737412422895432
1789064089826834400,1.80483447265625,-0.06096374988555908,0.013230051845312119,0.13385073840618134
1789064089836871400,1.814871337890625,-0.0773634985089302,0.05433407798409462,0.21327047049999237
1789064089846908700,1.82490869140625,-0.06842486560344696,0.07172185927629471,0.2509475350379944
1789064089856944600,1.834944580078125,0.00213612150400877,0.14282746613025665,0.23417627811431885
1789064089866981600,1.844981689453125,0.10444997251033783,0.17104977369308472,0.18042384088039398
1789064089877018400,1.855018310546875,0.1651167869567871,0.2406269907951355,0.08435269445180893
1789064089887055400,1.865055419921875,0.1362537145614624,0.1659034788608551,0.016581106930971146
1789064089897092600,1.875092529296875,0.014489194378256798,0.05853548273444176,-0.00791384931653738
1789064089907129600,1.885129638671875,-0.11509010195732117,0.03428846597671509,-0.030168022960424423
1789064089917166600,1.89516650390625,-0.20378215610980988,-0.0548909455537796,-0.08030309528112411
1789064089927202600,1.90520263671875,-0.20226894319057465,0.0034059167373925447,-0.11630130559206009
1789064089937239300,1.9152392578125,-0.14775244891643524,0.007556186988949776,-0.07638505101203918
1789064089947276300,1.9252763671875,-0.08605818450450897,0.019995279610157013,-0.030918767675757408
1789064089957313500,1.9353134765625,-0.03856949508190155,0.07302014529705048,0.001300155185163021
1789064089967350500,1.9453505859375,-0.027225762605667114,0.10612083971500397,0.019346799701452255
1789064089977387500,1.955387451171875,-0.0276247039437294,0.1261608600616455,0.04722902923822403
1789064089987424300,1.96542431640625,-0.039013978093862534,0.06627089530229568,0.07932811230421066
1789064089997461500,1.97546142578125,-0.04116634652018547,0.06402905285358429,0.08482913672924042
1789064090007497500,1.98549755859375,-0.05271594226360321,0.02719220519065857,0.09622693061828613
1789064090017534500,1.995534423828125,-0.041068341583013535,0.06078265607357025,0.09344472736120224
1789064090027571500,2.005571533203125,-0.00785419438034296,0.08888646215200424,0.07891345769166946
1789064090037608400,2.0156083984375,0.048505749553442,0.15682156383991241,0.06274434179067612
1789064090047645700,2.025645751953125,0.10381773859262466,0.15371286869049072,0.0626005306839943
1789064090057682400,2.035682373046875,0.12395363301038742,0.13370347023010254,0.019471170380711555
1789064090067719400,2.045719482421875,0.10736986249685287,0.1682414710521698,-0.004101800732314587
1789064090077755400,2.05575537109375,0.05486990511417389,0.1262841671705246,-0.0065681543201208115
1789064090087792400,2.06579248046875,0.0167989544570446,0.12256639450788498,-0.022525282576680183
1789064090097829600,2.07582958984375,0.0037382792215794325,0.08400968462228775,0.009529323317110538
1789064090107866600,2.08586669921875,0.02755466289818287,0.08095796406269073,-0.008701612241566181
1789064090117903400,2.0959033203125,0.07551659643650055,0.13752830028533936,-0.03963848948478699
1789064090127940400,2.1059404296875,0.09832151234149933,0.11195236444473267,-0.001546763931401074
1789064090137977300,2.115977294921875,0.10437913239002228,0.14307592809200287,-0.005363606382161379
1789064090148014600,2.1260146484375,0.08441714942455292,0.12710602581501007,0.012714463286101818
1789064090158050600,2.136050537109375,0.06622802466154099,0.10788439214229584,0.04572141543030739
1789064090168087600,2.146087646484375,0.044380780309438705,0.11128018796443939,0.056710418313741684
1789064090178124500,2.15612451171875,0.04897313565015793,0.15040814876556396,0.04099510237574577
1789064090188161300,2.166161376953125,0.09928903728723526,0.2019088864326477,0.07444413751363754
1789064090198198500,2.176198486328125,0.18034261465072632,0.20124337077140808,0.11993226408958435
1789064090208235500,2.186235595703125,0.2828492820262909,0.19051454961299896,0.15436720848083496
1789064090218272500,2.1962724609375,0.37782639265060425,0.23019325733184814,0.11061146855354309
1789064090228308500,2.20630859375,0.42175042629241943,0.22442059218883514,0.06555690616369247
1789064090238345500,2.216345458984375,0.4170544743537903,0.31181249022483826,0.027047863230109215
1789064090248382500,2.226382568359375,0.3861679434776306,0.33495908975601196,0.01637391373515129
1789064090258419500,2.23641943359375,0.36790239810943604,0.3361508548259735,0.04752224683761597
1789064090268456400,2.24645654296875,0.36775273084640503,0.33763980865478516,0.0024652881547808647
1789064090278493400,2.256493408203125,0.4238050580024719,0.39736226201057434,-0.08242989331483841
1789064090288530400,2.266530517578125,0.4745880961418152,0.3237415850162506,-0.08936449885368347
1789064090298566700,2.276566650390625,0.499146431684494,0.20288307964801788,-0.08112361282110214
1789064090308603600,2.286603759765625,0.47667813301086426,0.25010064244270325,-0.09852710366249084
1789064090318640400,2.296640380859375,0.4233158528804779,0.4402428865432739,-0.06083538755774498
1789064090328677400,2.306677490234375,0.4032182991504669,0.4580727517604828,0.05109008029103279
1789064090338714400,2.31671435546875,0.4625527262687683,0.41424164175987244,0.27085787057876587
1789064090348751600,2.326751708984375,0.6110860109329224,0.44027459621429443,0.38200807571411133
1789064090358788600,2.33678857421875,0.7659847736358643,0.4155538082122803,0.3604007959365845
1789064090368825300,2.346825439453125,0.8635984063148499,0.4650382697582245,0.28554174304008484
1789064090378861300,2.356861328125,0.8380653858184814,0.5191472768783569,0.17842300236225128
1789064090388898300,2.366898193359375,0.7058849334716797,0.5035284161567688,0.12000017613172531
1789064090398935600,2.376935546875,0.5538917183876038,0.5179707407951355,0.06952235102653503
1789064090408972500,2.38697265625,0.3974190056324005,0.36762940883636475,0.02629631944000721
1789064090419009500,2.397009521484375,0.3192770481109619,0.23752760887145996,-0.07883143424987793
1789064090429046300,2.40704638671875,0.26835742592811584,0.11851732432842255,-0.209487184882164
1789064090439083500,2.41708349609375,0.20461465418338776,0.10367659479379654,-0.3419125974178314
1789064090449119500,2.427119384765625,0.07603191584348679,0.09432516992092133,-0.4039495885372162
1789064090459156500,2.437156494140625,-0.07345690578222275,0.03978895768523216,-0.3345188498497009
1789064090469193500,2.447193359375,-0.20154216885566711,-0.039381761103868484,-0.2354724407196045
1789064090479230500,2.45723046875,-0.3409227132797241,-0.041730135679244995,-0.14673590660095215
1789064090489267500,2.467267333984375,-0.5359771251678467,-0.08162375539541245,0.005841644015163183
1789064090499304400,2.477304443359375,-0.6866111159324646,-0.16383953392505646,0.15532220900058746
1789064090509341400,2.487341552734375,-0.7797884941101074,-0.20535501837730408,0.21764551103115082
1789064090519378400,2.49737841796875,-0.8549417853355408,-0.2964859902858734,0.2846791446208954
1789064090529414400,2.507414306640625,-0.9099640250205994,-0.28199493885040283,0.31525036692619324
1789064090539451400,2.517451416015625,-0.9244353771209717,-0.329578697681427,0.2752520740032196
1789064090549488600,2.527488525390625,-0.9363165497779846,-0.46173566579818726,0.23279969394207
1789064090559525400,2.537525390625,-0.8951328992843628,-0.5715777277946472,0.05260781571269035
1789064090569562400,2.547562255859375,-0.8397780656814575,-0.4331596791744232,-0.014298245310783386
1789064090579599400,2.557599365234375,-0.8733527660369873,-0.2427162379026413,0.0628838911652565
1789064090589636600,2.56763671875,-0.8882936239242554,-0.04492699354887009,0.07582712173461914
1789064090599672600,2.577672607421875,-0.870680570602417,-0.21288563311100006,-0.022283468395471573
1789064090609709600,2.58770947265625,-0.8325848579406738,-0.2660748362541199,-0.09159543365240097
1789064090619746600,2.59774658203125,-0.7685496807098389,-0.19645340740680695,-0.1258319616317749
1789064090629783300,2.607783203125,-0.6921310424804688,-0.18052689731121063,-0.17270945012569427
1789064090639820500,2.617820556640625,-0.6519266366958618,-0.20917612314224243,-0.11088816821575165
1789064090649857500,2.627857421875,-0.6461081504821777,-0.2323988825082779,-0.06366872787475586
1789064090659894500,2.63789453125,-0.6658493876457214,0.0712914913892746,-0.12770922482013702
1789064090669930500,2.647930419921875,-0.5409007668495178,0.14223596453666687,-0.0004551342281047255
1789064090679967500,2.657967529296875,-0.40541380643844604,-0.005018460564315319,0.20661017298698425
1789064090690004200,2.668004150390625,-0.37986424565315247,-0.11426425725221634,0.28163832426071167
1789064090700041500,2.67804150390625,-0.3788977861404419,-0.016957677900791168,0.17188680171966553
1789064090710078500,2.688078369140625,-0.27885958552360535,0.33593860268592834,0.022040586918592453
1789064090720115500,2.698115478515625,-0.04743329435586929,0.27604010701179504,-0.06924698501825333
1789064090730152400,2.70815234375,0.0603613443672657,0.14714764058589935,-0.1692635864019394
1789064090740188200,2.718188232421875,0.22406452894210815,0.18232719600200653,-0.30932801961898804
1789064090750225400,2.728225341796875,0.42487218976020813,0.289456844329834,-0.4490571618080139
1789064090760262100,2.73826220703125,0.6443829536437988,0.3686786890029907,-0.4825567901134491
1789064090770299100,2.748299072265625,0.8050155639648438,0.275332510471344,-0.3769052028656006
1789064090780336000,2.758336181640625,0.8610867857933044,0.23499253392219543,-0.2569955885410309
1789064090790373400,2.768373291015625,0.981406033039093,0.5729538202285767,-0.10421907901763916
1789064090800410400,2.778410400390625,1.079946756362915,0.48651692271232605,0.11127166450023651
1789064090810446300,2.7884462890625,1.1142876148223877,0.5596507787704468,0.2315719723701477
1789064090820483300,2.7984833984375,1.1579698324203491,0.6355087757110596,0.25116270780563354
1789064090830520000,2.80852001953125,1.2038297653198242,0.6406518816947937,0.21382759511470795
1789064090840557000,2.81855712890625,1.2211326360702515,0.6057602167129517,0.12030750513076782
1789064090850594300,2.82859423828125,1.2541004419326782,0.6409006118774414,0.05086451396346092
1789064090860631300,2.83863134765625,1.2700586318969727,0.6416652202606201,-0.011948006227612495
1789064090870668300,2.848668212890625,1.2536602020263672,0.5921288132667542,-0.09346070885658264
1789064090880705000,2.858705078125,1.2689520120620728,0.6243951320648193,-0.12537309527397156
1789064090890741000,2.868740966796875,1.3484050035476685,0.7675520777702332,-0.16420544683933258
1789064090900778200,2.8787783203125,1.325410008430481,0.7388133406639099,-0.2372831255197525
1789064090910815200,2.888815185546875,1.248286485671997,0.7725374698638916,-0.29251813888549805
1789064090920852200,2.898852294921875,1.1429150104522705,0.7769319415092468,-0.27382782101631165
1789064090930889200,2.90888916015625,1.0998774766921997,0.7723396420478821,-0.2634311020374298
1789064090940926200,2.91892626953125,1.0869231224060059,0.7200990319252014,-0.26562342047691345
1789064090950963200,2.928963134765625,1.1200523376464844,0.7766368985176086,-0.13686063885688782
1789064090960999200,2.938999267578125,1.1391477584838867,0.7465999126434326,0.10782580077648163
1789064090971036200,2.9490361328125,1.0739942789077759,0.6034911870956421,0.3200365900993347
1789064090981073200,2.9590732421875,0.9408878684043884,0.5011405944824219,0.4105185568332672
1789064090991110400,2.9691103515625,0.872328519821167,0.29438796639442444,0.18388408422470093
1789064091001147400,2.9791474609375,1.0766135454177856,0.5174160003662109,0.01429398451000452
1789064091011184000,2.98918408203125,0.8855207562446594,0.6444833874702454,-0.13760606944561005
1789064091021221000,2.99922119140625,0.38633599877357483,0.8007581830024719,-0.1167665645480156
1789064091031257000,3.009257080078125,0.20975376665592194,0.5749778151512146,-0.07051171362400055
1789064091041294000,3.019294189453125,0.18470805883407593,0.19462913274765015,-0.09470014274120331
1789064091051331300,3.029331298828125,0.4114280343055725,0.2423202246427536,-0.33766353130340576
1789064091061368300,3.039368408203125,0.7589377760887146,0.7336936593055725,-0.26226571202278137
1789064091071405000,3.049405029296875,0.9060087203979492,0.517127275466919,0.03764963895082474
1789064091081442000,3.059442138671875,0.8312036991119385,0.5019768476486206,0.16450825333595276
1789064091091479300,3.069479248046875,0.6300415992736816,0.4093587398529053,0.2600238621234894
1789064091101515300,3.079515380859375,0.3028773069381714,0.41497349739074707,0.38253405690193176
1789064091111552300,3.08955224609375,-0.05729072168469429,0.31464847922325134,0.43815311789512634
1789064091121589200,3.09958935546875,-0.0658663660287857,0.3570076525211334,0.42012909054756165
1789064091131626200,3.109626220703125,0.05571279674768448,0.30397266149520874,0.38004639744758606
1789064091141663200,3.119663330078125,0.14557024836540222,0.2850160300731659,0.20661282539367676
1789064091151700200,3.1297001953125,0.2666868269443512,0.4180707335472107,0.031255390495061874
1789064091161737200,3.1397373046875,0.2804391086101532,0.5293914079666138,-0.07036657631397247
1789064091171774200,3.149774169921875,0.28031235933303833,0.5025187730789185,-0.12930019199848175
1789064091181810200,3.15981005859375,0.3148639500141144,0.5384842157363892,-0.19397346675395966
1789064091191847400,3.169847412109375,0.3674333989620209,0.5079620480537415,-0.25396808981895447
1789064091201884200,3.17988427734375,0.3661974370479584,0.36239203810691833,-0.18630756437778473
1789064091211921200,3.189921142578125,0.34767621755599976,0.33152467012405396,-0.1483180969953537
1789064091221958100,3.199958251953125,0.23839499056339264,0.45369771122932434,-0.09556913375854492
1789064091231995100,3.2099951171875,0.13102565705776215,0.28560805320739746,0.0592566654086113
1789064091242032400,3.220032470703125,0.10641778260469437,0.46580925583839417,0.1641378104686737
1789064091252068400,3.230068359375,0.1509556919336319,0.40993425250053406,0.18215622007846832
1789064091262105300,3.240105224609375,0.21097534894943237,0.39752712845802307,0.2717052698135376
1789064091272142000,3.25014208984375,0.2580437958240509,0.38297802209854126,0.29539597034454346
1789064091282179000,3.260178955078125,0.22842012345790863,0.3006802201271057,0.3125155568122864
1789064091292216300,3.27021630859375,0.16364991664886475,0.31146547198295593,0.26175305247306824
1789064091302253300,3.28025341796875,0.05700469762086868,0.3556579649448395,0.11873464286327362
1789064091312290300,3.290290283203125,-0.06534998118877411,0.3704283833503723,0.054790545254945755
1789064091322326300,3.300326171875,-0.18090108036994934,0.3421621322631836,0.009906427003443241
1789064091332363000,3.310363037109375,-0.251869797706604,0.07217912375926971,0.06508499383926392
1789064091342400300,3.320400146484375,-0.26271817088127136,0.05802015960216522,-0.07083262503147125
1789064091352437200,3.330437255859375,-0.27089646458625793,0.10445263981819153,-0.2816165089607239
1789064091362474200,3.34047412109375,-0.34282737970352173,0.07328592985868454,-0.29668787121772766
1789064091372511200,3.35051123046875,-0.4410144090652466,-0.008344216272234917,-0.22238940000534058
1789064091382548200,3.36054833984375,-0.5380637049674988,0.017311345785856247,-0.18592806160449982
1789064091392584400,3.37058447265625,-0.5961115956306458,-0.010713896714150906,-0.1326989233493805
1789064091402621200,3.38062109375,-0.6508230566978455,-0.07264144718647003,-0.0105314701795578
1789064091412658200,3.390658203125,-0.7161128520965576,-0.09391637146472931,0.11332203447818756
1789064091422695200,3.400695068359375,-0.760400116443634,-0.14970853924751282,0.17635053396224976
1789064091432732200,3.410732177734375,-0.7925897836685181,-0.10913553833961487,0.2338380515575409
1789064091442769400,3.420769287109375,-0.8343899250030518,-0.22451752424240112,0.3927110731601715
1789064091452806100,3.43080615234375,-0.8514360189437866,-0.21494638919830322,0.37145769596099854
1789064091462842000,3.440842041015625,-0.861112117767334,-0.18792861700057983,0.2585250437259674
1789064091472879000,3.450879150390625,-0.8236451745033264,-0.14000025391578674,0.22474150359630585
1789064091482916000,3.460916015625,-0.7805125713348389,-0.05168529972434044,0.1629827916622162
1789064091492953300,3.470953369140625,-0.7525648474693298,-0.20532040297985077,0.12526337802410126
1789064091502990300,3.480990234375,-0.7109737396240234,-0.13277855515480042,-0.004652009811252356
1789064091513027000,3.491027099609375,-0.6966983675956726,-0.2539108395576477,0.0051806471310555935
1789064091523064000,3.50106396484375,-0.6452780961990356,-0.1751132309436798,-0.0025534387677907944
1789064091533100000,3.51110009765625,-0.6352581977844238,-0.2811531126499176,0.003216299694031477
1789064091543137300,3.52113720703125,-0.6024587154388428,-0.0121251055970788,-0.015964850783348083
1789064091553174300,3.53117431640625,-0.6040810942649841,-0.026190858334302902,0.0022714100778102875
1789064091563211300,3.541211181640625,-0.5888829827308655,-0.12511184811592102,0.15249286592006683
1789064091573248300,3.551248291015625,-0.5489845275878906,-0.1941116899251938,0.19032706320285797
1789064091583285200,3.56128515625,-0.5242317914962769,-0.23994921147823334,0.2665776312351227
1789064091593322200,3.571322265625,-0.493920236825943,-0.18202146887779236,0.20775212347507477
1789064091603358200,3.581358154296875,-0.5022228956222534,-0.18578797578811646,0.26649588346481323
1789064091613395200,3.591395263671875,-0.48367053270339966,-0.15388543903827667,0.20394913852214813
1789064091623432200,3.60143212890625,-0.4890618324279785,-0.16573436558246613,0.11951547861099243
1789064091633469200,3.61146923828125,-0.4663490653038025,-0.1118897795677185,0.04803064092993736
1789064091643506200,3.621506103515625,-0.4645351767539978,-0.2050096094608307,0.010294715873897076
1789064091653543200,3.631543212890625,-0.4279225766658783,-0.1222958192229271,-0.03080132231116295
1789064091663580200,3.641580078125,-0.4436240494251251,-0.20821471512317657,-0.11553218960762024
1789064091673616100,3.6516162109375,-0.405265748500824,-0.13021206855773926,-0.1191391721367836
1789064091683653000,3.661653076171875,-0.4329777956008911,-0.2886136770248413,0.06703655421733856
1789064091693690400,3.6716904296875,-0.46173006296157837,-0.28629568219184875,0.10099691897630692
1789064091703727400,3.681727294921875,-0.5094488859176636,-0.19934266805648804,0.11681849509477615
1789064091713764000,3.69176416015625,-0.5250765681266785,-0.18620821833610535,0.20493610203266144
1789064091723801000,3.701801025390625,-0.485250324010849,-0.16204296052455902,0.32934248447418213
1789064091733838300,3.71183837890625,-0.4779638946056366,-0.4717177450656891,0.3142484724521637
1789064091743874300,3.721874267578125,-0.4941900074481964,-0.5572214722633362,0.13506194949150085
1789064091753911300,3.731911376953125,-0.4968414604663849,-0.35383716225624084,-0.028245219960808754
1789064091763948300,3.7419482421875,-0.5062423944473267,-0.004090082831680775,0.003519367426633835
1789064091773985000,3.751985107421875,-0.42889145016670227,-0.09742642194032669,0.2760201394557953
1789064091784022300,3.762022216796875,-0.4395206570625305,-0.3068411648273468,0.31281277537345886
1789064091794059300,3.772059326171875,-0.42056533694267273,-0.22591888904571533,0.11549064517021179
1789064091804096300,3.78209619140625,-0.405567467212677,-0.35746440291404724,0.04740985855460167
1789064091814132200,3.79213232421875,-0.3878694474697113,-0.36858949065208435,-0.07229869812726974
1789064091824169200,3.802169189453125,-0.41077715158462524,-0.3467675447463989,-0.21335382759571075
1789064091834206500,3.81220654296875,-0.40219590067863464,-0.3025939464569092,-0.12787140905857086
1789064091844243200,3.8222431640625,-0.3952232301235199,-0.30894559621810913,-0.019819244742393494
1789064091854280200,3.8322802734375,-0.36141544580459595,-0.25627943873405457,-0.05064986273646355
1789064091864317200,3.842317138671875,-0.34474194049835205,-0.3313582241535187,0.11575242877006531
1789064091874354400,3.8523544921875,-0.3365606963634491,-0.37705087661743164,0.2169986218214035
1789064091884391400,3.862391357421875,-0.34257999062538147,-0.37030109763145447,0.1717613786458969
1789064091894427400,3.872427490234375,-0.3447512686252594,-0.3870536983013153,0.18725751340389252
1789064091904464100,3.882464111328125,-0.3366536498069763,-0.3148788511753082,0.2218242734670639
1789064091914501000,3.892501220703125,-0.37720373272895813,-0.44040054082870483,0.1928671896457672
1789064091924538400,3.902538330078125,-0.38294339179992676,-0.3918047845363617,0.02491919882595539
1789064091934575400,3.912575439453125,-0.3283350169658661,-0.4245414435863495,-0.06897720694541931
1789064091944612400,3.9226123046875,-0.2683747410774231,-0.36438754200935364,-0.047504667192697525
1789064091954649000,3.932649169921875,-0.19774343073368073,-0.35463637113571167,-0.10234794020652771
1789064091964685300,3.942685302734375,-0.18245263397693634,-0.3913065195083618,-0.2396823614835739
1789064091974722000,3.95272216796875,-0.143026664853096,-0.1510622203350067,-0.27964895963668823
1789064091984759300,3.96275927734375,-0.11484695971012115,-0.23885226249694824,-0.12312858551740646
1789064091994796300,3.97279638671875,-0.04797657951712608,-0.32080623507499695,-0.07044300436973572
1789064092004833300,3.982833251953125,0.003721234854310751,-0.34970447421073914,-0.09575582295656204
1789064092014870300,3.992870361328125,0.047925714403390884,-0.26872706413269043,-0.028957881033420563
1789064092024906200,4.00290625,0.0784364864230156,-0.26971590518951416,0.018548117950558662
1789064092034943200,4.012943115234375,0.12927809357643127,-0.23006409406661987,0.08664354681968689
1789064092044980200,4.022980224609375,0.21402786672115326,-0.18977180123329163,0.1979951113462448
1789064092055017200,4.033017333984375,0.2911490201950073,-0.18049468100070953,0.2161504030227661
1789064092065054200,4.04305419921875,0.38308772444725037,-0.012595686130225658,0.006567088887095451
1789064092075091500,4.053091552734375,0.45182979106903076,-0.028378644958138466,-0.06475555896759033
1789064092085128200,4.063128173828125,0.4839693307876587,-0.07807829231023788,-0.08594686537981033
1789064092095164400,4.073164306640625,0.4954321086406708,-0.1250188946723938,-0.13522067666053772
1789064092105201200,4.083201171875,0.480173259973526,-0.08598148822784424,-0.1991000473499298
1789064092115238100,4.093238037109375,0.47723498940467834,-0.034020017832517624,-0.30939751863479614
1789064092125275400,4.103275390625,0.4920240640640259,0.01948847994208336,-0.2380429208278656
1789064092135312400,4.1133125,0.55059814453125,-0.013042032718658447,-0.1342315673828125
1789064092145349400,4.123349365234375,0.6390420198440552,-0.002772350562736392,-0.02948199212551117
1789064092155386000,4.13338623046875,0.7042527198791504,0.11759933084249496,-0.02021738700568676
1789064092165423000,4.143423095703125,0.8048695921897888,0.11368954926729202,0.056058742105960846
1789064092175459000,4.153458984375,0.8383801579475403,0.14789678156375885,0.04592062160372734
1789064092185496300,4.163496337890625,0.819499671459198,0.2080911546945572,0.1283678263425827
1789064092195533300,4.173533203125,0.7891258001327515,0.27799752354621887,0.1249893382191658
1789064092205570300,4.1835703125,0.7635165452957153,0.17474570870399475,0.07471898198127747
1789064092215607000,4.19360693359375,0.796945333480835,0.19153428077697754,-0.04247848317027092
1789064092225644300,4.203644287109375,0.8754068613052368,0.29610490798950195,-0.26436400413513184
1789064092235681300,4.213681396484375,0.9045381546020508,0.2127484828233719,-0.21238496899604797
1789064092245717200,4.22371728515625,0.8826437592506409,0.20044441521167755,-0.12422022223472595
1789064092255754200,4.233754150390625,0.8042575716972351,0.3484296202659607,-0.22620970010757446
1789064092265791200,4.243791259765625,0.781088650226593,0.42026838660240173,-0.18058869242668152
1789064092275828500,4.253828369140625,0.7801450490951538,0.2978825569152832,-0.09807170182466507
1789064092285865200,4.263865234375,0.7813501358032227,0.28164657950401306,-0.11834768205881119
1789064092295902200,4.273902099609375,0.6771936416625977,0.19145891070365906,-0.05379718542098999
1789064092305938200,4.283938232421875,0.5619013905525208,0.2362745851278305,-0.09186068177223206
1789064092315975200,4.29397509765625,0.472849041223526,0.3167811334133148,-0.07404067367315292
1789064092326012400,4.304012451171875,0.42602747678756714,0.2813536524772644,-0.06095762550830841
1789064092336049400,4.31404931640625,0.4328283965587616,0.28913965821266174,-0.05655568838119507
1789064092346086100,4.324086181640625,0.4381922483444214,0.18102970719337463,-0.0005411543534137309
1789064092356123100,4.334123046875,0.4169958829879761,0.2421433925628662,-0.033237848430871964
1789064092366160100,4.34416015625,0.3686361014842987,0.25669702887535095,-0.11506213992834091
1789064092376196000,4.354196044921875,0.3334069848060608,0.24715359508991241,-0.03473028168082237
1789064092386233300,4.3642333984375,0.29704606533050537,0.2600640654563904,-0.02165442891418934
1789064092396270300,4.374270263671875,0.2641727924346924,0.2768545150756836,-0.04061134159564972
1789064092406307300,4.384307373046875,0.26741358637809753,0.4928011894226074,-0.1672888547182083
1789064092416344000,4.394343994140625,0.2882770597934723,0.3833913207054138,-0.12418719381093979
1789064092426381300,4.40438134765625,0.3314564824104309,0.25969600677490234,-0.018218684941530228
1789064092436418300,4.414418212890625,0.37439411878585815,0.2980159819126129,0.05823560804128647
1789064092446454300,4.424454345703125,0.38057395815849304,0.31289613246917725,0.09267906844615936
1789064092456491300,4.4344912109375,0.3298913538455963,0.3208483159542084,0.13377749919891357
1789064092466528300,4.4445283203125,0.2448238581418991,0.35719674825668335,0.17831887304782867
1789064092476565200,4.454565185546875,0.1712135672569275,0.3568742275238037,0.20656223595142365
1789064092486602200,4.464602294921875,0.11653513461351395,0.3053359389305115,0.18840639293193817
1789064092496639200,4.47463916015625,0.10602497309446335,0.2194519340991974,0.12084359675645828
1789064092506676200,4.48467626953125,0.12251552939414978,0.20856359601020813,0.08111748844385147
1789064092516712200,4.494712158203125,0.13783563673496246,0.18548303842544556,0.037206489592790604
1789064092526749400,4.50474951171875,0.14975620806217194,0.2628825008869171,-0.0876893699169159
1789064092536786400,4.514786376953125,0.12293551117181778,0.22058510780334473,-0.13362064957618713
1789064092546823200,4.5248232421875,0.12259382754564285,0.38031086325645447,-0.19806887209415436
1789064092556860200,4.534860107421875,0.13510961830615997,0.42067426443099976,-0.21473254263401031
1789064092566897200,4.544897216796875,0.15900109708309174,0.38035479187965393,-0.04625804349780083
1789064092576934400,4.554934326171875,0.13092125952243805,0.22655963897705078,0.0895748883485794
1789064092586970400,4.564970458984375,0.11597933620214462,0.25595295429229736,0.07677120715379715
1789064092597007400,4.57500732421875,0.12751828134059906,0.4510188400745392,0.015738483518362045
1789064092607044000,4.585044189453125,0.16720843315124512,0.46211862564086914,0.08037926256656647
1789064092617081000,4.5950810546875,0.21239614486694336,0.4340297281742096,0.19163069128990173
1789064092627118300,4.605118408203125,0.23543329536914825,0.41791680455207825,0.20300690829753876
1789064092637155300,4.6151552734375,0.22012357413768768,0.46415436267852783,0.1215599849820137
1789064092647192300,4.6251923828125,0.15806473791599274,0.5462252497673035,0.0600777193903923
1789064092657228300,4.635228271484375,0.11934903264045715,0.5120001435279846,0.05016862973570824
1789064092667265300,4.645265380859375,0.07410698384046555,0.374255895614624,0.02634984813630581
1789064092677302300,4.65530224609375,0.03364238142967224,0.2926158905029297,-0.0912068784236908
1789064092687339300,4.66533935546875,-0.04737310856580734,0.32519832253456116,-0.24984072148799896
1789064092697376300,4.675376220703125,-0.1635628342628479,0.22967101633548737,-0.2643067538738251
1789064092707413200,4.685413330078125,-0.27805638313293457,0.20828716456890106,-0.23964428901672363
1789064092717450200,4.6954501953125,-0.32049092650413513,0.24506381154060364,-0.3100915551185608
1789064092727486500,4.705486572265625,-0.337648868560791,0.25989577174186707,-0.22076326608657837
1789064092737523200,4.715523193359375,-0.3277136981487274,0.22902120649814606,-0.11146500706672668
1789064092747560200,4.725560302734375,-0.3538243770599365,0.1907110959291458,-0.01002333965152502
1789064092757597200,4.73559716796875,-0.3796865940093994,0.059110190719366074,0.22038297355175018
1789064092767634200,4.74563427734375,-0.4073067903518677,0.11387703567743301,0.4232162535190582
1789064092777671200,4.755671142578125,-0.4075685739517212,0.04451580345630646,0.5323411226272583
1789064092787708200,4.765708251953125,-0.41423818469047546,0.05926625430583954,0.56777024269104
1789064092797744400,4.775744384765625,-0.4157703220844269,0.14434252679347992,0.5233535170555115
1789064092807781000,4.785781005859375,-0.42570391297340393,0.016207199543714523,0.5397846698760986
1789064092817818000,4.795818115234375,-0.4444323182106018,-0.08252843469381332,0.45426711440086365
1789064092827855000,4.805855224609375,-0.3980403244495392,-0.069534070789814,0.15334774553775787
1789064092837892400,4.815892333984375,-0.37923839688301086,0.002388589084148407,-0.06494997441768646
1789064092847929300,4.825929443359375,-0.3846869468688965,-0.03393319994211197,-0.1850406974554062
1789064092857966000,4.835966064453125,-0.4261728823184967,0.003774498123675585,-0.30481529235839844
1789064092868002300,4.846002197265625,-0.4457937180995941,0.03449619188904762,-0.38404592871665955
1789064092878039000,4.8560390625,-0.4268924593925476,0.060195695608854294,-0.4550335705280304
1789064092888076300,4.866076171875,-0.3343721330165863,0.18925034999847412,-0.4379477798938751
1789064092898113300,4.87611328125,-0.2674519419670105,0.036305543035268784,-0.3825593590736389
1789064092908150300,4.886150390625,-0.2108352780342102,-0.048717472702264786,-0.26843783259391785
1789064092918187300,4.896187255859375,-0.14016057550907135,0.06991942971944809,-0.15010641515254974
1789064092928224300,4.906224365234375,-0.1010962575674057,0.07347288727760315,-0.0417647585272789
1789064092938260200,4.91626025390625,-0.04555150493979454,0.11708534508943558,0.0631033331155777
1789064092948297200,4.926297119140625,0.049008022993803024,0.07764153182506561,0.26685991883277893
1789064092958334200,4.936334228515625,0.07678239792585373,0.19595831632614136,0.40505242347717285
1789064092968371200,4.94637109375,0.10203182697296143,0.16143177449703217,0.4463215470314026
1789064092978408200,4.956408203125,0.13451360166072845,0.1731632649898529,0.47319260239601135
1789064092988445200,4.966445068359375,0.17836521565914154,0.13712988793849945,0.49384886026382446
1789064092998481200,4.976481201171875,0.14093075692653656,0.06866108626127243,0.36546453833580017
1789064093008518100,4.98651806640625,0.2764909863471985,0.4267084300518036,0.008714661933481693
1789064093018555100,4.99655517578125,0.2921426296234131,0.30887287855148315,-0.1350603550672531
1789064093028592000,5.006592041015625,0.25826165080070496,0.10108108073472977,-0.26141002774238586
1789064093038629400,5.01662939453125,0.249125674366951,0.24635066092014313,-0.4943567216396332
1789064093048666000,5.026666015625,0.24909238517284393,0.3638703525066376,-0.6039484739303589
1789064093058703000,5.036703125,0.2519344985485077,0.3911120891571045,-0.5132603645324707
1789064093068739000,5.046739013671875,0.27146586775779724,0.3248901963233948,-0.39257657527923584
1789064093078776000,5.056776123046875,0.3129397928714752,0.3557775318622589,-0.18374666571617126
1789064093088813300,5.066813232421875,0.3513098359107971,0.32229602336883545,0.029387449845671654
1789064093098850300,5.076850341796875,0.3586881160736084,0.27612799406051636,0.25162583589553833
1789064093108887300,5.08688720703125,0.32868653535842896,0.3147510290145874,0.41754183173179626
1789064093118924000,5.096924072265625,0.2667459547519684,0.33593088388442993,0.5112574100494385
1789064093128961300,5.106961181640625,0.17514066398143768,0.2634657323360443,0.4786246418952942
1789064093138997200,5.116997314453125,0.11678946763277054,0.3491004705429077,0.3237391710281372
1789064093149034200,5.1270341796875,0.08754529803991318,0.2881718575954437,0.22157074511051178
1789064093159071200,5.1370712890625,0.0874859094619751,0.1708332598209381,0.12591291964054108
1789064093169108200,5.147108154296875,0.07996061444282532,0.05488322302699089,-0.048174984753131866
1789064093179145200,5.157145263671875,0.10363904386758804,-0.018067950382828712,-0.1350691318511963
1789064093189182200,5.16718212890625,0.049552373588085175,-0.035406194627285004,-0.1869587004184723
1789064093199219200,5.17721923828125,-0.20651216804981232,-0.12132669240236282,-0.22041119635105133
1789064093209255200,5.187255126953125,-0.5508636832237244,-0.16970807313919067,-0.21739862859249115
1789064093219292200,5.197292236328125,-0.7520564198493958,-0.09100820124149323,-0.22636070847511292
1789064093229329200,5.2073291015625,-0.8327728509902954,-0.05636473745107651,-0.23731428384780884
1789064093239366400,5.217366455078125,-0.9130125641822815,-0.06556250154972076,-0.09533637017011642
1789064093249403100,5.227403076171875,-0.9654872417449951,-0.2712709307670593,0.10617570579051971
1789064093259440000,5.237440185546875,-1.0420544147491455,-0.4276876747608185,0.14692552387714386
1789064093269476000,5.24747607421875,-1.1466666460037231,-0.2169903665781021,0.14837509393692017
1789064093279513000,5.25751318359375,-1.2388180494308472,-0.5114491581916809,0.3637726306915283
1789064093289550300,5.26755029296875,-1.2830960750579834,-0.4463633596897125,0.45185932517051697
1789064093299587300,5.27758740234375,-1.3475341796875,-0.6954150199890137,0.42886826395988464
1789064093309624300,5.287624267578125,-1.3353145122528076,-0.4333016276359558,0.32851317524909973
1789064093319661000,5.2976611328125,-1.3308950662612915,-0.45698511600494385,0.23006302118301392
1789064093329698300,5.3076982421875,-1.3152891397476196,-0.6384193897247314,0.19972935318946838
1789064093339734300,5.317734375,-1.2812691926956177,-0.5934779644012451,0.08301366120576859
1789064093349771300,5.327771240234375,-1.2868775129318237,-0.5022926926612854,-0.12525592744350433
1789064093359808300,5.337808349609375,-1.316152572631836,-0.5668498277664185,-0.22136327624320984
1789064093369845200,5.34784521484375,-1.3648945093154907,-0.6976480484008789,-0.27021950483322144
1789064093379882000,5.357882080078125,-1.433240294456482,-0.7316750288009644,-0.2829049229621887
1789064093389919200,5.367919189453125,-1.4330201148986816,-0.762117862701416,-0.24033723771572113
1789064093399956200,5.377956298828125,-1.4344630241394043,-0.7921245098114014,-0.23748259246349335
1789064093409992200,5.3879921875,-1.3270529508590698,-0.5858981013298035,-0.13024349510669708
1789064093420029200,5.398029296875,-1.2349967956542969,-0.6349623203277588,0.06715533137321472
1789064093430066200,5.408066162109375,-1.1749852895736694,-0.6640693545341492,0.23498854041099548
1789064093440103200,5.418103271484375,-1.1539479494094849,-0.7068953514099121,0.3580774664878845
1789064093450140200,5.42814013671875,-1.1390135288238525,-0.748741090297699,0.3603573739528656
1789064093460177200,5.43817724609375,-1.066007137298584,-0.692099392414093,0.3355726897716522
1789064093470214100,5.448214111328125,-0.9827349185943604,-0.7498998045921326,0.3695111870765686
1789064093480250000,5.45825,-0.9080466032028198,-0.760617196559906,0.36142104864120483
1789064093490287400,5.468287353515625,-0.8797613978385925,-0.7251042127609253,0.29793742299079895
1789064093500324400,5.478324462890625,-0.8516333699226379,-0.7005684971809387,0.15086887776851654
1789064093510361000,5.488361083984375,-0.8365998268127441,-0.6985213160514832,0.04899976775050163
1789064093520398000,5.498398193359375,-0.7798356413841248,-0.6288695335388184,-0.07525187730789185
1789064093530435300,5.508435302734375,-0.7098679542541504,-0.6427398324012756,-0.1430695354938507
1789064093540471300,5.51847119140625,-0.6494563221931458,-0.7378636598587036,-0.09236162155866623
1789064093550508300,5.52850830078125,-0.5566637516021729,-0.6652347445487976,-0.12819552421569824
1789064093560545300,5.538545166015625,-0.5122081637382507,-0.6152117848396301,-0.08495190739631653
1789064093570582300,5.548582275390625,-0.4949687123298645,-0.627108633518219,-0.021325528621673584
1789064093580619000,5.558618896484375,-0.4815930128097534,-0.4796411693096161,0.05367681011557579
1789064093590656300,5.56865625,-0.3501065969467163,-0.4191061854362488,0.14185114204883575
1789064093600693200,5.578693359375,-0.0988948866724968,-0.5353094935417175,0.265319287776947
1789064093610729200,5.588729248046875,0.04374614730477333,-0.499111533164978,0.3316810131072998
1789064093620766200,5.59876611328125,0.16969449818134308,-0.43950945138931274,0.3619917631149292
1789064093630803200,5.60880322265625,0.20964190363883972,-0.4249638020992279,0.39792925119400024
1789064093640840200,5.618840087890625,0.08269354701042175,-0.4857049286365509,0.3232036232948303
1789064093650877200,5.628877197265625,-0.03447861596941948,-0.0730196163058281,0.1571294367313385
1789064093660914200,5.6389140625,0.1457928866147995,0.26391127705574036,-0.013304886408150196
1789064093670951200,5.648951171875,0.43301692605018616,-0.11356411129236221,-0.1390255242586136
1789064093680987100,5.658987060546875,0.4790784418582916,-0.4250096082687378,-0.21367952227592468
1789064093691024400,5.6690244140625,0.5176215767860413,-0.16205760836601257,-0.30106663703918457
1789064093701061400,5.679061279296875,0.5042386651039124,-0.2409937083721161,-0.3722963333129883
1789064093711098000,5.68909814453125,0.5415706038475037,-0.14320509135723114,-0.3941182792186737
1789064093721135000,5.699135009765625,0.7196968793869019,-0.013963486067950726,-0.32066404819488525
1789064093731172400,5.70917236328125,0.8948513865470886,-0.01017061248421669,-0.16925586760044098
1789064093741208800,5.719208740234375,0.9500270485877991,-0.03641393408179283,-0.04376585781574249
1789064093751245800,5.729245849609375,0.9006850719451904,-0.06558060646057129,-0.012916863895952702
1789064093761282600,5.739282470703125,0.927549421787262,0.25941744446754456,0.101502925157547
1789064093771319600,5.749319580078125,0.962054431438446,0.08106768876314163,0.2529848515987396
1789064093781356800,5.759356689453125,0.972140371799469,0.0423506535589695,0.22662462294101715
1789064093791393800,5.769393798828125,1.0185643434524536,0.14341548085212708,0.10981864482164383
1789064093801430800,5.7794306640625,1.028131127357483,0.2196175754070282,0.017136642709374428
1789064093811466800,5.789466796875,1.0062519311904907,0.12667033076286316,-0.11397343873977661
1789064093821503700,5.799503662109375,0.9752088189125061,0.14180827140808105,-0.3059993386268616
1789064093831540700,5.809540771484375,0.9600219130516052,0.22142745554447174,-0.45723119378089905
1789064093841577700,5.81957763671875,0.9101933240890503,0.13054601848125458,-0.34313976764678955
1789064093851614700,5.82961474609375,0.8738617300987244,-0.1259659230709076,-0.19256465137004852
1789064093861651700,5.839651611328125,0.8361183404922485,-0.047578971832990646,-0.2867486774921417
1789064093871688700,5.849688720703125,0.798808753490448,0.34263086318969727,-0.23121272027492523
1789064093881724700,5.859724609375,0.7577481269836426,0.2608949840068817,-0.016742493957281113
1789064093891761700,5.86976171875,0.7390748858451843,0.19606351852416992,0.15792252123355865
1789064093901798700,5.879798583984375,0.7392333149909973,0.17954260110855103,0.27350717782974243
1789064093911835600,5.889835693359375,0.7650012969970703,0.12578029930591583,0.3357495069503784
1789064093921872600,5.89987255859375,0.7350601553916931,0.05103015899658203,0.27215081453323364
1789064093931910000,5.909909912109375,0.6678662300109863,0.1341620683670044,0.17921395599842072
1789064093941945900,5.91994580078125,0.5633978247642517,0.13698475062847137,0.18710863590240479
1789064093951982800,5.92998291015625,0.4834047555923462,0.1276349276304245,0.1634368598461151
1789064093962019600,5.94001953125,0.5093343257904053,-0.09480826556682587,0.02209465019404888
1789064093972056600,5.950056640625,0.654902458190918,0.05096358060836792,-0.39240559935569763
1789064093982093800,5.96009375,0.34334883093833923,0.4253654181957245,-0.29541274905204773
1789064093992130800,5.970130859375,0.3022781014442444,0.00600409647449851,-0.13978612422943115
1789064094002167800,5.980167724609375,0.26425376534461975,-0.15503166615962982,-0.2866365611553192
1789064094012203800,5.990203857421875,0.26399490237236023,0.1768898218870163,-0.4601137936115265
1789064094022240500,6.000240478515625,0.2676208019256592,0.04783783107995987,-0.24031487107276917
1789064094032277800,6.01027783203125,0.3049825429916382,-0.04749215021729469,-0.060021523386240005
1789064094042314800,6.020314697265625,0.27281874418258667,0.23211978375911713,0.15738803148269653
1789064094052351700,6.030351806640625,0.2136230617761612,0.06654573976993561,0.47325170040130615
1789064094062388700,6.040388671875,0.22288687527179718,0.17861342430114746,0.6756871342658997
1789064094072424700,6.0504248046875,0.2570842504501343,0.11849841475486755,0.6910756230354309
1789064094082462000,6.0604619140625,0.39290839433670044,0.1961950808763504,0.6632125973701477
1789064094092498700,6.070498779296875,0.44251909852027893,0.22577586770057678,0.6838054656982422
1789064094102535700,6.08053564453125,0.406723290681839,0.1595747470855713,0.5213382840156555
1789064094112572700,6.09057275390625,0.3425094187259674,0.1423877775669098,0.2735593616962433
1789064094122609700,6.100609619140625,0.27500680088996887,0.2193717658519745,0.08054836839437485
1789064094132647000,6.11064697265625,0.25619983673095703,0.09329506009817123,-0.01438106968998909
1789064094142683000,6.120682861328125,0.343999981880188,0.13737410306930542,-0.05790990591049194
1789064094152719600,6.1307197265625,0.4225062429904938,0.25591352581977844,0.004780906718224287
1789064094162756600,6.140756591796875,0.4719741940498352,0.2133658081293106,0.0821225643157959
1789064094172793600,6.150793701171875,0.5282127261161804,0.3433011770248413,-0.013006612658500671
1789064094182830800,6.160830810546875,0.5437666177749634,0.42471346259117126,-0.0815928652882576
1789064094192867800,6.170867919921875,0.5598489046096802,0.3051780164241791,-0.019229354336857796
1789064094202904600,6.180904541015625,0.5172364711761475,0.21165180206298828,-0.004032292403280735
1789064094212940800,6.19094091796875,0.46786999702453613,0.33571088314056396,-0.031613320112228394
1789064094222977500,6.2009775390625,0.3889477550983429,0.3294796347618103,0.08350501209497452
1789064094233014800,6.211014892578125,0.36054274439811707,0.24583400785923004,0.23713132739067078
1789064094243051800,6.2210517578125,0.41418492794036865,0.1974494308233261,0.32887670397758484
1789064094253088800,6.2310888671875,0.5458356142044067,0.3685348927974701,0.37941282987594604
1789064094263125800,6.241125732421875,0.6300192475318909,0.37504124641418457,0.3273206055164337
1789064094273161700,6.25116162109375,0.6239557266235352,0.3871906101703644,0.19810296595096588
1789064094283198700,6.26119873046875,0.5530221462249756,0.37924477458000183,0.10258655995130539
1789064094293235700,6.271235595703125,0.4277673065662384,0.31897878646850586,0.062483083456754684
1789064094303272700,6.281272705078125,0.338429719209671,0.2587333023548126,-0.028191691264510155
1789064094313309700,6.291309814453125,0.289159893989563,0.2569465637207031,-0.10770169645547867
1789064094323346700,6.3013466796875,0.22526028752326965,0.10001368075609207,-0.07160494476556778
1789064094333383700,6.3113837890625,0.19347518682479858,0.06082659959793091,-0.0232310201972723
1789064094343420000,6.321419921875,0.17047293484210968,0.266253262758255,-0.07812569290399551
1789064094353456600,6.33145654296875,0.17714175581932068,0.19503474235534668,-0.047505199909210205
1789064094363493600,6.34149365234375,0.21146909892559052,0.13416419923305511,0.06744907796382904
1789064094373530600,6.351530517578125,0.215353861451149,0.1870974451303482,0.028207935392856598
1789064094383568000,6.36156787109375,0.16501958668231964,0.28975164890289307,-0.08328024297952652
1789064094393604900,6.37160498046875,0.098664790391922,0.2512252926826477,0.10512188822031021
1789064094403640800,6.381640869140625,0.03641180321574211,0.06980012357234955,0.1907675564289093
1789064094413677600,6.391677490234375,-0.005441104527562857,-0.02263607084751129,0.0028932581190019846
1789064094423714600,6.401714599609375,-0.036494627594947815,0.04366971552371979,-0.10131383687257767
1789064094433751800,6.411751708984375,-0.011360778473317623,0.09779447317123413,-0.06964219361543655
1789064094443788800,6.421788818359375,0.023632092401385307,0.14037495851516724,-0.024814536795020103
1789064094453825800,6.43182568359375,0.11317875236272812,0.13655757904052734,-0.09237094223499298
1789064094463862800,6.44186279296875,0.1717805415391922,0.11316703259944916,-0.1159505695104599
1789064094473898800,6.451898681640625,0.14865897595882416,0.18198764324188232,-0.14512762427330017
1789064094483935700,6.461935791015625,0.09908556938171387,0.20238132774829865,-0.2424645721912384
1789064094493972700,6.47197265625,0.03731860965490341,0.17347511649131775,-0.22761531174182892
1789064094504009700,6.482009765625,0.03491191193461418,0.09265696257352829,-0.24296711385250092
1789064094514046700,6.492046630859375,0.0571138858795166,0.11979617178440094,-0.2926768660545349
1789064094524083700,6.502083740234375,0.07529954612255096,0.06443225592374802,-0.29108110070228577
1789064094534119700,6.51211962890625,0.09670257568359375,0.0765799954533577,-0.1949644237756729
1789064094544156700,6.52215673828125,0.16114334762096405,0.19293083250522614,-0.08929312974214554
1789064094554193700,6.532193603515625,0.17629539966583252,0.11819428205490112,0.0476577989757061
1789064094564230700,6.542230712890625,0.19604620337486267,0.16994376480579376,0.08320221304893494
1789064094574267600,6.552267578125,0.1793348640203476,0.17056454718112946,0.07038494944572449
1789064094584305000,6.562304931640625,0.1570146530866623,0.23251233994960785,0.04157167673110962
1789064094594341600,6.572341552734375,0.13587474822998047,0.22946514189243317,-0.022657908499240875
1789064094604377900,6.5823779296875,0.1311495006084442,0.1844577193260193,0.012402074411511421
1789064094614414600,6.59241455078125,0.1314815878868103,0.1090143695473671,0.050814710557460785
1789064094624451600,6.60245166015625,0.12240500748157501,0.1316208839416504,-0.09215069562196732
1789064094634488800,6.61248876953125,0.13038863241672516,0.1641191691160202,-0.12621146440505981
1789064094644525800,6.62252587890625,0.13122886419296265,0.12356481701135635,0.0014735270524397492
1789064094654562800,6.632562744140625,0.13545235991477966,0.1691219061613083,-0.056963950395584106
1789064094664598800,6.642598876953125,0.1006467193365097,0.10966125130653381,-0.006077333353459835
1789064094674635800,6.6526357421875,0.06442958861589432,0.16265469789505005,0.028014590963721275
1789064094684672800,6.6626728515625,0.028077973052859306,0.1566612422466278,-0.03910426050424576
1789064094694709800,6.672709716796875,0.007500260602682829,0.19569146633148193,0.01715182326734066
1789064094704746800,6.682746826171875,-0.017118798568844795,0.04969058930873871,0.1445728987455368
1789064094714783700,6.69278369140625,-0.040761277079582214,0.13221795856952667,0.03820624202489853
1789064094724820700,6.70282080078125,-0.09708713740110397,0.10255087912082672,0.007739412598311901
1789064094734856700,6.712856689453125,-0.09698140621185303,0.056227054446935654,0.036078110337257385
1789064094744893200,6.72289306640625,-0.08831175416707993,-0.010963968001306057,0.043659329414367676
1789064094754930000,6.732929931640625,-0.06883952021598816,-0.008774316869676113,-0.06939878314733505
1789064094764967200,6.74296728515625,-0.0459565743803978,0.07385238260030746,-0.17504744231700897
1789064094775004200,6.753004150390625,-0.07649131119251251,0.06817425787448883,-0.03988722711801529
1789064094785041200,6.763041259765625,-0.14042715728282928,0.0220325980335474,0.06506768614053726
1789064094795077000,6.7730771484375,-0.16873016953468323,0.08967182785272598,0.07306195795536041
1789064094805114000,6.783114013671875,-0.1630008965730667,0.027825506404042244,0.14254969358444214
1789064094815151000,6.793151123046875,-0.10169173777103424,-0.011365838348865509,0.16025438904762268
1789064094825188000,6.80318798828125,-0.03434865176677704,-0.0013432984706014395,0.1424839049577713
1789064094835225000,6.81322509765625,-0.023544473573565483,-0.06211477145552635,0.1780693382024765
1789064094845262000,6.823261962890625,-0.02961062267422676,0.11071266233921051,0.058816444128751755
1789064094855298000,6.833298095703125,-0.04884903132915497,0.1367029845714569,0.02063284069299698
1789064094865335000,6.8433349609375,-0.07544256001710892,0.094451405107975,0.07158470153808594
1789064094875372300,6.853372314453125,-0.058695271611213684,0.02953765168786049,-0.045405562967061996
1789064094885409000,6.863408935546875,-0.03831596300005913,0.025833994150161743,-0.057199638336896896
1789064094895446000,6.873446044921875,-0.0374206081032753,-0.03564055263996124,-0.06373956799507141
1789064094905483000,6.88348291015625,-0.03026762418448925,0.03519207611680031,-0.0880718007683754
1789064094915520300,6.893520263671875,-0.011960255913436413,0.035409923642873764,0.03158748894929886
1789064094925556200,6.90355615234375,0.05859566852450371,0.05668538436293602,0.03820331022143364
1789064094935593200,6.91359326171875,0.14683152735233307,0.20525142550468445,0.01324176974594593
1789064094945630000,6.9236298828125,0.1861027628183365,0.14353638887405396,0.1195405125617981
1789064094955667000,6.9336669921875,0.18473149836063385,0.16042909026145935,0.1808888167142868
1789064094965704200,6.9437041015625,0.12176238745450974,0.11751943826675415,0.25474414229393005
1789064094975741200,6.9537412109375,0.07220069319009781,0.17733857035636902,0.11060294508934021
1789064094985777200,6.963777099609375,0.07835792005062103,0.1566934734582901,0.040228646248579025
1789064094995814100,6.973814208984375,0.10131463408470154,0.1255033314228058,0.09666448831558228
1789064095005851100,6.98385107421875,0.1240290030837059,0.08570398390293121,0.009855826385319233
1789064095015888000,6.993887939453125,0.13384008407592773,0.12556858360767365,-0.11751703917980194
1789064095025925000,7.003925048828125,0.11956767737865448,0.1769220381975174,-0.13946841657161713
1789064095035962000,7.013962158203125,0.09283140301704407,0.15261511504650116,-0.06618381291627884
1789064095045999000,7.0239990234375,0.084963358938694,0.1214076578617096,0.0043625240214169025
1789064095056035000,7.03403515625,0.07655443251132965,0.10987696796655655,-0.005283711478114128
1789064095066072000,7.044072021484375,0.09130940586328506,0.1832217574119568,-0.07038148492574692
1789064095076109000,7.054109130859375,0.0803009644150734,0.15093278884887695,-0.009338906966149807
1789064095086146000,7.06414599609375,0.05923030152916908,0.12222124636173248,0.021892249584197998
1789064095096183000,7.07418310546875,0.06912420690059662,0.12640507519245148,-0.021675467491149902
1789064095106220000,7.084219970703125,0.0670221745967865,0.04645884409546852,0.09450306743383408
1789064095116256000,7.094256103515625,0.08064131438732147,0.05410797521471977,0.07146938890218735
1789064095126293200,7.104293212890625,0.07413254678249359,0.11352070420980453,0.024055002257227898
1789064095136330200,7.114330322265625,0.06715240329504013,0.2892794907093048,0.028377313166856766
1789064095146367000,7.124366943359375,0.010912569239735603,0.10751154273748398,0.20226362347602844
1789064095156404000,7.134404052734375,-0.010339722968637943,0.12185852974653244,0.23552890121936798
1789064095166441200,7.144441162109375,-0.02299533039331436,0.1078372523188591,0.1347101479768753
1789064095176478200,7.154478271484375,-0.01937210001051426,0.12486976385116577,0.08599666506052017
1789064095186514200,7.16451416015625,-0.036024048924446106,0.11584271490573883,-0.023602532222867012
1789064095196551200,7.17455126953125,-0.08205945044755936,0.04986902326345444,-0.0390978679060936
1789064095206588000,7.184587890625,-0.10612616688013077,0.10377992689609528,-0.05768726393580437
1789064095216625000,7.194625,-0.11524856090545654,0.059422846883535385,-0.11675963550806046
1789064095226662100,7.204662109375,-0.1363850086927414,0.07742688059806824,-0.14791329205036163
1789064095236699100,7.21469921875,-0.11687548458576202,0.2111753523349762,-0.19564886391162872
1789064095246735000,7.224735107421875,-0.10420256853103638,0.060086507350206375,-0.08836288750171661
1789064095256772000,7.234772216796875,-0.09399653971195221,0.1313292533159256,-0.09160874783992767
1789064095266809000,7.24480908203125,-0.14995993673801422,0.06811247766017914,-0.11763528734445572
1789064095276846000,7.25484619140625,-0.180292546749115,0.17561788856983185,-0.11714792996644974
1789064095286883000,7.264883056640625,-0.21962077915668488,0.046173352748155594,0.035528965294361115
1789064095296920000,7.274920166015625,-0.196467787027359,0.07871824502944946,0.07287846505641937
1789064095306956000,7.2849560546875,-0.1659194678068161,0.032155539840459824,0.07664044946432114
1789064095316993000,7.294992919921875,-0.10871582478284836,0.22539398074150085,0.05197851359844208
1789064095327030300,7.3050302734375,-0.12209954112768173,0.03411269560456276,0.18316130340099335
1789064095337067000,7.31506689453125,-0.13241343200206757,0.1585020273923874,0.1320725530385971
1789064095347104000,7.32510400390625,-0.16481079161167145,0.12475631386041641,0.052679989486932755
1789064095357141000,7.33514111328125,-0.18739944696426392,0.12790709733963013,-0.04155969247221947
1789064095367177000,7.345177001953125,-0.20696143805980682,0.07273279130458832,-0.057186324149370193
1789064095377214200,7.355214111328125,-0.21154606342315674,0.026258502155542374,-0.05904228240251541
1789064095387251200,7.365251220703125,-0.2175714671611786,0.027290476486086845,-0.1167103722691536
1789064095397288200,7.3752880859375,-0.21654082834720612,0.09124096482992172,-0.17462293803691864
1789064095407325000,7.385324951171875,-0.18386197090148926,0.07093915343284607,-0.18532831966876984
1789064095417362000,7.39536181640625,-0.13141821324825287,0.031390946358442307,-0.07660476118326187
1789064095427399200,7.405399169921875,-0.08602356165647507,0.04773982614278793,-0.007424094248563051
1789064095437435100,7.41543505859375,-0.10826708376407623,0.07171706110239029,0.045455630868673325
1789064095447472000,7.42547216796875,-0.2063225507736206,0.10858985781669617,0.043961066752672195
1789064095457509000,7.435509033203125,-0.27006396651268005,0.09113097190856934,0.09869249165058136
1789064095467546000,7.445546142578125,-0.282016783952713,-0.014267352409660816,0.23281380534172058
1789064095477583000,7.4555830078125,-0.2308521270751953,-0.026624420657753944,0.08546829223632812
1789064095487620000,7.4656201171875,-0.19053292274475098,-0.013676131144165993,-0.011904862709343433
1789064095497656000,7.475656005859375,-0.17432066798210144,0.000532365869730711,-0.025345835834741592
1789064095507693000,7.485693115234375,-0.22109057009220123,-0.22061306238174438,-0.01637125015258789
1789064095517730000,7.49572998046875,-0.2569066286087036,-0.007251254748553038,-0.07515600323677063
1789064095527767300,7.505767333984375,-0.29192081093788147,0.002496979897841811,-0.09945282340049744
1789064095537804000,7.515803955078125,-0.2743849456310272,-0.00629038643091917,-0.06856787204742432
1789064095547841000,7.525841064453125,-0.2598491609096527,-0.08745580911636353,-0.08200565725564957
1789064095557877000,7.535876953125,-0.27407655119895935,-0.10837148129940033,-0.1416279673576355
1789064095567914000,7.5459140625,-0.2776941955089569,-0.05107330530881882,-0.22312256693840027
1789064095577951200,7.555951171875,-0.26488199830055237,-0.04200231283903122,-0.21847747266292572
1789064095587988200,7.56598828125,-0.2014513611793518,-0.11656416207551956,-0.1580175906419754
1789064095598025000,7.57602490234375,-0.1841117888689041,-0.05101098492741585,-0.024757010862231255
1789064095608062000,7.58606201171875,-0.24545663595199585,-0.14869040250778198,-0.009572732262313366
1789064095618099000,7.596098876953125,-0.3396667540073395,-0.1271211951971054,0.034457042813301086
1789064095628135200,7.60613525390625,-0.39982250332832336,-0.10153381526470184,0.17638595402240753
1789064095638172200,7.616172119140625,-0.41061362624168396,-0.1696191281080246,0.1300288438796997
1789064095648209200,7.626209228515625,-0.3605102598667145,-0.18385718762874603,0.10412746667861938
1789064095658246100,7.63624609375,-0.32290536165237427,-0.31798940896987915,0.10418179631233215
1789064095668283000,7.646282958984375,-0.29493844509124756,-0.20387083292007446,-0.044065993279218674
1789064095678320000,7.656320068359375,-0.3002418577671051,-0.0324530154466629,-0.16612398624420166
1789064095688356000,7.666356201171875,-0.29504576325416565,-0.11503977328538895,-0.12997956573963165
1789064095698393000,7.67639306640625,-0.24656930565834045,-0.09795905649662018,-0.08129112422466278
1789064095708430000,7.68643017578125,-0.1632019728422165,-0.1525155007839203,-0.11275637894868851
1789064095718467000,7.696467041015625,-0.12102948874235153,-0.1541016846895218,-0.07115060836076736
1789064095728504000,7.706504150390625,-0.16544142365455627,-0.2011411041021347,0.0011052117915824056
1789064095738541000,7.716541015625,-0.25614842772483826,-0.21494798362255096,0.06902540475130081
1789064095748577000,7.726576904296875,-0.31363409757614136,-0.06303010135889053,0.07186619937419891
1789064095758614300,7.7366142578125,-0.3086092472076416,-0.17434783279895782,0.017716147005558014
1789064095768651300,7.7466513671875,-0.19802892208099365,-0.168674498796463,0.07629397511482239
1789064095778688300,7.756688232421875,-0.07611873745918274,-0.1830156296491623,0.06720806658267975
1789064095788725200,7.766725341796875,0.016390690580010414,-0.014159761369228363,0.03501923754811287
1789064095798762200,7.77676220703125,0.05672319978475571,-0.06613986939191818,0.05853787809610367
1789064095808798200,7.786798095703125,0.053105030208826065,-0.00947925541549921,0.16040778160095215
1789064095818835200,7.796835205078125,-0.011914982460439205,-0.07427982240915298,0.2048759162425995
1789064095828872200,7.8068720703125,-0.04361192509531975,-0.0465262234210968,0.14160214364528656
1789064095838909200,7.8169091796875,-0.04971376061439514,-0.12234162539243698,-0.022457106038928032
1789064095848946400,7.826946533203125,0.015041533857584,-0.052028048783540726,-0.1433504968881607
1789064095858983200,7.836983154296875,0.056646235287189484,-0.06790714710950851,-0.11863317340612411
1789064095869020200,7.847020263671875,0.058218564838171005,-0.1478147655725479,-0.19650639593601227
1789064095879056100,7.85705615234375,0.052393700927495956,-0.08497454226016998,-0.27886784076690674
1789064095889093000,7.867093017578125,0.04934757575392723,-0.11510554701089859,-0.20627540349960327
1789064095899130000,7.877130126953125,0.0921672135591507,0.060628727078437805,-0.17650526762008667
1789064095909167400,7.88716748046875,0.09735850989818573,0.0096848513931036,-0.17230331897735596
1789064095919204400,7.897204345703125,0.10429471731185913,-0.0350879468023777,-0.03815271332859993
1789064095929241000,7.907240966796875,0.05527869984507561,-0.13492026925086975,0.05409892275929451
1789064095939277000,7.917277099609375,0.013224459253251553,-0.08749709278345108,0.01654488779604435
1789064095949314000,7.92731396484375,0.007898136973381042,-0.0475241094827652,-0.07130693644285202
1789064095959351300,7.937351318359375,0.03609248995780945,-0.07801038026809692,0.01966691203415394
1789064095969388300,7.94738818359375,0.06296484917402267,-0.09557179361581802,0.10255167633295059
1789064095979425300,7.95742529296875,0.04258900508284569,-0.13551121950149536,0.0869588702917099
1789064095989462000,7.9674619140625,0.013571202754974365,-0.04689560458064079,0.1272522211074829
1789064095999498200,7.977498291015625,-0.013379720970988274,-0.05314577743411064,0.20983152091503143
1789064096009535200,7.98753515625,-0.02443503588438034,-0.11521447449922562,0.20390386879444122
1789064096019572200,7.997572265625,-0.023424100130796432,0.006714894436299801,0.07446544617414474
1789064096029609200,8.007609130859375,-0.037029657512903214,-0.1251174360513687,-0.014370683580636978
1789064096039646200,8.017646240234376,-0.032576583325862885,-0.1208510547876358,-0.019812321290373802
1789064096049683500,8.027683349609376,-0.055930376052856445,-0.18468329310417175,-0.11560436338186264
1789064096059720200,8.03772021484375,-0.05157078430056572,-0.11338195204734802,-0.24606889486312866
1789064096069756200,8.047756103515624,-0.07741223275661469,-0.13982127606868744,-0.17681099474430084
1789064096079793200,8.057793212890624,-0.08816128224134445,-0.12794837355613708,-0.023149793967604637
1789064096089830100,8.067830078125,-0.08076968044042587,-0.1565810889005661,0.0660431981086731
1789064096099867100,8.0778671875,-0.04253840446472168,-0.07282733172178268,0.12440583854913712
1789064096109904400,8.087904296875,-0.011208978481590748,-0.06114165112376213,0.09696223586797714
1789064096119941000,8.097941162109375,-0.00717562111094594,-0.07222679257392883,0.07801197469234467
1789064096129977300,8.107977294921875,0.0006420881254598498,-0.11025886237621307,0.09928743541240692
1789064096140014000,8.11801416015625,0.008621717803180218,-0.20893989503383636,0.05964415520429611
1789064096150051000,8.128051025390626,0.0025300029665231705,-0.130625918507576,-0.01895265281200409
1789064096160088300,8.13808837890625,-0.00737429317086935,-0.01794011890888214,-0.09322741627693176
1789064096170125300,8.148125244140624,-0.031745944172143936,-0.08191164582967758,-0.052203815430402756
1789064096180162300,8.158162353515625,-0.05283312126994133,-0.08142322301864624,-0.013596502132713795
1789064096190198300,8.1681982421875,-0.0384584441781044,-0.12250061333179474,-0.0125818382948637
1789064096200235000,8.178235107421875,0.02491813339293003,-0.07812622934579849,0.025650767609477043
1789064096210272300,8.188272216796875,0.05428054928779602,-0.1561155617237091,0.0494421161711216
1789064096220309200,8.198309326171875,0.06298482418060303,-0.1264122724533081,-0.0046421559527516365
1789064096230346200,8.20834619140625,0.05179768428206444,-0.056821469217538834,0.014614362269639969
1789064096240383200,8.21838330078125,0.04013650119304657,0.03515106439590454,0.03687679022550583
1789064096250419200,8.228419189453126,0.0507393442094326,-0.008158061653375626,0.05294976755976677
1789064096260456400,8.23845654296875,0.037335921078920364,-0.057007092982530594,0.11157047003507614
1789064096270493200,8.2484931640625,0.009408948011696339,-0.1289534568786621,0.1142466813325882
1789064096280530200,8.2585302734375,0.01654408872127533,-0.05246959999203682,0.013991981744766235
1789064096290567200,8.268567138671875,0.014307566918432713,-0.15704208612442017,0.0446457639336586
1789064096300604200,8.278604248046875,0.01847594603896141,-0.10106004029512405,0.07366969436407089
1789064096310640000,8.28864013671875,0.059577576816082,-0.05645129084587097,0.016987506300210953
1789064096320677400,8.298677490234375,0.07246754318475723,0.005656288005411625,-0.022298380732536316
1789064096330714000,8.308714111328126,0.08614793419837952,0.0019891150295734406,-0.08461634814739227
1789064096340751000,8.318751220703126,0.05248744413256645,-0.026635605841875076,0.01720988005399704
1789064096350788000,8.3287880859375,0.05004798620939255,0.004975317511707544,0.04246809706091881
1789064096360825300,8.338825439453124,0.03909893333911896,-0.019665313884615898,0.0887778028845787
1789064096370862300,8.3488623046875,0.041300833225250244,-0.07733553647994995,0.11565709114074707
1789064096380898300,8.358898193359375,0.031799208372831345,-0.050938546657562256,0.08832160383462906
1789064096390935300,8.368935302734375,0.01870843954384327,0.006486129015684128,0.028182102367281914
1789064096400972000,8.378971923828125,-0.006103964988142252,-0.044728588312864304,0.059410061687231064
1789064096411009300,8.38900927734375,-0.015284414403140545,-0.10687292367219925,0.08316439390182495
1789064096421046300,8.39904638671875,-0.005863215308636427,0.034146785736083984,-0.0306902676820755
1789064096431083300,8.409083251953126,-0.011177552863955498,-0.04662182927131653,-0.07979762554168701
1789064096441119200,8.419119140625,-0.015899071469902992,-0.01290381420403719,-0.02670937590301037
1789064096451156200,8.42915625,-0.04358929023146629,-0.06709727644920349,-0.06124311685562134
1789064096461193200,8.439193115234374,-0.05831337347626686,0.0007880293414928019,-0.08841588348150253
1789064096471230200,8.449230224609375,-0.03630341216921806,-0.07688253372907639,-0.12082309275865555
1789064096481267200,8.45926708984375,-0.02002617157995701,-0.11206235736608505,-0.09425380080938339
1789064096491304200,8.46930419921875,-0.007621966768056154,-0.05589122697710991,-0.08244401216506958
1789064096501340200,8.479340087890625,-0.0640556812286377,-0.04718322306871414,0.03188416361808777
1789064096511377200,8.489377197265625,-0.12378133088350296,-0.04959950968623161,0.0981537327170372
1789064096521414400,8.499414306640626,-0.15046992897987366,-0.014451110735535622,0.14993835985660553
1789064096531451100,8.509451171875,-0.0942482054233551,0.03791409358382225,0.08961749821901321
1789064096541488000,8.519488037109374,-0.010324808768928051,-0.04796246439218521,0.048105742782354355
1789064096551525000,8.529525146484374,0.04163239896297455,-0.1325620412826538,0.1254577934741974
1789064096561561000,8.53956103515625,0.04286517575383186,-0.17178641259670258,0.09667035192251205
1789064096571598300,8.549598388671875,0.00634950865060091,-0.011214038357138634,0.005179848056286573
1789064096581635300,8.55963525390625,0.005034439731389284,0.07140973210334778,-0.07162278890609741
1789064096591672000,8.569672119140625,-0.0024703482631593943,-0.046185337007045746,0.10390003025531769
1789064096601709000,8.579708984375,0.047864727675914764,0.028018051758408546,0.1309172660112381
1789064096611746300,8.589746337890626,0.12389131635427475,0.06286498159170151,0.13396978378295898
1789064096621782300,8.5997822265625,0.18158231675624847,-0.007476292084902525,0.1093778908252716
1789064096631819300,8.6098193359375,0.20508258044719696,0.031512387096881866,0.05668564885854721
1789064096641856300,8.619856201171874,0.190900981426239,0.02232448011636734,0.08651305735111237
1789064096651893200,8.629893310546874,0.16810964047908783,-0.018807509914040565,-0.0046331011690199375
1789064096661930200,8.63993017578125,0.16916771233081818,0.08878686279058456,-0.19577988982200623
1789064096671967200,8.64996728515625,0.19480037689208984,0.0480135977268219,-0.11334653198719025
1789064096682003200,8.660003173828125,0.238329216837883,0.04087765887379646,0.00004314320904086344
1789064096692040200,8.670040283203125,0.2675829827785492,0.03486184403300285,-0.04176928475499153
1789064096702077200,8.6800771484375,0.29290032386779785,0.17596064507961273,-0.03924008086323738
1789064096712114400,8.690114501953126,0.3118513822555542,0.13438177108764648,0.11765419691801071
1789064096722151200,8.700151123046876,0.3152543604373932,0.09751030802726746,0.23093281686306
1789064096732188200,8.710188232421874,0.33700066804885864,0.1802872121334076,0.1935175359249115
1789064096742225400,8.720225341796874,0.3373660445213318,0.16729259490966797,0.20891353487968445
1789064096752261400,8.730261474609375,0.38256362080574036,0.17239627242088318,0.1573302298784256
1789064096762298400,8.74029833984375,0.4185815453529358,0.14309564232826233,0.05089354142546654
1789064096772335400,8.75033544921875,0.42689967155456543,0.23397761583328247,-0.03519979864358902
1789064096782372400,8.760372314453125,0.37393125891685486,0.206255704164505,-0.09254457801580429
1789064096792409300,8.770409423828125,0.2940332293510437,0.21086056530475616,-0.13647103309631348
1789064096802446300,8.7804462890625,0.27140355110168457,0.2020508348941803,-0.14173130691051483
1789064096812482300,8.790482421875,0.3110676109790802,0.236668199300766,-0.2332838475704193
1789064096822519300,8.800519287109376,0.3841809630393982,0.2117452770471573,-0.23094826936721802
1789064096832556300,8.810556396484374,0.41893839836120605,0.1629289984703064,-0.16342487931251526
1789064096842593500,8.820593505859375,0.38321077823638916,0.2149123102426529,-0.17591217160224915
1789064096852630300,8.83063037109375,0.3421964943408966,0.27614131569862366,-0.20454834401607513
1789064096862667300,8.840667236328125,0.3210829496383667,0.3103160560131073,-0.09442024677991867
1789064096872703200,8.850703125,0.32625612616539,0.3020099103450775,0.030902255326509476
1789064096882740200,8.860740234375,0.32865750789642334,0.21412986516952515,0.12871509790420532
1789064096892777500,8.870777587890625,0.31061139702796936,0.18672940135002136,0.19915065169334412
1789064096902814500,8.880814453125,0.26842746138572693,0.18404600024223328,0.19368956983089447
1789064096912851500,8.8908515625,0.22818922996520996,0.20765012502670288,0.18121878802776337
1789064096922888200,8.90088818359375,0.17808717489242554,0.20943471789360046,0.18758080899715424
1789064096932924200,8.910924072265624,0.1438908576965332,0.2361731231212616,0.11839774996042252
1789064096942961400,8.92096142578125,0.11524669826030731,0.18251149356365204,0.0574028380215168
1789064096952998400,8.930998291015625,0.05456257611513138,0.14952504634857178,-0.03671087697148323
1789064096963035400,8.941035400390625,0.061222076416015625,0.20233792066574097,-0.12701654434204102
1789064096973072400,8.951072265625,0.04910016804933548,0.12150619179010391,-0.08813198655843735
1789064096983109000,8.961109130859375,0.015469237230718136,0.05673491954803467,-0.058330949395895004
1789064096993145300,8.971145263671875,-0.05993444100022316,0.09061618894338608,-0.10868706554174423
1789064097003182300,8.981182373046876,-0.12278877198696136,0.10288696736097336,-0.14162024855613708
1789064097013219300,8.99121923828125,-0.18157857656478882,0.11942599713802338,-0.11942226439714432
1789064097023256300,9.00125634765625,-0.20641230046749115,0.11878576874732971,-0.12140339612960815
1789064097033293300,9.011293212890624,-0.24946069717407227,0.02490907721221447,0.006025668233633041
1789064097043330300,9.021330322265625,-0.2753807008266449,-0.012474779039621353,0.05532024800777435
1789064097053366500,9.031366455078125,-0.2996666133403778,-0.049798980355262756,0.016816796734929085
1789064097063403300,9.0414033203125,-0.33325812220573425,-0.0006388923502527177,0.002769953804090619
1789064097073440300,9.051440185546875,-0.34129342436790466,-0.092621810734272,0.11919590085744858
1789064097083477200,9.061477294921875,-0.3272039592266083,0.019696472212672234,0.07381856441497803
1789064097093514500,9.071514404296876,-0.3296378254890442,-0.04776379466056824,0.06853058934211731
1789064097103551500,9.081551513671876,-0.3412766456604004,-0.028960810974240303,0.08761666715145111
1789064097113588200,9.091588134765624,-0.36190974712371826,-0.06938599795103073,0.0037462685722857714
1789064097123624400,9.10162451171875,-0.37059643864631653,-0.06715133786201477,-0.05937597528100014
1789064097133661200,9.1116611328125,-0.3539394438266754,-0.10268936306238174,-0.11188818514347076
1789064097143698400,9.121698486328125,-0.32049357891082764,-0.06267083436250687,-0.11079655587673187
1789064097153735400,9.1317353515625,-0.2783711850643158,-0.09164469689130783,-0.08358784019947052
1789064097163772400,9.1417724609375,-0.2627011239528656,-0.09261835366487503,-0.06021620333194733
1789064097173809400,9.151809326171875,-0.2573377788066864,-0.062428489327430725,-0.008981244638562202
1789064097183845400,9.161845458984375,-0.2641666829586029,-0.16389918327331543,0.09315790981054306
1789064097193882000,9.171882080078126,-0.25886619091033936,-0.08648402243852615,0.11039548367261887
1789064097203919400,9.18191943359375,-0.24176548421382904,-0.1161298006772995,0.07857683300971985
1789064097213956400,9.191956298828124,-0.19215133786201477,-0.04511234909296036,0.16063335537910461
1789064097223993300,9.201993408203125,-0.21822980046272278,-0.1771678626537323,0.19745901226997375
1789064097234030300,9.2120302734375,-0.2245473563671112,-0.20126120746135712,0.05901511758565903
1789064097244066300,9.22206640625,-0.18259644508361816,-0.04183080419898033,-0.07777255773544312
1789064097254103300,9.232103271484375,-0.1291143149137497,-0.14478088915348053,-0.11952772736549377
1789064097264140300,9.242140380859375,-0.10168588161468506,-0.11257581412792206,-0.16176040470600128
1789064097274177300,9.25217724609375,-0.11509622633457184,-0.16677594184875488,-0.20483890175819397
1789064097284214300,9.26221435546875,-0.18954196572303772,-0.15926235914230347,-0.21229921281337738
1789064097294251500,9.27225146484375,-0.2244778424501419,-0.16749072074890137,-0.22149990499019623
1789064097304287500,9.28228759765625,-0.22571994364261627,-0.14359737932682037,-0.218903049826622
1789064097314324500,9.292324462890624,-0.13568858802318573,0.12677311897277832,-0.23176239430904388
1789064097324361200,9.302361328125,-0.06996603310108185,-0.15476959943771362,-0.023494940251111984
1789064097334398200,9.312398193359375,-0.05134760960936546,-0.34424686431884766,0.07470592856407166
1789064097344435500,9.322435546875,-0.046841807663440704,-0.24817785620689392,0.0331057570874691
1789064097354472400,9.332472412109375,-0.016408534720540047,0.20867225527763367,0.09715797752141953
1789064097364508400,9.34250830078125,0.044254545122385025,-0.142633318901062,0.2259226143360138
1789064097374545400,9.35254541015625,0.07512377947568893,-0.188812255859375,0.3638213574886322
1789064097384582400,9.36258251953125,0.11086233705282211,-0.07087790220975876,0.4143982529640198
1789064097394619100,9.372619140625,0.1242990493774414,0.012951751239597797,0.48644715547561646
1789064097404656400,9.382656494140624,0.1072596088051796,-0.07501166313886642,0.4178401231765747
1789064097414693400,9.392693359375,0.137388214468956,0.04981016740202904,0.07360044866800308
1789064097424729300,9.402729248046874,0.20878836512565613,0.06539072096347809,-0.07809613645076752
1789064097434766300,9.412766357421875,0.18272480368614197,-0.10776986926794052,-0.2226642370223999
1789064097444803300,9.42280322265625,0.16955120861530304,-0.1722833514213562,-0.5472585558891296
1789064097454840300,9.43284033203125,0.1357133537530899,-0.09460426867008209,-0.6272332668304443
1789064097464877300,9.442877197265625,0.1484922617673874,0.010399111546576023,-0.5196477174758911
1789064097474914300,9.452914306640626,0.11593006551265717,-0.08981084823608398,-0.5599067211151123
1789064097484951300,9.462951416015626,0.120388463139534,0.04182787239551544,-0.42685064673423767
1789064097494987300,9.4729873046875,0.16147597134113312,0.010931476950645447,-0.13772431015968323
1789064097505024500,9.4830244140625,0.2134353220462799,-0.04651051014661789,0.020174510776996613
1789064097515061500,9.4930615234375,0.2628345489501953,0.01450091227889061,0.09355498105287552
1789064097525098200,9.50309814453125,0.2723982334136963,0.02429868094623089,0.29482153058052063
1789064097535135200,9.51313525390625,0.26332616806030273,-0.016335830092430115,0.4440118074417114
1789064097545172500,9.52317236328125,0.26567694544792175,0.00643845833837986,0.44273853302001953
1789064097555208400,9.53320849609375,0.27529361844062805,0.13153725862503052,0.3631425201892853
1789064097565245400,9.543245361328125,0.2651935815811157,0.14335529506206512,0.362301230430603
1789064097575282400,9.553282470703126,0.2778734266757965,0.05524487793445587,0.27339160442352295
1789064097585319200,9.563319091796876,0.32470351457595825,0.1821458339691162,-0.032760344445705414
1789064097595356200,9.573356201171874,0.3145473003387451,0.05283871293067932,-0.19766061007976532
1789064097605393400,9.583393310546874,0.3044259548187256,0.1265622079372406,-0.26818111538887024
1789064097615429400,9.593429443359375,0.24185018241405487,-0.049624279141426086,-0.3588484227657318
1789064097625466400,9.60346630859375,0.2476353645324707,0.16567391157150269,-0.46401214599609375
1789064097635503400,9.61350341796875,0.23813693225383759,0.16458788514137268,-0.4204111397266388
1789064097645540400,9.623540283203125,0.25275635719299316,0.12812228500843048,-0.18686415255069733
1789064097655577300,9.633577392578125,0.28371667861938477,0.1772323101758957,-0.0011973571963608265
1789064097665614300,9.6436142578125,0.2970878779888153,0.24417617917060852,0.177732452750206
1789064097675650300,9.653650390625,0.32550060749053955,0.10507182776927948,0.2938031256198883
1789064097685687300,9.663687255859376,0.33309993147850037,0.15156342089176178,0.3961731791496277
1789064097695724300,9.673724365234374,0.3238225281238556,0.23212191462516785,0.4037879407405853
1789064097705761500,9.683761474609375,0.28193795680999756,0.2073097825050354,0.38647714257240295
1789064097715798300,9.69379833984375,0.24420493841171265,0.1657109409570694,0.3322346806526184
1789064097725835300,9.703835205078125,0.2356463521718979,0.20237280428409576,0.2049078792333603
1789064097735871200,9.713871337890625,0.22923558950424194,-0.09798115491867065,0.09186281263828278
1789064097745908200,9.723908203125,0.27181580662727356,0.07333839684724808,0.04128725081682205
1789064097755945200,9.7339453125,0.1132408007979393,0.2175333946943283,0.03555959090590477
1789064097765982200,9.743982177734376,0.10633362829685211,0.3121216893196106,-0.04488971084356308
1789064097776019200,9.754019287109376,0.09695317596197128,0.018331868574023247,-0.24792538583278656
1789064097786056200,9.76405615234375,0.09074801206588745,0.04766632243990898,-0.47535693645477295
1789064097796092200,9.774092041015624,0.05361342802643776,0.047630101442337036,-0.5492780208587646
1789064097806129200,9.784129150390624,0.03353585675358772,0.07195834815502167,-0.4408405125141144
1789064097816166100,9.794166259765625,-0.06487966328859329,0.11293507367372513,-0.24022085964679718
1789064097826203100,9.804203125,-0.2402283102273941,0.07973397523164749,-0.06252995878458023
1789064097836240400,9.814240478515625,-0.30150339007377625,-0.0062067629769444466,0.15432831645011902
1789064097846277000,9.824277099609375,-0.28432974219322205,-0.033253028988838196,0.32654961943626404
1789064097856313300,9.834313232421875,-0.2533204257488251,-0.1861797273159027,0.28731033205986023
1789064097866350000,9.84435009765625,-0.10381241887807846,0.45925813913345337,0.34997743368148804
1789064097876387000,9.854386962890626,-0.048476722091436386,0.35720154643058777,0.29165077209472656
1789064097886424300,9.86442431640625,-0.15137247741222382,-0.09967466443777084,0.08664168417453766
1789064097896461300,9.87446142578125,-0.2729220688343048,0.022587867453694344,-0.16725477576255798
1789064097906498300,9.884498291015625,-0.36132970452308655,0.16527977585792542,-0.32102036476135254
1789064097916535000,9.89453515625,-0.41294682025909424,-0.14983609318733215,-0.2827534079551697
1789064097926571000,9.904571044921875,-0.3784849941730499,-0.10354264080524445,-0.28784218430519104
1789064097936608300,9.914608154296875,-0.3327566385269165,-0.07410219311714172,-0.17656278610229492
1789064097946645200,9.924645263671875,-0.3010578453540802,-0.10424944013357162,-0.02828250452876091
1789064097956682200,9.93468212890625,-0.3000900447368622,0.07584842294454575,0.09913430362939835
1789064097966719200,9.94471923828125,-0.2894914746284485,0.03448420763015747,0.2815709710121155
1789064097976756000,9.954755859375,-0.2616904675960541,0.04138525575399399,0.42292141914367676
1789064097986792400,9.96479248046875,-0.18862290680408478,0.11144690215587616,0.3572092652320862
1789064097996829200,9.9748291015625,-0.18946926295757294,-0.05221180617809296,0.34144654870033264
1789064098006866200,9.9848662109375,-0.2008923590183258,0.04571369290351868,0.25061410665512085
1789064098016903200,9.994903076171875,-0.23813506960868835,-0.1133342832326889,0.20360319316387177
1789064098026940200,10.004940185546875,-0.2378024458885193,-0.042818836867809296,0.12321114540100098
1789064098036977400,10.014977294921875,-0.24322649836540222,-0.1424170583486557,-0.06360933929681778
1789064098047013400,10.025013427734375,-0.23126918077468872,0.02395779639482498,-0.2324417680501938
1789064098057050000,10.035050048828126,-0.23890098929405212,-0.040827590972185135,-0.2914068102836609
1789064098067087000,10.045087158203126,-0.21669502556324005,0.0314018651843071,-0.3996123671531677
1789064098077124000,10.0551240234375,-0.16597671806812286,0.010124272666871548,-0.3793867230415344
1789064098087161300,10.065161376953125,-0.09827357530593872,-0.08406107872724533,-0.2877287268638611
1789064098097198300,10.0751982421875,-0.06334195286035538,-0.08206743746995926,-0.26374268531799316
1789064098107234300,10.085234375,-0.10268376767635345,-0.035642948001623154,-0.03777267783880234
1789064098117271300,10.095271240234375,-0.18313387036323547,-0.24419616162776947,0.04115808755159378
1789064098127308000,10.10530810546875,-0.17682510614395142,0.3482501208782196,0.216849222779274
1789064098137345300,10.11534521484375,-0.13348615169525146,0.010202037170529366,0.21906603872776031
1789064098147382300,10.12538232421875,-0.025493908673524857,0.05924654379487038,0.10311786085367203
1789064098157419300,10.135419189453126,0.030015690252184868,-0.05272659286856651,0.05373726412653923
1789064098167455200,10.145455322265626,0.06493798643350601,0.035836827009916306,-0.053722083568573
1789064098177492200,10.1554921875,0.04685752093791962,0.04526681452989578,-0.3024429380893707
1789064098187529200,10.165529296875,-0.030701719224452972,0.03906351327896118,-0.3386768698692322
1789064098197566200,10.175566162109375,-0.12154000997543335,-0.07969296723604202,-0.2696647644042969
1789064098207603200,10.185603271484375,-0.11132785677909851,-0.06774282455444336,-0.21529020369052887
1789064098217640200,10.19564013671875,-0.059358932077884674,-0.07958324253559113,-0.17705680429935455
1789064098227676200,10.20567626953125,0.020179569721221924,0.003471430391073227,0.018741464242339134
1789064098237713200,10.215713134765625,0.056014534085989,-0.038186002522706985,0.2784803509712219
1789064098247750400,10.22575048828125,0.00373002327978611,-0.09481572359800339,0.389238566160202
1789064098257787100,10.235787109375,-0.05157610774040222,0.12157410383224487,0.22156408429145813
1789064098267824000,10.24582421875,-0.07378500699996948,0.29596349596977234,0.18218497931957245
1789064098277861000,10.255861083984374,-0.05076570808887482,-0.0028884646017104387,0.24094417691230774
1789064098287897000,10.26589697265625,-0.03272385895252228,-0.30472421646118164,0.09627540409564972
1789064098297934300,10.275934326171875,-0.06616410613059998,-0.21602924168109894,-0.09253552556037903
1789064098307971300,10.285971435546875,-0.055755406618118286,-0.2180795967578888,-0.27404433488845825
1789064098318008000,10.296008056640625,-0.09055839478969574,0.13701191544532776,0.02581907995045185
1789064098328045000,10.306045166015625,-0.15231071412563324,-0.019304189831018448,0.10850170999765396
1789064098338082300,10.316082275390626,-0.1859416365623474,-0.14324423670768738,-0.15808524191379547
1789064098348118300,10.3261181640625,-0.19250953197479248,-0.046485744416713715,-0.3031841218471527
1789064098358155300,10.3361552734375,-0.10691340267658234,0.48015835881233215,-0.36983078718185425
1789064098368192300,10.346192138671874,-0.1287851482629776,0.04243401065468788,-0.18645323812961578
1789064098378229200,10.356229248046875,-0.1976797878742218,-0.3724587857723236,-0.15699893236160278
1789064098388266200,10.366266357421875,-0.21036948263645172,-0.23921312391757965,-0.12364950031042099
1789064098398303200,10.37630322265625,-0.25558677315711975,-0.13682283461093903,-0.09714652597904205
1789064098408339200,10.386339111328125,-0.1318989098072052,0.08918952941894531,0.06650499254465103
1789064098418376200,10.396376220703125,-0.13057611882686615,-0.2568301856517792,0.2810119688510895
1789064098428413200,10.4064130859375,-0.15640078485012054,-0.4207722544670105,0.3251061737537384
1789064098438450200,10.4164501953125,-0.22445520758628845,-0.2819717526435852,0.33887791633605957
1789064098448487200,10.426487060546876,-0.29443109035491943,-0.1590474396944046,0.42473530769348145
1789064098458524200,10.436524169921874,-0.3965521454811096,0.2718983590602875,0.5206050872802734
1789064098468560100,10.44656005859375,-0.3803521394729614,0.4838087558746338,0.5448220372200012
1789064098478597000,10.45659716796875,-0.007256581448018551,0.7711976766586304,0.7996500730514526
1789064098488634000,10.466634033203125,-0.07801863551139832,-0.3553469181060791,0.37628495693206787
1789064098498671400,10.47667138671875,-0.20946933329105377,-0.4635165333747864,-0.28022605180740356
1789064098508708400,10.486708251953125,-0.2740592360496521,-0.13271038234233856,-0.45408546924591064
1789064098518745000,10.4967451171875,-0.1243448555469513,-0.37410223484039307,-0.60655277967453
1789064098528782000,10.506781982421876,-0.12734784185886383,0.06874071806669235,-0.6497716307640076
1789064098538818000,10.516818115234376,-0.10324089974164963,0.14922544360160828,-0.44548746943473816
1789064098548855300,10.526855224609376,-0.006599579472094774,-0.32341402769088745,-0.5013427138328552
1789064098558892300,10.536892333984374,0.013021525926887989,0.033858366310596466,-0.46192049980163574
1789064098568929300,10.54692919921875,0.06293182820081711,-0.034747861325740814,-0.3695082664489746
1789064098578966000,10.556966064453125,0.16097663342952728,0.06519924104213715,0.011648666113615036
1789064098589003300,10.567003173828125,0.20670604705810547,-0.012654276564717293,0.4080412685871124
1789064098599039200,10.577039306640625,0.12253017723560333,-0.1461276412010193,0.519071102142334
1789064098609076200,10.587076171875,0.09646821767091751,-0.041614022105932236,0.5637014508247375
1789064098619113200,10.59711328125,0.0950372964143753,0.10374423861503601,0.6335628032684326
1789064098629150200,10.607150146484376,0.14821955561637878,0.19087381660938263,0.5087750554084778
1789064098639187200,10.617187255859376,0.14842195808887482,-0.08362565189599991,0.3495287001132965
1789064098649224200,10.62722412109375,0.14483068883419037,-0.1368878036737442,0.2835848331451416
1789064098659260200,10.63726025390625,0.148427814245224,-0.1266026794910431,0.1337311714887619
1789064098669297200,10.647297119140624,0.12987171113491058,-0.2673709988594055,-0.2263314127922058
1789064098679334100,10.657334228515625,0.033120933920145035,-0.08821268379688263,-0.37156903743743896
1789064098689371100,10.66737109375,-0.07612486183643341,-0.04057379066944122,-0.2519771158695221
1789064098699408400,10.677408447265625,-0.031036745756864548,-0.06005588173866272,-0.0858086496591568
1789064098709445000,10.687445068359375,-0.024568991735577583,-0.0733029767870903,0.05537111312150955
1789064098719481300,10.6974814453125,-0.02941727638244629,-0.018192319199442863,0.06732524186372757
1789064098729518000,10.70751806640625,-0.0524139404296875,-0.07365211844444275,0.06876308470964432
1789064098739555000,10.71755517578125,-0.07139641791582108,-0.05475299432873726,0.14040371775627136
1789064098749591800,10.727591796875,-0.08072014898061752,-0.21318525075912476,0.10559646785259247
1789064098759628800,10.73762890625,-0.04161908105015755,-0.09645223617553711,-0.04686044901609421
1789064098769666000,10.747666015625,-0.00942013319581747,-0.17831380665302277,-0.05277399718761444
1789064098779702000,10.757701904296875,-0.040814805775880814,-0.40618640184402466,-0.1603958010673523
1789064098789739000,10.767739013671875,0.032638635486364365,0.11032597720623016,0.048162467777729034
1789064098799775700,10.777775634765625,0.0495811365544796,0.09976174682378769,0.2206258475780487
1789064098809812700,10.787812744140625,0.14307700097560883,0.04361538961529732,0.22658148407936096
1789064098819850000,10.79785009765625,0.1005290076136589,-0.15639786422252655,-0.0631355568766594
1789064098829887000,10.807886962890626,0.13458125293254852,-0.16662093997001648,-0.4384002685546875
1789064098839923000,10.8179228515625,0.07600821554660797,-0.050390202552080154,-0.5530639886856079
1789064098849960000,10.8279599609375,-0.00765871861949563,0.019156116992235184,-0.46112820506095886
1789064098859996700,10.83799658203125,-0.058042529970407486,-0.03706907108426094,-0.3655968904495239
1789064098870034000,10.848033935546875,-0.05522357299923897,-0.10558661073446274,-0.3109256625175476
1789064098880071000,10.85807080078125,-0.03483494743704796,-0.02768861874938011,-0.19624274969100952
1789064098890108000,10.86810791015625,-0.018727082759141922,-0.15610624849796295,-0.15959791839122772
1789064098900143900,10.878143798828125,0.054003048688173294,0.2612805962562561,-0.14808186888694763
1789064098910180900,10.888180908203125,0.10316846519708633,-0.06385141611099243,0.17415103316307068
1789064098920218000,10.898218017578126,0.10006961226463318,-0.058386608958244324,0.4141146242618561
1789064098930254800,10.9082548828125,0.07237459719181061,-0.09306709468364716,0.3580226004123688
1789064098940291800,10.918291748046874,0.06517501175403595,-0.009244364686310291,0.30046743154525757
1789064098950328800,10.928328857421874,0.091463603079319,-0.003750795964151621,0.3427402973175049
1789064098960364800,10.93836474609375,0.11256223171949387,-0.08077287673950195,0.3636879324913025
1789064098970401800,10.94840185546875,0.13301131129264832,-0.05619056895375252,0.2754097282886505
1789064098980439000,10.95843896484375,0.16756875813007355,0.0500493198633194,0.2237207144498825
1789064098990475800,10.968475830078125,0.19705846905708313,0.042143724858760834,0.12459199875593185
1789064099000512800,10.9785126953125,0.20282475650310516,-0.01629668101668358,-0.1002722755074501
1789064099010549800,10.9885498046875,0.1941223442554474,0.031621575355529785,-0.276450514793396
1789064099020585700,10.998585693359376,0.15699148178100586,-0.02190290205180645,-0.3408593237400055
1789064099030623000,11.008623046875,0.13358736038208008,0.015022625215351582,-0.4225515127182007
1789064099040660000,11.018659912109374,0.10617969930171967,-0.091744564473629,-0.45305004715919495
1789064099050697000,11.028697021484374,0.11791731417179108,-0.16838954389095306,-0.35561642050743103
1789064099060733700,11.038733642578125,0.1353604942560196,0.16236147284507751,-0.23378399014472961
1789064099070771000,11.04877099609375,0.15518026053905487,0.026820695027709007,-0.013651363551616669
1789064099080807000,11.058806884765625,0.1829647570848465,-0.0009150621481239796,0.1792171597480774
1789064099090844000,11.068843994140625,0.18943464756011963,-0.0037878139410167933,0.2781756818294525
1789064099100881000,11.078880859375,0.2176862508058548,0.01775316521525383,0.223033607006073
1789064099110918000,11.08891796875,0.2280360907316208,-0.0004183826094958931,0.1782325804233551
1789064099120955000,11.098954833984376,0.23275655508041382,0.09104255586862564,0.1654491424560547
1789064099130991900,11.108991943359374,0.21494825184345245,0.13653680682182312,0.12154214084148407
1789064099141027800,11.11902783203125,0.16645821928977966,0.03538169339299202,0.08374948799610138
1789064099151064800,11.12906494140625,0.15837232768535614,0.019282884895801544,-0.014002101495862007
1789064099161101800,11.139101806640625,0.14780330657958984,-0.021921010687947273,-0.2834247946739197
1789064099171138800,11.149138916015625,0.14875219762325287,0.1491713672876358,-0.39074432849884033
1789064099181176000,11.159176025390625,0.1375269740819931,-0.023441676050424576,-0.22405067086219788
1789064099191212800,11.169212890625,0.11934556812047958,-0.05777035653591156,-0.19622783362865448
1789064099201248800,11.179248779296875,0.13340651988983154,0.056415338069200516,-0.23276880383491516
1789064099211285800,11.18928564453125,0.17247962951660156,0.1763361543416977,-0.1551637500524521
1789064099221322800,11.19932275390625,0.17881715297698975,0.02250237949192524,0.10629741102457047
1789064099231360000,11.209360107421874,0.18336422741413116,0.07627320289611816,0.1773606687784195
1789064099241397000,11.21939697265625,0.19611145555973053,0.15546709299087524,0.1930307149887085
1789064099251433700,11.229433837890625,0.19639214873313904,0.17495930194854736,0.24270665645599365
1789064099261470000,11.239469970703125,0.18989403545856476,0.15280552208423615,0.2365579456090927
1789064099271506700,11.249506591796875,0.16920900344848633,0.14506877958774567,0.23187211155891418
1789064099281544000,11.2595439453125,0.1631934493780136,0.08981404453516006,0.21836669743061066
1789064099291581000,11.269580810546875,0.17590151727199554,0.12480158358812332,0.08171377331018448
1789064099301618000,11.279617919921876,0.19001361727714539,0.05566485971212387,0.053170010447502136
1789064099311655000,11.289655029296876,0.19880923628807068,0.069196917116642,0.039733029901981354
1789064099321691000,11.29969091796875,0.200504332780838,0.21066083014011383,-0.10776054859161377
1789064099331728000,11.309727783203124,0.23418959975242615,0.452115535736084,-0.08362086117267609
1789064099341764900,11.319764892578124,0.23685675859451294,0.15429076552391052,-0.1183261126279831
1789064099351801900,11.3298017578125,0.2533784806728363,0.2019467055797577,-0.19190871715545654
1789064099361838800,11.3398388671875,0.27407708764076233,0.09761150926351547,-0.31505969166755676
1789064099371875800,11.349875732421875,0.27688512206077576,0.18624736368656158,-0.4817943274974823
1789064099381912000,11.359912109375,0.22080135345458984,0.14676733314990997,-0.4092836380004883
1789064099391949000,11.369948974609375,0.18224437534809113,0.1845826357603073,-0.2036159783601761
1789064099401985800,11.37998583984375,0.20080767571926117,0.21802766621112823,-0.0409809872508049
1789064099412022800,11.390022705078126,0.21809664368629456,0.1583145409822464,0.1128261536359787
1789064099422059800,11.400059814453124,0.24495089054107666,0.16104267537593842,0.27890220284461975
1789064099432097000,11.410096923828124,0.2535385191440582,0.10018998384475708,0.41025808453559875
1789064099442134000,11.420134033203125,0.2808583080768585,0.25041598081588745,0.30738070607185364
1789064099452170000,11.430169921875,0.2485954314470291,0.26971563696861267,0.18126539885997772
1789064099462206700,11.440206787109375,0.2004433572292328,0.28570497035980225,0.14561472833156586
1789064099472243700,11.45024365234375,0.17190705239772797,0.2047872394323349,0.004291950259357691
1789064099482281000,11.460281005859375,0.16258065402507782,0.15359728038311005,-0.12341488152742386
1789064099492318000,11.47031787109375,0.1793559044599533,0.1267363727092743,-0.2815416753292084
1789064099502354000,11.48035400390625,0.1776174008846283,0.11391565203666687,-0.3530326187610626
1789064099512391000,11.490390869140626,0.12816329300403595,0.12890605628490448,-0.3490959405899048
1789064099522428000,11.500427978515624,0.04465029388666153,0.042459577322006226,-0.32536372542381287
1789064099532465000,11.51046484375,0.0154942711815238,0.19964200258255005,-0.24361371994018555
1789064099542502000,11.520501953125,0.001115864492021501,0.15380287170410156,-0.08585339039564133
1789064099552539000,11.530538818359375,0.04688068851828575,0.14105379581451416,0.08257690072059631
1789064099562576000,11.540575927734375,0.06386233866214752,0.11216675490140915,0.22308580577373505
1789064099572611800,11.55061181640625,0.04927700012922287,0.02822471410036087,0.3344384431838989
1789064099582649000,11.560649169921875,0.009728527627885342,0.1453649252653122,0.32592910528182983
1789064099592685800,11.570685791015626,-0.03250867500901222,0.014163489453494549,0.3532579243183136
1789064099602722800,11.580722900390626,-0.008821454830467701,0.19776101410388947,0.29675257205963135
1789064099612759800,11.590759765625,-0.013155482709407806,0.1044853925704956,0.25121039152145386
1789064099622796800,11.600796875,-0.01900484971702099,0.10319589078426361,0.1315164864063263
1789064099632832800,11.610832763671874,-0.04523352533578873,0.03906164690852165,-0.05371782183647156
1789064099642870000,11.6208701171875,-0.11913038790225983,0.009395631961524487,-0.2494516372680664
1789064099652907000,11.630906982421875,-0.18306489288806915,-0.008798818103969097,-0.375083863735199
1789064099662943700,11.64094384765625,-0.16924574971199036,0.05278544872999191,-0.43909960985183716
1789064099672980700,11.650980712890625,-0.1286700963973999,0.09312088787555695,-0.4225219488143921
1789064099683018000,11.66101806640625,-0.08991151303052902,-0.01900298520922661,-0.2762278616428375
1789064099693054000,11.671053955078126,-0.08185704797506332,0.005479720421135426,-0.2402554750442505
1789064099703091000,11.681091064453126,-0.07104168832302094,0.15148459374904633,-0.18259218335151672
1789064099713128000,11.6911279296875,-0.08903346955776215,0.09687035530805588,-0.06586716324090958
1789064099723164700,11.70116455078125,-0.11174144595861435,0.1213727667927742,0.14879639446735382
1789064099733202000,11.711201904296875,-0.07389712333679199,-0.01062361616641283,0.3534643352031708
1789064099743239400,11.721239501953125,-0.036428313702344894,-0.09840273857116699,0.3239559531211853
1789064099753275400,11.731275390625,0.024034762755036354,0.11042743921279907,0.15092000365257263
1789064099763312600,11.741312744140625,0.031003722921013832,0.13909077644348145,0.25795644521713257
1789064099773349600,11.751349609375,0.04468917474150658,0.09323859959840775,0.3642498552799225
1789064099783386400,11.761386474609376,0.029086247086524963,0.09599843621253967,0.26074984669685364
1789064099793423400,11.77142333984375,0.029031118378043175,0.06397898495197296,0.10588568449020386
1789064099803460600,11.781460693359374,0.03406209498643875,0.02171275205910206,-0.062237273901700974
1789064099813496600,11.79149658203125,0.047200001776218414,0.10406381636857986,-0.2520863115787506
1789064099823533600,11.801533447265625,0.043948814272880554,0.12736700475215912,-0.3091229498386383
1789064099833570600,11.811570556640625,0.009070727042853832,0.05727873742580414,-0.39955592155456543
1789064099843607600,11.821607666015625,-0.01560958568006754,0.11801398545503616,-0.4735686182975769
1789064099853644500,11.83164453125,-0.024773789569735527,0.10849904268980026,-0.38600069284439087
1789064099863681500,11.841681640625,0.02700898051261902,0.002412024885416031,-0.3007443845272064
1789064099873717500,11.851717529296875,0.030283870175480843,0.06273368746042252,-0.18597519397735596
1789064099883754500,11.86175439453125,0.028369855135679245,0.1074734628200531,-0.047683101147413254
1789064099893791500,11.87179150390625,-0.026458505541086197,0.09268519282341003,0.21841062605381012
1789064099903828700,11.881828857421874,-0.04604418948292732,0.1330520659685135,0.4471183717250824
1789064099913865500,11.891865478515625,-0.10170452296733856,0.12775583565235138,0.5655733942985535
1789064099923902500,11.90190234375,-0.15069817006587982,0.052858687937259674,0.48725807666778564
1789064099933938400,11.9119384765625,-0.14730210602283478,0.09695477783679962,0.3339920938014984
1789064099943975400,11.921975341796875,-0.1403408646583557,-0.018139589577913284,0.24458710849285126
1789064099954012400,11.932012451171875,-0.16538070142269135,-0.012900352478027344,0.08811281621456146
1789064099964049700,11.942049560546875,-0.23435737192630768,0.015035674907267094,-0.2201520800590515
1789064099974086400,11.95208642578125,-0.3015816807746887,-0.012219914235174656,-0.254751056432724
1789064099984123400,11.962123291015626,-0.3369476795196533,-0.0846850574016571,-0.1189117431640625
1789064099994159400,11.972159423828124,-0.3946700990200043,-0.23848660290241241,-0.2313767671585083
1789064100004196400,11.9821962890625,-0.39455875754356384,-0.046297457069158554,-0.2863667905330658
1789064100014233600,11.992233642578125,-0.4173082709312439,-0.12126410752534866,-0.05444779619574547
1789064100024270600,12.0022705078125,-0.42456966638565063,-0.24720899760723114,0.20896892249584198
1789064100034307600,12.0123076171875,-0.4331977665424347,-0.11154703050851822,0.22353215515613556
1789064100044344300,12.02234423828125,-0.42468738555908203,-0.11434441804885864,0.24433863162994385
1789064100054380500,12.032380615234375,-0.4099496901035309,-0.11347276717424393,0.25225594639778137
1789064100064417500,12.04241748046875,-0.39516302943229675,-0.10568967461585999,0.21912115812301636
1789064100074454500,12.05245458984375,-0.40873610973358154,-0.22296303510665894,0.15316744148731232
1789064100084491500,12.062491455078124,-0.4090002775192261,-0.2106965184211731,0.024280572310090065
1789064100094528500,12.072528564453124,-0.46175670623779297,-0.3386954963207245,-0.04799735173583031
1789064100104565500,12.0825654296875,-0.47289058566093445,-0.2920081615447998,-0.08681825548410416
1789064100114601700,12.092601806640625,-0.4528660178184509,-0.08589999377727509,-0.2398030012845993
1789064100124638500,12.102638427734375,-0.42328333854675293,-0.2644449770450592,-0.23621173202991486
1789064100134675500,12.112675537109375,-0.35278841853141785,-0.13669206202030182,-0.2054397016763687
1789064100144712400,12.12271240234375,-0.33584725856781006,-0.15974251925945282,-0.16840578615665436
1789064100154749400,12.13274951171875,-0.32273465394973755,-0.19701452553272247,-0.19128553569316864
1789064100164786700,12.14278662109375,-0.34894946217536926,-0.1244167611002922,-0.1338888257741928
1789064100174822700,12.15282275390625,-0.3735799789428711,-0.2285759150981903,0.048339035362005234
1789064100184859400,12.162859375,-0.35920822620391846,-0.2931258976459503,0.15196023881435394
1789064100194896400,12.172896484375,-0.32896244525909424,-0.1948360651731491,0.2302830070257187
1789064100204933400,12.182933349609375,-0.3015824854373932,-0.23065371811389923,0.2993214726448059
1789064100214970600,12.192970703125,-0.24480070173740387,-0.05534901097416878,0.2863667905330658
1789064100225007600,12.203007568359375,-0.21725748479366302,-0.14681367576122284,0.26867514848709106
1789064100235043600,12.213043701171875,-0.17908799648284912,-0.10465450584888458,0.1416918933391571
1789064100245080600,12.22308056640625,-0.16045811772346497,-0.08412446081638336,0.07848308980464935
1789064100255117300,12.233117431640625,-0.16496498882770538,-0.24870115518569946,0.016045279800891876
1789064100265154600,12.243154541015626,-0.1809748411178589,-0.24024802446365356,-0.10001767426729202
1789064100275191600,12.253191650390624,-0.21559754014015198,-0.17346127331256866,-0.17688795924186707
1789064100285228500,12.263228515625,-0.23865091800689697,-0.26259326934814453,-0.052858687937259674
1789064100295264500,12.273264404296874,-0.21255753934383392,-0.23812335729599,-0.06659740209579468
1789064100305301500,12.283301513671875,-0.14314304292201996,-0.09894442558288574,-0.11195716261863708
1789064100315338500,12.29333837890625,-0.043424706906080246,-0.04922506958246231,-0.048767540603876114
