time,seconds_elapsed,z,y,x
1790006481901790200,0.076790283203125,8.22467716139853,5.336906386634707,-0.20614050355786456
1790006481911802000,0.086802001953125,8.226773256894946,5.334630258396268,-0.17973036154340952
1790006481921814300,0.096814208984375,8.23217307011187,5.327236056491732,-0.14921788051035254
1790006481931827000,0.106826904296875,8.238225794279575,5.318783869966865,-0.11203395888935774
1790006481941839000,0.116839111328125,8.241988361683488,5.313679240304231,-0.06949775755417067
1790006481951852000,0.12685205078125,8.240784831112622,5.315927311491966,-0.027645647759316487
1790006481961864200,0.1368642578125,8.23314513001442,5.327819993859529,0.0066786095434188605
1790006481971876000,0.1468759765625,8.219932012698054,5.348111086738109,0.02844936307434691
1790006481981889300,0.15688916015625,8.202343164515495,5.374977466353774,0.0394777042471338
1790006481991901200,0.166901123046875,8.182459483394027,5.405172113609313,0.04301839079498313
1790006482001914000,0.1769140625,8.162222166529297,5.435647331371903,0.04748384120466653
1790006482011926300,0.18692626953125,8.14304517237246,5.464238050562143,0.05751625525883864
1790006482021938200,0.196938232421875,8.1264652089715,5.488668727463484,0.0738926041127881
1790006482031951000,0.206951171875,8.112761677789688,5.50851850631535,0.0985363072768785
1790006482041963000,0.216962890625,8.101631796488165,5.524285399767757,0.12731311449059285
1790006482051976200,0.22697607421875,8.092533128753304,5.53699758182466,0.15148424540660343
1790006482061988000,0.236988037109375,8.085082228225469,5.547507869923114,0.16425839591696859
1790006482072000000,0.247,8.077741217812894,5.5581853312820195,0.16449037804193795
1790006482082013200,0.25701318359375,8.069543882831931,5.570387225729227,0.15373992451205848
1790006482092025000,0.267025146484375,8.059806332671641,5.584817902141809,0.14042824219204483
1790006482102038300,0.277038330078125,8.04835905598402,5.601500156873464,0.13227086476213298
1790006482112050200,0.28705029296875,8.03590172547102,5.619459007412195,0.12783665430750696
1790006482122062000,0.29706201171875,8.024031839457153,5.636586667823791,0.11909298315593041
1790006482132075000,0.307074951171875,8.014578366935252,5.650360341632366,0.10172123918961733
1790006482142087200,0.317087158203125,8.008534995117783,5.659269039753079,0.0801702733098995
1790006482152100000,0.32710009765625,8.006105137622356,5.662963218095898,0.059315911392215634
1790006482162112300,0.3371123046875,8.00650904224813,5.662558728948235,0.040322155714640394
1790006482172124200,0.347124267578125,8.008347948113084,5.660053468129038,0.02329278174547944
1790006482182137300,0.357137451171875,8.010011497411131,5.6577405150115485,0.008464691525881063
1790006482192149200,0.367149169921875,8.01018451589048,5.657499107471108,-0.005149659539380809
1790006482202162000,0.377161865234375,8.008981569841504,5.659179607903957,-0.017035428108967608
1790006482212174000,0.387174072265625,8.007032189339398,5.661923353654146,-0.02112375572688179
1790006482222186000,0.39718603515625,8.005039554217458,5.66475185507834,-0.01795604323535808
1790006482232199200,0.40719921875,8.002900204101204,5.667785523685812,-0.013465096483170054
1790006482242211000,0.417211181640625,7.999919726985692,5.671998757466674,-0.009753361934062559
1790006482252224300,0.427224365234375,7.996174110716581,5.677281666305661,-0.007030752015914185
1790006482262236200,0.437236083984375,7.99237121130228,5.682637640380859,-0.0043047705366901935
1790006482272248000,0.447248046875,7.989193165788054,5.687105141183734,0.003803416008353815
1790006482282261200,0.45726123046875,7.986897748327255,5.690291370004415,0.02068448296020506
1790006482292273200,0.467273193359375,7.984301302093267,5.69378797994852,0.04573886526743881
1790006482302286000,0.4772861328125,7.980963682103156,5.698213395175338,0.07049730825184379
1790006482312298000,0.487298095703125,7.976421947020292,5.704323402488232,0.08815600223364307
1790006482322310100,0.49731005859375,7.971437728866935,5.71118919660449,0.09425448350552469
1790006482332323000,0.507322998046875,7.968120567142963,5.715825039711595,0.09370356249134056
1790006482342335200,0.517335205078125,7.968706258076429,5.715060485079884,0.09050771645894273
1790006482352348200,0.52734814453125,7.973527979144453,5.7083782308369875,0.08752997928978874
1790006482362360300,0.5373603515625,7.980676097333431,5.698417393314838,0.08499780306420289
1790006482372373000,0.547373046875,7.987570533022284,5.688802592751383,0.081413085578382
1790006482382385200,0.55738525390625,7.991468124982714,5.683371799874306,0.07810171427438035
1790006482392397000,0.56739697265625,7.99086080673933,5.684227539920807,0.07800046412330121
1790006482402410000,0.577409912109375,7.986469293782115,5.690354498368501,0.0809832975926809
1790006482412422100,0.587422119140625,7.980089821878075,5.699269041708112,0.08291375419860705
1790006482422435000,0.59743505859375,7.973253253856301,5.708851109045743,0.08145292439842595
1790006482432447200,0.607447265625,7.966985425633192,5.717652839660644,0.07730434421845711
1790006482442459100,0.617459228515625,7.961808315256238,5.7249149396181105,0.07311207559381146
1790006482452472300,0.627472412109375,7.958190124759078,5.729978652748465,0.07027757825367152
1790006482462484200,0.637484130859375,7.9555825726091856,5.73358807541728,0.07113072905086446
1790006482472497200,0.6474970703125,7.952916568270325,5.7372086040019985,0.07701957246032543
1790006482482509000,0.657509033203125,7.949540954357385,5.741735141515732,0.08746524349050595
1790006482492521000,0.66752099609375,7.945220168548822,5.747513724917173,0.09974630412114784
1790006482502534100,0.6775341796875,7.940590755182504,5.753726023560762,0.10973740891739725
1790006482512546000,0.687546142578125,7.936292181205749,5.759535002100467,0.11579191405023448
1790006482522559200,0.697559326171875,7.933373078888654,5.763487539118528,0.11912180739161558
1790006482532571100,0.707571044921875,7.932078362902998,5.765182068076729,0.12328379504242912
1790006482542583300,0.717583251953125,7.931805975702405,5.765390157869458,0.1308202640950214
1790006482552596000,0.727595947265625,7.9317925316989415,5.765172131204605,0.14085034006163477
1790006482562608000,0.737608154296875,7.930668496105074,5.766480875715613,0.15026769095738418
1790006482572621000,0.74762109375,7.927752316397428,5.770273253735899,0.15833187367850915
1790006482582633000,0.757633056640625,7.923509272000193,5.775906875708699,0.16516086118202655
1790006482592645000,0.76764501953125,7.919433400863409,5.781297336575388,0.1719394702051766
1790006482602658000,0.777657958984375,7.917962159267067,5.7831181222617625,0.17832549971416592
1790006482612670200,0.787670166015625,7.920508921140432,5.779409330871701,0.18532295738607643
1790006482622683100,0.79768310546875,7.926382781609893,5.7710231953203674,0.195299558732938
1790006482632695300,0.8076953125,7.93321291989088,5.761136592078208,0.2093403773114085
1790006482642707200,0.817707275390625,7.938028211218119,5.753936451441049,0.22429171659722924
1790006482652720000,0.82772021484375,7.938837189513444,5.7522986211061475,0.23729818715928122
1790006482662732000,0.83773193359375,7.935832747000456,5.755965326920151,0.24860583618050439
1790006482672745200,0.8477451171875,7.930012662544846,5.763560604354739,0.2581815651088953
1790006482682757000,0.857757080078125,7.92209706711471,5.774159155258536,0.2642949151563458
1790006482692769000,0.86776904296875,7.912749977576732,5.786870752793551,0.2662552919765003
1790006482702782200,0.8777822265625,7.902510907635092,5.801006830173731,0.26272452403446656
1790006482712794000,0.887794189453125,7.890937374219298,5.817096379709244,0.25472859337711706
1790006482722807300,0.897807373046875,7.87605018621087,5.837697853711247,0.243937734771613
1790006482732819200,0.907819091796875,7.855169310745596,5.866280974116921,0.2312070854762569
1790006482742831000,0.9178310546875,7.827576954942941,5.903628415736556,0.2158578511803411
1790006482752844000,0.927843994140625,7.795372136908769,5.946613570982217,0.20085538449548185
1790006482762856200,0.937856201171875,7.762140313914418,5.990365034425258,0.18733005942478775
1790006482772869000,0.947869140625,7.731109800356626,6.030765433874726,0.17379527240600437
1790006482782881000,0.957881103515625,7.70400435128808,6.065760759410262,0.15892315410254523
1790006482792893400,0.9678935546875,7.679822680711745,6.096599549788237,0.14889464903851038
1790006482802906400,0.97790625,7.65696845934689,6.1253001590937375,0.14806861914368347
1790006482812918500,0.98791845703125,7.633329809606074,6.1547086244076485,0.14906276301387697
1790006482822931200,0.99793115234375,7.607354241350293,6.18689590678513,0.1444188187987078
1790006482832943400,1.007943359375,7.578154450351,6.223014098870754,0.12671170539818705
1790006482842956300,1.017956298828125,7.545038362690806,6.2637991137236355,0.08714983913209289
1790006482852968400,1.027968505859375,7.50847651849091,6.308131007403135,0.025536242973466867
1790006482862980400,1.03798046875,7.469585939082503,6.353941741463542,-0.055590785355283875
1790006482872993300,1.0479931640625,7.429371417593956,6.399223483213782,-0.1573619144015014
1790006482883005400,1.05800537109375,7.3892369756042955,6.441394983989,-0.2792689777306281
1790006482893017300,1.068017333984375,7.35013713735938,6.478496341893076,-0.41827524256184695
1790006482903030300,1.0780302734375,7.3125997261255975,6.50948652344048,-0.5682017462655902
1790006482913042400,1.08804248046875,7.276707159489392,6.5343421477556225,-0.7226999417990446
1790006482923055400,1.098055419921875,7.242120999276637,6.554150425553321,-0.8747458488095551
1790006482933067300,1.1080673828125,7.208759996944665,6.570690641465783,-1.0149875554535537
1790006482943079200,1.1180791015625,7.175803483760356,6.587199293196201,-1.1344768353175372
1790006482953092400,1.12809228515625,7.141455808478593,6.607893706178665,-1.2270868030190467
1790006482963104300,1.138104248046875,7.101590831080078,6.639045215767622,-1.288750209119171
1790006482973117400,1.148117431640625,7.049955336388945,6.68722150991559,-1.3227176529116929
1790006482983129300,1.15812939453125,6.984571886852383,6.75147040246427,-1.343048639409244
1790006482993141500,1.1681416015625,6.904952991214394,6.832144944635033,-1.3467755509778856
1790006483003154200,1.178154296875,6.8147986730366945,6.924402372571826,-1.3347462366186083
1790006483013166300,1.188166259765625,6.721940941119193,7.018018813902139,-1.3165491934098303
1790006483023179300,1.19817919921875,6.6353960456103085,7.104026533794403,-1.2941098364561796
1790006483033191400,1.20819140625,6.563125759169459,7.176788987666368,-1.260740066295862
1790006483043203300,1.218203369140625,6.503562394088506,7.238183075305819,-1.2176936823822557
1790006483053216500,1.228216552734375,6.450804617369174,7.292786772152781,-1.171646216956526
1790006483063228400,1.238228515625,6.397187593472004,7.3459163047939535,-1.133091883765161
1790006483073241300,1.248241455078125,6.335888198378682,7.404768306735158,-1.0937654702227562
1790006483083253500,1.25825341796875,6.265559693655371,7.4707526447743176,-1.0492824776347727
1790006483093265400,1.268265380859375,6.189117674487829,7.540882412055135,-1.0001497595448046
1790006483103278300,1.2782783203125,6.108576987829804,7.612777435442805,-0.9493644519422203
1790006483113290200,1.288290283203125,6.024893326970934,7.6850734408468,-0.9003869974792003
1790006483123303400,1.298303466796875,5.940353926065564,7.755490208375454,-0.8572970666848122
1790006483133315300,1.3083154296875,5.857407931831479,7.820897038787603,-0.8335089254707098
1790006483143327200,1.3183271484375,5.777775592190027,7.879695264714956,-0.8355239185549318
1790006483153340400,1.32834033203125,5.701388518080115,7.932589235034585,-0.8594052179452031
1790006483163352300,1.338352294921875,5.633397516393662,7.977222742009163,-0.893949657908082
1790006483173365200,1.348365234375,5.571096250781417,8.016613672155142,-0.9312190658554435
1790006483183377200,1.358377197265625,5.504201227638125,8.056070653274654,-0.9868492562059312
1790006483193389300,1.368389404296875,5.43065551443398,8.098623846843838,-1.0443472862549126
1790006483203402200,1.37840234375,5.352482141429186,8.144602923208474,-1.0893806062020361
1790006483213414400,1.388414306640625,5.272858569616079,8.191652259153127,-1.124365191147849
1790006483223426300,1.39842626953125,5.194019426178932,8.238396474671363,-1.1495095692764967
1790006483233439500,1.408439453125,5.118580446574091,8.284310084584355,-1.157900892459601
1790006483243451400,1.418451416015625,5.050107798850536,8.327315698096156,-1.15003958449997
1790006483253464600,1.428464599609375,4.9892152309924365,8.366017476934195,-1.134844864912331
1790006483263476500,1.4384765625,4.935293671190738,8.400159400510788,-1.1182896706264465
1790006483273488400,1.44848828125,4.887823771746456,8.430195642334223,-1.1006132172256708
1790006483283501300,1.458501220703125,4.848931146511435,8.455062957087158,-1.081746238866076
1790006483293513200,1.46851318359375,4.819209961986542,8.474318277177215,-1.0637383615538478
1790006483303526400,1.4785263671875,4.795454992389678,8.49016057395339,-1.0445916164048015
1790006483313538300,1.488538330078125,4.770049040715396,8.507925363224745,-1.0159815349269659
1790006483323550500,1.498550537109375,4.731951949772238,8.53449129858911,-0.9702981535732745
1790006483333563400,1.5085634765625,4.672969599449634,8.57285288568735,-0.9164756702318787
1790006483343575300,1.5185751953125,4.5852179584994905,8.624707576087117,-0.8721049789119512
1790006483353588200,1.528588134765625,4.4630613591223955,8.69131910611391,-0.8440630527108908
1790006483363600100,1.53860009765625,4.307997638660669,8.770445834320784,-0.8311567363213748
1790006483373612300,1.5486123046875,4.127506339214742,8.856925263378024,-0.830021814007312
1790006483383625200,1.558625244140625,3.9228830535531043,8.950055382496117,-0.8233326185669749
1790006483393637400,1.568637451171875,3.700223760463297,9.046847531253098,-0.7957783297523856
1790006483403649300,1.578649169921875,3.469677513515949,9.141864487031102,-0.7470100610606372
1790006483413662500,1.588662353515625,3.2451825294315815,9.228599352154134,-0.687111034284532
1790006483423674400,1.59867431640625,3.0396953204169868,9.303044644546508,-0.6196684602610767
1790006483433687600,1.6086875,2.8598499176591634,9.364394308522343,-0.5475076255440712
1790006483443699500,1.618699462890625,2.7064927088543773,9.413995667037367,-0.4711309632303193
1790006483453712400,1.62871240234375,2.5758506052047014,9.454415940231085,-0.38653683646302667
1790006483463724300,1.638724365234375,2.4585092971548437,9.488862399712204,-0.29597145326640456
1790006483474362400,1.6493623046875,2.3355207769982513,9.522043369302153,-0.2154667147045955
1790006483484375300,1.659375244140625,2.210574693033099,9.552742458948492,-0.16992217556601388
1790006483494387500,1.669387451171875,2.0731873529069125,9.583723288145661,-0.1565524246495217
1790006483504400100,1.679400146484375,1.930366881816089,9.613290743413566,-0.16939590493589637
1790006483514412300,1.689412353515625,1.7915854569829999,9.639497782337665,-0.2016933514232747
1790006483524424200,1.699424072265625,1.6615033253036438,9.66166343691647,-0.2491165073826909
1790006483534437400,1.709437255859375,1.5389024892903864,9.680252986574173,-0.3080426340060308
1790006483544449300,1.71944921875,1.4217347842417656,9.69584744606912,-0.3736514532636851
1790006483554462500,1.72946240234375,1.3162588321611284,9.707931851616502,-0.44037287340573966
1790006483564474400,1.739474365234375,1.235371377892047,9.715621237075329,-0.500951260748133
1790006483574486300,1.749486328125,1.1882759377833456,9.718884622785449,-0.5492461032418534
1790006483584499500,1.75949951171875,1.1709969592675566,9.718999189075827,-0.5832896079452708
1790006483594511400,1.769511474609375,1.1698906054608522,9.717880414178968,-0.6037652270779014
1790006483604524300,1.779524169921875,1.1693087869849055,9.717288293504714,-0.6143317023430019
1790006483614536200,1.7895361328125,1.1568637314315884,9.718371412566304,-0.6207395966239273
1790006483624548400,1.79954833984375,1.1283807834647595,9.721284085142612,-0.6275119403030723
1790006483634561300,1.809561279296875,1.092031851363182,9.724840316319465,-0.6366730788148939
1790006483644573400,1.819573486328125,1.0591968456666916,9.727750066286324,-0.6476038573477417
1790006483654586400,1.82958642578125,1.034103540138155,9.729944361460209,-0.6551333030045032
1790006483664598500,1.8395986328125,1.013405912285298,9.732163206553459,-0.6545142943233251
1790006483674610400,1.8496103515625,0.9888305662162601,9.735377492424846,-0.6442157492794096
1790006483684623400,1.859623291015625,0.9546112665545194,9.73992039655149,-0.6269285874571651
1790006483694635300,1.86963525390625,0.9108855220746248,9.745312026461958,-0.6079226755509153
1790006483704648200,1.879648193359375,0.8619960381560027,9.750766784736513,-0.5915380885915831
1790006483714660400,1.889660400390625,0.813738495465368,9.755586167716979,-0.5803135878091678
1790006483724672300,1.89967236328125,0.767604301604256,9.759823366895317,-0.5718429523121565
1790006483734685400,1.909685546875,0.721036538631469,9.763839032277465,-0.5638647399745881
1790006483744697300,1.919697265625,0.6672255995973945,9.768198396530746,-0.5545047178898006
1790006483754710500,1.92971044921875,0.6026827290708199,9.773024793773889,-0.5432768926391378
1790006483764722400,1.939722412109375,0.5294666862124577,9.777771111518144,-0.5340854320542886
1790006483774734300,1.949734375,0.4532407940136268,9.78186101118028,-0.5293028008876368
1790006483784747500,1.95974755859375,0.3815314659237861,9.784957808151841,-0.5285943603573366
1790006483794759400,1.969759521484375,0.31646595976259556,9.787187174639104,-0.5302722669743001
1790006483804772600,1.979772705078125,0.2578429260053672,9.788920282042026,-0.530030347977206
1790006483814784500,1.989784423828125,0.20638821297492832,9.790455821046233,-0.5241685798043385
1790006483824797700,1.999797607421875,0.16412302430057898,9.791827693921327,-0.5133788537099957
1790006483834809600,2.0098095703125,0.1394312487776391,9.792825472787023,-0.5015114153815433
1790006483844821800,2.01982177734375,0.14913266817862167,9.793191383489965,-0.4914715943390503
1790006483854834400,2.02983447265625,0.1676052038605325,9.792772281295061,-0.4938679148910567
1790006483864846600,2.0398466796875,0.18771933273700997,9.79189666750431,-0.5039179650666192
1790006483874859500,2.049859619140625,0.20645035495832562,9.791053202417492,-0.5128679085131734
1790006483884871400,2.059871337890625,0.22350385415516794,9.790586753949523,-0.5146056555585935
1790006483894883600,2.069883544921875,0.23815434733089058,9.79073989868462,-0.5050341461475938
1790006483904896500,2.079896484375,0.2495985187459737,9.791605575603246,-0.4822274902515113
1790006483914908700,2.08990869140625,0.2586733489475213,9.792963419952988,-0.44872653145957736
1790006483924921600,2.099921630859375,0.2676758628315292,9.794330616652966,-0.4121150028990581
1790006483934933800,2.109933837890625,0.27435506660081443,9.795535316267609,-0.3776460758578032
1790006483944946400,2.119946533203125,0.27720824580853803,9.796666366124153,-0.34478374376296994
1790006483954958600,2.12995849609375,0.2752100759949535,9.797805599287152,-0.31250165924150497
1790006483964970500,2.139970458984375,0.26837622965322805,9.798837864944339,-0.2848523490872234
1790006483974983700,2.149983642578125,0.25788249083077536,9.799699450209737,-0.2641487664176151
1790006483984995600,2.15999560546875,0.24324914971925315,9.800572725912929,-0.24497429301142692
1790006483995008800,2.1700087890625,0.2242240216558799,9.801565244081615,-0.22233155897278337
1790006484005020700,2.180020751953125,0.20246656428547574,9.802590495476126,-0.1964831242280081
1790006484015032600,2.190032470703125,0.18053217944558708,9.803557294681667,-0.16753164543397725
1790006484025045800,2.200045654296875,0.16027617614669723,9.804376209849119,-0.137551581644034
1790006484035057700,2.2100576171875,0.14187108881096355,9.804999894705414,-0.11067574008028022
1790006484045070600,2.220070556640625,0.12479718614690936,9.805434194469452,-0.09097899636565707
1790006484055082500,2.23008251953125,0.11803582051950506,9.80560312129557,-0.08120945276506245
1790006484065095700,2.240095703125,0.1670528854737058,9.804882405805587,-0.08215877111284062
1790006484075107600,2.250107666015625,0.2212298813411966,9.803712192982434,-0.09307766741164959
1790006484085119500,2.260119384765625,0.2799431323988363,9.802181330153346,-0.09621853185379878
1790006484095132700,2.270132568359375,0.33824783918820317,9.800450560837984,-0.08453916344335302
1790006484105144600,2.28014453125,0.3984231621550396,9.79836732482314,-0.06027716677295975
1790006484115157500,2.290157470703125,0.4591006259577349,9.795863817569613,-0.025830862555466592
1790006484125169400,2.30016943359375,0.5159919588178395,9.793046422061323,0.019364194141875485
1790006484135181600,2.310181640625,0.5658376840153708,9.790042564070225,0.072663281513541
1790006484145194500,2.320194580078125,0.6085607177261263,9.786917710047959,0.12761140331742352
1790006484155206700,2.33020654296875,0.6406990463953465,9.784017312431335,0.18141453350437803
1790006484165219600,2.340219482421875,0.6525964049380272,9.782150349515677,0.2325097107737325
1790006484175231700,2.350231689453125,0.6392907870326191,9.781773332896828,0.2803446441381238
1790006484185244700,2.36024462890625,0.6145917415186762,9.782133982902765,0.32016247619297356
1790006484195256800,2.3702568359375,0.601406717785634,9.782406954625248,0.33646603380534795
1790006484205268700,2.380268798828125,0.5906122424509376,9.782827810385823,0.3432891578236595
1790006484215281400,2.390281494140625,0.5759840707048773,9.783403564447164,0.35163262327704575
1790006484225293600,2.40029345703125,0.5663030365047976,9.783937232932448,0.35252694176826627
1790006484235306500,2.410306396484375,0.5597046611530706,9.784428815841673,0.3493929545914754
1790006484245318700,2.420318603515625,0.5566290896326304,9.784794726544618,0.34398525032904
1790006484255330600,2.43033056640625,0.5475878511734307,9.785493230202794,0.3386174031529575
1790006484265343700,2.44034375,0.5380799085179343,9.786346632161736,0.32908191490340977
1790006484275355600,2.450355712890625,0.5371328369261696,9.787038121557234,0.3094416506163776
1790006484285368600,2.46036865234375,0.540897413624078,9.787563606736063,0.28529996499055993
1790006484295380500,2.47038037109375,0.5462589406572282,9.787810274973511,0.2659984859375283
1790006484305393700,2.4803935546875,0.5538171740170568,9.787566529345511,0.25922126515386623
1790006484315405600,2.490405517578125,0.5608636949950829,9.786988437196612,0.2658134482268244
1790006484325417500,2.50041748046875,0.5687602934638037,9.786233819437026,0.27662187902163715
1790006484335430700,2.5104306640625,0.5799047512799501,9.785304429632424,0.28619859433071687
1790006484345442600,2.520442626953125,0.5934094719540327,9.784287946066259,0.29318111016182224
1790006484355455700,2.530455810546875,0.6095093967530876,9.783182030650973,0.2970683451250195
1790006484365467600,2.540467529296875,0.6304300197068602,9.781830031520128,0.29793089850479737
1790006484375479800,2.550479736328125,0.6565627512857317,9.780098677682876,0.29829522003885356
1790006484385492500,2.560492431640625,0.6886747034046798,9.777903213465214,0.29783388613741846
1790006484395504600,2.570504638671875,0.719717491922155,9.775682030284404,0.29738119220016523
1790006484405517600,2.580517578125,0.7488173296783119,9.773286659580469,0.30418464340362694
1790006484415529500,2.590529541015625,0.7757246258262545,9.770744573882222,0.3180957894541323
1790006484425542700,2.600542724609375,0.797484987539798,9.768467276600003,0.33384277262967077
1790006484435554600,2.610554443359375,0.8124827963158487,9.766653505176306,0.3503319524746388
1790006484445566700,2.620566650390625,0.8206661758366972,9.76539736763537,0.3659340472867712
1790006484455579400,2.630579345703125,0.8257727051954716,9.7645001265347,0.37819596482552587
1790006484465591600,2.640591552734375,0.8307078965753316,9.763677119714021,0.3884626534264535
1790006484475604500,2.6506044921875,0.8352299040444194,9.762901459166407,0.3981357235157862
1790006484485616600,2.66061669921875,0.8403122488100081,9.762118199834227,0.40655524988006797
1790006484495628500,2.670628662109375,0.8454263769533484,9.7614793174088,0.41128337438050655
1790006484505641700,2.680641845703125,0.8494851508248596,9.761133280450105,0.41116665266565977
1790006484515653600,2.690653564453125,0.8541810535561293,9.760893041953445,0.4070879685172811
1790006484525666800,2.700666748046875,0.8605877057280391,9.760665662938356,0.3989439346261322
1790006484535678700,2.7106787109375,0.8667151756323873,9.76058499891758,0.38748924181703476
1790006484545690600,2.720690673828125,0.8665664878766983,9.761063137823342,0.37563605120964344
1790006484555703600,2.73070361328125,0.8547637488149106,9.762497554540634,0.36525136225223537
1790006484565715500,2.740715576171875,0.8356404576066881,9.76446271713376,0.3568567876661196
1790006484575728600,2.750728759765625,0.8158525650098919,9.766454767733812,0.3480368638074025
1790006484585740500,2.760740478515625,0.791819582189247,9.768612822550535,0.34295276547614484
1790006484595753700,2.770753662109375,0.7658294739514588,9.770732298922539,0.34157979662250726
1790006484605765600,2.780765625,0.7453611248098313,9.772302909240127,0.3419093939030543
1790006484615777500,2.790777587890625,0.7403044259421527,9.7728202111125,0.33810090499818324
1790006484625790700,2.800790771484375,0.755890190673992,9.772171391814947,0.32202392268329855
1790006484635802600,2.810802734375,0.7630896006587893,9.772007141163945,0.30974808621704575
1790006484645815600,2.820815673828125,0.7598808677453547,9.772118200322986,0.31410354148019104
1790006484655827500,2.830827392578125,0.7674157202295958,9.771379364654422,0.3187460335237905
1790006484665839600,2.840839599609375,0.795894941869378,9.769394912838935,0.30958865787163375
1790006484675852500,2.8508525390625,0.8399438538890331,9.76621569828093,0.2931196440318599
1790006484685864700,2.86086474609375,0.8865905273169279,9.762533794897793,0.27798648190572856
1790006484695877600,2.870877685546875,0.9232827198982239,9.759382637390495,0.26904621960297226
1790006484705889800,2.880889892578125,0.9514564557854086,9.756678639128804,0.2689537738128565
1790006484715901700,2.890901611328125,0.973860376099497,9.75429905051589,0.2750348290259018
1790006484725914400,2.900914306640625,0.9891600904315709,9.752437932819127,0.28613915576105936
1790006484735926500,2.910926513671875,0.9971516006421297,9.751139709702134,0.302284746332746
1790006484745939500,2.920939453125,0.9988462757308035,9.750364633676408,0.32108276937566693
1790006484755951600,2.93095166015625,1.0021168218340724,9.749398418992758,0.33968386334069073
1790006484765964500,2.940964599609375,1.002735319058597,9.748640878623723,0.3589908040201291
1790006484775976700,2.950976806640625,0.9966922395020723,9.748320560628175,0.38370840810406953
1790006484786003700,2.961003662109375,0.9852332723766565,9.748382519948482,0.41080549120306964
1790006484796017000,2.971016845703125,0.9711854578018188,9.748566644343732,0.43888552092481403
1790006484806028800,2.98102880859375,0.9608901276282965,9.748359139072894,0.46537897557485847
1790006484816042000,2.9910419921875,0.9576649550367147,9.747551329821347,0.48837980233617123
1790006484826054000,3.001053955078125,0.9616611120007932,9.746282917320729,0.5055254367958754
1790006484836065800,3.011065673828125,0.9731559541571885,9.744646840551495,0.5149843892104924
1790006484846079000,3.021078857421875,0.9878721695128828,9.742936529502272,0.5193053576821461
1790006484856091000,3.0310908203125,1.000294428712502,9.7414272939831,0.5238065050262958
1790006484866103800,3.041103759765625,1.0078764082740992,9.740192783752084,0.5321694788977503
1790006484876115700,3.05111572265625,1.0128349805295467,9.739257548728585,0.5398089608002453
1790006484886129000,3.06112890625,1.0202226796280591,9.738375505197048,0.5418225291123614
1790006484896140800,3.071140869140625,1.0308760294590145,9.737369543024897,0.539705536958389
1790006484906153000,3.081153076171875,1.0421540870595722,9.7362642121315,0.5379935819413513
1790006484916166000,3.091165771484375,1.0512112537402658,9.735339498502016,0.5371431391244754
1790006484926178000,3.101177978515625,1.0583084454596041,9.73449369532764,0.5385251680674031
1790006484936190700,3.111190673828125,1.0648556751459837,9.733603468489646,0.5416934228399768
1790006484946203000,3.121202880859375,1.0730925384197383,9.732595168229937,0.5435536637539043
1790006484956214800,3.13121484375,1.0854846947420387,9.731231478661298,0.543340751655586
1790006484966227700,3.141227783203125,1.1026054870214312,9.729337043216823,0.5427904973616823
1790006484976239900,3.151239990234375,1.1227542488198727,9.726924721378088,0.544724936022982
1790006484986252800,3.161252685546875,1.143300850829482,9.72419558867514,0.5507082482162863
1790006484996265000,3.171264892578125,1.1630413240879773,9.721334938547015,0.5597906954687089
1790006485006276900,3.18127685546875,1.1810498589873313,9.718523388257623,0.5707836159849539
1790006485016290000,3.1912900390625,1.1966746405553073,9.716019296482205,0.5807696244809776
1790006485026302000,3.201302001953125,1.2117787592500449,9.713691730317473,0.588347183595784
1790006485036315000,3.21131494140625,1.2271201207667588,9.711306881007552,0.5958917172238231
1790006485046326800,3.221326904296875,1.2429704547189175,9.70886884020567,0.6027314270507544
1790006485056340000,3.231340087890625,1.2606379210956393,9.706270640406013,0.6078501217713579
1790006485066351900,3.241351806640625,1.2808473270401357,9.70332640364766,0.6125851509366184
1790006485076363800,3.25136376953125,1.3010754376851021,9.700280460080505,0.6181850167702884
1790006485086377000,3.261376953125,1.3173283610887825,9.697726099422573,0.6238166659817099
1790006485096388900,3.271388916015625,1.3295575819343328,9.695582073131202,0.6311426249556243
1790006485106402000,3.281402099609375,1.3390700911670923,9.69364730567634,0.6406740580845623
1790006485116414000,3.2914140625,1.3491273748010397,9.691516723388434,0.6517060319695621
1790006485126425900,3.30142578125,1.3616393581107258,9.688881698709725,0.6647407970443368
1790006485136438800,3.311438720703125,1.375571291220933,9.68568436397314,0.6824127934657037
1790006485146451000,3.321450927734375,1.3885747113093734,9.682149760106205,0.7058571627434342
1790006485156463900,3.3314638671875,1.3999467308036981,9.67839362244308,0.7343244016844779
1790006485166475800,3.341475830078125,1.410192668877542,9.674472065085173,0.7657268172945827
1790006485176489000,3.351489013671875,1.4213782258890568,9.670364045244455,0.7963335524823516
1790006485186500900,3.3615009765625,1.4344272386848926,9.666204587477445,0.8229786905627697
1790006485196513000,3.371512939453125,1.4508702778331934,9.662430329635738,0.8383291121687739
1790006485206525700,3.381525634765625,1.474390561891347,9.659153499922155,0.835053670694679
1790006485216537900,3.391537841796875,1.504835092254728,9.655270521008967,0.8255944260191171
1790006485226550800,3.40155078125,1.5472599832691252,9.64877706733644,0.8230839045029134
1790006485236563000,3.41156298828125,1.588101989006251,9.642758829960226,0.8157964509084821
1790006485246574800,3.421574951171875,1.6087176376640795,9.63954512861073,0.813373899936676
1790006485256588000,3.431588134765625,1.6093876458801328,9.639142977550625,0.816802193884924
1790006485266600000,3.441599853515625,1.6088140837758778,9.639139470419288,0.81798468166776
1790006485276613000,3.451613037109375,1.6130870849199592,9.63859177340865,0.8160153543561697
1790006485286625000,3.461625,1.6099555088959634,9.639141808506846,0.8156919676207005
1790006485296637000,3.471636962890625,1.6021319756634533,9.64027402740717,0.8177198932517319
1790006485306649900,3.48164990234375,1.6013757504686712,9.640378072303532,0.8179692649029194
1790006485316661800,3.491661865234375,1.6015147205479443,9.640316697505115,0.818422050171718
1790006485326675000,3.501675048828125,1.5993177950255573,9.640628832194208,0.8190412049833685
1790006485336686800,3.511686767578125,1.596840445126593,9.641048518911003,0.8189416901316493
1790006485346700000,3.521699951171875,1.6019330920904873,9.640482117199896,0.8156514164146036
1790006485356712000,3.5317119140625,1.6088294274754822,9.639631637850403,0.8121242652017623
1790006485366723800,3.541723876953125,1.6088080924265085,9.639753218403458,0.8107310572776943
1790006485376736800,3.55173681640625,1.6056415912196038,9.64036521282196,0.809736639412865
1790006485386748700,3.561748779296875,1.606037750930339,9.640371058040857,0.8088779767569154
1790006485396761900,3.571761962890625,1.609382531313598,9.64013900285065,0.8049811154488473
1790006485406773800,3.581773681640625,1.6128249268524348,9.640070613789558,0.7988927354458719
1790006485416786000,3.591785888671875,1.612758145226538,9.64042074240148,0.7948020320661365
1790006485426798800,3.601798828125,1.609626861463487,9.641003510725497,0.7940579357005655
1790006485436811000,3.61181103515625,1.6073260371752083,9.641288172885774,0.7952706724911928
1790006485446824000,3.621823974609375,1.6075617456272244,9.641171853029727,0.7962063459061086
1790006485456836000,3.631836181640625,1.608493911910802,9.64092284670472,0.7973502552442252
1790006485466848800,3.641848876953125,1.6100865879297255,9.640703066474199,0.7967715055081993
1790006485476861000,3.65186083984375,1.6119504821054635,9.640520695644616,0.7951988493639975
1790006485486872800,3.661872802734375,1.6121701162055133,9.64058616209626,0.7939731069613247
1790006485496885800,3.6718857421875,1.6117137507401407,9.64081412563324,0.7921377082277089
1790006485506898000,3.68189794921875,1.613579836872965,9.640729954481124,0.7893580874465406
1790006485516910800,3.691910888671875,1.6170409371122716,9.640509005206823,0.7849458970274775
1790006485526923000,3.701923095703125,1.6234364833682775,9.64062298697531,0.7702033051215111
1790006485536935000,3.711934814453125,1.633759286070615,9.64099649646282,0.7432353648275136
1790006485546947800,3.72194775390625,1.645117861561477,9.641483403196931,0.7111722933515906
1790006485556959700,3.731959716796875,1.6536042426168918,9.642261401832103,0.6802877641357481
1790006485566973000,3.741972900390625,1.6593595912732182,9.643169748848676,0.6528228341050446
1790006485576984800,3.75198486328125,1.6628939028792082,9.644130702835321,0.6292053732827305
1790006485586998000,3.761998046875,1.664775332711637,9.644995795232058,0.6106994467878714
1790006485597010000,3.772010009765625,1.6642334809198975,9.645782561695576,0.5996477087564767
1790006485607021800,3.782021728515625,1.6635427221767602,9.646173022317885,0.5952838509911671
1790006485617035000,3.792034912109375,1.6630821189276872,9.646358900278805,0.5935428890753537
1790006485627047000,3.802046875,1.6620688502319156,9.646642393395304,0.591785889340192
1790006485637059800,3.812059814453125,1.658823000178486,9.647457216909528,0.5875935156842693
1790006485647071700,3.82207177734375,1.651954283452779,9.6492213039726,0.5778949092948809
1790006485657084000,3.832083984375,1.6453852803260087,9.651149057164787,0.5642984186841175
1790006485667096800,3.842096923828125,1.6422098651602863,9.652681089037657,0.5470803035100922
1790006485677109000,3.85210888671875,1.6402615075714886,9.653991587114334,0.5295180145408958
1790006485687122000,3.862121826171875,1.6397361685231326,9.655186934378742,0.508950114014931
1790006485697133800,3.8721337890625,1.6403635066412388,9.656462361142038,0.4820166970450431
1790006485707147000,3.88214697265625,1.6451957491032778,9.65737538433373,0.44589850495941935
1790006485717159000,3.892158935546875,1.6557498763434588,9.657609777611494,0.3993190880814567
1790006485727171000,3.902171142578125,1.6695229656301438,9.657115272092819,0.35101639107484367
1790006485737183700,3.912183837890625,1.688600444935262,9.655362290945648,0.30493770852694285
1790006485747196000,3.92219580078125,1.7134353187233209,9.652308164072036,0.25976167390719057
1790006485757208800,3.932208740234375,1.7363992840729652,9.649256959807872,0.21713773492304608
1790006485767221000,3.942220947265625,1.746369035553932,9.648032386448978,0.18986016242429612
1790006485777233000,3.95223291015625,1.7473533704161643,9.647912559461593,0.1868552815198898
1790006485787230700,3.962230712890625,1.7505336078874765,9.647264324685931,0.1904857469767332
1790006485797242600,3.97224267578125,1.7523235600441693,9.646808982133864,0.1970673173241317
1790006485807255800,3.982255859375,1.7535395117051897,9.646427289339899,0.2047768322555348
1790006485817267700,3.992267822265625,1.7548799665287136,9.646015201407671,0.21254985914351418
1790006485827279600,4.002279541015625,1.7566463916793464,9.645569795727729,0.21809344647899268
1790006485837292500,4.01229248046875,1.7580074508994816,9.645219082593917,0.222570208300557
1790006485847304700,4.0223046875,1.7592950064919888,9.644897595554589,0.22633283050339667
1790006485857317600,4.032317626953125,1.760372572595626,9.644625792875885,0.22951144227320328
1790006485867329500,4.04232958984375,1.7613306039728223,9.64437211037576,0.2327555387609638
1790006485877342700,4.0523427734375,1.7618563814125954,9.644203183549642,0.23578135285554452
1790006485887354600,4.062354736328125,1.7620982273444532,9.644097385087608,0.23829150904556734
1790006485897366500,4.072366455078125,1.7619902369253337,9.643988664016128,0.2434808761158958
1790006485907379700,4.082379638671875,1.7618740631997585,9.643837272846698,0.25019664903590455
1790006485917391600,4.0923916015625,1.7627865018695592,9.643604633134602,0.2526660530904308
1790006485927404500,4.102404541015625,1.7643254018746315,9.643359133940935,0.2513005916898139
1790006485937416400,4.11241650390625,1.7659866130851207,9.643130001360177,0.24843464433206244
1790006485947428600,4.1224287109375,1.768581451883912,9.642797408404945,0.24284572001751512
1790006485957441500,4.132441650390625,1.7722588252224027,9.642381228819488,0.23230344761190935
1790006485967453700,4.14245361328125,1.7768677803225814,9.641918872004746,0.21567747137844562
1790006485977466600,4.152466552734375,1.7809456972859798,9.641489248415827,0.20078719636378808
1790006485987478800,4.162478759765625,1.785415828437358,9.640870824256538,0.19051444334825499
1790006485997491700,4.17249169921875,1.7897047578029333,9.640210899043083,0.18351652901861815
1790006486007504000,4.18250390625,1.7934651332497595,9.63958136896789,0.17986036286493762
1790006486017515800,4.192515869140625,1.7968708500400186,9.638962360286712,0.17901362810879945
1790006486027528400,4.202528564453125,1.8004313190005719,9.638296005332469,0.17917552240593357
1790006486037540600,4.21254052734375,1.8043125443480907,9.637563014882803,0.17953735972195864
1790006486047553500,4.222553466796875,1.8081738959513605,9.636801382860542,0.18150323470113797
1790006486057565700,4.232565673828125,1.811807576278597,9.636064300757646,0.18432231070986016
1790006486067577600,4.24257763671875,1.8148719322852789,9.63538742440939,0.1894953842325136
1790006486077590800,4.2525908203125,1.8171574128739534,9.634822191742062,0.19621667357785627
1790006486087602700,4.262602783203125,1.8192077695325015,9.634294368475675,0.20303663752470164
1790006486097615600,4.27261572265625,1.8210772166661917,9.633771805906296,0.2109283223562874
1790006486107627500,4.28262744140625,1.8232583600975572,9.633181438797711,0.218905913639348
1790006486117640700,4.292640625,1.82572898799479,9.632567106291651,0.22523385628554968
1790006486127652600,4.302652587890625,1.8281632294043897,9.631940498825907,0.23221014330526812
1790006486137664500,4.31266455078125,1.8305764280259609,9.631331427016853,0.23840784716792404
1790006486147677700,4.322677734375,1.8323812854908406,9.63089011299014,0.24234746990548445
1790006486157689600,4.332689697265625,1.8340635394893585,9.63049848332405,0.24513101794309913
1790006486167702800,4.342702880859375,1.8356164680197833,9.630137248796224,0.24769800062058492
1790006486177714700,4.352714599609375,1.8371048068813978,9.629783028531074,0.2504783885867335
1790006486187726800,4.362726806640625,1.8385417078167199,9.629428808265924,0.25345954155568035
1790006486197739500,4.372739501953125,1.8397918540082872,9.629130702102184,0.2557171477567404
1790006486207751700,4.382751708984375,1.840371699722856,9.62898983232677,0.25686984318951145
1790006486217764600,4.3927646484375,1.8406094540014861,9.628936056312918,0.2571852110153064
1790006486227776500,4.402776611328125,1.840837125277519,9.628848378029465,0.2588225116272457
1790006486237788700,4.41278857421875,1.8410970913879572,9.62863502753973,0.2648187381010502
1790006486247801600,4.422801513671875,1.8418999322034417,9.628220016998052,0.27418210292039435
1790006486257813800,4.432813720703125,1.8433694202341138,9.627649523633718,0.28414295870885253
1790006486267826400,4.442826416015625,1.8452793455086647,9.626948681887983,0.29525269227148965
1790006486277838600,4.452838623046875,1.846666415952891,9.626255438926815,0.3088760160902515
1790006486287851500,4.4628515625,1.8478234770335256,9.625535307958721,0.3240294172868132
1790006486297863700,4.47286376953125,1.8487227639608084,9.624953708678483,0.3359550886085257
1790006486307875600,4.48287548828125,1.8494905334629117,9.624503042301535,0.34455479384530335
1790006486317888800,4.492888671875,1.850138037586212,9.624106151938438,0.3520911441668868
1790006486327900700,4.502900634765625,1.8504254762254655,9.623805707687138,0.35872364098392423
1790006486337913900,4.512913818359375,1.85052411429435,9.623446811246872,0.3677310867713764
1790006486347925800,4.52292578125,1.8506237752765415,9.623052258971333,0.3773887035632506
1790006486357937700,4.532937744140625,1.85101832755208,9.622690439921618,0.3846393322786316
1790006486367950600,4.54295068359375,1.8516263764478265,9.622262569898366,0.3923488106774166
1790006486377962500,4.55296240234375,1.8521746579803526,9.621824178481102,0.40040841768812385
1790006486387975700,4.5629755859375,1.8524483603551982,9.621407414373754,0.40908853121735156
1790006486397987600,4.572987548828125,1.8524327243946492,9.621130935519933,0.4156169831380248
1790006486407999700,4.582999755859375,1.8524337473079562,9.62097019200027,0.41929041095376013
1790006486418012700,4.5930126953125,1.8524999444119632,9.620911155289411,0.42033831257149573
1790006486428024600,4.603024658203125,1.8526628798887133,9.620863809016347,0.4207229645075276
1790006486438037800,4.613037841796875,1.8528915740780532,9.620810033002495,0.4209461422715336
1790006486448049700,4.623049560546875,1.853310530142486,9.620713586890696,0.4212871377289295
1790006486458062600,4.6330625,1.8536355243131517,9.620582653987407,0.4228439021842554
1790006486468074500,4.643074462890625,1.853886138073355,9.62035469045043,0.4269119188081473
1790006486478086700,4.653086669921875,1.854765843517333,9.6199993011415,0.43110268502887333
1790006486488099600,4.663099609375,1.8565008506163954,9.619488429009914,0.43501744731981307
1790006486498111700,4.67311181640625,1.858516720483452,9.619000937753915,0.43718602353055025
1790006486508124700,4.683124755859375,1.8605515873119234,9.618533904764055,0.4388125652864575
1790006486518136800,4.69313671875,1.8626389149799942,9.618103696653247,0.43938064749799666
1790006486528148700,4.703148681640625,1.8644456721410154,9.617747722822427,0.43951369929313655
1790006486538161700,4.71316162109375,1.8657862730950117,9.617431496480107,0.4407366286842152
1790006486548173600,4.723173583984375,1.867144263575226,9.617074938127399,0.442755676889047
1790006486558186500,4.7331865234375,1.8690758161596952,9.61664005384147,0.44405094086397434
1790006486568198700,4.74319873046875,1.8705248459242283,9.616227381387352,0.4468766292765736
1790006486578210600,4.75321044921875,1.8708042473874984,9.616090603265166,0.4486564618980512
1790006486588223700,4.7632236328125,1.8711817023977637,9.615995326197147,0.4491236410183832
1790006486598235600,4.773235595703125,1.871160659609735,9.61598948097825,0.4493217574063688
1790006486608248800,4.783248779296875,1.8708911950185894,9.616048517689109,0.4492059490069747
1790006486618260700,4.7932607421875,1.8703113493040202,9.616254853916168,0.44716910941712557
1790006486628272600,4.803272705078125,1.869507193314284,9.616532501813769,0.44456911951918154
1790006486638285600,4.81328564453125,1.8685519384160636,9.616803135448693,0.4427188154773786
1790006486648297500,4.82329736328125,1.8686374247424304,9.616858665028214,0.44114239647351206
1790006486658310700,4.833310546875,1.8692437200725078,9.616797874751686,0.4398998855991289
1790006486668322600,4.843322509765625,1.8697731507740913,9.616781508138775,0.4379775757670402
1790006486678335700,4.853335693359375,1.8704400902502238,9.616858080506324,0.4334476772524416
1790006486688347600,4.86334765625,1.8714156572841107,9.61688438399136,0.42864363797158
1790006486698359800,4.87335986328125,1.8724625359885394,9.616902504169941,0.4236189051447436
1790006486708372500,4.88337255859375,1.8734056620575485,9.61694225165844,0.41852801174651827
1790006486718384600,4.893384521484375,1.8739809777274727,9.616987844365834,0.414877818675898
1790006486728397600,4.9033974609375,1.8744053406193852,9.617005380022524,0.41254689151030033
1790006486738409500,4.913409423828125,1.8746540546834467,9.617077860736847,0.4096937671015039
1790006486748421600,4.923421630859375,1.8746914640843868,9.617250879216193,0.4054495901931077
1790006486758434600,4.9334345703125,1.8750510911770164,9.617525604504346,0.3971896383047104
1790006486768446700,4.94344677734375,1.8753806153923271,9.617722003859281,0.39085641669519244
1790006486778459600,4.953459716796875,1.875062050962448,9.617861704590917,0.38891638854332267
1790006486788472000,4.96347216796875,1.8748108526803553,9.61793126269579,0.38841417464222755
1790006486798484000,4.97348388671875,1.8748830411337314,9.617934185305238,0.3879877659237012
1790006486808497000,4.983496826171875,1.87510019101575,9.617922494867443,0.3872601457688957
1790006486818509000,4.993509033203125,1.875233608137071,9.618006081497668,0.3845288576414808
1790006486828522000,5.00352197265625,1.8752585964478552,9.618346273237465,0.3757702720485627
1790006486838534100,5.0135341796875,1.8757474028781056,9.61875076238513,0.36275556338112797
1790006486848546000,5.023546142578125,1.8762831171900032,9.618921442776918,0.3553757553281262
1790006486858559200,5.033559326171875,1.87662506249547,9.618876434591412,0.35478440183885396
1790006486868571100,5.043571044921875,1.8772623374857007,9.618745501688123,0.3549983733830973
1790006486878583800,5.053583740234375,1.8778626414664088,9.618628012788296,0.355001040264219
1790006486888596000,5.063595947265625,1.8781639625005422,9.618566637989877,0.3550346868054941
1790006486898607900,5.07360791015625,1.8782154004268348,9.618559623727203,0.35497283708304167
1790006486908621000,5.08362109375,1.8782218301676212,9.61856371538043,0.35481044959556307
1790006486918633000,5.093633056640625,1.878227236995101,9.618594110518693,0.35396548667140304
1790006486928646100,5.103646240234375,1.87811676235795,9.618677697148918,0.3522938271321356
1790006486938658000,5.113657958984375,1.8777413531742988,9.618798108658194,0.3510015588318929
1790006486948670000,5.123669921875,1.8777433990009127,9.618772389695048,0.3516640413286164
1790006486958683100,5.13368310546875,1.877946520357579,9.618706923243403,0.3523635679000988
1790006486968695000,5.143695068359375,1.8779700473636387,9.61871043037474,0.35214700253996994
1790006486978708000,5.1537080078125,1.8778348766766488,9.618756023082137,0.3516316003637388
1790006486988719900,5.163719970703125,1.8775887929610906,9.618822074055672,0.35114852955453096
1790006486998733000,5.173733154296875,1.8773451934635639,9.618922611820697,0.34970231280159203
1790006487008745000,5.183744873046875,1.8776728179827331,9.61901029010415,0.345491453640908
1790006487018757000,5.193757080078125,1.8787666045688092,9.618893385726214,0.3427978671753779
1790006487028770000,5.20377001953125,1.8800452462024986,9.618684711411595,0.34164098875783383
1790006487038782200,5.2137822265625,1.881453505565226,9.618512277454137,0.3387535967532545
1790006487048795000,5.223794921875,1.8844686156027017,9.618156888145208,0.3320283801514655
1790006487058806800,5.233806884765625,1.8897855728417634,9.617381227597594,0.3241661588763818
1790006487068819000,5.24381884765625,1.892496293105185,9.616909518432617,0.32234931871276346
1790006487078831900,5.253831787109375,1.8939537984371184,9.61660381348431,0.32289716185387224
1790006487088844000,5.263843994140625,1.8948589305832981,9.616395139169692,0.3237962295854464
1790006487098857000,5.27385693359375,1.8950472927622497,9.61636123690009,0.3237057382903993
1790006487108869000,5.283869140625,1.8947307741589843,9.616428456917404,0.3235768146811053
1790006487118881000,5.293881103515625,1.8944937505327164,9.61645534492433,0.32416305360384284
1790006487128894200,5.303894287109375,1.894882457589358,9.616347792896628,0.32502796333748846
1790006487138906000,5.313906005859375,1.894991617052257,9.616301615667343,0.3257784163786098
1790006487148919000,5.3239189453125,1.8948080771788953,9.616346039330958,0.3255744547717273
1790006487158931000,5.333930908203125,1.8944523956090211,9.616407414129377,0.325794088871777
1790006487168942800,5.34394287109375,1.8945637470290064,9.616356560724974,0.3266551626805216
1790006487178956000,5.3539560546875,1.8949648751758037,9.616241409912705,0.32773992570992555
1790006487188968000,5.363968017578125,1.894998923575878,9.616191141030193,0.3289762625718489
1790006487198981000,5.373981201171875,1.894640173266083,9.61623498017192,0.32977808047402646
1790006487208993000,5.383992919921875,1.8942228246368467,9.61628641809821,0.3306499314051121
1790006487219005200,5.394005126953125,1.8940275943256915,9.616274143138527,0.3321350553963333
1790006487229017900,5.404017822265625,1.8943989118561146,9.616126843622327,0.33430447185728696
1790006487239030000,5.414030029296875,1.8947963867411017,9.615977790540457,0.3363228259423747
1790006487249043000,5.42404296875,1.895150022484362,9.615786651882528,0.3397843645730987
1790006487259054800,5.434054931640625,1.8954152492918073,9.61556044191122,0.34466150562278924
1790006487269067000,5.44406689453125,1.896163729571551,9.615230771565436,0.34970019390974194
1790006487279080000,5.454079833984375,1.8975401324912904,9.614767830228805,0.3548845377450809
1790006487289092000,5.464092041015625,1.8992802541568874,9.6143089805454,0.35804183273222295
1790006487299105000,5.47410498046875,1.9008542254753409,9.61393897818923,0.3596162424420938
1790006487309117200,5.4841171875,1.9022274135246873,9.613595279318094,0.3615238296290859
1790006487319129000,5.494129150390625,1.9037552076138555,9.613224107918143,0.3633266777999699
1790006487329142000,5.50414208984375,1.9056277234874666,9.612810266420244,0.3644677741264924
1790006487339154000,5.51415380859375,1.907180213626474,9.612430911713838,0.36634354140311476
1790006487349167000,5.5241669921875,1.9081769695788622,9.612154432860017,0.3684181557200849
1790006487359179000,5.534178955078125,1.908795539868623,9.611976153683662,0.3698244788540527
1790006487369191000,5.54419091796875,1.9084584168687462,9.61201414760649,0.37059520749822256
1790006487379204000,5.5542041015625,1.9078676113687454,9.612115269893406,0.3710382385579869
1790006487389216000,5.564216064453125,1.9075548921577632,9.612163785210251,0.37138752691969273
1790006487399229000,5.57422900390625,1.9075348722830414,9.612149756684898,0.37185466950740664
1790006487409241000,5.584240966796875,1.9073589311942456,9.612162616166472,0.37240013802833855
1790006487419253000,5.5942529296875,1.9066212645694611,9.612274259847402,0.3732957351611927
1790006487429266000,5.604265869140625,1.9056116491355002,9.61242798910439,0.3745190664110705
1790006487439278000,5.614278076171875,1.9048716444231568,9.612527357825636,0.3757185418613255
1790006487449291000,5.624291015625,1.9041027058772741,9.612647184813023,0.3765523988695815
1790006487459303000,5.634302978515625,1.9032607020951806,9.612791561719774,0.3771008265325799
1790006487469315000,5.644315185546875,1.9024036468744276,9.612952889761328,0.37731026803217826
1790006487479328000,5.654327880859375,1.9015059673823416,9.613128830850124,0.37737029112372544
1790006487489340200,5.664340087890625,1.9009518406309187,9.613233460268377,0.37752000179272144
1790006487499352000,5.67435205078125,1.9006790150389075,9.613277883931994,0.37775801179967816
1790006487509365000,5.684364990234375,1.90046434937492,9.613300680285692,0.3782465625016019
1790006487519377000,5.694376953125,1.8999960012108086,9.613376083609461,0.3787046815326437
1790006487529390000,5.70439013671875,1.8990318323537707,9.613533904519677,0.37953415462672707
1790006487539402000,5.714402099609375,1.898139851950109,9.61367886594832,0.3803110938159749
1790006487549414000,5.724413818359375,1.8979865610845386,9.613680619513987,0.38103933502528814
1790006487559427000,5.734427001953125,1.8980130107000468,9.613626258978247,0.3822550674906
1790006487569439000,5.74443896484375,1.8977344860196113,9.613611061409115,0.38400099784247577
1790006487579452200,5.7544521484375,1.897196872011572,9.613654900550841,0.38558322553262114
1790006487589464000,5.764464111328125,1.8968129872605204,9.61367769690454,0.3868980344582349
1790006487599476200,5.774476318359375,1.896393885065615,9.6137139372617,0.3880685760749504
1790006487609489000,5.784489013671875,1.8960687447644768,9.613755438315868,0.3886033040061593
1790006487619501000,5.7945009765625,1.8956192474313078,9.61382674998641,0.3890140767641365
1790006487629514000,5.804513916015625,1.8955078960113225,9.613851299905777,0.3889375409292057
1790006487639526100,5.814526123046875,1.8955458899341522,9.613850715383887,0.38877855097521097
1790006487649538000,5.8245380859375,1.8956663014434276,9.613822658333183,0.38889655133169143
1790006487659551000,5.834551025390625,1.8957798448204992,9.613804538154602,0.38880711948256935
1790006487669563100,5.844563232421875,1.895782475169003,9.613801615545153,0.3888504471676424
1790006487679575800,5.854575927734375,1.8958029334351418,9.613804538154602,0.38871531301327045
1790006487689588000,5.864587890625,1.8958426809236406,9.613794016760588,0.3887617459708825
1790006487699600000,5.874599853515625,1.895854955883324,9.613783495366572,0.3889425458978861
1790006487709613000,5.884613037109375,1.896050770716369,9.613744916921853,0.38894327655024824
1790006487719625000,5.894625,1.8961203288212418,9.613725043177604,0.38907837417200203
1790006487729638100,5.90463818359375,1.89615642304793,9.6137139372617,0.3891881912220269
1790006487739650000,5.914650146484375,1.8963056222602723,9.61367594333887,0.38941239189933985
1790006487749662000,5.924661865234375,1.896433340293169,9.613634442284702,0.3897996376512572
1790006487759675100,5.934675048828125,1.896429540900886,9.613626843500137,0.3900075447808951
1790006487769687000,5.94468701171875,1.8966405533030628,9.613585342445969,0.3899932605272159
1790006487779700000,5.954699951171875,1.8972903955139218,9.613461423805356,0.3899401421004906
1790006487789711400,5.96471142578125,1.897669604089856,9.61338075978458,0.390060882403329
1790006487799723300,5.97472314453125,1.8979289856784045,9.613319969508051,0.3902943623656407
1790006487809736400,5.984736328125,1.8977916230343281,9.613336336120962,0.3905519173232838
1790006487819748400,5.994748291015625,1.8977280562788248,9.613346272993088,0.39061749337278306
1790006487829761500,6.004761474609375,1.8977625430703162,9.613333413511514,0.3907784560881555
1790006487839773400,6.0147734375,1.8977955685570835,9.613313539767265,0.39110293880216773
1790006487849785300,6.024785400390625,1.8976336559936402,9.6133228921175,0.39164391381107266
1790006487859798500,6.034798583984375,1.897319183216989,9.61336147056222,0.3922489304995164
1790006487869810400,6.044810546875,1.896738022328168,9.613414662054181,0.3937237522924319
1790006487879822600,6.054822509765625,1.8963902318038046,9.613431028667092,0.3950076911557466
1790006487889835300,6.064835205078125,1.8959816510029135,9.61334042777419,0.3991758802184835
1790006487899847200,6.07484716796875,1.8957231461971997,9.613317631420493,0.4009689741803333
1790006487909860400,6.0848603515625,1.8955273313641547,9.613335751599072,0.4014157680997625
1790006487919872300,6.094872314453125,1.895589144553989,9.61330535646081,0.4018748735114932
1790006487929884400,6.104884521484375,1.8955872448578477,9.61328372915089,0.4023808502722531
1790006487939897300,6.1148974609375,1.8954020975492893,9.613306525504589,0.4026988301802426
1790006487949909500,6.124909423828125,1.8955304001040756,9.613273207756876,0.40289983264505863
1790006487959922400,6.13492236328125,1.8955743853762745,9.613241643574833,0.4034655402364209
1790006487969934300,6.144934326171875,1.8956462815687058,9.613196050867439,0.4042001381212845
1790006487979946500,6.154946533203125,1.8957902200840413,9.613104865452646,0.4056845679927617
1790006487989959400,6.16495947265625,1.8958363973133265,9.6130224478662,0.4074464630987495
1790006487999971300,6.174971435546875,1.8956743386194108,9.613017187169193,0.40830315299332137
1790006488009984500,6.184984619140625,1.8956271384768186,9.612993221771717,0.4090625930584967
1790006488019996400,6.194996337890625,1.8957405357234178,9.61293301601708,0.4099437598071992
1790006488030008300,6.20500830078125,1.8958707379743456,9.612863457912207,0.410992757403478
1790006488040021500,6.215021484375,1.896022713665664,9.612785131978988,0.412108719288744
1790006488050033400,6.225033447265625,1.896138448999822,9.612709144133328,0.41336478376444424
1790006488060045600,6.235045654296875,1.8960924179010092,9.612671150210499,0.4144538576427847
1790006488070058200,6.245058349609375,1.8961777580969035,9.612617958718538,0.41528351339995856
1790006488080070400,6.2550703125,1.896313074914366,9.612561844617128,0.4159856337873265
1790006488090083300,6.265083251953125,1.8964878469593822,9.612495209121704,0.41674825219027695
1790006488100095200,6.27509521484375,1.8966034361630677,9.612430911713838,0.41768257389832286
1790006488110107400,6.285107421875,1.8967871221669017,9.612343233430385,0.41887463322710244
1790006488120120300,6.295120361328125,1.8970380281880497,9.612252632537484,0.4197906155608594
1790006488130132500,6.305132568359375,1.8971059788577258,9.612215807658433,0.4203204846538603
1790006488140145400,6.3151455078125,1.8971983333162963,9.6121836589545,0.42065647514257576
1790006488150157600,6.325157470703125,1.897409345718473,9.612125791287422,0.4210168328875676
1790006488160169500,6.33516943359375,1.8977417925432323,9.612043373700976,0.4214109833043068
1790006488170182400,6.345182373046875,1.8980870988495646,9.611966216811537,0.42161432385668157
1790006488180194300,6.3551943359375,1.8982478423692284,9.611930560976266,0.4217021117379889
1790006488190207500,6.36520751953125,1.898480920472741,9.611896074184775,0.4214208471111953
1790006488200219400,6.375219482421875,1.8985729826703666,9.61190484201312,0.4207999752664938
1790006488210231300,6.385231201171875,1.8988927161440252,9.611879707571864,0.41996717770416286
1790006488220244500,6.395244384765625,1.8991962291352449,9.611869186177849,0.41882030922397967
1790006488230256400,6.40525634765625,1.8995422660939394,9.611863925480842,0.41734683913793413
1790006488240268500,6.4152685546875,1.8996651618212461,9.611911271753907,0.41569231339655816
1790006488250281200,6.42528125,1.8998085158146916,9.611967385855317,0.41376368342153724
1790006488260293400,6.43529345703125,1.9001039916299283,9.612000703603028,0.4116462163435295
1790006488270306300,6.445306396484375,1.9003434994742274,9.612067339098452,0.40895726952049877
1790006488280318500,6.455318359375,1.9005593341819942,9.612151510250568,0.4059540691165253
1790006488290330400,6.465330322265625,1.9007586561463772,9.612253217059374,0.4025954063383862
1790006488300343300,6.47534326171875,1.901064945616573,9.612344986996055,0.3989423271909356
1790006488310355500,6.48535546875,1.9013702121734617,9.61244552476108,0.3950350906193256
1790006488320368400,6.495368408203125,1.9017111345656215,9.612551323223114,0.3908170710654929
1790006488330380500,6.505380615234375,1.9020863976188003,9.61265244551003,0.3864930703865364
1790006488340392400,6.515392333984375,1.9024204518787562,9.612776364150642,0.381738313607499
1790006488350405400,6.5254052734375,1.9026839251205323,9.61293009340763,0.37651166500039396
1790006488360417300,6.535417236328125,1.9029989824190734,9.61308031553328,0.37103593700304627
1790006488370430500,6.545430419921875,1.9034151620045303,9.613218262699245,0.36528606823943555
1790006488380442400,6.5554423828125,1.9037839953169227,9.613379590740799,0.35904417817518114
1790006488390454300,6.565454345703125,1.9040669039115308,9.613574821051955,0.3522666103316471
1790006488400467500,6.575467529296875,1.904341775330156,9.613792847716807,0.34478684903550894
1790006488410479400,6.585479248046875,1.9046392969720065,9.614007951772212,0.3370319605924189
1790006488420491500,6.595491455078125,1.905055038166046,9.61419675234258,0.32921704905778165
1790006488430504400,6.60550439453125,1.9055789159096777,9.61436860177815,0.32105544297732413
1790006488440516400,6.615516357421875,1.9061857957616448,9.61453694408238,0.3123176809767261
1790006488450529300,6.625529296875,1.9068271624051034,9.614708793517947,0.30296978772114963
1790006488460541400,6.63554150390625,1.9072892269589006,9.614922144007682,0.29307242562295865
1790006488470553300,6.64555322265625,1.9078947916366158,9.615104514837265,0.28300694041624663
1790006488480566500,6.65556640625,1.9087658753827212,9.615228433477878,0.2727258944964036
1790006488490578400,6.665578369140625,1.9095136250101028,9.61537514847219,0.262079705058597
1790006488500591400,6.67559130859375,1.910243546719849,9.615531215816736,0.25083916645683346
1790006488510603500,6.685603515625,1.910911362978816,9.615694297423959,0.2391563639802858
1790006488520615400,6.695615478515625,1.9116241874232887,9.615850364768505,0.22688282906897364
1790006488530628400,6.70562841796875,1.9123722293116152,9.615997079762815,0.21403975064139813
1790006488540640300,6.71564013671875,1.9131570960789919,9.61612099840343,0.20105490738926454
1790006488550652400,6.72565234375,1.9139451777167618,9.616230303996801,0.18788382085002958
1790006488560665300,6.735665283203125,1.9147657003194092,9.61632265845537,0.17438165745921433
1790006488570677200,6.74567724609375,1.9155118425115942,9.6164173510015,0.16034681196380407
1790006488580690400,6.7556904296875,1.9164320260964334,9.616461190143227,0.14603142336080782
1790006488590702300,6.765702392578125,1.917150403498858,9.61653133276999,0.1313693036793731
1790006488600714500,6.775714599609375,1.9176760348081587,9.616614334878324,0.11671075506135821
1790006488610727400,6.7857275390625,1.9181759471543132,9.61667921680808,0.10226358417170121
1790006488620739600,6.795739501953125,1.9188497547626495,9.616688569158315,0.08780100565035827
1790006488630752300,6.805752197265625,1.918765729741007,9.616824762758611,0.07349712938864249
1790006488640764400,6.815764404296875,1.9193780164204537,9.6168083961457,0.057982612395263276
1790006488650776300,6.8257763671875,1.919627315006405,9.616834699630736,0.04384474948337301
1790006488660789500,6.83578955078125,1.9203259647950528,9.616745267781615,0.030966161350999024
1790006488670801400,6.845801513671875,1.9204070672072469,9.616760465350746,0.018055018089315852
1790006488680814600,6.855814697265625,1.9212987553499639,9.616599721831083,0.0026866935025624114
1790006488690826500,6.865826416015625,1.9225591306746004,9.616339609590172,-0.01285164989309851
1790006488700838400,6.87583837890625,1.9235662618905305,9.616113984140753,-0.02538441341262078
1790006488710851300,6.885851318359375,1.9239358258552848,9.616009939244389,-0.034655624702794006
1790006488720863200,6.89586328125,1.924113374379277,9.615929275223612,-0.04558977108637336
1790006488730875400,6.90587548828125,1.9244310620263219,9.615791328057647,-0.05915235029438044
1790006488740888300,6.915888427734375,1.925478086861223,9.615492052850128,-0.07240452554607764
1790006488750900200,6.925900146484375,1.9265004156462846,9.615203883558511,-0.08267703196643851
1790006488760913400,6.935913330078125,1.9265800567537545,9.61511269814372,-0.09102296337154693
1790006488770925300,6.94592529296875,1.9260858434960244,9.615117374318837,-0.10041125256959349
1790006488780937500,6.9559375,1.9264032388821244,9.614939679664372,-0.11081453662961721
1790006488790950700,6.96595068359375,1.9271238082416355,9.614714054214954,-0.11772452608062885
1790006488800962600,6.975962646484375,1.9274637077204881,9.614594811749457,-0.12175197323211467
1790006488810975500,6.9859755859375,1.9276241589792071,9.614506548944115,-0.12601711073014885
1790006488820987600,6.995987548828125,1.9280127199053763,9.614350481599569,-0.13197685025162062
1790006488830999600,7.00599951171875,1.9286556939840316,9.614158758419752,-0.13641487836483865
1790006488841012500,7.016012451171875,1.9292416771784424,9.614026656472682,-0.13741199964340775
1790006488851024600,7.026024658203125,1.9293996442191301,9.613985155418515,-0.13811537127294576
1790006488861036500,7.03603662109375,1.928907476788014,9.614037177866697,-0.1414050787344109
1790006488871049700,7.0460498046875,1.9284471657998858,9.614064650395513,-0.1457439025231637
1790006488881061600,7.0560615234375,1.928666946030408,9.613983986374736,-0.14811821217276155
1790006488891074600,7.066074462890625,1.9295130414657293,9.613801031023263,-0.1490610094482079
1790006488901086500,7.07608642578125,1.9300892339184879,9.613655485072732,-0.15094117890531197
1790006488911098400,7.086098388671875,1.9300215755097567,9.613609892365336,-0.15453629905413835
1790006488921111600,7.096111572265625,1.9296968736000357,9.613626843500137,-0.1575583868216723
1790006488931123500,7.10612353515625,1.9295009126365184,9.613654900550841,-0.15822090585101395
1790006488941136600,7.11613671875,1.9293394384644924,9.613691140908003,-0.15799453148292378
1790006488951148500,7.1261484375,1.9291564831130206,9.613719782480597,-0.15847360197044907
1790006488961160700,7.13616064453125,1.9291662738546729,9.613718028914928,-0.15847047843160106
1790006488971173600,7.146173583984375,1.9288022628478705,9.61382674998641,-0.15634736706409602
1790006488981185800,7.156185791015625,1.928309657025337,9.613987493506073,-0.15248046250287442
1790006488991197700,7.16619775390625,1.9282272394388913,9.614060558742285,-0.1488921922199428
1790006489001210600,7.176210693359375,1.9283308459438382,9.614082770574091,-0.1461088451117277
1790006489011222500,7.186222412109375,1.9279560212820768,9.614208442780376,-0.14276093205646612
1790006489021235700,7.196235595703125,1.927158295033127,9.614445758667587,-0.13737555835684762
1790006489031247600,7.20624755859375,1.926554922312498,9.614669630551338,-0.12996680733715182
1790006489041259500,7.216259521484375,1.9259651397258042,9.614892333391309,-0.1219774616842158
1790006489051272700,7.226272705078125,1.925009154175222,9.615184009814262,-0.11384488990199751
1790006489061284600,7.23628466796875,1.9241686116978525,9.615458735102415,-0.10437438404690473
1790006489071297500,7.246297607421875,1.923411509720236,9.615725277084112,-0.09334763432629406
1790006489081309400,7.256309326171875,1.9225065237045287,9.61601052376628,-0.08195192342912777
1790006489091321600,7.266321533203125,1.9215211659289895,9.616295770448446,-0.07069619639138691
1790006489101334500,7.27633447265625,1.9205260174117982,9.616572249302267,-0.05908992061661556
1790006489111346400,7.286346435546875,1.9194927288413046,9.616849897199868,-0.04595475477413274
1790006489121358600,7.296358642578125,1.918020902723074,9.617204117465018,-0.03133687152664642
1790006489131371500,7.30637158203125,1.9164732348896563,9.617550154423713,-0.015504155429569072
1790006489141383700,7.3163837890625,1.9147676000155507,9.617902621123195,0.0016890724691940703
1790006489151396600,7.326396728515625,1.9129881692528723,9.618234629556536,0.020481482617836444
1790006489161408800,7.33640869140625,1.9112376723237334,9.618517538151144,0.04088754821217153
1790006489171420700,7.346420654296875,1.9096023262068629,9.618725627943872,0.06264704684261233
1790006489181433600,7.35643359375,1.9079136424675582,9.618884617897868,0.08546983188958839
1790006489191445500,7.366445556640625,1.9063835102908313,9.618943654608726,0.10959084005355835
1790006489201458700,7.376458740234375,1.9049622453160582,9.618910336861013,0.1344537160933949
1790006489211470600,7.386470703125,1.9028614736445246,9.618943070086836,0.15949600382074713
1790006489221482500,7.396482421875,1.9007830599352715,9.61890156903267,0.18480571031263096
1790006489231495700,7.40649560546875,1.8986660677812992,9.618793432483077,0.2104087554615922
1790006489241507600,7.416507568359375,1.8965090358778833,9.618635611572861,0.2355924244210124
1790006489251519700,7.426519775390625,1.8943948202028869,9.61841349325478,0.2603538311140612
1790006489261532700,7.43653271484375,1.8924546459205447,9.61806161107719,0.28614947622567416
1790006489271544600,7.446544677734375,1.890825145022571,9.617508653369546,0.3141108845364302
1790006489281557500,7.4565576171875,1.889205288735777,9.616823009192943,0.3435053213249892
1790006489291569700,7.466569580078125,1.8877372620098292,9.616017538028954,0.3728803958259523
1790006489301581600,7.47658154296875,1.886366558178514,9.615119127884507,0.40187322954367843
1790006489311594500,7.486594482421875,1.8844259455047547,9.614248190268874,0.4307720283024013
1790006489321606700,7.496606689453125,1.8823053000889718,9.613348026558755,0.45919502624291925
1790006489331618600,7.50661865234375,1.880829674578458,9.612271337237953,0.4869118852080777
1790006489341631700,7.5166318359375,1.880642189182341,9.6108632240057,0.5146767115008085
1790006489351643600,7.5266435546875,1.8812777106069027,9.609172202178835,0.5431194735877215
1790006489361656600,7.536656494140625,1.881802172872424,9.607387072327732,0.5721206002097576
1790006489371668500,7.54666845703125,1.8814155116423963,9.605727614682912,0.6005461189009249
1790006489381680400,7.556680419921875,1.881628862132132,9.60409095339179,0.6255315801408141
1790006489391693600,7.566693603515625,1.8821818198397755,9.60239350182414,0.6494763732213527
1790006489401705500,7.57670556640625,1.882750413507968,9.60062298502028,0.6735533413141965
1790006489411718700,7.58671875,1.883240096721053,9.598753684017062,0.6983736751202494
1790006489421730600,7.59673046875,1.8847402721509336,9.59681774751842,0.7205783465351909
1790006489431742700,7.60674267578125,1.8870245836958288,9.595189854055642,0.7361125272102653
1790006489441755600,7.616755615234375,1.888386665829271,9.593934885558486,0.7488633607771247
1790006489451767800,7.626767822265625,1.887960403241217,9.593003157666326,0.7617712846018374
1790006489461779700,7.63677978515625,1.886671532474458,9.592142156922817,0.7756776448793709
1790006489471792600,7.646792724609375,1.88579124250859,9.591269465741515,0.7885079734232276
1790006489481804500,7.656804443359375,1.8859867650806903,9.590469255274535,0.7977117820329964
1790006489491817700,7.666817626953125,1.8863778102248907,9.589885902428627,0.8037859143149108
1790006489501829600,7.67682958984375,1.8858765827044843,9.58956149277985,0.80881097593531
1790006489511841500,7.686841552734375,1.884712361230701,9.589248773568869,0.815210394648835
1790006489521854700,7.696854736328125,1.8828980052851139,9.588995091068744,0.8223490143571048
1790006489531866600,7.70686669921875,1.8806734611034392,9.58892845557332,0.8281930642101913
1790006489541878800,7.716878662109375,1.8798054460972546,9.588930793660879,0.8301440521474928
1790006489551891500,7.726891357421875,1.879604955089092,9.589120178753136,0.8284063416346907
1790006489561903600,7.736903564453125,1.878658468019217,9.589614684271812,0.824822199537605
1790006489571916500,7.74691650390625,1.8769240454420446,9.590133739709854,0.8227136098857969
1790006489581928400,7.756928466796875,1.8739524822853504,9.590603695309161,0.8240287110723554
1790006489591940600,7.766940673828125,1.8707021021872758,9.590983634537459,0.8269768933534621
1790006489601953500,7.77695361328125,1.8668287678852675,9.591684476283191,0.8275971441436558
1790006489611965700,7.786965576171875,1.8651354079708455,9.592101240390539,0.8265991460822523
1790006489621978600,7.796978515625,1.8663598351992665,9.591925299301742,0.8258652057845145
1790006489631990800,7.80699072265625,1.8685979695148764,9.591504443541169,0.825682761889696
1790006489642002700,7.817002685546875,1.8691380677409468,9.591417349779606,0.8254865086652338
1790006489652015600,7.827015625,1.86734183197394,9.591887889900804,0.8240906703926623
1790006489662027500,7.837027587890625,1.8645957481361926,9.59267640992999,0.8211185227140784
1790006489672039400,7.847039306640625,1.862663464899361,9.593113632303476,0.8203864821124821
1790006489682052600,7.857052490234375,1.8628253774628043,9.592837153449654,0.8232537081118673
1790006489692064500,7.867064453125,1.8658738052479922,9.59168739889264,0.8297120174057782
1790006489702077700,7.87707763671875,1.8702169490188358,9.59031026532054,0.8358441634852438
1790006489712089600,7.887089599609375,1.8736496999464929,9.589390227866172,0.8386897621747106
1790006489722101800,7.897101806640625,1.8747791423678397,9.589089783614874,0.8396030776273459
1790006489732114400,7.907114501953125,1.8734528622001407,9.5890032743752,0.8435400517500936
1790006489742126600,7.917126708984375,1.8710925628095865,9.588739655002952,0.8517508307345211
1790006489752138500,7.927138427734375,1.870145929609239,9.587992051506042,0.8621814046602696
1790006489762151400,7.9371513671875,1.8723222507350146,9.586664017772675,0.8721754868648945
1790006489772163600,7.94716357421875,1.8766792769007383,9.585202128526568,0.8788321682751178
1790006489782176500,7.957176513671875,1.8802420839488505,9.584081600064039,0.8834220533486455
1790006489792188700,7.967188720703125,1.8813908155925572,9.583404139193892,0.8883071219764649
1790006489802200800,7.977200927734375,1.8806256764389573,9.582626725080608,0.8982716127604246
1790006489812213800,7.9872138671875,1.8786920780278742,9.581405658853054,0.9151833653990179
1790006489822226000,7.997225830078125,1.8769528331451117,9.579904606640339,0.934268735749647
1790006489832238600,8.007238525390624,1.8761109754934906,9.578492986276745,0.9502953030515462
1790006489842250800,8.017250732421875,1.8765538969554005,9.577139233580231,0.9629892918646336
1790006489852262700,8.0272626953125,1.8782836433574557,9.575379238170385,0.9770128487810492
1790006489862275800,8.03727587890625,1.8808555396720765,9.572938859280944,0.9958054467301816
1790006489872287700,8.047287841796875,1.8827543590307234,9.569989946347475,1.0202526363749056
1790006489882299600,8.057299560546875,1.882974577652663,9.567156184226274,1.0461040667943655
1790006489892312800,8.067312744140626,1.8827521670736371,9.564467383533716,1.0707944175451993
1790006489902324700,8.07732470703125,1.8842926745139061,9.561430207794904,1.094930933805555
1790006489912337700,8.087337646484375,1.8883732218258082,9.557739536583423,1.11984069946073
1790006489922349600,8.097349609375,1.8940747944682836,9.55353156349957,1.145811007019505
1790006489932361700,8.10736181640625,1.8997255137063562,9.549262800139187,1.1717531844623386
1790006489942374700,8.117374755859375,1.9045462118610739,9.545068271058797,1.1978163579363375
1790006489952386800,8.12738671875,1.9075417404152453,9.541254850250482,1.2231613732036202
1790006489962398700,8.137398681640626,1.910746381675452,9.537348490461707,1.2483654456302522
1790006489972412000,8.147411865234375,1.9163269582867621,9.532685174825787,1.2751349407427013
1790006489982423800,8.157423828125,1.9246933662243186,9.527146829921007,1.303609924598783
1790006489992436700,8.167436767578126,1.934026281106472,9.521462354543804,1.3310460669264197
1790006490002449000,8.177448974609375,1.9424078866131602,9.5165488635391,1.3537789999991654
1790006490012460800,8.187460693359375,1.950466982167214,9.511980824971198,1.3741503185071051
1790006490022473700,8.1974736328125,1.959514211975783,9.506961535504459,1.3958483555741608
1790006490032485600,8.207485595703124,1.9689741142384707,9.501434881037474,1.419957691566646
1790006490042497800,8.217497802734375,1.9772515287183223,9.495694291558861,1.4466082364745436
1790006490052510700,8.2275107421875,1.983806064928323,9.48995311755836,1.4750256449244916
1790006490062522600,8.237522705078124,1.989848559962958,9.484428801178932,1.5021590049132705
1790006490072535800,8.247535888671875,1.9966447959743439,9.479219542098045,1.5258448547966776
1790006490082547700,8.257547607421875,2.0049995134741065,9.47407984112203,1.5466628941588103
1790006490092560000,8.267559814453126,2.0135038685776294,9.468440958452224,1.569972458075732
1790006490102572800,8.27757275390625,2.02092919627279,9.462026999756693,1.5988319112047553
1790006490112584700,8.287584716796875,2.02748490152657,9.455164128249884,1.6308146109208463
1790006490122596900,8.297596923828126,2.034096428620815,9.44838016719818,1.6616105850704013
1790006490132609800,8.30760986328125,2.0408162383951245,9.442073760530352,1.6889888597309588
1790006490142621700,8.31762158203125,2.047682617033273,9.436429032641648,1.7120752824164926
1790006490152635000,8.327634765625,2.0547896725594996,9.430710070472955,1.734914452342689
1790006490162646800,8.337646728515624,2.0617535202227533,9.424404832848905,1.7607265005998312
1790006490172658700,8.34765869140625,2.0685364583611485,9.417521503075957,1.789367050281167
1790006490182672000,8.357671875,2.0750553387358783,9.410549325975776,1.8182663970291613
1790006490192683800,8.367683837890626,2.0806217406913636,9.404061717522143,1.8452664860270915
1790006490202696700,8.37769677734375,2.084475785771012,9.398650213867425,1.8683457483194768
1790006490212708600,8.38770849609375,2.0873687307335436,9.39392260082364,1.8887819487571715
1790006490222720800,8.397720703125,2.0911016336515544,9.389024307388066,1.9088997308954596
1790006490232733700,8.407733642578124,2.0966756343916058,9.383433940035104,1.9301547003701327
1790006490242745900,8.417745849609375,2.1036954500257967,9.377567678350209,1.9509208634145556
1790006490252757800,8.4277578125,2.1110347068727013,9.37217897104919,1.9688003651067614
1790006490262770700,8.437770751953124,2.1176884656734765,9.367909038645028,1.9819322338804601
1790006490272782800,8.447782958984375,2.1230773191049694,9.364627532756328,1.9916532712973654
1790006490282795800,8.457795654296875,2.1268483620762826,9.362170202732086,1.9991715379729866
1790006490292808000,8.467807861328126,2.1298986895576117,9.360257647109032,2.0048663886137303
1790006490302819800,8.47781982421875,2.1342254667155443,9.358308851128816,2.00935712416172
1790006490312832800,8.487832763671875,2.140585064875334,9.356464100044965,2.0111777637176216
1790006490322844700,8.4978447265625,2.1473606964901086,9.355003964364528,2.010753985347599
1790006490332856600,8.507856689453124,2.1527824292778965,9.354379110464453,2.007859579080343
1790006490342869800,8.517869873046875,2.156294090660661,9.354586615735291,2.003117352989316
1790006490352881700,8.527881591796875,2.158277081171423,9.355344156104326,1.9974379921786487
1790006490362894800,8.537894775390624,2.159719535064697,9.356239643639325,1.991676067651063
1790006490372906800,8.54790673828125,2.16132302473858,9.357022318449616,1.9862575497336685
1790006490382919000,8.5579189453125,2.1627495504103598,9.35776173864007,1.9812052347801625
1790006490392931600,8.567931640625,2.1639386140644548,9.358497651699185,1.9764329058118164
1790006490402943700,8.57794384765625,2.1651406833305953,9.35934754652679,1.9710794159546494
1790006490412955600,8.58795556640625,2.166338953204453,9.360359353917836,1.9649485119841992
1790006490422968800,8.59796875,2.167076473698765,9.361316216251254,1.9595684263810513
1790006490432980700,8.607980712890624,2.167232102651894,9.36206849592328,1.955802790237218
1790006490442994000,8.617993896484375,2.1670159756831824,9.362660616597532,1.9532066362641751
1790006490453005800,8.628005859375,2.167446622185409,9.363128818631171,1.9504826181277632
1790006490463017700,8.638017822265626,2.1696302498348055,9.36324338492155,1.9474983416199683
1790006490473031000,8.648031005859375,2.1729081024616956,9.363068612876534,1.9446866452001035
1790006490483042800,8.658042724609375,2.1761447462953627,9.362729005658625,1.9426994169056415
1790006490493055000,8.668054931640626,2.178571973442286,9.362449604195357,1.941323013985902
1790006490503067600,8.678067626953125,2.180517262291163,9.36231399511695,1.9397920050263404
1790006490513079800,8.688079833984375,2.1826910991989075,9.362266648843883,1.9375788590215146
1790006490523092700,8.6980927734375,2.18553099879995,9.36214273020327,1.9349710146106778
1790006490533104600,8.708104736328124,2.1888167424723504,9.361836440733075,1.9327441323414445
1790006490543116800,8.71811669921875,2.192098248361051,9.36143370515108,1.9309743461899458
1790006490553129700,8.728129638671875,2.195264457307011,9.360971932858227,1.9296146021440623
1790006490563142000,8.738141845703124,2.198311569917947,9.360508991521597,1.9283907594375311
1790006490573153800,8.74815380859375,2.200668654438108,9.360306746947765,1.9266843939110636
1790006490583166700,8.758166748046875,2.201927422327548,9.360463983336091,1.924480015734583
1790006490593178600,8.7681787109375,2.2038051988981664,9.360494962996244,1.9221780224025249
1790006490603191800,8.77819189453125,2.20681957828328,9.359995196780561,1.921149410007149
1790006490613203700,8.78820361328125,2.2103214489243923,9.359130688905715,1.9213354340985416
1790006490623215600,8.798215576171875,2.2130492664530874,9.35850758857131,1.9212318275935947
1790006490633228800,8.808228759765624,2.2147025866180656,9.358531553968787,1.9192071898981928
1790006490643240700,8.81824072265625,2.2133365589618683,9.359640976515411,1.9153693653009831
1790006490653254000,8.82825390625,2.212267760686576,9.360665643388032,1.911596276503056
1790006490663265800,8.838265869140624,2.213312593564391,9.36068902426362,1.910266781464964
1790006490673278000,8.84827783203125,2.2154414222866294,9.360230759102105,1.9100527003228662
1790006490683290600,8.85829052734375,2.2177166737422347,9.359785353422165,1.9095972116403281
1790006490693302800,8.868302734375,2.2195985419660804,9.35943873194158,1.909101537077874
1790006490703314700,8.878314697265624,2.2215026220217347,9.35887934449315,1.9096311139099298
1790006490713327600,8.88832763671875,2.2231994890674946,9.358178502747416,1.9110918341122567
1790006490723339800,8.89833984375,2.2253851625435055,9.357264895033836,1.9130175414778292
1790006490733352700,8.908352783203124,2.227506830872595,9.356312708875537,1.9152020459100603
1790006490743364900,8.91836474609375,2.2289475312002,9.355473919963837,1.917623427838087
1790006490753376800,8.928376708984375,2.230670993991941,9.35431072140336,1.9212896952606737
1790006490763390000,8.938389892578124,2.2342630271345376,9.352327438631653,1.9267622814528642
1790006490773401900,8.94840185546875,2.239011536835879,9.35007878292203,1.9321591720603406
1790006490783413800,8.958413818359375,2.2425419029191134,9.348421078842877,1.9360835058972239
1790006490793427000,8.968427001953126,2.244769515840709,9.347118764072656,1.9397823604151605
1790006490803438800,8.97843896484375,2.2473002033621072,9.345506068179011,1.9446131415724752
1790006490813452000,8.9884521484375,2.2500446797646583,9.34396117682457,1.9488710912778973
1790006490823464000,8.9984638671875,2.2542999991215766,9.342071417555212,1.9530039532989263
1790006490833476000,9.00847607421875,2.2609479127034544,9.339602981615066,1.9571208870984613
1790006490843489000,9.018489013671875,2.267008235655725,9.337118179062008,1.961961312866956
1790006490853501200,9.028501220703125,2.2712409047894178,9.334976490858196,1.9672507975772022
1790006490863513000,9.03851318359375,2.2763640930220483,9.332674643656611,1.972238522861898
1790006490873525800,9.04852587890625,2.2837637017540633,9.329914531293511,1.9767427024133502
1790006490883538000,9.058537841796875,2.29074946898818,9.3272853518337,1.9810607117429375
1790006490893550800,9.06855078125,2.2961731014721094,9.325080535265803,1.985156018232554
1790006490903563000,9.07856298828125,2.3024239785604177,9.322705622828007,1.9890707074582576
1790006490913575000,9.088574951171875,2.3102627093620596,9.31984555722177,1.9933776108719408
1790006490923588000,9.098588134765626,2.3172492072485387,9.317281259691715,1.9972545984357595
1790006490933600000,9.10860009765625,2.3230229683443904,9.315224327161907,2.000138044917583
1790006490943612000,9.11861181640625,2.3282712442614137,9.313407048606871,2.002491914567351
1790006490953625000,9.128625,2.332820431998372,9.311948666492103,2.003985221865028
1790006490963637000,9.138636962890626,2.337368450691551,9.310644598156212,2.0047442235387862
1790006490973650000,9.14864990234375,2.3420646456837653,9.309179201778768,2.006070942097902
1790006490983661800,9.158661865234375,2.345047460886836,9.3079476141572,2.008299431802332
1790006490993674000,9.168674072265626,2.346400775191933,9.307596316501497,2.008338156377524
1790006491003687000,9.17868701171875,2.3482805975891647,9.307599823632836,2.0061269100688395
1790006491013699000,9.188698974609375,2.3502596425771713,9.307962227204442,2.002124542559683
1790006491023711000,9.1987109375,2.349537027391046,9.309315395379066,1.996672560764104
1790006491033724200,9.20872412109375,2.346106030029058,9.311423765835166,1.9908698658347128
1790006491043736000,9.218736083984375,2.340988102493435,9.314075741648674,1.9844785573624073
1790006491053749000,9.2287490234375,2.3351985593065616,9.317266646644473,1.9763029958218334
1790006491063761000,9.238760986328124,2.3290960046477616,9.320838659912347,1.9666409951157866
1790006491073772800,9.248772705078125,2.3230190228216347,9.324541606083512,1.9562398664802312
1790006491083786000,9.258785888671875,2.317086125641316,9.328380745854973,1.944939158656448
1790006491093798000,9.2687978515625,2.310538603693992,9.332629050949215,1.93230939418599
1790006491103810000,9.27881005859375,2.3027228153765202,9.337262555968762,1.9192090895943343
1790006491113823000,9.288822998046875,2.2940638542331753,9.342044529548287,1.9062702591747045
1790006491123835100,9.298835205078126,2.2851702075511215,9.346990753778815,1.892651922058314
1790006491133848000,9.30884814453125,2.276835948317498,9.351969711235165,1.8780510036453604
1790006491143860000,9.31885986328125,2.269198731437325,9.35673648724556,1.863488663677126
1790006491153872100,9.3288720703125,2.2616424708388743,9.360904128319024,1.8517092324256896
1790006491163884800,9.338884765625,2.2540847489356994,9.364656174328923,1.8419271124713121
1790006491173897000,9.34889697265625,2.247226991995424,9.368320542055368,1.831648441171646
1790006491183908900,9.358908935546875,2.2412113849677144,9.372146822345256,1.819404022756964
1790006491193922000,9.368922119140626,2.234828113671392,9.376191129299997,1.8063722533568738
1790006491203934000,9.378933837890624,2.226939552378654,9.380427159434557,1.7940820961043238
1790006491213947100,9.388947021484375,2.2178872080035505,9.384739761936665,1.782701454912126
1790006491223959000,9.398958984375,2.210136301615834,9.388687622779607,1.7715028922885656
1790006491233971000,9.408970947265624,2.2042720857575535,9.392147407844663,1.7604340935245155
1790006491243984000,9.41898388671875,2.1987596059463916,9.395427160167694,1.7497971103064716
1790006491253995800,9.428995849609375,2.193308793194592,9.39862274133861,1.7394463966839016
1790006491264008000,9.439008056640626,2.1881797597430643,9.401827674859762,1.7285484244421123
1790006491274020900,9.449020751953125,2.182940836176276,9.405129639014602,1.7171726055555045
1790006491284033000,9.459032958984375,2.178282050585002,9.40824806329608,1.7059671747997402
1790006491294045000,9.469044921875,2.174505600786209,9.410976611477135,1.6957092540271579
1790006491304058000,9.47905810546875,2.1712445531636475,9.41339477853477,1.686438882987201
1790006491314070000,9.489070068359375,2.1685388013362883,9.41555692500472,1.6778296062044797
1790006491324083200,9.499083251953126,2.166578168787807,9.417482340109348,1.6695330486327409
1790006491334095000,9.50909521484375,2.1646065764538944,9.41925168786943,1.662099829892069
1790006491344107000,9.51910693359375,2.1619151454128325,9.420954984655976,1.655936777217686
1790006491354120000,9.529119873046875,2.1583372869260606,9.422615026822685,1.6511529039420187
1790006491364131800,9.5391318359375,2.154900005953759,9.424011449617147,1.6476687150880693
1790006491374145000,9.54914501953125,2.152312912070006,9.425056574755907,1.6450627703733742
1790006491384157000,9.559156982421875,2.150279944937676,9.425875489923357,1.643032871980965
1790006491394168800,9.5691689453125,2.1479791206493974,9.426964454203844,1.639785122231394
1790006491404182000,9.57918212890625,2.1445867017321287,9.42863034158945,1.6346465902991592
1790006491414194000,9.58919384765625,2.139665611942857,9.431051431256533,1.6271112263582646
1790006491424206000,9.5992060546875,2.1336308618232604,9.433941892001032,1.6182519203372299
1790006491434219000,9.609218994140624,2.1275776992641386,9.436970884433387,1.6085294216156005
1790006491444231000,9.61923095703125,2.122128201686591,9.440187508392333,1.5968059583351015
1790006491454243800,9.629243896484375,2.1167562993898987,9.44390448308885,1.5818956817120313
1790006491464256000,9.639256103515624,2.1102181297928095,9.448238128378987,1.5646642686650156
1790006491474268000,9.649267822265625,2.1025724373452364,9.452860527482628,1.5469344045765696
1790006491484281000,9.659281005859375,2.0941816256187855,9.457597492876648,1.5292608007200061
1790006491494293000,9.66929296875,2.085180719169974,9.46253728736639,1.5108926387280226
1790006491504305000,9.679304931640624,2.076364667768776,9.467556576833129,1.491462254332006
1790006491514318000,9.689318115234375,2.068058903977275,9.472406939473748,1.4720821388185024
1790006491524330000,9.699330078125,2.0594874749869105,9.477183652356267,1.4532321846589444
1790006491534343000,9.709343017578124,2.0499065766930578,9.482020570993424,1.4351095218606293
1790006491544354800,9.719354736328125,2.040846925794333,9.486865088415145,1.4158805052556096
1790006491554367000,9.729366943359375,2.0318015956819058,9.491958612161874,1.3945960174255072
1790006491564380000,9.7393798828125,2.0220307277739047,9.497397003823519,1.3715753534525632
1790006491574392000,9.74939208984375,2.0116578023195264,9.502389405283331,1.3521230494856833
1790006491584404000,9.759404052734375,2.0036426920376718,9.505964925682544,1.3388295604094862
1790006491594417000,9.7694169921875,1.9994693518757818,9.508254497924446,1.3287613169901071
1790006491604429000,9.779428955078124,1.997660256627202,9.51022492121458,1.3173276304364203
1790006491614441000,9.78944091796875,1.9949363846212624,9.512838318583368,1.3025045937053858
1790006491624454100,9.7994541015625,1.9895374481871724,9.516110472121834,1.2867736483491956
1790006491634466000,9.809466064453124,1.9833258801959455,9.519227727359533,1.27322077768445
1790006491644479000,9.81947900390625,1.9792443099707364,9.521624851629138,1.261595367950946
1790006491654491000,9.829490966796875,1.9786482437737285,9.523116551491617,1.2512291644982994
1790006491664502800,9.839502685546876,1.9795291182614863,9.524169859936833,1.2417933737635611
1790006491674516000,9.849515869140625,1.9785997284568846,9.52549906271398,1.2330386971607803
1790006491684527900,9.85952783203125,1.9749992197468875,9.52732569361925,1.224677915246412
1790006491694540000,9.8695400390625,1.9717127454221248,9.528954171603917,1.2172819597762077
1790006491704553000,9.879552978515624,1.9707658199608324,9.529910449415445,1.211310995607823
1790006491714565000,9.889565185546875,1.9716665681928396,9.530238950717449,1.207259601325169
1790006491724577800,9.899577880859376,1.9721694031484425,9.530469252341986,1.2046085753597318
1790006491734590000,9.90958984375,1.9713119095362721,9.531014611265062,1.201692541782558
1790006491744601900,9.919601806640625,1.9696523057609796,9.531792025378346,1.1982437895681708
1790006491754615000,9.929614990234375,1.9681798951208591,9.53238063892126,1.195974164135754
1790006491764627000,9.939626953125,1.9675838289238512,9.532504557561873,1.195973068157211
1790006491774638800,9.949638916015624,1.968764563141018,9.532017066305876,1.1979087854601442
1790006491784652000,9.959652099609375,1.9707883240535855,9.531360648223757,1.1998035862307994
1790006491794663200,9.9696630859375,1.9712135637283323,9.531174770262837,1.2005885991286485
1790006491804676400,9.97967626953125,1.970111301574856,9.531438974156975,1.2002954614009707
1790006491814688300,9.989688232421875,1.9689765984565017,9.531687395960091,1.200181552697718
1790006491824700200,9.9997001953125,1.9690064090728758,9.531551786881685,1.2012064387660473
1790006491834713300,10.00971337890625,1.9699372601822018,9.531147882255912,1.2028937342658639
1790006491844725200,10.019725341796875,1.9707595363505184,9.530822303563356,1.2041174308419227
1790006491854737400,10.0297373046875,1.9709107813894748,9.53074163954258,1.204515417183563
1790006491864750000,10.03975,1.9706480388000607,9.530883678361773,1.2038203475914895
1790006491874762200,10.04976220703125,1.9703196836285293,9.531195228528976,1.201887699028477
1790006491884775200,10.059775146484375,1.9711197479650377,9.531276477071643,1.1999277240671218
1790006491894787300,10.069787353515625,1.9734347469091413,9.530803598862885,1.1998729251399636
1790006491904799200,10.07979931640625,1.9762857524260877,9.529847905573249,1.2027800447583197
1790006491914812400,10.0898125,1.9791098699361085,9.528702827191353,1.207194427134469
1790006491924824300,10.09982421875,1.9819125062666831,9.52758697490394,1.2114078801110386
1790006491934836200,10.109836181640626,1.9858600748486817,9.526249588820338,1.2154420309979468
1790006491944849200,10.11984912109375,1.9911948600053786,9.524522911158204,1.2202405903860927
1790006491954861000,10.129861083984375,1.9961983673810957,9.522630229279399,1.2268190919935702
1790006491964874200,10.139874267578126,1.9998792478509246,9.520804182896017,1.234969957484305
1790006491974886100,10.14988623046875,2.003185011398047,9.518871753528714,1.2444722375839947
1790006491984898300,10.159898193359375,2.007821877418458,9.516394549760221,1.2558971563093364
1790006491994911200,10.1699111328125,2.013599437906593,9.513390107247233,1.2693386755540965
1790006492004923100,10.179923095703124,2.0193517178229987,9.510309676888584,1.2832009044289587
1790006492014935300,10.189935302734375,2.024242704734951,9.507617953586578,1.2953820483490823
1790006492024948200,10.1999482421875,2.028168207615614,9.505384495446085,1.3055920383267103
1790006492034960400,10.20996044921875,2.031673146996647,9.503308858215808,1.3152224748507142
1790006492044973000,10.21997314453125,2.035164934635162,9.50106897033453,1.3259693481840193
1790006492054985200,10.229985107421875,2.038900906293094,9.498575399953125,1.3380267195940017
1790006492064997000,10.2399970703125,2.0428087273865936,9.495960833540558,1.3505658831715583
1790006492075010300,10.25001025390625,2.047306331066787,9.49321708779037,1.3629934030681847
1790006492085022200,10.260022216796875,2.0523786658950147,9.490254146331548,1.3759391016200184
1790006492095034000,10.2700341796875,2.05719015782997,9.487253795471787,1.389374483384937
1790006492105047300,10.28004736328125,2.061239579351246,9.484452182054518,1.4024384014889597
1790006492115059200,10.29005908203125,2.0650952318660916,9.481819495463371,1.4145249989934265
1790006492125071400,10.3000712890625,2.069655233258009,9.47908159493208,1.4261612223818898
1790006492135084000,10.310083984375,2.07549051528275,9.475824638962745,1.4392625498868523
1790006492145096200,10.32009619140625,2.081987037695199,9.472100650003553,1.4543125272415578
1790006492155109000,10.330109130859375,2.0879864242404698,9.46839302765727,1.4697691857010124
1790006492165121300,10.340121337890626,2.093161050399393,9.464992863824962,1.4842416554287075
1790006492175133200,10.35013330078125,2.0978826720938084,9.46197731539607,1.496756853608787
1790006492185146400,10.360146484375,2.1022854370974002,9.459113742658495,1.5086244015350938
1790006492195158300,10.370158203125,2.106376944194734,9.456461766844987,1.5195098065562544
1790006492205170200,10.380170166015626,2.110056217229366,9.454141214942931,1.5288101343430578
1790006492215183400,10.390183349609375,2.113557941740006,9.452067331278323,1.5367700073063373
1790006492225195300,10.4001953125,2.1170340934179723,9.450140162608028,1.5438266478195786
1790006492235208200,10.410208251953126,2.1203598768398164,9.448360877975821,1.5501466446213423
1790006492245220000,10.42022021484375,2.1226868584826586,9.447029337111115,1.5550639350183306
1790006492255232300,10.430232177734375,2.123530469699949,9.4463670738101,1.557932914583385
1790006492265245200,10.4402451171875,2.1231401552081106,9.446208668377995,1.5594208150535822
1790006492275257000,10.450257080078124,2.1226189078129827,9.445966676315665,1.5615946519613264
1790006492285269200,10.460269287109375,2.1227900265961885,9.44547275531888,1.5643429277561605
1790006492295282200,10.4702822265625,2.1235819076262414,9.445031441292166,1.5659367728188633
1790006492305294300,10.48029443359375,2.1245478300489484,9.44502676511705,1.5646518475748599
1790006492315307300,10.490307373046875,2.1243846023112534,9.445485614800452,1.5621017247006297
1790006492325319200,10.500319091796875,2.122951062376797,9.446131511488556,1.5601432841092346
1790006492335331300,10.510331298828126,2.1211865369223055,9.446801373574138,1.5584943478584288
1790006492345344300,10.52034423828125,2.119972484957427,9.447596907866,1.5553217091716824
1790006492355356200,10.530356201171875,2.1191410025693473,9.44858591890335,1.5504389055661856
1790006492365368000,10.5403681640625,2.1182548673845827,9.449569084721803,1.545652840333432
1790006492375381200,10.55038134765625,2.1171745248019693,9.45039501415193,1.5420814115874468
1790006492385393200,10.56039306640625,2.1157897924453017,9.45129167073071,1.538478126398474
1790006492395405300,10.5704052734375,2.113771438360214,9.452529688093065,1.5336284944102168
1790006492405418200,10.580418212890624,2.1110605719663202,9.454101467454432,1.527663448525965
1790006492415430400,10.590430419921875,2.10806694310829,9.455659218290448,1.5221499458014964
1790006492425443000,10.600443115234375,2.105469912352413,9.456911264178157,1.5179598006352781
1790006492435455200,10.610455322265626,2.1035817605182525,9.457619120186568,1.516168679434806
1790006492445467100,10.620467041015624,2.102085384480655,9.458184352853893,1.514724179714918
1790006492455480300,10.630480224609375,2.100642930587381,9.45884427806735,1.5126006116896866
1790006492465492200,10.6404921875,2.0983418140381573,9.459864268764854,1.5094102912157774
1790006492475504000,10.650504150390624,2.0948317600905892,9.46123263450861,1.5057014998257159
1790006492485517300,10.660517333984375,2.090731046773493,9.462586387205123,1.5028899495363235
1790006492495529200,10.670529296875,2.0872456888757647,9.463530390056967,1.5017977703854442
1790006492505542400,10.68054248046875,2.0844557658962906,9.464041846710442,1.5024465896829962
1790006492515554300,10.69055419921875,2.0827206126667557,9.464180962920189,1.503968976944685
1790006492525566500,10.70056640625,2.0822411585867404,9.464003852787613,1.5057522070996463
1790006492535579100,10.7105791015625,2.0828318179562686,9.463608131468295,1.5074254010088741
1790006492545591000,10.720591064453124,2.0839983775176107,9.462987953743339,1.5097032828129826
1790006492555603200,10.730603271484375,2.0852973312869665,9.462136305350064,1.5132438780292867
1790006492565616000,10.7406162109375,2.086711874260008,9.461066630291938,1.5179720755949615
1790006492575628300,10.750628173828124,2.0887956947967408,9.459735673949123,1.5233866479896008
1790006492585641200,10.76064111328125,2.091814311965555,9.458120639967918,1.529265623025596
1790006492595653400,10.7706533203125,2.0954355712026356,9.456246662789583,1.5358866486005485
1790006492605665300,10.780665283203126,2.0989583385013044,9.454299035853147,1.543050841141492
1790006492615678200,10.79067822265625,2.1030798023454844,9.45215150243044,1.5505688155561685
1790006492625690000,10.800690185546875,2.108068988934904,9.449712292584776,1.5586369711995125
1790006492635702000,10.810701904296875,2.1135037273347375,9.447073176252841,1.5672586690723895
1790006492645715200,10.820715087890624,2.1191513778328894,9.444267471182346,1.5765120889775455
1790006492655727000,10.83072705078125,2.125399916833639,9.44114787785709,1.5867475056573748
1790006492665739300,10.8407392578125,2.132367710019648,9.437678740441799,1.5979977984681724
1790006492675752200,10.850752197265624,2.139806189457327,9.43402138697803,1.6096097641982137
1790006492685764400,10.860764404296875,2.1471765720948577,9.430354681164026,1.6212378042802214
1790006492695777300,10.87077734375,2.1541014029219747,9.426706680050492,1.6332323395870625
1790006492705789400,10.88078955078125,2.160037222711742,9.423207147496939,1.6455412015400825
1790006492715801300,10.89080126953125,2.1659742115452882,9.419766067132354,1.657386099243164
1790006492725814000,10.90081396484375,2.172897142676264,9.416016359210014,1.6695903317779301
1790006492735826200,10.910826171875,2.1807912569269536,9.411830597957968,1.6828521105416119
1790006492745838000,10.920838134765624,2.189547102573514,9.407194170328975,1.697344454013556
1790006492755851300,10.930851318359375,2.199135015130043,9.402194170084595,1.712581770633906
1790006492765863200,10.94086328125,2.208524628635496,9.397297630214691,1.7273112838625906
1790006492775876400,10.95087646484375,2.217299178982526,9.392644251450896,1.7413256345592438
1790006492785888300,10.96088818359375,2.22536733462587,9.388081473580002,1.755574670794606
1790006492795900400,10.970900390625,2.233254434613883,9.383625663214922,1.7693292015112936
1790006492805913300,10.980913330078126,2.241785093202442,9.379126013708115,1.7823536643877624
1790006492815925200,10.99092529296875,2.250635193003714,9.374424704149364,1.7958776012189686
1790006492825937200,11.000937255859375,2.2590531849980353,9.369683062580227,1.8100024265527723
1790006492835950300,11.010950439453126,2.267406148932129,9.36486660220921,1.8244225815713404
1790006492845962200,11.020962158203124,2.275580395298451,9.360141327252984,1.8384386858336625
1790006492855974400,11.030974365234375,2.2838882049165665,9.355546985200046,1.851476884974539
1790006492865987300,11.0409873046875,2.292725006844848,9.351011679857969,1.8634293347053228
1790006492875999500,11.05099951171875,2.3008577521570026,9.346710183271766,1.8749499688901006
1790006492886012400,11.061012451171875,2.3071254342496395,9.342828957924246,1.8865576968364417
1790006492896024300,11.0710244140625,2.3124806776724753,9.339088017830251,1.8984872040830552
1790006492906036500,11.081036376953126,2.318334518267214,9.33528570293784,1.9100152909219263
1790006492916049200,11.091049072265625,2.325936225442588,9.331175929531454,1.92082543874979
1790006492926061300,11.101061279296875,2.3349188655823467,9.326773895180224,1.9312763978764413
1790006492936073200,11.1110732421875,2.3433906335905195,9.322180137649179,1.9431569514147937
1790006492946086400,11.12108642578125,2.3499225195772944,9.317837724530696,1.9560596876077352
1790006492956098300,11.131098388671875,2.3552578892558813,9.314028979897499,1.9677489563576875
1790006492966111500,11.141111572265626,2.361412904754281,9.31053704612851,1.9768666210539638
1790006492976123400,11.151123291015624,2.367111262526363,9.307394071927666,1.9848370154112576
1790006492986135300,11.16113525390625,2.3721437037356194,9.304262788164616,1.9934891084223985
1790006492996148200,11.171148193359375,2.377310292718559,9.300714155772328,2.003874601097405
1790006493006160400,11.181160400390626,2.3836720828354356,9.296522549301386,2.015732650543004
1790006493016172300,11.19117236328125,2.3916584054142236,9.291787921994924,2.0280606555879115
1790006493026185200,11.201185302734375,2.399204583010077,9.287260799959302,2.03985046210289
1790006493036197400,11.211197265625,2.4053655898578463,9.283575973966718,2.0493430975914
1790006493046210300,11.221210205078124,2.4104092831134794,9.28060543372333,2.0568616565279663
1790006493056222500,11.231222412109375,2.4144312321059402,9.277911956855654,2.0642808467432854
1790006493066234400,11.241234375,2.417994185284525,9.275014481848478,2.0731139954097566
1790006493076247600,11.25124755859375,2.422805238828063,9.271456497105955,2.0833869676209984
1790006493086259500,11.261259521484375,2.4294443845815956,9.267528510007262,2.093112681213021
1790006493096271400,11.271271240234375,2.4365553856305775,9.263736131986976,2.1016107527062298
1790006493106284300,11.2812841796875,2.442963206846267,9.260226078039407,2.1096305391632018
1790006493116296200,11.291296142578124,2.4476143936529753,9.257322757813334,2.1169662888787686
1790006493126308400,11.301308349609375,2.4499027968510982,9.255432414022087,2.122574338018894
1790006493136321300,11.3113212890625,2.4512062806650996,9.254282659465074,2.1260797157913447
1790006493146333400,11.32133349609375,2.453227557359636,9.25292890676856,2.129636385359615
1790006493156346400,11.331346435546875,2.4565531946510073,9.251075387856364,2.133849619140476
1790006493166358300,11.341358154296875,2.46035258693397,9.249136528748274,2.1378787285260854
1790006493176370400,11.351370361328126,2.463566288283467,9.247457781881094,2.141440512660891
1790006493186383400,11.36138330078125,2.4655671067118643,9.246260096529126,2.144299116962403
1790006493196395500,11.3713955078125,2.466741995710134,9.245556916695833,2.145979617395252
1790006493206407400,11.381407470703126,2.467162559209764,9.245342397162318,2.1464213698133827
1790006493216420400,11.39142041015625,2.4672379625335332,9.245659208026527,2.144969271308929
1790006493226432300,11.401432373046875,2.4671476539015766,9.246030379426479,2.1434724568799135
1790006493236445400,11.411445556640626,2.467363634739816,9.245795401626825,2.1442437335133553
1790006493246457300,11.421457275390624,2.4684368169292807,9.244863089212775,2.1470213815331456
1790006493256469200,11.43146923828125,2.4705016405045983,9.243758342841266,2.149407692147791
1790006493266482400,11.441482421875,2.473269936174154,9.242854087477921,2.1501092645458875
1790006493276494300,11.451494384765626,2.474998951923847,9.242485838687418,2.149703460223973
1790006493286506500,11.461506591796875,2.473910572165251,9.243075621274112,2.1484163430228826
1790006493296519200,11.471519287109375,2.470530574338138,9.244503608250618,2.146161988224834
1790006493306531300,11.48153125,2.4683590755179523,9.246053760302066,2.1419765192337334
1790006493316543200,11.491543212890624,2.4685008220762015,9.247089533090591,2.137340676126629
1790006493326556400,11.501556396484375,2.4694550540611147,9.24742797126472,2.1347684875510633
1790006493336568300,11.511568359375,2.470058280651271,9.247325679934024,2.13451845831275
1790006493346580200,11.521580322265624,2.470757953353226,9.247265474179386,2.1339662312574683
1790006493356593400,11.531593505859375,2.4719591458365318,9.24744492239952,2.1317937095239756
1790006493366605300,11.541605224609375,2.4719094614759087,9.248280788701772,2.1282292950406667
1790006493376618500,11.551618408203124,2.469534841299057,9.249621681916713,2.1251539792485534
1790006493386630400,11.56163037109375,2.4670570530086753,9.250833395794034,2.1227561243265867
1790006493396642600,11.571642578125,2.4669658675938844,9.251237884941697,2.121097835725546
1790006493406655200,11.5816552734375,2.4684838709414003,9.25067323679626,2.1217907864257692
1790006493416667400,11.59166748046875,2.4703660314261913,9.24962752713561,2.1241630685150623
1790006493426679300,11.60167919921875,2.47326789034754,9.248306507664918,2.1265356428653
1790006493436692200,11.611692138671875,2.4772443927630783,9.24684871007204,2.1282430313050744
1790006493446704400,11.621704345703124,2.480256726321578,9.245632320019602,2.130018370414525
1790006493456717300,11.63171728515625,2.4811212341964244,9.244867180866002,2.1323311774015425
1790006493466729500,11.6417294921875,2.4820140913829207,9.244041251435876,2.1348747244045136
1790006493476741400,11.651741455078126,2.4843048326686024,9.24296923829019,2.1368527464792133
1790006493486754300,11.66175439453125,2.4878128407895566,9.24151494782865,2.1390581475690005
1790006493496766200,11.67176611328125,2.4913413071766493,9.239615836209058,2.143155792146176
1790006493506778400,11.6817783203125,2.494896953831613,9.237387638765574,2.148613034638762
1790006493516791300,11.691791259765624,2.500392336377501,9.234867180377245,2.1530533551737663
1790006493526803200,11.70180322265625,2.505877782051265,9.232512726205586,2.1567739831320942
1790006493536816400,11.71181640625,2.508999421203136,9.230742209401726,2.1607193597570062
1790006493546828300,11.721828369140624,2.5120167231976986,9.229023715046047,2.1645498778305945
1790006493556840400,11.73184033203125,2.5174101066738364,9.226601456335187,2.1686047061793503
1790006493566853400,11.741853271484375,2.524236737823486,9.223450298827887,2.1740702781088648
1790006493576865500,11.751865478515626,2.5303110893011094,9.219953104361892,2.1818296600639817
1790006493586877400,11.76187744140625,2.5359055483072996,9.215987123340367,2.192061861873418
1790006493596890400,11.771890380859375,2.5413603065818546,9.211984901961683,2.2025440929211673
1790006493606902300,11.78190234375,2.5477669587537646,9.20828020222485,2.210617655391991
1790006493616914200,11.7919140625,2.556196933446824,9.20398864251077,2.2187445554852485
1790006493626927400,11.80192724609375,2.56477508443892,9.198833159443735,2.2301959238260984
1790006493636939300,11.811939208984375,2.570729901190102,9.193770030835271,2.244176079992205
1790006493646952400,11.821952392578124,2.576242527131736,9.188903301581739,2.2577412256166336
1790006493656964400,11.83196435546875,2.5839056091055275,9.183791073134541,2.269760749234259
1790006493666976500,11.8419765625,2.5944293412074444,9.178357942169905,2.279705512404442
1790006493676989400,11.851989501953126,2.6061133492603896,9.17254487197697,2.289757973732799
1790006493687001300,11.86200146484375,2.6156121222287414,9.166637109237909,2.302544243939221
1790006493697013500,11.872013427734375,2.6224218022435903,9.161089996504783,2.3168347812287506
1790006493707026200,11.882026123046876,2.630249134868383,9.155694859462976,2.329254556210339
1790006493717038300,11.892038330078124,2.640950561624765,9.149986418688297,2.3395510554276404
1790006493727051300,11.90205126953125,2.653245687313378,9.144130093875527,2.348522151260078
1790006493737063400,11.9120634765625,2.663866450048983,9.138608115583658,2.357974016346782
1790006493747075300,11.922075439453126,2.6713682039812205,9.133205964279174,2.3703848773695526
1790006493757088500,11.932088623046875,2.6777596585839984,9.12771321208179,2.3842875843852758
1790006493767100400,11.942100341796875,2.686239317637682,9.122292940598726,2.395469049743563
1790006493777112300,11.9521123046875,2.6968703095063566,9.117036335244775,2.403520254252106
1790006493787125200,11.962125244140625,2.70643133405596,9.112371850565076,2.4104570677779615
1790006493797138200,11.97213818359375,2.7137133077576756,9.107990859001875,2.418807839754969
1790006493807151000,11.982151123046876,2.718412571489811,9.103702806419134,2.4296540818095207
1790006493817163000,11.9921630859375,2.722052681557834,9.099872434476017,2.4399070341460405
1790006493827175200,12.002175048828125,2.726039413106441,9.097167851692438,2.445534080247581
1790006493837188000,12.01218798828125,2.7309596261128783,9.095058312192558,2.447888096027821
1790006493847200300,12.0222001953125,2.7360060958474874,9.092428548210858,2.4520140899166463
1790006493857212200,12.032212158203125,2.7400086094871163,9.08934577976465,2.4589716539695856
1790006493867225000,12.04222509765625,2.7427421261042353,9.086396866831183,2.4668103847712275
1790006493877237000,12.052237060546876,2.74288299587965,9.084407738840579,2.473964640440047
1790006493887250200,12.062250244140625,2.742725759491324,9.083447953897714,2.4776649562627076
1790006493897262000,12.072261962890625,2.743271995197236,9.083198363050817,2.477972122515738
1790006493907274000,12.08227392578125,2.7422622336328026,9.083572457060217,2.477720485842228
1790006493917287200,12.092287109375,2.7399264841616153,9.084382019877433,2.4773329478293658
1790006493927299000,12.102299072265625,2.7384774543970822,9.084314799860119,2.4791838363930583
1790006493937311200,12.112311279296875,2.7380875782966614,9.083480102601646,2.4826672945946453
1790006493947324200,12.12232421875,2.737718744984269,9.08293357463479,2.485075524780154
1790006493957336000,12.132336181640625,2.736366453592479,9.083554336881637,2.4842948957964777
1790006493967348200,12.14234814453125,2.7337410735249517,9.085239513489604,2.481018942865729
1790006493977361200,12.152361083984376,2.730508667474985,9.087157329809665,2.477554189364612
1790006493987373000,12.162373046875,2.7264254898145794,9.088948304879665,2.4754808902218937
1790006493997386000,12.172385986328125,2.72047447245568,9.090820528492332,2.475156772834062
1790006494007398100,12.182398193359376,2.7169232097148894,9.091835258492827,2.4753303758352994
1790006494017410000,12.19241015625,2.718907661530375,9.09087956520319,2.4766537333935497
1790006494027423200,12.20242333984375,2.7207728708803653,9.089899906516074,2.4782006705746054
1790006494037435100,12.21243505859375,2.716052564360201,9.091076549080015,2.4790681010589
1790006494047447300,12.222447265625,2.7071938428610562,9.093904465982318,2.4783847949698568
1790006494057460000,12.2324599609375,2.6988068305268884,9.097097709065675,2.4758096837848425
1790006494067472000,12.242471923828125,2.690993234166503,9.100853846728802,2.4705089470282195
1790006494077485000,12.252485107421874,2.685178118146956,9.103120038095117,2.4684856245070694
1790006494087497000,12.2624970703125,2.683387727598846,9.10272256321013,2.4718925103411076
1790006494097509000,12.272509033203125,2.6828517210260032,9.101371148601174,2.4774416689008474
1790006494107522000,12.28252197265625,2.6793527729943394,9.10154767421186,2.4805785056218506
1790006494117534200,12.2925341796875,2.673820273308456,9.102935913699865,2.4814517813250423
1790006494127546000,12.302546142578125,2.667025790862739,9.105272247692943,2.480194474740326
1790006494137559300,12.312559326171876,2.6606483647853136,9.107968062648176,2.4771470698684452
1790006494147571200,12.3225712890625,2.6548075298026204,9.11029504429102,2.474851360146701
1790006494157583000,12.3325830078125,2.6510864634528755,9.110901778012513,2.47660667938143
1790006494167596000,12.342595947265625,2.6502038353994486,9.109832102954387,2.481481299680471
1790006494177608000,12.35260791015625,2.6526912683010098,9.107652420827746,2.486823537491262
1790006494187621000,12.36262109375,2.6574779180556534,9.104591864213347,2.49290665679723
1790006494197633000,12.372633056640625,2.661371418362856,9.101315034499764,2.5007097317636013
1790006494207645200,12.382645263671876,2.661704888100922,9.098799836808443,2.5094936344608665
1790006494217658000,12.392658203125,2.661262112769484,9.096925859630108,2.5167437517195936
1790006494227670300,12.402670166015625,2.664708746092021,9.094638625475763,2.5213570907339453
1790006494237682200,12.41268212890625,2.669733880777657,9.09145590378642,2.5275191204950214
1790006494247695000,12.422695068359374,2.67563988995105,9.086882019999623,2.537695062072575
1790006494257707000,12.43270703125,2.6826646740213036,9.08060016325116,2.5527216585516928
1790006494267720000,12.442719970703125,2.6901474309921265,9.07383198429048,2.568863230535388
1790006494277732000,12.452732177734376,2.6983459350168704,9.067166096660495,2.583754510197043
1790006494287744000,12.462743896484374,2.70795138323009,9.060539371997118,2.5969264187201855
1790006494297757200,12.472757080078125,2.717709683917463,9.054091511031984,2.6091893957048655
1790006494307769000,12.48276904296875,2.726027722668648,9.048347998943925,2.6204119237259027
1790006494317781200,12.49278125,2.734742359521985,9.042339113917945,2.632049170027673
1790006494327794200,12.502794189453125,2.7449001809209586,9.035143649455904,2.6461472534850237
1790006494337806000,12.51280615234375,2.755699515093863,9.027356648841499,2.661451205600798
1790006494347818200,12.522818359375,2.767631360428035,9.01941007375121,2.675975697776675
1790006494357831000,12.532830810546875,2.781335476131737,9.010780192571877,2.6908003419429063
1790006494367843000,12.542843017578125,2.796815077075362,9.001210984715819,2.706735869960487
1790006494377856000,12.55285595703125,2.812171343900263,8.991464082205296,2.7231708719328043
1790006494387868200,12.5628681640625,2.8261118987083433,8.982066139262914,2.739699397407472
1790006494397880000,12.572880126953125,2.8406159326180815,8.972312807011603,2.7566107847198844
1790006494407893200,12.582893310546876,2.857317768833041,8.961777384471892,2.773562504042685
1790006494417905200,12.5929052734375,2.8754215808004138,8.950469808515907,2.7913167719200254
1790006494427917000,12.6029169921875,2.8951813432812687,8.93780088107884,2.8114091273561117
1790006494437930000,12.612929931640625,2.916128561981022,8.92384659000635,2.833998268043995
1790006494447942100,12.622942138671876,2.9376182169944047,8.909200225016475,2.857787432171404
1790006494457955000,12.632955078125,2.9594685220137236,8.894882361328602,2.879754057046771
1790006494467967000,12.642967041015625,2.9813647120013833,8.880982430791855,2.9000016030445694
1790006494477979100,12.652979248046876,3.0028260177031156,8.867445488348602,2.9192171756461263
1790006494487992000,12.662991943359375,3.0228841786086558,8.85428380895853,2.9384032298922538
1790006494498004200,12.673004150390625,3.0438714370578523,8.840973076486588,2.9567569249674674
1790006494508016000,12.68301611328125,3.0656223733559247,8.826890190598368,2.9763001220881935
1790006494518029300,12.693029296875,3.087550712047517,8.813451447832584,2.9934076164945957
1790006494528041200,12.703041259765625,3.1098247954368587,8.800633467313647,3.008024755389988
1790006494538053000,12.71305322265625,3.1323826642036434,8.78755420551002,3.0228213425055146
1790006494548066000,12.723066162109374,3.1533582322150466,8.774174499455095,3.0398338521048425
1790006494558078000,12.733077880859375,3.1730718174666164,8.761693203544617,3.055277212691307
1790006494568091100,12.743091064453125,3.1909163939759133,8.75079420838952,3.0679023009866473
1790006494578103000,12.75310302734375,3.206743493182957,8.741725351271032,3.077244422088563
1790006494588115000,12.763114990234374,3.221352448771894,8.7336905133754,3.0847914764672515
1790006494598128000,12.773128173828125,3.2348613341644405,8.725628787472843,3.093455259916186
1790006494608140000,12.78314013671875,3.2471219730615615,8.717762291881442,3.1027760459691285
1790006494618152200,12.793152099609374,3.2587948751986024,8.710174028709531,3.111833504910767
1790006494628165000,12.8031650390625,3.2701077118515967,8.702623174938559,3.12107830311805
1790006494638177300,12.81317724609375,3.2814635108634826,8.694466756489872,3.131871207550168
1790006494648189200,12.823189208984376,3.2926471681788563,8.686586232373118,3.1419860665902495
1790006494658202000,12.8332021484375,3.3020644003435966,8.679746741741894,3.1509920876055952
1790006494668214000,12.843214111328125,3.3098940710559486,8.674525792223214,3.157151194757223
1790006494678227200,12.853227294921876,3.31635333019793,8.670403159335255,3.1616914685353636
1790006494688239000,12.863239013671874,3.3220597251459956,8.665969560801983,3.1678491143822667
1790006494698251000,12.8732509765625,3.3287212288618084,8.660356981617213,3.176195794706046
1790006494708264200,12.88326416015625,3.33736309273988,8.653937177702783,3.184614371222257
1790006494718276000,12.893276123046874,3.347551017016172,8.647371243315934,3.1917505067124963
1790006494728288300,12.903288330078125,3.3588387192279097,8.640877789643406,3.197469176620245
1790006494738301000,12.913301025390625,3.3697385911658406,8.634210148447751,3.2040099765658376
1790006494748313000,12.92331298828125,3.3787299991339443,8.627973299884795,3.211329067407548
1790006494758325000,12.933324951171874,3.387284184728563,8.62209125610888,3.2181077677622434
1790006494768338200,12.943338134765625,3.3973499439299104,8.616148422056437,3.223409673562646
1790006494778350000,12.95335009765625,3.4087168488577007,8.609217161488532,3.229927384893596
1790006494788363000,12.963363037109374,3.4204350514411925,8.601734696778655,3.2374642101392146
1790006494798375200,12.973375244140625,3.4311914232552048,8.593848911964892,3.247008868075907
1790006494808387000,12.983386962890625,3.440110350508988,8.586498549202084,3.2570012697800994
