time,seconds_elapsed,z,y,x
1790006481878010000,0.053010009765625,0.09107691049575806,-0.30257850885391235,0.09988691657781601
1790006481888022300,0.063022216796875,0.11731810122728348,-0.2827448844909668,0.08047699928283691
1790006481898035000,0.073034912109375,0.12188569456338882,-0.24336738884449005,0.02653067745268345
1790006481908047000,0.083047119140625,0.12276160717010498,-0.23891617357730865,-0.04746764898300171
1790006481918060000,0.09306005859375,0.1364545077085495,-0.287586510181427,-0.10850091278553009
1790006481928072200,0.103072265625,0.14094780385494232,-0.37070029973983765,-0.112730011343956
1790006481938085000,0.113085205078125,0.1255888193845749,-0.44369328022003174,-0.063566192984581
1790006481948097300,0.12309716796875,0.09136346727609634,-0.44848936796188354,0.03268976882100105
1790006481958109200,0.133109130859375,0.04644046723842621,-0.36706268787384033,0.15144038200378418
1790006481968122400,0.143122314453125,-0.00552312983199954,-0.24464063346385956,0.25285330414772034
1790006481978134300,0.15313427734375,-0.055217716842889786,-0.1582767218351364,0.3327220380306244
1790006481988147000,0.16314697265625,-0.11161201447248459,-0.10254102200269699,0.36237019300460815
1790006481998159000,0.1731591796875,-0.13159771263599396,-0.14478302001953125,0.36524534225463867
1790006482008171000,0.1831708984375,-0.12888261675834656,-0.2168542742729187,0.34089288115501404
1790006482018184200,0.19318408203125,-0.11534284055233002,-0.2857031226158142,0.2846018970012665
1790006482028196000,0.203196044921875,-0.09674838185310364,-0.3850126564502716,0.2289322465658188
1790006482038209300,0.213209228515625,-0.07780877500772476,-0.4120296239852905,0.1790027767419815
1790006482048221200,0.22322119140625,-0.09010618925094604,-0.3464548885822296,0.14438967406749725
1790006482058233000,0.233233154296875,-0.09962459653615952,-0.21021661162376404,0.11816126108169556
1790006482068246000,0.24324609375,-0.09042363613843918,-0.04459276795387268,0.12405882775783539
1790006482078258000,0.2532578125,-0.09964350610971451,0.08504059165716171,0.14319230616092682
1790006482088271000,0.26327099609375,-0.1297484040260315,0.07806897163391113,0.17305460572242737
1790006482098283000,0.273282958984375,-0.13184884190559387,-0.002173938322812319,0.2011733204126358
1790006482108295200,0.283295166015625,-0.10900717973709106,-0.027481691911816597,0.21574534475803375
1790006482118308000,0.29330810546875,-0.08287064731121063,0.060084909200668335,0.20412197709083557
1790006482128320300,0.3033203125,-0.05856291204690933,0.1925385594367981,0.158271923661232
1790006482138333200,0.313333251953125,-0.03353585675358772,0.25107669830322266,0.09637447446584702
1790006482148345300,0.323345458984375,-0.026969298720359802,0.23999369144439697,0.03020983375608921
1790006482158357200,0.333357177734375,-0.037688255310058594,0.20924243330955505,-0.0192506592720747
1790006482168370200,0.3433701171875,-0.06879691034555435,0.1615457534790039,-0.04237355664372444
1790006482178382000,0.353382080078125,-0.09060446918010712,0.11768535524606705,-0.035362519323825836
1790006482188395000,0.36339501953125,-0.10499192774295807,0.09291955083608627,-0.007156978826969862
1790006482198407200,0.3734072265625,-0.095264732837677,0.0839521586894989,0.017101489007472992
1790006482208419000,0.383419189453125,-0.04800161346793175,-0.0009731190511956811,0.029752835631370544
1790006482218432300,0.393432373046875,-0.011788749136030674,-0.05729897692799568,0.0279738437384367
1790006482228444200,0.403444091796875,0.030492927879095078,-0.03357473760843277,0.03170520067214966
1790006482238457000,0.41345703125,0.07458528876304626,0.009699232876300812,0.048346493393182755
1790006482248469000,0.423468994140625,0.09081938862800598,0.03321441262960434,0.05957011878490448
1790006482258481200,0.433481201171875,0.08198754489421844,0.02893604338169098,0.060138437896966934
1790006482268494000,0.443494140625,0.051293812692165375,-0.07483136653900146,0.04640691354870796
1790006482278506000,0.453506103515625,0.02737409994006157,-0.20299945771694183,0.03086310811340809
1790006482288519200,0.463519287109375,0.03033420443534851,-0.31023696064949036,0.0400126650929451
1790006482298531000,0.473531005859375,0.01721600443124771,-0.29300203919410706,0.04841919615864754
1790006482308543200,0.483543212890625,0.025537317618727684,-0.18728041648864746,0.07333333790302277
1790006482318556200,0.49355615234375,0.058934155851602554,-0.012165852822363377,0.08090363442897797
1790006482328568300,0.503568359375,0.08058992028236389,0.07499834150075912,0.04796619340777397
1790006482338581000,0.5135810546875,0.07023607939481735,0.09386151283979416,-0.026010828092694283
1790006482348593200,0.52359326171875,0.07737760990858078,0.0897623747587204,-0.10102541744709015
1790006482358605000,0.53360498046875,0.07611127942800522,0.08907235413789749,-0.13686783611774445
1790006482368618200,0.5436181640625,0.059663597494363785,0.08867473900318146,-0.12673237919807434
1790006482378630100,0.553630126953125,0.050869304686784744,0.0778292864561081,-0.06675985455513
1790006482388643000,0.56364306640625,0.0719841793179512,0.044910747557878494,0.017133180052042007
1790006482398655200,0.5736552734375,0.05157211422920227,-0.003328418591991067,0.07895686477422714
1790006482408668200,0.583668212890625,0.007413174957036972,-0.01314989011734724,0.10776934027671814
1790006482418680000,0.59368017578125,-0.04151841625571251,-0.003771568648517132,0.1136874184012413
1790006482428692200,0.603692138671875,-0.0669444128870964,0.0062459115870296955,0.1012864038348198
1790006482438705200,0.613705078125,-0.059479039162397385,0.011712582781910896,0.08147967606782913
1790006482448717000,0.623717041015625,-0.037461619824171066,0.006604905705899,0.052260540425777435
1790006482458730200,0.633730224609375,-0.03435557708144188,-0.04081081226468086,0.03506610915064812
1790006482468742100,0.6437421875,-0.04043583944439888,-0.11197207123041153,0.03978842496871948
1790006482478754000,0.653754150390625,-0.03754737600684166,-0.16530533134937286,0.051474642008543015
1790006482488767200,0.663767333984375,-0.027607925236225128,-0.17723603546619415,0.06817212700843811
1790006482498779100,0.673779052734375,-0.004790494218468666,-0.12308544665575027,0.07257859408855438
1790006482508792000,0.6837919921875,0.017351027578115463,-0.057378072291612625,0.0660429298877716
1790006482518804000,0.693803955078125,0.024224113672971725,-0.018801383674144745,0.040104541927576065
1790006482528816000,0.703816162109375,0.021445637568831444,-0.039140477776527405,0.009900035336613655
1790006482538829000,0.7138291015625,0.007527158595621586,-0.09545301645994186,-0.007131412625312805
1790006482548841200,0.72384130859375,-0.009945308789610863,-0.13768382370471954,-0.010967696085572243
1790006482558854100,0.733854248046875,-0.018036257475614548,-0.12800882756710052,0.012563196010887623
1790006482568866300,0.7438662109375,-0.003221359569579363,-0.10158468037843704,0.045583728700876236
1790006482578878200,0.753878173828125,0.005107942968606949,-0.07912331074476242,0.06802565604448318
1790006482588891100,0.76389111328125,0.043707266449928284,-0.05573463439941406,0.061598118394613266
1790006482598903300,0.7739033203125,0.06574199348688126,-0.027233485132455826,0.011010573245584965
1790006482608916000,0.783916015625,0.08679694682359695,-0.025310415774583817,-0.06211104243993759
1790006482618928000,0.79392822265625,0.12353978306055069,-0.04183027148246765,-0.11757216602563858
1790006482628940000,0.80393994140625,0.1415795087814331,-0.08083279430866241,-0.12990394234657288
1790006482638953200,0.813953125,0.11437131464481354,-0.10969613492488861,-0.08758684247732162
1790006482648965000,0.823965087890625,0.07146592438220978,-0.10321933031082153,-0.016440492123365402
1790006482658978300,0.833978271484375,0.065125472843647,-0.09510494023561478,0.050034936517477036
1790006482668990200,0.843990234375,0.067656010389328,-0.06725919991731644,0.09673426300287247
1790006482679002000,0.854002197265625,0.07557891309261322,-0.01443992555141449,0.1344081461429596
1790006482689015000,0.86401513671875,0.10414610803127289,0.05975094810128212,0.16004319489002228
1790006482699027000,0.87402685546875,0.06409989297389984,0.10129546374082565,0.1752122938632965
1790006482709040000,0.8840400390625,0.0278012715280056,0.12714117765426636,0.20017170906066895
1790006482719052000,0.894052001953125,0.0186621006578207,0.15533019602298737,0.2630007266998291
1790006482729064200,0.904064208984375,0.03158136084675789,0.18741916120052338,0.37148115038871765
1790006482739077000,0.9140771484375,0.0032530513126403093,0.20499922335147858,0.48440876603126526
1790006482749089300,0.92408935546875,-0.023007581010460854,0.17434357106685638,0.5511220097541809
1790006482759102200,0.934102294921875,-0.07783860713243484,0.11481340229511261,0.5534349679946899
1790006482769114400,0.9441142578125,-0.1839248239994049,0.025659823790192604,0.5020080208778381
1790006482779126300,0.954126220703125,-0.3407333493232727,-0.06487487256526947,0.42999452352523804
1790006482789139200,0.96413916015625,-0.4230245053768158,-0.21720582246780396,0.37904053926467896
1790006482799151400,0.9741513671875,-0.3873541057109833,-0.3158988356590271,0.35635653138160706
1790006482809164300,0.984164306640625,-0.30655965209007263,-0.2585040032863617,0.3741387128829956
1790006482819176400,0.994176513671875,-0.22464881837368011,-0.11170655488967896,0.4151577949523926
1790006482829188400,1.004188232421875,-0.17977482080459595,0.11020373553037643,0.47196781635284424
1790006482839201500,1.014201416015625,-0.13740073144435883,0.4519016742706299,0.5391335487365723
1790006482849213400,1.02421337890625,-0.01907861977815628,0.8359148502349854,0.5887945294380188
1790006482859226400,1.034226318359375,0.10195885598659515,1.2008798122406006,0.6065466403961182
1790006482869238300,1.04423828125,0.16457882523536682,1.5438827276229858,0.5973459482192993
1790006482879250200,1.054250244140625,0.14968590438365936,1.8089960813522339,0.5513366460800171
1790006482889263400,1.064263427734375,0.0898771584033966,1.9945001602172852,0.4829655885696411
1790006482899275300,1.074275146484375,0.013993579894304276,2.072784662246704,0.4038792848587036
1790006482909288400,1.084288330078125,-0.07542791217565536,2.0565168857574463,0.32966339588165283
1790006482919300400,1.09430029296875,-0.1909925937652588,1.9167784452438354,0.2786619961261749
1790006482929312300,1.104312255859375,-0.3156823217868805,1.631211757659912,0.25730371475219727
1790006482939325400,1.114325439453125,-0.392717182636261,1.263837456703186,0.282847136259079
1790006482949337300,1.12433740234375,-0.3874260187149048,0.8866254687309265,0.353415846824646
1790006482959350300,1.134350341796875,-0.3110172748565674,0.5162058472633362,0.5048884749412537
1790006482969362200,1.144362060546875,-0.220005065202713,0.22608798742294312,0.7461197376251221
1790006482979374300,1.154374267578125,-0.1693248450756073,0.11313081532716751,0.9646952152252197
1790006482989387300,1.16438720703125,-0.057974886149168015,-0.039857134222984314,1.200111746788025
1790006482999399400,1.1743994140625,0.015451926738023758,-0.18880081176757812,1.3567205667495728
1790006483009412400,1.184412353515625,-0.029692914336919785,-0.3057266175746918,1.3836064338684082
1790006483019424500,1.194424560546875,-0.14584828913211823,-0.4899718463420868,1.291924238204956
1790006483029436400,1.2044365234375,-0.23247931897640228,-0.7809773087501526,1.1122727394104004
1790006483039449300,1.214449462890625,-0.2271236926317215,-0.9336451292037964,0.9544260501861572
1790006483049461200,1.224461181640625,-0.1547219306230545,-0.8829950094223022,0.8507558703422546
1790006483059474200,1.23447412109375,-0.05307280644774437,-0.6357380747795105,0.8270281553268433
1790006483069486300,1.244486328125,0.1393701434135437,-0.4679432213306427,0.909972071647644
1790006483079498200,1.254498291015625,0.33686110377311707,-0.31487512588500977,0.9978041648864746
1790006483089511400,1.264511474609375,0.4547414183616638,-0.24669207632541656,1.0506618022918701
1790006483099523300,1.2745234375,0.496351957321167,-0.21490378677845,1.087951421737671
1790006483109536500,1.28453662109375,0.44471487402915955,-0.24816720187664032,1.11897873878479
1790006483119548400,1.29454833984375,0.3099629282951355,-0.3048400580883026,1.1204427480697632
1790006483129560300,1.304560302734375,0.05380703881382942,-0.2801051437854767,1.0831621885299683
1790006483139573200,1.3145732421875,-0.2150542438030243,-0.19849658012390137,1.0180729627609253
1790006483149585200,1.324585205078125,-0.3757568597793579,-0.05259263888001442,0.9627849459648132
1790006483159597300,1.334597412109375,-0.302307665348053,0.20506685972213745,0.7975147366523743
1790006483169610200,1.3446103515625,-0.359394371509552,0.1525229662656784,0.7503610849380493
1790006483179622400,1.354622314453125,-0.5360735654830933,0.2875308394432068,0.8004692792892456
1790006483189635300,1.36463525390625,-0.4868159890174866,0.3278500437736511,0.870090663433075
1790006483199647500,1.3746474609375,-0.35390108823776245,0.2668237090110779,0.9259195923805237
1790006483209659400,1.384659423828125,-0.2799949049949646,0.21214768290519714,0.9386129975318909
1790006483219672300,1.39467236328125,-0.2326289862394333,0.09588658064603806,0.9381938576698303
1790006483229684500,1.4046845703125,-0.12678617238998413,-0.08647657185792923,0.9120432138442993
1790006483239697400,1.414697509765625,-0.03564055263996124,-0.2535848617553711,0.8386651277542114
1790006483249709300,1.424709228515625,-0.02455328032374382,-0.35242754220962524,0.7582951784133911
1790006483259721200,1.43472119140625,-0.03344131261110306,-0.39002498984336853,0.6764701008796692
1790006483269734400,1.444734375,-0.00987313687801361,-0.3761845529079437,0.5973113179206848
1790006483279746300,1.454746337890625,0.03550366684794426,-0.32927003502845764,0.4823344349861145
1790006483289759500,1.464759521484375,0.08741267025470734,-0.20843389630317688,0.35662150382995605
1790006483299771400,1.474771484375,0.17858146131038666,-0.08261951059103012,0.27349865436553955
1790006483309783600,1.484783447265625,0.3253898024559021,-0.035649340599775314,0.2958495020866394
1790006483319796200,1.494796142578125,0.5194434523582458,-0.07937897741794586,0.46940237283706665
1790006483329808100,1.50480810546875,0.6408564448356628,0.001728391507640481,0.7126994729042053
1790006483339821300,1.5148212890625,0.6210270524024963,0.2358229160308838,1.0316156148910522
1790006483349833200,1.524833251953125,0.5377753376960754,0.46867799758911133,1.4049543142318726
1790006483359845400,1.534845458984375,0.44023996591567993,0.6330421566963196,1.7543858289718628
1790006483369858300,1.5448583984375,0.4031195044517517,0.8587378859519958,1.9899791479110718
1790006483379870500,1.554870361328125,0.49343422055244446,0.9191133379936218,2.235445499420166
1790006483389882400,1.56488232421875,0.690317690372467,0.8327438235282898,2.411736011505127
1790006483399895600,1.5748955078125,0.8778910636901855,0.8094731569290161,2.463521957397461
1790006483409907500,1.584907470703125,0.9755638241767883,0.8672671914100647,2.3537914752960205
1790006483419920400,1.59492041015625,0.9961119890213013,0.7754791975021362,2.121216297149658
1790006483429932300,1.604932373046875,0.9106210470199585,0.43742287158966064,1.8554130792617798
1790006483439944200,1.614944091796875,0.7767138481140137,-0.1331053227186203,1.5937772989273071
1790006483449957400,1.624957275390625,0.6764546036720276,-0.844092071056366,1.3823970556259155
1790006483459969300,1.63496923828125,0.5353292226791382,-1.6194642782211304,1.268987774848938
1790006483469982500,1.644982421875,0.3485015332698822,-1.7258516550064087,1.2499935626983643
1790006483489381400,1.66438134765625,-0.03892982378602028,-0.7720964550971985,1.4458540678024292
1790006483499393500,1.6743935546875,-0.21503853797912598,-0.36313825845718384,1.4920732975006104
1790006483509406200,1.68440625,-0.3791566491127014,-0.2062932550907135,1.4398952722549438
1790006483519418000,1.694418212890625,-0.5236719846725464,-0.16280196607112885,1.341922640800476
1790006483529431300,1.704431396484375,-0.6246880888938904,-0.06978786736726761,1.2596405744552612
1790006483539443200,1.714443115234375,-0.6738615036010742,0.04662369564175606,1.2041621208190918
1790006483549455400,1.724455322265625,-0.6750551462173462,0.12974867224693298,1.08242928981781
1790006483559468300,1.73446826171875,-0.6094292402267456,0.14750529825687408,0.8243295550346375
1790006483569480400,1.74448046875,-0.4769905209541321,0.17389748990535736,0.4647831320762634
1790006483579493400,1.754493408203125,-0.3183790445327759,0.26774969696998596,0.14636653661727905
1790006483589505500,1.764505615234375,-0.16171219944953918,0.39547303318977356,-0.030131537467241287
1790006483599517400,1.774517333984375,-0.043119773268699646,0.5244824290275574,-0.041067808866500854
1790006483609530400,1.7845302734375,0.0056831855326890945,0.5862725377082825,0.08055049926042557
1790006483619542300,1.794542236328125,-0.009199357591569424,0.5182769894599915,0.25928643345832825
1790006483629555500,1.804555419921875,-0.05227998271584511,0.38148531317710876,0.3506232500076294
1790006483639567400,1.8145673828125,-0.08139951527118683,0.3302668631076813,0.3119342029094696
1790006483649579300,1.824579345703125,-0.04445881024003029,0.36295077204704285,0.22550874948501587
1790006483659592400,1.834592529296875,0.05223897099494934,0.4735521078109741,0.16890805959701538
1790006483669604400,1.844604248046875,0.16183577477931976,0.5412882566452026,0.20648686587810516
1790006483679617300,1.8546171875,0.22959138453006744,0.4947916269302368,0.313665509223938
1790006483689629400,1.86462939453125,0.2319064736366272,0.37968793511390686,0.4205690622329712
1790006483699641300,1.874641357421875,0.19084851443767548,0.24161076545715332,0.48341700434684753
1790006483709654300,1.884654296875,0.12549880146980286,0.16284644603729248,0.47781211137771606
1790006483719666200,1.894666259765625,0.09972845762968063,0.18252959847450256,0.4540378153324127
1790006483729679400,1.904679443359375,0.10023099929094315,0.2645120918750763,0.4489794075489044
1790006483739691300,1.914691162109375,0.11516626924276352,0.3005579710006714,0.5239385962486267
1790006483749703400,1.924703369140625,0.1322469860315323,0.23369024693965912,0.6416468620300293
1790006483759716400,1.93471630859375,0.09838542342185974,0.08121123164892197,0.7404612898826599
1790006483769728500,1.944728515625,0.03843873366713524,-0.15883199870586395,0.7858580946922302
1790006483779741200,1.9547412109375,-0.008674714714288712,-0.32653576135635376,0.7429063320159912
1790006483789753600,1.964753662109375,-0.029020998626947403,-0.24110902845859528,0.6702947616577148
1790006483799765500,1.974765625,-0.00010146643762709573,0.02027118392288685,0.5909407734870911
1790006483809778700,1.98477880859375,0.06542082130908966,0.2751287817955017,0.5043803453445435
1790006483819790600,1.99479052734375,0.12020417302846909,0.401009738445282,0.40537890791893005
1790006483829803800,2.0048037109375,0.1179809644818306,0.44030627608299255,0.2750520706176758
1790006483839815700,2.014815673828125,0.11538278311491013,0.05693332478404045,-0.1366846114397049
1790006483849828600,2.02482861328125,-0.025953570380806923,0.1977998912334442,-0.20806051790714264
1790006483859840500,2.034840576171875,-0.10507448762655258,0.23905839025974274,-0.22658148407936096
1790006483869852400,2.044852294921875,-0.09028089046478271,0.2858900725841522,-0.2120770961046219
1790006483879865600,2.054865478515625,-0.01302418950945139,0.3791385293006897,-0.20208518207073212
1790006483889877500,2.06487744140625,0.10664362460374832,0.48505696654319763,-0.18178683519363403
1790006483899890700,2.074890625,0.24681004881858826,0.5456305742263794,-0.15053385496139526
1790006483909902600,2.084902587890625,0.3592308759689331,0.5127370953559875,-0.12122070044279099
1790006483919914500,2.09491455078125,0.387447327375412,0.40383481979370117,-0.11865074932575226
1790006483929927700,2.104927734375,0.35765454173088074,0.22759588062763214,-0.08235079795122147
1790006483939939600,2.114939697265625,0.33086422085762024,-0.025495240464806557,-0.03442082554101944
1790006483949952500,2.124952392578125,0.3253732919692993,-0.1837940663099289,0.02003229781985283
1790006483959964400,2.13496435546875,0.27998799085617065,-0.09712628275156021,0.06669700145721436
1790006483969977600,2.1449775390625,0.21172396838665009,0.22394441068172455,0.09326975792646408
1790006483979989500,2.154989501953125,0.20223724842071533,0.49264219403266907,0.1303766518831253
1790006483990001700,2.165001708984375,0.2420283406972885,0.5256174206733704,0.1765476018190384
1790006484000014600,2.1750146484375,0.27084481716156006,0.3949425220489502,0.2087702602148056
1790006484010026800,2.18502685546875,0.2999398410320282,0.21744364500045776,0.21427953243255615
1790006484020039700,2.195039794921875,0.3074571490287781,0.0639459565281868,0.19889898598194122
1790006484030051600,2.205051513671875,0.27454474568367004,-0.026631876826286316,0.1814448982477188
1790006484040063700,2.215063720703125,0.20079994201660156,-0.09313846379518509,0.16791149973869324
1790006484050076400,2.225076416015625,0.09474195539951324,-0.11882118880748749,0.16762495040893555
1790006484060088600,2.235088623046875,-0.018617892637848854,-1.239498496055603,-0.6062728762626648
1790006484070101500,2.2451015625,-0.14502084255218506,-0.7280637621879578,-0.527209460735321
1790006484080113700,2.25511376953125,-0.0558379665017128,-0.6420335173606873,-0.5946449637413025
1790006484090126600,2.265126708984375,0.10480763763189316,-0.5022745728492737,-0.6015678644180298
1790006484100138800,2.275138671875,0.23484499752521515,-0.3349441587924957,-0.6261323094367981
1790006484110150700,2.285150634765625,0.3386339843273163,-0.2196471393108368,-0.6286503672599792
1790006484120163600,2.29516357421875,0.44775620102882385,-0.25976207852363586,-0.5904614329338074
1790006484130175500,2.305175537109375,0.5281650424003601,-0.32414186000823975,-0.5185275673866272
1790006484140188700,2.315188720703125,0.5392557382583618,-0.3742425739765167,-0.45211392641067505
1790006484150200600,2.32520068359375,0.5215467810630798,-0.43492135405540466,-0.3476034998893738
1790006484160213800,2.3352138671875,0.46633946895599365,-0.7780662178993225,-0.14879906177520752
1790006484170225700,2.3452255859375,0.3940783441066742,-1.4089325666427612,0.10270480811595917
1790006484180237600,2.355237548828125,0.3204459249973297,-1.7108274698257446,0.21199454367160797
1790006484190250800,2.365250732421875,0.06703788787126541,-1.3680613040924072,0.06309135258197784
1790006484200262700,2.3752626953125,0.0024562333710491657,-0.9361559748649597,0.06922061741352081
1790006484210275600,2.385275634765625,0.06040448695421219,-0.5828509330749512,0.13075028359889984
1790006484220287500,2.39528759765625,-0.003072488820180297,-0.11965875327587128,0.08360142260789871
1790006484230299600,2.405299560546875,-0.01703277975320816,0.17194166779518127,0.0702240988612175
1790006484240312600,2.4153125,-0.04555736482143402,0.23220421373844147,0.0178208090364933
1790006484250324500,2.425324462890625,-0.05514048412442207,-0.09110141545534134,0.08938127756118774
1790006484260337700,2.435337646484375,-0.10357645899057388,-0.21284329891204834,0.08867021650075912
1790006484270349600,2.445349609375,-0.2151506543159485,-0.1577904224395752,-0.006082926411181688
1790006484280362500,2.455362548828125,-0.26204147934913635,-0.15832360088825226,-0.053100235760211945
1790006484290374400,2.46537451171875,-0.21916750073432922,-0.28533080220222473,-0.0665966048836708
1790006484300386600,2.475386474609375,-0.0900673121213913,-0.3295520544052124,-0.09512171894311905
1790006484310399500,2.4853994140625,0.05504380911588669,-0.3448721766471863,-0.08592343330383301
1790006484320411600,2.49541162109375,0.09337202459573746,-0.31053629517555237,-0.09415499120950699
1790006484330424600,2.505424560546875,0.07930467277765274,-0.3050970733165741,-0.13054469227790833
1790006484340436700,2.515436767578125,0.05151458829641342,-0.3304482102394104,-0.1540931612253189
1790006484350448600,2.52544873046875,0.017893513664603233,-0.33509543538093567,-0.17974552512168884
1790006484360461800,2.5354619140625,-0.01648869551718235,-0.33357957005500793,-0.22989125549793243
1790006484370473700,2.5454736328125,-0.018400046974420547,-0.29260656237602234,-0.28408151865005493
1790006484380486400,2.555486328125,0.004549211822450161,0.07854194939136505,-0.3454125225543976
1790006484390498600,2.56549853515625,-0.003179814200848341,0.06932207942008972,-0.3182021975517273
1790006484400510500,2.575510498046875,0.07352801412343979,0.06582428514957428,-0.30389145016670227
1790006484410523600,2.585523681640625,0.15178845822811127,0.07879254966974258,-0.28122422099113464
1790006484420535600,2.59553564453125,0.16268424689769745,0.0763285905122757,-0.22738975286483765
1790006484430548700,2.605548828125,0.1703147441148758,0.04960297420620918,-0.15808257460594177
1790006484440560600,2.615560546875,0.16416816413402557,0.04850681498646736,-0.08549332618713379
1790006484450573600,2.625573486328125,0.12891323864459991,0.04619279503822327,-0.05593863129615784
1790006484460585500,2.63558544921875,0.10657943785190582,0.05222379043698311,-0.056779127568006516
1790006484470597600,2.64559765625,0.1025061383843422,0.0573011077940464,-0.04898485168814659
1790006484480610600,2.655610595703125,0.09519389271736145,0.07106565684080124,-0.05630801245570183
1790006484490622500,2.66562255859375,0.05721934884786606,0.11165516078472137,-0.05664277449250221
1790006484500635600,2.6756357421875,0.008387359790503979,0.14317792654037476,-0.04042278975248337
1790006484510647600,2.6856474609375,-0.026277942582964897,0.18896432220935822,-0.045454300940036774
1790006484520659700,2.69565966796875,-0.06442293524742126,0.23518748581409454,-0.0642828494310379
1790006484530672600,2.705672607421875,-0.0993737280368805,0.23811961710453033,-0.06560137867927551
1790006484540684800,2.715684814453125,-0.10378605127334595,0.22855673730373383,-0.00452764006331563
1790006484550697500,2.725697509765625,-0.09030912071466446,0.2235494703054428,0.11927445977926254
1790006484560709600,2.735709716796875,-0.0599253848195076,0.25823235511779785,0.20897957682609558
1790006484570722600,2.74572265625,-0.07320843636989594,0.30098381638526917,0.204241544008255
1790006484580734500,2.755734375,-0.031010646373033524,0.2713683843612671,0.24642282724380493
1790006484590746600,2.76574658203125,0.003914846573024988,0.2424376755952835,0.27503636479377747
1790006484600759600,2.775759521484375,0.02454528957605362,0.27410826086997986,0.20966507494449615
1790006484610771700,2.785771728515625,-0.015127819962799549,0.24805694818496704,0.06683282554149628
1790006484620784600,2.79578466796875,-0.1712748110294342,0.0919746607542038,-0.19151537120342255
1790006484630796500,2.805796630859375,-0.1489897519350052,-0.1678318828344345,-0.08532474935054779
1790006484640808700,2.81580859375,0.04364175349473953,-0.16580547392368317,0.03735163435339928
1790006484650821600,2.825821533203125,0.07436957210302353,0.2385888695716858,-0.07191254198551178
1790006484660833500,2.83583349609375,-0.06145590543746948,0.5215374827384949,-0.28517982363700867
1790006484670846700,2.8458466796875,-0.1407746970653534,0.3952655792236328,-0.45282021164894104
1790006484680858600,2.855858642578125,-0.1532963514328003,0.05625315383076668,-0.493583083152771
1790006484690870500,2.86587060546875,-0.11771172285079956,-0.26654407382011414,-0.38672640919685364
1790006484700883700,2.8758837890625,-0.029102224856615067,-0.3088763356208801,-0.30102214217185974
1790006484710895600,2.8858955078125,0.037764690816402435,-0.23496298491954803,-0.24397458136081696
1790006484720908500,2.895908447265625,0.08940258622169495,-0.22967074811458588,-0.1698140650987625
1790006484730920400,2.90592041015625,0.1360398530960083,-0.28996923565864563,-0.09858489781618118
1790006484740933600,2.91593359375,0.15776991844177246,-0.36036911606788635,-0.032114528119564056
1790006484750945500,2.925945556640625,0.18245182931423187,-0.1740383803844452,-0.051959868520498276
1790006484760957400,2.93595751953125,0.18696455657482147,-0.05631041154265404,-0.011885687708854675
1790006484770970600,2.945970703125,0.2492135465145111,-0.03707493096590042,0.05215321481227875
1790006484780982500,2.955982421875,0.27486005425453186,-0.020445354282855988,0.11174517124891281
1790006484791010800,2.9660107421875,0.2947549521923065,0.05956905335187912,0.14380110800266266
1790006484801023000,2.97602294921875,0.28408393263816833,0.11220137029886246,0.10665000975131989
1790006484811035000,2.986034912109375,0.2453644871711731,0.08849924057722092,0.02924177423119545
1790006484821047800,2.9960478515625,0.17385675013065338,-0.0019209380261600018,-0.04830308258533478
1790006484831060000,3.00606005859375,0.08921962231397629,-0.0386778861284256,-0.12924399971961975
1790006484841073000,3.016072998046875,0.04008723050355911,-0.013772803358733654,-0.1618988811969757
1790006484851085000,3.0260849609375,0.04146754741668701,0.001657551503740251,-0.1363503783941269
1790006484861097000,3.036096923828125,0.08404456824064255,-0.05097583308815956,-0.08582942187786102
1790006484871110000,3.04610986328125,0.07342840731143951,-0.07519727945327759,-0.05786889046430588
1790006484881121800,3.056121826171875,0.016684969887137413,-0.01690974086523056,-0.08385655283927917
1790006484891135000,3.066135009765625,-0.028111262246966362,-0.009999104775488377,-0.11732050031423569
1790006484901147000,3.07614697265625,-0.02220117673277855,-0.04397651180624962,-0.12806715071201324
1790006484911158800,3.08615869140625,-0.01781468279659748,-0.05650002881884575,-0.10321240872144699
1790006484921172000,3.096171875,0.010325075127184391,-0.02329227328300476,-0.08009377121925354
1790006484931183900,3.106183837890625,0.03834818676114082,0.03765843063592911,-0.0705905482172966
1790006484941196800,3.11619677734375,0.025123195722699165,0.06402745097875595,-0.0854501873254776
1790006484951208700,3.126208740234375,-0.0006314354832284153,0.0464916005730629,-0.1300666630268097
1790006484961222000,3.136221923828125,-0.007565508130937815,0.012996225617825985,-0.1828872561454773
1790006484971233800,3.14623388671875,0.01996918022632599,0.005651494022458792,-0.2156635820865631
1790006484981246000,3.156245849609375,0.059469982981681824,-0.006738063879311085,-0.2187616378068924
1790006484991259000,3.1662587890625,0.08766140788793564,-0.03335129842162132,-0.21235060691833496
1790006485001270800,3.176270751953125,0.10514505952596664,-0.06801234185695648,-0.19690054655075073
1790006485011284000,3.186283935546875,0.08917780965566635,-0.10158814489841461,-0.1715821474790573
1790006485021295900,3.1962958984375,0.06387805193662643,-0.08665739744901657,-0.1682201623916626
1790006485031308800,3.206308837890625,0.06681577861309052,-0.08220352977514267,-0.17003723978996277
1790006485041320700,3.21632080078125,0.056525327265262604,-0.11028842628002167,-0.17545437812805176
1790006485051332900,3.226332763671875,0.034689269959926605,-0.1312834471464157,-0.1949034482240677
1790006485061345800,3.236345703125,0.025888854637742043,-0.1559073030948639,-0.2261202186346054
1790006485071358000,3.24635791015625,0.036492232233285904,-0.17566609382629395,-0.2313317507505417
1790006485081371000,3.256370849609375,0.02468137815594673,-0.21760396659374237,-0.18703593313694
1790006485091383000,3.266383056640625,0.04751984775066376,-0.19797059893608093,-0.14509780704975128
1790006485101395000,3.27639501953125,0.07959628850221634,-0.13636502623558044,-0.11085008829832077
1790006485111407900,3.286407958984375,0.10006454586982727,-0.08127088844776154,-0.11387969553470612
1790006485121420000,3.296419921875,0.12010137736797333,-0.08518093824386597,-0.14198483526706696
1790006485131432700,3.3064326171875,0.1628917157649994,-0.12883147597312927,-0.16183044016361237
1790006485141444900,3.31644482421875,0.2156129777431488,-0.1693328320980072,-0.15414482355117798
1790006485151456800,3.326456787109375,0.266296923160553,-0.18815872073173523,-0.1378452181816101
1790006485161470000,3.336469970703125,0.2999422550201416,-0.18747802078723907,-0.12467242032289505
1790006485171481900,3.34648193359375,0.2944563925266266,-0.14352360367774963,-0.13452371954917908
1790006485181495000,3.3564951171875,0.2636103332042694,-0.1007673591375351,-0.1493101269006729
1790006485191507000,3.3665068359375,0.1649484783411026,-0.043103527277708054,-0.1747739464044571
1790006485201519900,3.376519775390625,-0.049969423562288284,-0.003760383464396,-0.25220987200737
1790006485211531800,3.38653173828125,-0.11847525089979172,-0.0635366290807724,-0.3201945126056671
1790006485221543700,3.396543701171875,-0.015351791866123676,0.05403713509440422,-0.44628506898880005
1790006485231556900,3.406556884765625,-0.0008913599886000156,0.6696603894233704,-0.35443025827407837
1790006485241568800,3.41656884765625,0.06041567400097847,0.4049496054649353,-0.16829261183738708
1790006485251582000,3.42658203125,0.03863314539194107,-0.021750036627054214,0.005091963801532984
1790006485261593900,3.43659375,0.011288607493042946,-0.008292817510664463,0.0046426886692643166
1790006485271606000,3.44660595703125,-0.005080778617411852,0.11305838078260422,-0.049620017409324646
1790006485281619000,3.456618896484375,-0.01576884277164936,-0.049200303852558136,0.02147546410560608
1790006485291631000,3.466631103515625,-0.003934287931770086,-0.16520866751670837,0.06896495074033737
1790006485301643800,3.476643798828125,-0.0022865901701152325,0.0006729807937517762,-0.0065529742278158665
1790006485311656000,3.486656005859375,0.003629888640716672,0.002240251051262021,-0.011710185557603836
1790006485321668900,3.4966689453125,-0.0014556838432326913,-0.044319260865449905,0.012465724721550941
1790006485331680800,3.5066806640625,-0.011170363053679466,-0.07086778432130814,0.019752932712435722
1790006485341693000,3.51669287109375,-0.021942317485809326,0.09852630645036697,-0.058096859604120255
1790006485351705900,3.526705810546875,-0.018010959029197693,0.12741973996162415,-0.07345344126224518
1790006485361718000,3.536718017578125,-0.015468438155949116,-0.010432667098939419,-0.003972637467086315
1790006485371730700,3.546730712890625,-0.02929823473095894,-0.09427057206630707,0.025071797892451286
1790006485381742800,3.556742919921875,-0.00987313687801361,-0.016566192731261253,-0.014054300263524055
1790006485391754800,3.566754638671875,-0.0372520312666893,0.028789037838578224,-0.03883341699838638
1790006485401768000,3.576767822265625,-0.06066574528813362,0.045573875308036804,-0.04218926653265953
1790006485411779800,3.58677978515625,-0.04779442027211189,-0.025404158979654312,-0.008048338815569878
1790006485421793000,3.59679296875,-0.02274525910615921,-0.08906782418489456,0.021756960079073906
1790006485431805000,3.606804931640625,0.0027917916886508465,-0.06888532638549805,0.013760553672909737
1790006485441816800,3.61681689453125,0.005254949443042278,-0.014908109791576862,-0.012690228410065174
1790006485451830000,3.626830078125,0.012921391054987907,-0.0011896340874955058,-0.01637151651084423
1790006485461842000,3.636842041015625,-0.006452040281146765,0.012707007117569447,-0.02159477397799492
1790006485471854800,3.646854736328125,-0.012853747233748436,0.026376480236649513,-0.025722673162817955
1790006485481866800,3.65686669921875,-0.013859889470040798,-0.012114453129470348,-0.009904029779136181
1790006485491880000,3.6668798828125,-0.024213993921875954,-0.0284111350774765,-0.0014245248166844249
1790006485501891800,3.676891845703125,-0.02653014473617077,0.022552713751792908,-0.026459304615855217
1790006485511904000,3.686904052734375,-0.031384553760290146,0.04554085433483124,-0.037693317979574203
1790006485521917000,3.6969169921875,-0.1357564926147461,0.08794423937797546,-0.06829942762851715
1790006485531928800,3.7069287109375,-0.26207929849624634,0.13912273943424225,-0.10451921820640564
1790006485541941800,3.716941650390625,-0.31065160036087036,0.15522846579551697,-0.11629678308963776
1790006485551954000,3.726953857421875,-0.3068009614944458,0.08275160193443298,-0.08689228445291519
1790006485561965800,3.7369658203125,-0.2796686589717865,0.03744830563664436,-0.06481814384460449
1790006485571978800,3.746978759765625,-0.24633388221263885,0.0032642364967614412,-0.0431021973490715
1790006485581991000,3.756990966796875,-0.19559507071971893,-0.009109608829021454,-0.028197016566991806
1790006485592003800,3.76700390625,-0.12342526763677597,-0.04899230971932411,-0.0020873856265097857
1790006485602016000,3.77701611328125,-0.04800214618444443,-0.031144870445132256,-0.00282082031480968
1790006485612029000,3.78702880859375,-0.0225556418299675,-0.028008997440338135,-0.004763596225529909
1790006485622041000,3.797041015625,-0.023915186524391174,-0.0360349677503109,-0.0001853560097515583
1790006485632053000,3.807052978515625,-0.05295109748840332,-0.08626724034547806,0.018571553751826286
1790006485642066000,3.81706591796875,-0.14033447206020355,-0.20406098663806915,0.05441024526953697
1790006485652077800,3.827077880859375,-0.17756280303001404,-0.21006375551223755,0.05218890309333801
1790006485662090800,3.8370908203125,-0.20718753337860107,-0.14644855260849,0.014116617850959301
1790006485672103000,3.84710302734375,-0.20166015625,-0.13426220417022705,0.0067721521481871605
1790006485682114800,3.85711474609375,-0.23055997490882874,-0.1007726863026619,-0.006783337332308292
1790006485692128000,3.8671279296875,-0.2948622703552246,-0.09930075705051422,-0.017946776002645493
1790006485702140000,3.877139892578125,-0.3714846074581146,-0.013677462935447693,-0.058873437345027924
1790006485712152800,3.88715283203125,-0.47512897849082947,0.0887029692530632,-0.11523790657520294
1790006485722165000,3.8971650390625,-0.4734240174293518,0.16452476382255554,-0.14143036305904388
1790006485732178000,3.907177978515625,-0.42293262481689453,0.3036285936832428,-0.19016620516777039
1790006485742189800,3.91718994140625,-0.38685664534568787,0.4654425382614136,-0.2563399076461792
1790006485752201700,3.92720166015625,-0.3728904724121094,0.43102648854255676,-0.23887409269809723
1790006485762215000,3.93721484375,-0.2659384608268738,0.1628783941268921,-0.10738584399223328
1790006485772226800,3.947226806640625,-0.010423346422612667,-0.022950589656829834,-0.010394584387540817
1790006485782240000,3.957239990234375,0.04789029434323311,0.09109608829021454,-0.04361565411090851
1790006485792236500,3.967236572265625,0.08089911192655563,0.04676297679543495,-0.02262142300605774
1790006485802248700,3.977248779296875,0.08664647489786148,0.02773522399365902,-0.018630143254995346
1790006485812261600,3.98726171875,0.08549545705318451,0.020112458616495132,-0.021340709179639816
1790006485822273800,3.997273681640625,0.062184810638427734,0.0390549898147583,-0.025418007746338844
1790006485832286700,4.00728662109375,0.049920421093702316,0.020495686680078506,-0.018683938309550285
1790006485842298600,4.017298583984375,0.04301031678915024,0.02443823032081127,-0.01938728056848049
1790006485852311600,4.0273115234375,0.03609888255596161,0.0303933247923851,-0.016810672357678413
1790006485862323500,4.037323486328125,0.0386296845972538,0.031498804688453674,-0.01570226438343525
1790006485872335600,4.047335693359375,0.03502775728702545,0.030128341168165207,-0.012240953743457794
1790006485882348500,4.0573486328125,0.027512850239872932,0.01968102715909481,-0.00993092730641365
1790006485892360700,4.067360595703125,0.059363991022109985,0.01739550195634365,-0.004574245307594538
1790006485902373600,4.07737353515625,0.07480686157941818,0.011388209648430347,-0.005092496518045664
1790006485912385800,4.0873857421875,0.028663868084549904,0.025171132758259773,-0.016451677307486534
1790006485922397700,4.097397705078125,-0.011892612092196941,0.03473640978336334,-0.021106351166963577
1790006485932410600,4.10741064453125,-0.02353595197200775,0.03513508290052414,-0.021815016865730286
1790006485942422500,4.117422607421875,-0.0479627326130867,0.04920536279678345,-0.03152383863925934
1790006485952435700,4.127435791015625,-0.09752469509840012,0.05868781358003616,-0.04216023534536362
1790006485962447600,4.137447509765625,-0.16722574830055237,0.07245022803544998,-0.05537723749876022
1790006485972460800,4.147460693359375,-0.14671966433525085,0.03026016801595688,-0.042081139981746674
1790006485982472700,4.15747265625,-0.09224044531583786,0.08886115998029709,-0.05228158086538315
1790006485992484600,4.167484619140625,-0.05654743313789368,0.08960232138633728,-0.05175134539604187
1790006486002497800,4.177497802734375,-0.021506357938051224,0.07843755185604095,-0.04439409449696541
1790006486012509700,4.187509765625,0.006207562051713467,0.0807824656367302,-0.04050454869866371
1790006486022522600,4.197522705078125,0.016732107847929,0.07931452989578247,-0.04176848381757736
1790006486032534500,4.207534423828125,0.015357650816440582,0.07905833423137665,-0.046958185732364655
1790006486042546700,4.217546630859375,0.038491200655698776,0.08042053878307343,-0.04625910893082619
1790006486052559600,4.2275595703125,0.044207941740751266,0.09351690113544464,-0.043121904134750366
1790006486062571500,4.237571533203125,0.0682046189904213,0.07944049686193466,-0.03736468404531479
1790006486072584700,4.247584716796875,0.08370208740234375,0.0674125924706459,-0.02827930822968483
1790006486082596600,4.2575966796875,0.08210738748311996,0.07200974225997925,-0.027108583599328995
1790006486092608800,4.26760888671875,0.09417257457971573,0.06609486043453217,-0.024587901309132576
1790006486102621400,4.277621337890625,0.09905307739973068,0.07488302886486053,-0.027585022151470184
1790006486112633600,4.287633544921875,0.07743886858224869,0.08019710332155228,-0.03044099546968937
1790006486122646500,4.297646484375,0.08575432002544403,0.05191326513886452,-0.030099578201770782
1790006486132658700,4.30765869140625,0.07558077573776245,0.05431357026100159,-0.0315382182598114
1790006486142671600,4.317671630859375,0.04519384354352951,0.03532043844461441,-0.023809459060430527
1790006486152683800,4.327683837890625,0.032457008957862854,0.03142184019088745,-0.022910108789801598
1790006486162695700,4.33769580078125,0.030714768916368484,0.029217805713415146,-0.021257884800434113
1790006486172708900,4.347708984375,0.03406928852200508,0.03242025896906853,-0.021757492795586586
1790006486182720800,4.357720703125,0.037278395146131516,0.03409485146403313,-0.02117745764553547
1790006486192733400,4.3677333984375,0.029210349544882774,0.03801555931568146,-0.019530026242136955
1790006486202745600,4.37774560546875,0.01643117144703865,0.024236897006630898,-0.011300858110189438
1790006486212757500,4.387757568359375,0.00526693370193243,0.015254320576786995,-0.008615326136350632
1790006486222770700,4.397770751953125,0.019892748445272446,0.02231649123132229,-0.008383364416658878
1790006486232782600,4.407782470703125,0.06738650053739548,0.02876320481300354,-0.009324525482952595
1790006486242795800,4.417795654296875,0.10536583513021469,0.051772914826869965,-0.01440983172506094
1790006486252807700,4.4278076171875,0.11206129193305969,0.05390078201889992,-0.019939353689551353
1790006486262819600,4.437819580078125,0.12376908212900162,0.05078701302409172,-0.026087792590260506
1790006486272832500,4.44783251953125,0.14118428528308868,0.019451994448900223,-0.01793612353503704
1790006486282844400,4.457844482421875,0.1670457124710083,0.039988961070775986,-0.017704695463180542
1790006486292857600,4.467857666015625,0.1276482343673706,0.023133814334869385,-0.015486015006899834
1790006486302869500,4.477869384765625,0.09186014533042908,0.028782645240426064,-0.013655357994139194
1790006486312882700,4.487882568359375,0.08440063148736954,0.0314820259809494,-0.01336001418530941
1790006486322894600,4.49789453125,0.07129015773534775,0.029318474233150482,-0.008978847414255142
1790006486332906800,4.50790673828125,0.09807144105434418,0.023323431611061096,-0.006080262828618288
1790006486342919700,4.517919677734375,0.10711606591939926,0.03117203339934349,-0.005418733693659306
1790006486352931800,4.527931884765625,0.07493309676647186,0.028537901118397713,-0.009839847683906555
1790006486362944500,4.537944580078125,0.08606670796871185,0.027646275237202644,-0.012238556519150734
1790006486372956700,4.547956787109375,0.08614420890808105,0.023154322057962418,-0.012292086146771908
1790006486382968600,4.557968505859375,0.09414353966712952,0.019946543499827385,-0.009127718396484852
1790006486392981500,4.5679814453125,0.0711095929145813,0.014345116913318634,-0.004864796530455351
1790006486402993700,4.57799365234375,0.03976791724562645,0.007613444700837135,-0.006617689039558172
1790006486413006600,4.588006591796875,0.003968376200646162,-0.0022272015921771526,-0.007955661043524742
1790006486423018800,4.598018798828125,0.0023960459511727095,-0.006582801695913076,-0.009067530743777752
1790006486433030700,4.60803076171875,0.0004796353168785572,-0.0034194989129900932,-0.008800948038697243
1790006486443043600,4.618043701171875,0.0019068233668804169,-0.0031246868893504143,-0.010730940848588943
1790006486453055700,4.6280556640625,0.013185576535761356,0.002026399364694953,-0.008984706364572048
1790006486463068700,4.638068603515625,0.045035120099782944,-0.006098905112594366,-0.009350624866783619
1790006486473080600,4.64808056640625,0.043779172003269196,0.011390073224902153,-0.015569904819130898
1790006486483093800,4.65809375,0.043358657509088516,0.009926400147378445,-0.02394527941942215
1790006486493105700,4.668105712890625,0.019941484555602074,-0.005047755315899849,-0.02755492925643921
1790006486503117600,4.67811767578125,0.009571666829288006,-0.003406981937587261,-0.029138443991541862
1790006486513130800,4.688130859375,0.004078631289303303,0.005504753906279802,-0.02815227583050728
1790006486523142700,4.698142578125,0.0004601942200679332,0.007962585426867008,-0.02666330151259899
1790006486533155600,4.708155517578125,0.008787366561591625,0.003602724289521575,-0.020204870030283928
1790006486543167500,4.71816748046875,0.028123246505856514,-0.009317602030932903,-0.015483618713915348
1790006486553179600,4.7281796875,0.008077633567154408,-0.007188138086348772,-0.0182929877191782
1790006486563192600,4.738192626953125,0.031208785250782967,0.013833790086209774,-0.01799844205379486
1790006486573204700,4.748204833984375,0.014481204561889172,0.00307648372836411,-0.011841213330626488
1790006486583217700,4.7582177734375,0.0021875204984098673,-0.00037736992817372084,-0.015357650816440582
1790006486593229600,4.7682294921875,0.0005283711361698806,-0.004820055328309536,-0.007280017249286175
1790006486603241700,4.77824169921875,-0.002945722546428442,-0.003500725142657757,-0.004168645944446325
1790006486613254700,4.788254638671875,-0.02744041197001934,-0.007524495478719473,-0.0010703244479373097
1790006486623266800,4.798266845703125,-0.028617529198527336,-0.004867459647357464,0.0031960594933480024
1790006486633279500,4.808279541015625,-0.024656344205141068,-0.01630254089832306,-0.0005020058597438037
1790006486643291600,4.818291748046875,-0.01780376397073269,-0.00577799417078495,-0.007229949813336134
1790006486653303600,4.828303466796875,-0.014547783881425858,-0.011589810252189636,-0.015238074585795403
1790006486663316700,4.838316650390625,-0.024345552548766136,-0.01350488979369402,-0.015585617162287235
1790006486673328600,4.84832861328125,-0.05853095278143883,-0.01684183068573475,-0.013404754921793938
1790006486683341800,4.858341796875,-0.05909687653183937,-0.047017041593790054,-0.017584586516022682
1790006486693353700,4.868353759765625,-0.060019396245479584,-0.03441256657242775,-0.01823333278298378
1790006486703366700,4.87836669921875,-0.06136322394013405,-0.03286473825573921,-0.018035460263490677
1790006486713378600,4.888378662109375,-0.04394508898258209,-0.023372700437903404,-0.013964551500976086
1790006486723390500,4.898390380859375,-0.02858077920973301,-0.015023424290120602,-0.012374111451208591
1790006486733403600,4.908403564453125,-0.03718332201242447,-0.03725762292742729,-0.01071016862988472
1790006486743415600,4.91841552734375,-0.04147447273135185,-0.027479561045765877,-0.006932741031050682
1790006486753428700,4.9284287109375,-0.09867890924215317,-0.02172180637717247,-0.01155439019203186
1790006486763440600,4.938440673828125,-0.08005302399396896,-0.02244805172085762,-0.005882123950868845
1790006486773452500,4.94845263671875,-0.0178756695240736,-0.017651431262493134,-0.003343332326039672
1790006486783465700,4.9584658203125,-0.005780124571174383,-0.006870689336210489,-0.005877862684428692
1790006486793478000,4.968477783203125,-0.005137504078447819,0.0005091963685117662,-0.008069644682109356
1790006486803491000,4.978490966796875,-0.004590490832924843,0.0011233213590458035,-0.0112236263230443
1790006486813503000,4.9885029296875,-0.0359172560274601,-0.023846743628382683,-0.008841694332659245
1790006486823515000,4.998514892578125,-0.09781098365783691,-0.02304166927933693,-0.004864796530455351
1790006486833528000,5.008528076171875,-0.1461327075958252,-0.013056146912276745,-0.012634835205972195
1790006486843540000,5.0185400390625,-0.08354948461055756,-0.025109346956014633,-0.013714213855564594
1790006486853553200,5.02855322265625,-0.005651227664202452,-0.022042717784643173,-0.010545585304498672
1790006486863565000,5.03856494140625,-0.0005834985640831292,-0.011998605914413929,-0.014574681408703327
1790006486873577200,5.0485771484375,-0.0002990729990415275,0.0029699571896344423,-0.013163738884031773
1790006486883590000,5.05858984375,0.002379534300416708,0.003626426449045539,-0.009820672683417797
1790006486893601800,5.068601806640625,-0.002939863596111536,-0.0068059745244681835,-0.007148723118007183
1790006486903615000,5.078614990234375,-0.010364756919443607,-0.002357163932174444,-0.005532450973987579
1790006486913627000,5.088626953125,-0.01629934459924698,0.0031523837242275476,-0.0031353395897895098
1790006486923639000,5.09863916015625,-0.01733930967748165,0.003147589974105358,-0.0068120998330414295
1790006486933652000,5.10865185546875,-0.008379103615880013,0.005528722424060106,-0.006127667147666216
1790006486943664000,5.1186640625,0.006505569908767939,-0.002389388158917427,-0.006654174067080021
1790006486953677000,5.128677001953125,0.0065649584867060184,-0.0018437063554301858,-0.00805899128317833
1790006486963689200,5.138689208984375,-0.0015339808305725455,0.0019587550777941942,-0.006933273747563362
1790006486973701000,5.148701171875,-0.007863249629735947,0.004292749334126711,-0.00424241553992033
1790006486983714000,5.158714111328125,-0.009777795523405075,-0.001981924520805478,-0.004572647623717785
1790006486993726000,5.168725830078125,-0.013850567862391472,-0.0011944277212023735,-0.006323143374174833
1790006487003739100,5.1787392578125,-0.051830705255270004,-0.0007784419576637447,-0.011517106555402279
1790006487013751000,5.1887509765625,-0.025681927800178528,0.0073774890042841434,-0.018518555909395218
1790006487023764000,5.198763916015625,-0.0046730488538742065,0.011156514286994934,-0.01937742717564106
1790006487033776000,5.208776123046875,-0.027707261964678764,0.010919226333498955,-0.018794460222125053
1790006487043788000,5.2187880859375,-0.06797931343317032,0.022907447069883347,-0.03453986719250679
1790006487053801000,5.228801025390625,-0.09285777062177658,0.022244052961468697,-0.07426171749830246
1790006487063812900,5.238812744140625,-0.018319617956876755,-0.006791593506932259,-0.0354437455534935
1790006487073826000,5.248825927734375,0.00458596320822835,-0.004454935900866985,-0.020955082029104233
1790006487083838000,5.258837890625,0.0054885088466107845,0.0016735304379835725,-0.013853764161467552
1790006487093849900,5.268849853515625,-0.0003049319493584335,0.007938883267343044,-0.005969741847366095
1790006487103863000,5.278863037109375,0.002784867538139224,0.011247062124311924,-0.004914331249892712
1790006487113875000,5.288875,0.004910602699965239,0.01059139147400856,-0.005027781706303358
1790006487123888000,5.29888818359375,0.006420881487429142,0.01083027757704258,-0.007744206115603447
1790006487133900000,5.308900146484375,0.004923652391880751,0.0031561122741550207,-0.00583658367395401
1790006487143912200,5.318912109375,0.004610997159034014,0.013170663267374039,-0.005940979812294245
1790006487153924900,5.3289248046875,0.006256298162043095,0.010147176682949066,-0.006391320377588272
1790006487163937000,5.33893701171875,0.008926915936172009,0.009611348621547222,-0.007733020931482315
1790006487173950000,5.348949951171875,0.012289157137274742,0.011844408698379993,-0.010369816794991493
1790006487183962000,5.358962158203125,0.016582438722252846,0.012591425329446793,-0.00603339122608304
1790006487193974000,5.36897412109375,0.009272594004869461,0.01278823334723711,-0.0019217369845137
1790006487203987200,5.3789873046875,0.009288307279348373,0.011147726327180862,-0.002382730133831501
1790006487213999000,5.3889990234375,0.016103336587548256,0.01167476549744606,-0.004052798729389906
1790006487224011800,5.39901171875,0.025182850658893585,0.005416336935013533,-0.010689395479857922
1790006487234024000,5.40902392578125,0.021998776122927666,0.011781292036175728,-0.010066215880215168
1790006487244035800,5.419035888671875,0.038233671337366104,0.008102667517960072,-0.010802580043673515
1790006487254049000,5.429049072265625,0.05354418605566025,0.004266650415956974,-0.009407083503901958
1790006487264061000,5.43906103515625,0.05028394237160683,0.004007258452475071,-0.01378239132463932
1790006487274074000,5.44907421875,0.05957145243883133,0.012914200313389301,-0.020135894417762756
1790006487284086000,5.4590859375,0.03244316205382347,0.01398585643619299,-0.02562600187957287
1790006487294098000,5.469097900390625,0.010915764607489109,0.018381403759121895,-0.02160968817770481
1790006487304111000,5.479111083984375,0.020711136981844902,0.01841256208717823,-0.018190188333392143
1790006487314123000,5.489123046875,0.022125009447336197,0.026093119755387306,-0.020866665989160538
1790006487324136000,5.499135986328125,0.013467338867485523,0.02358788438141346,-0.025374066084623337
1790006487334147800,5.50914794921875,0.027636688202619553,0.014594655483961105,-0.02142379991710186
1790006487344160000,5.519159912109375,0.020354274660348892,0.016503876075148582,-0.015979232266545296
1790006487354173000,5.5291728515625,0.016515327617526054,0.017133180052042007,-0.011451326310634613
1790006487364185000,5.53918505859375,0.01002333965152502,0.020785173401236534,-0.00469568558037281
1790006487374198000,5.549197998046875,0.006000102031975985,0.02111007831990719,-0.001882854849100113
1790006487384210200,5.559210205078125,0.00606534956023097,0.020564397796988487,-0.0018570221727713943
1790006487394222000,5.56922216796875,0.00720544857904315,0.017600299790501595,-0.0049247173592448235
1790006487404235000,5.579235107421875,0.0065263425931334496,0.01888687163591385,-0.005269330460578203
1790006487414247000,5.589246826171875,0.012352540157735348,0.015794409438967705,0.0008663262706249952
1790006487424259800,5.599259765625,0.014073474332690239,0.00948085356503725,0.0027566379867494106
1790006487434272000,5.60927197265625,0.014779744669795036,0.017715880647301674,0.0005403553950600326
1790006487444284000,5.619283935546875,0.00848349928855896,0.003745469730347395,0.00030173614504747093
1790006487454297000,5.629297119140625,0.006834203843027353,0.005827262531965971,0.002516420790925622
1790006487464309000,5.63930908203125,0.0013227921444922686,0.0047028763219714165,0.002507898723706603
1790006487474321200,5.649321044921875,-0.0017310547409579158,0.0038043255917727947,0.002924417145550251
1790006487484334000,5.659333984375,-0.0010245180455967784,-0.007218498270958662,-0.0012785836588591337
1790006487494346000,5.669345947265625,-0.00040426786290481687,-0.01065078005194664,-0.0034075146540999413
1790006487504359000,5.67935888671875,0.0010333064710721374,-0.010929613374173641,-0.004990497604012489
1790006487514370800,5.689370849609375,-0.0005584649043157697,-0.0096848513931036,-0.002169144805520773
1790006487524383000,5.699383056640625,0.0029137644451111555,-0.003964115399867296,0.005967078730463982
1790006487534396000,5.70939599609375,0.0037832865491509438,-0.005372128449380398,0.004433097783476114
1790006487544408000,5.719407958984375,0.0016527577536180615,0.003993942867964506,-0.0033712955191731453
1790006487554421000,5.7294208984375,0.010718158446252346,0.0001257012045243755,-0.006954045966267586
1790006487564433200,5.73943310546875,0.018316423520445824,0.0017241304740309715,-0.003611512714996934
1790006487574445000,5.749445068359375,0.014943263493478298,0.001187503570690751,-0.00047404266661033034
1790006487584458200,5.759458251953125,0.013006879016757011,-0.0011438276851549745,-0.0028551749419420958
1790006487594470100,5.76947021484375,0.01016688346862793,0.0007265103631652892,-0.0015877765836194158
1790006487604483000,5.779483154296875,0.0008759136544540524,-0.005660016089677811,-0.004011785611510277
1790006487614495000,5.789494873046875,0.0021081583108752966,-0.006878678686916828,-0.0031523837242275476
1790006487624507000,5.7995068359375,-0.00242161238566041,-0.004381699021905661,-0.004514856729656458
1790006487634520000,5.80952001953125,-0.004180363845080137,-0.007360977120697498,-0.00854448601603508
1790006487644532000,5.819531982421875,-0.0015707324491813779,-0.00845633540302515,-0.009022257290780544
1790006487654545200,5.829545166015625,-0.003626426449045539,-0.008444883860647678,-0.007753527257591486
1790006487664557000,5.83955712890625,-0.0024679512716829777,-0.00675297761335969,-0.007459780666977167
1790006487674569200,5.8495693359375,-0.0030810111202299595,-0.004517520312219858,-0.008114119060337543
1790006487684582000,5.859581787109375,-0.0035414716694504023,-0.005537510849535465,-0.008145811036229134
1790006487694593800,5.86959375,-0.003055711043998599,-0.0042719766497612,-0.006797452457249165
1790006487704607000,5.87960693359375,-0.0020623519085347652,-0.0037955371662974358,-0.009194829501211643
1790006487714619000,5.889618896484375,-0.0004849616379942745,-0.0022418489679694176,-0.00737296137958765
1790006487724631000,5.899631103515625,-0.0004913532175123692,0.0007776430575177073,-0.006791859865188599
1790006487734644000,5.90964404296875,0.000021305288100847974,-0.00002902845517382957,-0.007955927401781082
1790006487744656100,5.91965625,0.004431233741343021,0.002100967802107334,-0.0076115806587040424
1790006487754669000,5.9296689453125,0.0021489046048372984,0.003584614722058177,-0.005695968866348267
1790006487764681200,5.93968115234375,0.0000018642127770363004,0.0037025928031653166,-0.007240602280944586
1790006487774693000,5.949693115234375,0.0005928196478635073,0.012863067910075188,-0.013649499043822289
1790006487784706000,5.9597060546875,0.0018887137994170189,0.00643712654709816,-0.009434781037271023
1790006487794717200,5.96971728515625,0.004191282670944929,0.008478705771267414,-0.007504255045205355
1790006487804730400,5.97973046875,0.0041095237247645855,0.004841360729187727,-0.0017771273851394653
1790006487814742300,5.9897421875,0.0021499700378626585,0.009706157259643078,-0.0043295007199049
1790006487824754400,5.99975439453125,0.0024620923213660717,0.004820588044822216,-0.005909021943807602
1790006487834767400,6.009767333984375,0.0024916534312069416,-0.002296710154041648,-0.005840045865625143
1790006487844779500,6.019779541015625,0.004892759490758181,-0.0022825952619314194,-0.0036732980515807867
1790006487854791400,6.02979150390625,0.002210423583164811,-0.005279184319078922,-0.003905259305611253
1790006487864804600,6.0398046875,0.020290357992053032,0.0008769789128564298,-0.00019281286222394556
1790006487874816500,6.04981640625,0.005078115500509739,0.0004945489927195013,-0.002291117561981082
1790006487884829200,6.0598291015625,0.04999072849750519,-0.005005144979804754,-0.0004665858286898583
1790006487894841300,6.06984130859375,0.01281379908323288,-0.008959672413766384,-0.004775846842676401
1790006487904853200,6.079853271484375,0.0014317154418677092,-0.00993252545595169,-0.0057132793590426445
1790006487914866400,6.089866455078125,0.0028330706991255283,-0.006954045966267586,-0.008673116564750671
1790006487924878300,6.09987841796875,0.002939597237855196,-0.002912965603172779,-0.006625944748520851
1790006487934891500,6.1098916015625,0.0006588660762645304,0.0006876281695440412,-0.003212837502360344
1790006487944903400,6.1199033203125,0.0005584649043157697,-0.0035457327030599117,-0.008051268756389618
1790006487954915300,6.129915283203125,0.003996073268353939,-0.0016218650853261352,-0.006666691042482853
1790006487964928500,6.139928466796875,0.007643005810678005,0.0003528688393998891,-0.008489890955388546
1790006487974940400,6.1499404296875,0.013862552121281624,0.004297010600566864,-0.008157262578606606
1790006487984953300,6.159953369140625,0.014186126179993153,0.005909554194658995,-0.006065615452826023
1790006487994965200,6.16996533203125,0.011111507192254066,0.011066232807934284,-0.0041497377678751945
1790006488004977400,6.179977294921875,0.009089102037250996,0.012882242910563946,-0.005450425669550896
1790006488014990300,6.189990234375,0.010894726030528545,0.01630786620080471,-0.007062170654535294
1790006488025002500,6.20000244140625,0.013290504924952984,0.019450396299362183,-0.008592156693339348
1790006488035015400,6.210015380859375,0.015216769650578499,0.023793213069438934,-0.009044361300766468
1790006488045027600,6.220027587890625,0.018860772252082825,0.0236430112272501,-0.007156446576118469
1790006488055039500,6.23003955078125,0.01678297482430935,0.025120267644524574,-0.004989165812730789
1790006488065052200,6.24005224609375,0.013997840695083141,0.027412716299295425,-0.006046707276254892
1790006488075064300,6.250064208984375,0.012600746937096119,0.03154327720403671,-0.006227003410458565
1790006488085076200,6.260076171875,0.013175723142921925,0.032164327800273895,-0.006918093655258417
1790006488095089400,6.27008935546875,0.014650315046310425,0.03392361104488373,-0.005563876125961542
1790006488105101300,6.280101318359375,0.019841881468892097,0.035892222076654434,-0.006488259416073561
1790006488115114500,6.290114501953125,0.01721254177391529,0.037458159029483795,-0.008170045912265778
1790006488125126400,6.30012646484375,0.012804478406906128,0.03924247622489929,-0.005678392015397549
1790006488135138300,6.31013818359375,0.011003915220499039,0.04056287184357643,-0.005928196478635073
1790006488145151500,6.3201513671875,0.010545851662755013,0.04164811223745346,-0.006427539046853781
1790006488155163400,6.330163330078125,0.011461712419986725,0.04201562702655792,-0.007131412625312805
1790006488165176300,6.34017626953125,0.009670470841228962,0.044322457164525986,-0.008465123362839222
1790006488175188200,6.350188232421875,0.007890147157013416,0.04330992326140404,-0.0067814732901751995
1790006488185200400,6.360200439453125,0.004348675720393658,0.04286197945475578,-0.008328237570822239
1790006488195213300,6.37021337890625,0.0015430354978889227,0.045099567621946335,-0.005055212415754795
1790006488205225500,6.3802255859375,-0.002457032445818186,0.043893955647945404,-0.008705074898898602
1790006488215237400,6.3902373046875,-0.00640676636248827,0.04267875477671623,-0.007312774192541838
1790006488225250600,6.40025048828125,-0.009694173000752926,0.04134584218263626,-0.00860201008617878
1790006488235262500,6.410262451171875,-0.010982343927025795,0.03852875158190727,-0.004977181553840637
1790006488245275400,6.420275390625,-0.014740596525371075,0.036192357540130615,-0.006417419295758009
1790006488255287300,6.430287353515625,-0.01780616119503975,0.032882846891880035,-0.008701079525053501
1790006488265299200,6.44029931640625,-0.026697922497987747,0.030953122302889824,-0.007003314793109894
1790006488275312400,6.4503125,-0.02876879833638668,0.02792670577764511,-0.00717748561874032
1790006488285324300,6.46032421875,-0.03350948914885521,0.025494974106550217,-0.006788664031773806
1790006488295337500,6.47033740234375,-0.03657612204551697,0.024946894496679306,-0.009014533832669258
1790006488305349400,6.480349365234375,-0.0399162583053112,0.02358335629105568,-0.008757805451750755
1790006488315361500,6.490361572265625,-0.0438593327999115,0.020807277411222458,-0.009241701103746891
1790006488325374500,6.50037451171875,-0.04794834926724434,0.019342804327607155,-0.008410795591771603
1790006488335386400,6.510386474609375,-0.05390371009707451,0.016593357548117638,-0.008275240659713745
1790006488345399300,6.5203994140625,-0.05675861984491348,0.014151505194604397,-0.008013451471924782
1790006488355411200,6.5304111328125,-0.05903029814362526,0.012739763595163822,-0.009484848007559776
1790006488365423400,6.54042333984375,-0.061524346470832825,0.012262258678674698,-0.0115546565502882
1790006488375436300,6.550436279296875,-0.06685972213745117,0.013316337950527668,-0.009549829177558422
1790006488385448400,6.560448486328125,-0.07283079624176025,0.01775689236819744,-0.0079761678352952
1790006488395461400,6.57046142578125,-0.07553444057703018,0.01943148858845234,-0.00869309064000845
1790006488405473500,6.5804736328125,-0.07740450650453568,0.022792397066950798,-0.008698949590325356
1790006488415485400,6.5904853515625,-0.07709265500307083,0.024522386491298676,-0.010191384702920914
1790006488425498400,6.600498291015625,-0.08135025203227997,0.02726118266582489,-0.011754926294088364
1790006488435510300,6.61051025390625,-0.08663422614336014,0.029138710349798203,-0.01167663000524044
1790006488445522400,6.6205224609375,-0.09077917039394379,0.031446073204278946,-0.01239248737692833
1790006488455535400,6.630535400390625,-0.09689858555793762,0.034565966576337814,-0.010791128501296043
1790006488465547300,6.64054736328125,-0.09900567680597305,0.03400643542408943,-0.012265987694263458
1790006488475560400,6.650560546875,-0.10110504925251007,0.03550473228096962,-0.015450861304998398
1790006488485572400,6.660572265625,-0.10480950027704239,0.03275448456406593,-0.014187990687787533
1790006488495584500,6.67058447265625,-0.11171108484268188,0.03260241821408272,-0.01438160240650177
1790006488505597400,6.680597412109375,-0.11607120931148529,0.030700653791427612,-0.012900086119771004
1790006488515609600,6.690609619140625,-0.12341221421957016,0.027831630781292915,-0.014062821865081787
1790006488525622300,6.700622314453125,-0.13071513175964355,0.023562850430607796,-0.014600780792534351
1790006488535634200,6.71063427734375,-0.1334286332130432,0.01525831501930952,-0.014740063808858395
1790006488545646300,6.720646240234375,-0.1372409462928772,0.007793474476784468,-0.014634602703154087
1790006488555659300,6.7306591796875,-0.14177151024341583,-0.0023345269728451967,-0.016337960958480835
1790006488565671400,6.74067138671875,-0.14921104907989502,-0.011213239282369614,-0.015250857919454575
1790006488575683300,6.750683349609375,-0.1540588140487671,-0.02341477759182453,-0.01768765039741993
1790006488585696500,6.760696533203125,-0.16076119244098663,-0.03660621494054794,-0.014170147478580475
1790006488595708400,6.77070849609375,-0.1631726771593094,-0.047458063811063766,-0.012377840466797352
1790006488605721600,6.7807216796875,-0.16374579071998596,-0.058457717299461365,-0.01230353768914938
1790006488615733500,6.7907333984375,-0.16739219427108765,-0.07229284197092056,-0.01618962176144123
1790006488625745400,6.800745361328125,-0.1606045961380005,-0.06698142737150192,-0.003305781865492463
1790006488635758300,6.81075830078125,-0.17379096150398254,-0.061402108520269394,-0.015183746814727783
1790006488645770200,6.820770263671875,-0.15883146226406097,-0.07466518133878708,-0.006585997529327869
1790006488655783400,6.830783447265625,-0.1610053926706314,-0.11307728290557861,-0.01877581886947155
1790006488665795300,6.84079541015625,-0.15313096344470978,-0.09755585342645645,-0.0032740901224315166
1790006488675807500,6.850807373046875,-0.17803950607776642,-0.07125260680913925,-0.01582743227481842
1790006488685820400,6.8608203125,-0.17154085636138916,-0.036795031279325485,-0.02070421352982521
1790006488695832600,6.87083251953125,-0.14722087979316711,-0.06715267151594162,-0.017544372007250786
1790006488705844500,6.880844482421875,-0.11690212041139603,-0.11774580925703049,-0.008949019946157932
1790006488715857400,6.890857421875,-0.13578952848911285,-0.10464385151863098,-0.008747951127588749
1790006488725869300,6.900869384765625,-0.1566503345966339,-0.06275765597820282,-0.010047574527561665
1790006488735882200,6.91088232421875,-0.15061160922050476,-0.04470834881067276,-0.019060242921113968
1790006488745894400,6.920894287109375,-0.11646456271409988,-0.04567188024520874,-0.01750841923058033
1790006488755906300,6.93090625,-0.09179943054914474,-0.03173209726810455,-0.0068051754496991634
1790006488765919500,6.94091943359375,-0.09214670211076736,0.024654746055603027,-0.0004183826094958931
1790006488775931400,6.950931396484375,-0.09785518795251846,0.07909908145666122,-0.011419367976486683
1790006488785944600,6.960944580078125,-0.05584648624062538,0.07452243566513062,-0.015325427055358887
1790006488795956700,6.970956787109375,-0.027780763804912567,0.06344342231750488,-0.010632137767970562
1790006488805968600,6.98096875,-0.02509629912674427,0.09161514043807983,-0.009498430415987968
1790006488815981600,6.990981689453125,-0.04033437371253967,0.127391517162323,-0.013224725611507893
1790006488825993500,7.000993408203125,-0.022477079182863235,0.12914013862609863,-0.015497466549277306
1790006488836006700,7.011006591796875,0.012174640782177448,0.10339056700468063,-0.014596253633499146
1790006488846018600,7.0210185546875,0.015560584142804146,0.10431069135665894,-0.010754909366369247
1790006488856030700,7.03103076171875,-0.008742891252040863,0.13532426953315735,-0.002430400811135769
1790006488866043600,7.041043701171875,-0.01810363680124283,0.15339061617851257,-0.003716707695275545
1790006488876055600,7.0510556640625,-0.001068193931132555,0.12112775444984436,-0.010409764014184475
1790006488886067700,7.061067626953125,0.0070800138637423515,0.08198008686304092,-0.016994163393974304
1790006488896080400,7.071080322265625,-0.004914863966405392,0.07478688657283783,-0.013744041323661804
1790006488906092500,7.081092529296875,-0.025947177782654762,0.07415997982025146,-0.005801163613796234
1790006488916105500,7.09110546875,-0.025191904976963997,0.04445428401231766,-0.003162770066410303
1790006488926117600,7.10111767578125,-0.005102084018290043,0.005812349263578653,-0.00404587434604764
1790006488936129500,7.111129638671875,0.0002170476218452677,-0.013853764161467552,-0.004210457671433687
1790006488946142700,7.121142822265625,-0.007867776788771152,-0.004936435259878635,-0.004322576802223921
1790006488956154600,7.131154541015625,-0.003687146585434675,-0.006360161118209362,-0.007808920927345753
1790006488966166500,7.14116650390625,0.015267635695636272,-0.02822205051779747,-0.0024655545130372047
1790006488976179700,7.1511796875,0.03182317689061165,-0.048771534115076065,-0.0008306399104185402
1790006488986191600,7.161191650390625,0.028116855770349503,-0.047503337264060974,-0.005327120888978243
1790006488996204500,7.17120458984375,0.017913486808538437,-0.045055091381073,-0.007654191460460424
1790006489006216400,7.181216552734375,0.019036274403333664,-0.0656229555606842,-0.002388589084148407
1790006489016228600,7.191228515625,0.033484455198049545,-0.10724283009767532,0.003431216813623905
1790006489026241500,7.201241455078125,0.04963945969939232,-0.137406587600708,0.0013986921403557062
1790006489036253700,7.211253662109375,0.05211034044623375,-0.15249793231487274,0.0019060244085267186
1790006489046266600,7.2212666015625,0.05008473992347717,-0.16097183525562286,0.0065567027777433395
1790006489056278800,7.23127880859375,0.06060316041111946,-0.17946350574493408,0.0034618431236594915
1790006489066290700,7.241290771484375,0.07478475570678711,-0.1944754719734192,0.00276169809512794
1790006489076303400,7.251303466796875,0.07848948240280151,-0.19453246891498566,0.004493285436183214
1790006489086315500,7.2613154296875,0.07922770828008652,-0.18367210030555725,0.004729507956653833
1790006489096327400,7.271327392578125,0.08166343718767166,-0.1814747154712677,0.004565190523862839
1790006489106340600,7.281340576171875,0.09905973821878433,-0.1821698099374771,0.004835501778870821
1790006489116352500,7.2913525390625,0.11546747386455536,-0.17652177810668945,0.010223609395325184
1790006489126365700,7.30136572265625,0.1305721253156662,-0.16004985570907593,0.009315737523138523
1790006489136377600,7.311377685546875,0.14816710352897644,-0.14269350469112396,0.0114984642714262
1790006489146389500,7.321389404296875,0.16952085494995117,-0.12518028914928436,0.011365306563675404
1790006489156402700,7.331402587890625,0.19197316467761993,-0.09747569262981415,0.011697135865688324
1790006489166414600,7.34141455078125,0.21230453252792358,-0.06557794660329819,0.009661149233579636
1790006489176427500,7.351427490234375,0.2278909534215927,-0.033484987914562225,0.010706174187362194
1790006489186439400,7.361439453125,0.24658900499343872,-0.011358382180333138,0.009304285980761051
1790006489196451600,7.37145166015625,0.2588323652744293,0.00818043202161789,0.006135390605777502
1790006489206464500,7.381464599609375,0.2623938024044037,0.015497466549277306,0.01641838811337948
1790006489216476700,7.3914765625,0.2644641399383545,0.011663047596812248,0.014296913519501686
1790006489226488600,7.401488525390625,0.265544056892395,0.0007701861904934049,0.015246330760419369
1790006489236501800,7.411501708984375,0.26072612404823303,-0.0007621967233717442,0.016108661890029907
1790006489246513700,7.421513671875,0.25884246826171875,0.018744125962257385,0.01594913937151432
1790006489256526600,7.431526611328125,0.2727755904197693,0.037085048854351044,0.01474485732614994
1790006489266538500,7.44153857421875,0.301260769367218,0.05374632030725479,0.011144796386361122
1790006489276550700,7.451550537109375,0.3202967941761017,0.07340417802333832,0.012684369459748268
1790006489286563600,7.4615634765625,0.3242100179195404,0.098945751786232,0.011601528152823448
1790006489296575500,7.471575439453125,0.32450616359710693,0.12153521925210953,0.01047154888510704
1790006489306588700,7.481588623046875,0.328835129737854,0.14744777977466583,0.019992083311080933
1790006489316600600,7.4916005859375,0.3306133449077606,0.1789471060037613,0.023976173251867294
1790006489326612700,7.50161279296875,0.3277038335800171,0.21603456139564514,0.019698603078722954
1790006489336625700,7.511625732421875,0.33463364839553833,0.24423131346702576,0.0072866748087108135
1790006489346637600,7.521637451171875,0.345532089471817,0.2565028965473175,0.00026285400963388383
1790006489356649700,7.531649658203125,0.35656583309173584,0.2746874988079071,0.0034115093294531107
1790006489366662400,7.541662353515625,0.36214542388916016,0.30587708950042725,0.018314292654395103
1790006489376674600,7.551674560546875,0.3156421184539795,0.307683527469635,0.01016928069293499
1790006489386687500,7.5616875,0.30742305517196655,0.30352526903152466,0.008856874890625477
1790006489396699600,7.57169970703125,0.30244719982147217,0.2815565764904022,0.005736715160310268
1790006489406711600,7.581711669921875,0.31368789076805115,0.2698218822479248,0.008655539713799953
1790006489416724700,7.591724853515625,0.28641417622566223,0.2601298391819,-0.003139067906886339
1790006489426736600,7.601736572265625,0.20368121564388275,0.24945883452892303,-0.013106747530400753
1790006489436748500,7.61174853515625,0.17508579790592194,0.22902892529964447,-0.0040978058241307735
1790006489446761700,7.62176171875,0.16960421204566956,0.18984423577785492,0.013679859228432178
1790006489456773600,7.631773681640625,0.16892723739147186,0.12594914436340332,0.016936106607317924
1790006489466786600,7.64178662109375,0.14582563936710358,0.06255631893873215,0.007927698083221912
1790006489476798500,7.651798583984375,0.09934309870004654,0.024151409044861794,-0.00814767461270094
1790006489486810600,7.661810546875,0.0642133429646492,0.014639662578701973,-0.010039051994681358
1790006489496823600,7.671823486328125,0.05073295161128044,0.011945875361561775,-0.00202267081476748
1790006489506835700,7.681835693359375,0.06660565733909607,0.0018679412314668298,0.003961718175560236
1790006489516848600,7.6918486328125,0.06963234394788742,-0.01630759984254837,0.011128551326692104
1790006489526860800,7.70186083984375,0.05987824872136116,-0.02339826710522175,0.015370167791843414
1790006489536872700,7.711872802734375,0.0016503608785569668,-0.09224497526884079,-0.006549512036144733
1790006489546885400,7.721885498046875,-0.048588573932647705,-0.1349857747554779,-0.017345434054732323
1790006489556897500,7.7318974609375,-0.07909295707941055,-0.1891595423221588,-0.012150938622653484
1790006489566909400,7.741909423828125,-0.06645199656486511,-0.21630780398845673,-0.00797590147703886
1790006489576922600,7.751922607421875,-0.028673989698290825,-0.21339856088161469,0.008840363472700119
1790006489586934500,7.7619345703125,-0.00276063266210258,-0.17179545760154724,0.010599381290376186
1790006489596947700,7.77194775390625,-0.01793425902724266,-0.10705401748418808,0.026757843792438507
1790006489606959600,7.781959716796875,-0.027160780504345894,-0.07820825278759003,0.0032703618053346872
1790006489616971500,7.791971435546875,-0.02683374471962452,-0.0972013846039772,-0.02911554090678692
1790006489626984700,7.801984619140625,-0.0278614591807127,-0.1286463886499405,-0.04278022050857544
1790006489636996600,7.81199658203125,-0.0296095572412014,-0.12915106117725372,-0.023515446111559868
1790006489647008800,7.8220087890625,-0.031080953776836395,-0.08395055681467056,0.005339371506124735
1790006489657021400,7.832021484375,-0.037207555025815964,0.0044291033409535885,0.023001190274953842
1790006489667033600,7.84203369140625,0.009270197711884975,0.09570948034524918,0.02209385111927986
1790006489677046500,7.852046630859375,0.057012151926755905,0.14094646275043488,0.004604871850460768
1790006489687058700,7.86205859375,0.09686609357595444,0.13959836959838867,-0.028567995876073837
1790006489697070600,7.872070556640625,0.08959273248910904,0.13045361638069153,-0.042082205414772034
1790006489707083800,7.882083740234375,0.05519001930952072,0.1338677853345871,-0.03080904483795166
1790006489717095700,7.892095703125,0.03152516856789589,0.13995763659477234,-0.006987868342548609
1790006489727108400,7.9021083984375,0.06721258908510208,0.14310894906520844,0.01973748579621315
1790006489737120500,7.91212060546875,0.11659985035657883,0.15335893630981445,0.03301920369267464
1790006489747132400,7.92213232421875,0.1394881159067154,0.16750803589820862,0.019463712349534035
1790006489757145600,7.9321455078125,0.14045484364032745,0.17103458940982819,-0.013604225590825081
1790006489767157500,7.942157470703125,0.0980868861079216,0.1558934599161148,-0.03958389535546303
1790006489777169700,7.952169677734375,0.07548410445451736,0.14585520327091217,-0.0311075858771801
1790006489787182600,7.9621826171875,0.06842140108346939,0.13211622834205627,-0.006237922236323357
1790006489797194800,7.97219482421875,0.1205783486366272,0.13492372632026672,0.012633769772946835
1790006489807208000,7.9822080078125,0.20007237792015076,0.10414104908704758,0.024569258093833923
1790006489817219800,7.9922197265625,0.22393536567687988,0.12000363320112228,0.02281077392399311
1790006489827231700,8.002231689453126,0.19760681688785553,0.16756929457187653,0.018622953444719315
1790006489837244700,8.01224462890625,0.17184925079345703,0.22713728249073029,0.011128018610179424
1790006489847256600,8.022256591796875,0.19429171085357666,0.2541015148162842,0.0008615325787104666
1790006489857268700,8.032268798828126,0.24335086345672607,0.2536727488040924,-0.00839881133288145
1790006489867281700,8.04228173828125,0.3085589110851288,0.2574065029621124,0.00012516857532318681
1790006489877293800,8.0522939453125,0.32765403389930725,0.2870570719242096,0.023076290264725685
1790006489887306800,8.062306640625,0.32180121541023254,0.33280113339424133,0.03400830179452896
1790006489897319000,8.07231884765625,0.3231809735298157,0.3647010028362274,0.018747322261333466
1790006489907330800,8.082330810546875,0.3369103670120239,0.3932247757911682,-0.004548679105937481
1790006489917343700,8.09234375,0.35304006934165955,0.41228821873664856,-0.01848287135362625
1790006489927355600,8.102355712890626,0.35588619112968445,0.439486026763916,-0.011683554388582706
1790006489937367600,8.112367431640624,0.364508718252182,0.45440584421157837,-0.0027113643009215593
1790006489947380700,8.122380615234375,0.3603363335132599,0.478187620639801,0.023449931293725967
1790006489957392600,8.132392578125,0.36019253730773926,0.49127039313316345,0.023480825126171112
1790006489967405800,8.14240576171875,0.376016229391098,0.4857954680919647,-0.0009619337506592274
1790006489977417700,8.152417724609375,0.3972293734550476,0.48530545830726624,-0.031128358095884323
1790006489987430000,8.162429931640625,0.3971276581287384,0.5128478407859802,-0.03592497855424881
1790006489997442800,8.17244287109375,0.34495818614959717,0.5380623936653137,-0.018275942653417587
1790006490007455000,8.182455078125,0.32013964653015137,0.5396504402160645,-0.013279319740831852
1790006490017467600,8.192467529296875,0.3340357542037964,0.5201196074485779,-0.02719992958009243
1790006490027479600,8.2024794921875,0.3573860824108124,0.5046964287757874,-0.0335177481174469
1790006490037491700,8.21249169921875,0.38134336471557617,0.4880703389644623,-0.02033962681889534
1790006490047504600,8.222504638671875,0.3968735933303833,0.46086615324020386,-0.0030162963084876537
1790006490057516800,8.232516845703126,0.3751499056816101,0.42954710125923157,-0.0020905814599245787
1790006490067528700,8.24252880859375,0.338058203458786,0.4102698266506195,-0.012165320105850697
1790006490077542000,8.2525419921875,0.2971070408821106,0.38693228363990784,-0.03338512033224106
1790006490087553800,8.2625537109375,0.31746265292167664,0.3582814633846283,-0.03725016489624977
1790006490097566700,8.272566650390624,0.3763616383075714,0.3312234580516815,-0.02983938902616501
1790006490107579000,8.282578857421875,0.41086822748184204,0.32524600625038147,-0.020491693168878555
1790006490117590800,8.2925908203125,0.4001292884349823,0.3583344519138336,-0.014829546213150024
1790006490127603700,8.302603759765624,0.37294188141822815,0.37780269980430603,-0.009785785339772701
1790006490137615600,8.31261572265625,0.31979185342788696,0.3580649495124817,-0.014606639742851257
1790006490147627800,8.322627685546875,0.3035729229450226,0.30087727308273315,-0.027953337877988815
1790006490157640700,8.332640625,0.32625988125801086,0.24405688047409058,-0.0348312184214592
1790006490167652900,8.34265283203125,0.351508766412735,0.20931459963321686,-0.039689090102910995
1790006490177665800,8.352665771484375,0.35150185227394104,0.19738498330116272,-0.03863101452589035
1790006490187678000,8.362677978515626,0.33273348212242126,0.2027304768562317,-0.026921894401311874
1790006490197689900,8.37268994140625,0.2874522805213928,0.20894016325473785,-0.006246710661798716
1790006490207702800,8.382702880859375,0.2633109986782074,0.21954168379306793,0.007684551179409027
1790006490217714700,8.392714599609375,0.2629634439945221,0.23061271011829376,0.0002609897928778082
1790006490227726600,8.4027265625,0.2816905379295349,0.24493491649627686,-0.01648177206516266
1790006490237739800,8.41273974609375,0.28183168172836304,0.2745359539985657,-0.026080602779984474
1790006490247751700,8.422751708984375,0.26444071531295776,0.3183436095714569,-0.020245084539055824
1790006490257764900,8.432764892578126,0.22057712078094482,0.36754152178764343,-0.0009275790071114898
1790006490267776800,8.44277685546875,0.19505365192890167,0.41131511330604553,0.02245364338159561
1790006490277789000,8.452788818359375,0.18157485127449036,0.44258034229278564,0.04796619340777397
1790006490287801900,8.4628017578125,0.16304564476013184,0.4676817059516907,0.06295260041952133
1790006490297813800,8.472813720703124,0.15900909900665283,0.48391661047935486,0.052010469138622284
1790006490307826000,8.482825927734375,0.12843573093414307,0.48030269145965576,0.027413515374064445
1790006490317838600,8.492838623046875,0.10498446971178055,0.47890934348106384,0.02226162888109684
1790006490327850800,8.502850830078126,0.07619649916887283,0.47553858160972595,0.037099964916706085
1790006490337863700,8.51286376953125,0.05518602207303047,0.46533066034317017,0.05583396926522255
1790006490347875800,8.522875732421875,0.04227901250123978,0.45129820704460144,0.06826241314411163
1790006490357887700,8.5328876953125,0.036064792424440384,0.4298376441001892,0.06985018402338028
1790006490367901000,8.54290087890625,0.03329164534807205,0.4003450274467468,0.06029956042766571
1790006490377912800,8.552912841796875,0.027464646846055984,0.35817307233810425,0.053038984537124634
1790006490387925800,8.56292578125,0.021641379222273827,0.3142516613006592,0.04626549780368805
1790006490397937700,8.572937744140624,0.009829993359744549,0.28974366188049316,0.04171548783779144
1790006490407949600,8.582949462890625,-0.004434163216501474,0.27734771370887756,0.03882303088903427
1790006490417962800,8.592962646484375,0.003442401997745037,0.2720043659210205,0.04228327423334122
1790006490427974700,8.602974609375,0.023017967119812965,0.2731569707393646,0.04809535667300224
1790006490437986800,8.61298681640625,0.03951172158122063,0.2891561686992645,0.05645022541284561
1790006490447999700,8.622999755859375,0.0432654470205307,0.3186267018318176,0.0565120130777359
1790006490458012000,8.633011962890626,0.048472460359334946,0.34874865412712097,0.04151308909058571
1790006490468024800,8.64302490234375,0.053338322788476944,0.36676788330078125,0.03349590674042702
1790006490478037000,8.653037109375,0.06569512188434601,0.3774697780609131,0.03621872514486313
1790006490488049000,8.663048828125,0.07618238776922226,0.3943212032318115,0.049137186259031296
1790006490498061600,8.6730615234375,0.078976571559906,0.4135715961456299,0.05852722376585007
1790006490508073700,8.68307373046875,0.07413308322429657,0.4246048033237457,0.05829792842268944
1790006490518085600,8.693085693359375,0.0695955902338028,0.42470067739486694,0.05089354142546654
1790006490528098800,8.703098876953124,0.07440552115440369,0.42145562171936035,0.04562447592616081
1790006490538110700,8.71311083984375,0.07612406462430954,0.41255080699920654,0.04381805285811424
1790006490548124000,8.7231240234375,0.07923570275306702,0.4044444262981415,0.042749859392642975
1790006490558135800,8.7331357421875,0.07973717153072357,0.39712098240852356,0.04331018775701523
1790006490568147700,8.743147705078124,0.06859530508518219,0.3964639902114868,0.04970044270157814
1790006490578160600,8.75316064453125,0.06760621070861816,0.40688785910606384,0.06399336457252502
1790006490588172800,8.7631728515625,0.06991144269704819,0.4108208119869232,0.05620734766125679
1790006490598184700,8.773184814453124,0.0841849148273468,0.40663406252861023,0.043766655027866364
1790006490608197600,8.78319775390625,0.0948261097073555,0.39632442593574524,0.034994736313819885
1790006490618209800,8.793209716796875,0.0843295305967331,0.37503141164779663,0.041127461940050125
1790006490628222700,8.80322265625,0.06475156545639038,0.37564021348953247,0.053515154868364334
1790006490638235000,8.81323486328125,0.037933800369501114,0.3838166296482086,0.10091383010149002
1790006490648246800,8.823246826171875,0.04035727679729462,0.435604453086853,0.08838871866464615
1790006490658260000,8.833260009765626,0.07384359836578369,0.39412546157836914,0.0525289885699749
1790006490668271900,8.84327197265625,0.08399290591478348,0.3571208417415619,0.044004473835229874
1790006490678283800,8.85328369140625,0.08288050442934036,0.3803609311580658,0.04598560184240341
1790006490688296700,8.863296630859375,0.0817534551024437,0.3884601294994354,0.053763628005981445
1790006490698308600,8.87330859375,0.09950022399425507,0.39820596575737,0.05091032013297081
1790006490708321800,8.88332177734375,0.10502175986766815,0.37319087982177734,0.052679188549518585
1790006490718333700,8.893333740234375,0.11111053824424744,0.38315802812576294,0.04914917051792145
1790006490728345900,8.903345947265626,0.11938152462244034,0.40228646993637085,0.05145972967147827
1790006490738358800,8.91335888671875,0.12424179166555405,0.41994109749794006,0.06462959200143814
1790006490748370700,8.92337060546875,0.1441073715686798,0.4475226402282715,0.06761792302131653
1790006490758382800,8.9333828125,0.16932378709316254,0.458580881357193,0.04777684435248375
1790006490768395800,8.943395751953124,0.16950301826000214,0.4672348201274872,0.03676094487309456
1790006490778408000,8.953407958984375,0.1574024111032486,0.4847126305103302,0.05609176307916641
1790006490788420600,8.963420654296876,0.15812411904335022,0.5055148601531982,0.07556506246328354
1790006490798433000,8.97343310546875,0.1782674789428711,0.5193099975585938,0.07289178669452667
1790006490808445000,8.98344482421875,0.17626717686653137,0.5452084541320801,0.0780830830335617
1790006490818458000,8.9934580078125,0.18195834755897522,0.5698333978652954,0.06794309616088867
1790006490828470000,9.003469970703126,0.1838396042585373,0.586091160774231,0.041260622441768646
1790006490838482000,9.01348193359375,0.19845770299434662,0.6010357737541199,0.05265974998474121
1790006490848495000,9.0234951171875,0.2094227373600006,0.6313217878341675,0.08356893062591553
1790006490858507000,9.033507080078126,0.21056069433689117,0.6505388617515564,0.07726975530385971
1790006490868520000,9.04352001953125,0.2060013711452484,0.6490163207054138,0.04905063286423683
1790006490878531800,9.05353173828125,0.20242421329021454,0.6425160765647888,0.05375297740101814
1790006490888544000,9.0635439453125,0.20185349881649017,0.6446242332458496,0.07414719462394714
1790006490898557000,9.073556884765624,0.2015264630317688,0.6526001691818237,0.06631084531545639
1790006490908568800,9.08356884765625,0.20988132059574127,0.6649042367935181,0.0495435856282711
1790006490918581000,9.0935810546875,0.2082003355026245,0.67402583360672,0.062019962817430496
1790006490928594000,9.103593994140626,0.19860230386257172,0.6789857149124146,0.07627879083156586
1790006490938606000,9.113606201171875,0.19173002243041992,0.6722939610481262,0.08049803972244263
1790006490948619000,9.123618896484375,0.17930610477924347,0.662140429019928,0.0867796391248703
1790006490958631000,9.133630859375,0.1686558574438095,0.6467577219009399,0.0837835818529129
1790006490968643000,9.14364306640625,0.16688565909862518,0.6111406087875366,0.07254716753959656
1790006490978656000,9.153656005859375,0.1695442944765091,0.5656697750091553,0.0830133929848671
1790006490988668000,9.16366796875,0.12771429121494293,0.5172098278999329,0.09248785674571991
1790006490998679800,9.1736796875,0.09307987987995148,0.4668489396572113,0.0735732838511467
1790006491008693000,9.18369287109375,0.06136322394013405,0.413298636674881,0.05790937319397926
1790006491018705000,9.193704833984375,0.030825557187199593,0.36405518651008606,0.0806245356798172
1790006491028718000,9.203718017578124,0.019689282402396202,0.3264193832874298,0.10054817795753479
1790006491038730000,9.21372998046875,0.007435279432684183,0.29931241273880005,0.11276409775018692
1790006491048742100,9.2237421875,-0.014838866889476776,0.29343801736831665,0.11809388548135757
1790006491058754800,9.2337548828125,-0.033256225287914276,0.2842594087123871,0.11807870119810104
1790006491068767000,9.24376708984375,-0.04595524072647095,0.26664286851882935,0.11409354954957962
1790006491078779000,9.25377880859375,-0.05988384038209915,0.24751313030719757,0.10707105696201324
1790006491088792000,9.2637919921875,-0.07961573451757431,0.2329845130443573,0.11041492223739624
1790006491098804000,9.273803955078124,-0.09031418710947037,0.2096235305070877,0.1214558556675911
1790006491108817000,9.28381689453125,-0.09294725209474564,0.1824297308921814,0.12339624017477036
1790006491118829000,9.2938291015625,-0.1047341376543045,0.16831417381763458,0.12260208278894424
1790006491128841000,9.303841064453126,-0.11536680907011032,0.17420083284378052,0.11709120124578476
1790006491138854100,9.313854248046875,-0.12052109092473984,0.1697046160697937,0.10750941187143326
1790006491148866000,9.323865966796875,-0.08932295441627502,0.15136049687862396,0.1031239852309227
1790006491158878200,9.333878173828126,-0.07273972034454346,0.1246817409992218,0.09839607775211334
1790006491168891000,9.343890869140624,-0.080600306391716,0.11858151108026505,0.08917142450809479
1790006491178902800,9.35390283203125,-0.10275007784366608,0.12536858022212982,0.08044024556875229
1790006491188916000,9.363916015625,-0.11044688522815704,0.12750042974948883,0.08437879383563995
1790006491198928000,9.373927978515624,-0.103249691426754,0.12102255970239639,0.09967172890901566
1790006491208940000,9.38393994140625,-0.09199250489473343,0.1266855001449585,0.11571887880563736
1790006491218953000,9.393952880859375,-0.08664887398481369,0.14436250925064087,0.10298310965299606
1790006491228965000,9.403965087890626,-0.08128580451011658,0.1588522344827652,0.08368957042694092
1790006491238977000,9.41397705078125,-0.07330191135406494,0.17303915321826935,0.0832943543791771
1790006491248990000,9.423989990234375,-0.06606610119342804,0.18559277057647705,0.08519771695137024
1790006491259001900,9.434001953125,-0.06934578716754913,0.20317256450653076,0.08410395681858063
1790006491269015000,9.44401513671875,-0.07027709484100342,0.22320538759231567,0.09075041115283966
1790006491279027000,9.45402685546875,-0.06593587249517441,0.23421329259872437,0.08490530401468277
1790006491289038800,9.464038818359375,-0.0538637638092041,0.23955532908439636,0.07591846585273743
1790006491299052000,9.474052001953124,-0.044804755598306656,0.23644129931926727,0.07055725902318954
1790006491309064000,9.48406396484375,-0.03718731552362442,0.23655980825424194,0.0651497095823288
1790006491319076000,9.494076171875,-0.03446876257658005,0.23927836120128632,0.055571384727954865
1790006491329089000,9.504089111328126,-0.024715732783079147,0.23935292661190033,0.05468827858567238
1790006491339101200,9.51410107421875,-0.012085957452654839,0.23783652484416962,0.06246577575802803
1790006491349113900,9.52411376953125,0.002438922878354788,0.23963549733161926,0.07353706657886505
1790006491359125800,9.534125732421876,0.016639696434140205,0.23311634361743927,0.07027922570705414
1790006491369138000,9.544137939453124,0.018848787993192673,0.20912152528762817,0.05618683993816376
1790006491379150800,9.55415087890625,0.016530239954590797,0.16648271679878235,0.04253654181957245
1790006491389163000,9.5641630859375,-0.009123191237449646,0.11455640941858292,0.036974262446165085
1790006491399175000,9.5741748046875,-0.03737080842256546,0.07676614820957184,0.041856635361909866
1790006491409188000,9.58418798828125,-0.07273652404546738,0.04550383612513542,0.05305656045675278
1790006491419200000,9.594199951171875,-0.08974426984786987,0.024804681539535522,0.0621536523103714
1790006491429213000,9.604212890625,-0.1020057275891304,0.007142331451177597,0.05866837128996849
1790006491439224800,9.614224853515625,-0.12308064848184586,0.0016471651615574956,0.05131698399782181
1790006491449237000,9.624237060546875,-0.1603555828332901,-0.005646966863423586,0.047684431076049805
1790006491459250000,9.63425,-0.1910671591758728,-0.025414546951651573,0.0580662339925766
1790006491469261800,9.64426171875,-0.20111659169197083,-0.05121711641550064,0.0654546394944191
1790006491479274000,9.65427392578125,-0.20200316607952118,-0.07008667290210724,0.06964725255966187
1790006491489287000,9.664286865234375,-0.21124300360679626,-0.07681088894605637,0.07651767879724503
1790006491499299000,9.674299072265624,-0.22494283318519592,-0.0812985822558403,0.07318819314241409
1790006491509312000,9.68431201171875,-0.22706297039985657,-0.10042700171470642,0.06301198899745941
1790006491519324200,9.69432421875,-0.23549588024616241,-0.14824725687503815,0.06035095825791359
1790006491529336000,9.704336181640626,-0.22891494631767273,-0.20191848278045654,0.0670195147395134
1790006491539349000,9.714348876953125,-0.2519371807575226,-0.24207042157649994,0.05047968402504921
1790006491549361000,9.72436083984375,-0.27694186568260193,-0.2536786198616028,0.051303133368492126
1790006491559372800,9.734372802734375,-0.30283603072166443,-0.24903857707977295,0.059350673109292984
1790006491569386000,9.744385986328124,-0.2578696310520172,-0.23422767221927643,0.07188431173563004
1790006491579398000,9.75439794921875,-0.18309205770492554,-0.22921907901763916,0.045464154332876205
1790006491589411000,9.7644111328125,-0.14879827201366425,-0.2102632224559784,0.006885070353746414
1790006491599423000,9.774423095703124,-0.15327876806259155,-0.16036304831504822,-0.012463593855500221
1790006491609435100,9.78443505859375,-0.1800382137298584,-0.10423000156879425,0.005458415020257235
1790006491619448000,9.794447998046875,-0.1815524846315384,-0.06015228480100632,0.043475572019815445
1790006491629460000,9.8044599609375,-0.14961878955364227,-0.03721208497881889,0.05446910113096237
1790006491639472000,9.81447216796875,-0.12397973239421844,-0.0037433390971273184,0.035869050770998
1790006491649484800,9.82448486328125,-0.10191624611616135,0.0385708287358284,0.0028636970091611147
1790006491659497000,9.8344970703125,-0.08264747262001038,0.08052653074264526,-0.008053132332861423
1790006491669510000,9.844510009765624,-0.06873299181461334,0.11690185219049454,0.01715768128633499
1790006491679522000,9.85452197265625,-0.058819908648729324,0.14563550055027008,0.05205361545085907
1790006491689534000,9.864533935546875,-0.04445667937397957,0.15828604996204376,0.04954411834478378
1790006491699547100,9.874547119140624,-0.03254382684826851,0.15350407361984253,0.023305589333176613
1790006491709559000,9.88455908203125,-0.01563888043165207,0.1298741102218628,-0.0016626114957034588
1790006491719571000,9.894571044921875,-0.005594502668827772,0.10467341542243958,-0.000355532014509663
1790006491729583900,9.904583984375,-0.011564777232706547,0.09401863813400269,0.01404817495495081
1790006491739595800,9.914595703125,-0.016394952312111855,0.0987153947353363,0.023753266781568527
1790006491749608000,9.92460791015625,-0.001517202821560204,0.11295557767152786,0.022433936595916748
1790006491759620900,9.934620849609376,0.024899490177631378,0.12802641093730927,0.01601092517375946
1790006491769633000,9.944633056640624,0.049250103533267975,0.13382011651992798,-0.0030511836521327496
1790006491779646000,9.95464599609375,0.05023866891860962,0.1455603986978531,-0.011771172285079956
1790006491789658000,9.964658203125,0.04296291247010231,0.17551083862781525,0.01098340842872858
1790006491799669200,9.974669189453126,0.03707147017121315,0.20172379910945892,0.031246868893504143
1790006491809682200,9.98468212890625,0.04252109304070473,0.2194252908229828,0.034204043447971344
1790006491819694300,9.9946943359375,0.057802047580480576,0.23457814753055573,0.02245390973985195
1790006491829707300,10.004707275390626,0.07023847848176956,0.2546711564064026,0.015240471810102463
1790006491839719200,10.01471923828125,0.07216393947601318,0.28939133882522583,0.020774254575371742
1790006491849731300,10.0247314453125,0.07150454074144363,0.32592377066612244,0.03334037959575653
1790006491859744300,10.034744140625,0.06721632182598114,0.36298617720603943,0.04187048599123955
1790006491869756200,10.044756103515626,0.060880396515131,0.40067124366760254,0.04850681498646736
1790006491879768000,10.05476806640625,0.06704694777727127,0.4337453246116638,0.040652088820934296
1790006491889781200,10.06478125,0.08977355808019638,0.448830783367157,0.024643028154969215
1790006491899793200,10.074793212890626,0.12259489297866821,0.44520115852355957,0.019452260807156563
1790006491909805300,10.084805419921874,0.13698714971542358,0.4363054037094116,0.0191984623670578
1790006491919818200,10.094818359375,0.13040487468242645,0.4212207496166229,0.018399514257907867
1790006491929830400,10.104830322265625,0.1213032603263855,0.3872065842151642,0.0018913770327344537
1790006491939843000,10.114843017578124,0.11802064627408981,0.3351939618587494,-0.02088797092437744
1790006491949855200,10.124855224609375,0.13028743863105774,0.29600903391838074,-0.021412614732980728
1790006491959867100,10.1348671875,0.14607225358486176,0.29112717509269714,-0.006900783162564039
1790006491969880000,10.144880126953124,0.16445046663284302,0.31196534633636475,0.0009648632840253413
1790006491979892200,10.154892333984375,0.18694351613521576,0.32390856742858887,-0.012570653110742569
1790006491989904100,10.164904052734375,0.2095167338848114,0.32492828369140625,-0.02454475685954094
1790006491999917300,10.174917236328126,0.2164987474679947,0.3313712775707245,-0.022844063118100166
1790006492009929200,10.18492919921875,0.20311769843101501,0.3577682673931122,-0.009951167739927769
1790006492019942400,10.1949423828125,0.18942664563655853,0.39506796002388,0.005995308049023151
1790006492029954300,10.204954345703126,0.1911044418811798,0.4301316738128662,0.016351277008652687
1790006492039966200,10.21496630859375,0.21265660226345062,0.46377140283584595,0.022415027022361755
1790006492049979100,10.224979248046875,0.23481810092926025,0.5063273906707764,0.02515249140560627
1790006492059991000,10.234990966796875,0.2502892017364502,0.5551513433456421,0.031688153743743896
1790006492070003200,10.245003173828126,0.2568240761756897,0.5937195420265198,0.031025027856230736
1790006492080016100,10.25501611328125,0.2653762698173523,0.6020219326019287,0.026453711092472076
1790006492090028300,10.2650283203125,0.2677401006221771,0.5826581120491028,0.027546672150492668
1790006492100041200,10.275041259765626,0.25949761271476746,0.5607578754425049,0.034321755170822144
1790006492110053400,10.285053466796874,0.24459031224250793,0.541475236415863,0.03440910577774048
1790006492120065300,10.295065185546875,0.2327626794576645,0.5193049311637878,0.02388562448322773
1790006492130078200,10.305078125,0.24322223663330078,0.4860157072544098,0.005800365004688501
1790006492140090000,10.315090087890624,0.25893330574035645,0.4523315131664276,-0.006581469904631376
1790006492150102000,10.32510205078125,0.25986647605895996,0.43790438771247864,-0.0032314795535057783
1790006492160115200,10.335115234375,0.2533411979675293,0.4447822570800781,0.008347677998244762
1790006492170127000,10.345127197265626,0.22727523744106293,0.44075900316238403,0.013001552782952785
1790006492180139300,10.35513916015625,0.22127778828144073,0.4380934536457062,0.016352875158190727
1790006492190152200,10.365152099609375,0.2105599045753479,0.43252718448638916,0.01901363767683506
1790006492200164400,10.375164306640626,0.194038987159729,0.43377965688705444,0.024570323526859283
1790006492210177300,10.38517724609375,0.17996791005134583,0.43675389885902405,0.02642148733139038
1790006492220189400,10.395189453125,0.16917598247528076,0.42972713708877563,0.026693662628531456
1790006492230201300,10.405201416015625,0.1595555692911148,0.4157452881336212,0.025650501251220703
1790006492240214000,10.415214111328124,0.14210893213748932,0.40212878584861755,0.03479739651083946
1790006492250226200,10.42522607421875,0.11829069256782532,0.39265140891075134,0.049345713108778
1790006492260239000,10.435239013671875,0.097963847219944,0.3783015012741089,0.06034936010837555
1790006492270251300,10.445251220703126,0.09810765832662582,0.33607974648475647,0.05476444587111473
1790006492280263200,10.45526318359375,0.09415233135223389,0.2852269411087036,0.037991322576999664
1790006492290276400,10.4652763671875,0.07544469088315964,0.25122717022895813,0.02731337957084179
1790006492300288300,10.475288330078126,0.03472202643752098,0.2252216637134552,0.019904466345906258
1790006492310300200,10.485300048828124,0.013399428687989712,0.19164612889289856,0.027061179280281067
1790006492320313000,10.49531298828125,0.009786584414541721,0.13960610330104828,0.03262931481003761
1790006492330325200,10.5053251953125,0.004667988512665033,0.09466099739074707,0.029095834121108055
1790006492340337200,10.515337158203126,-0.01763332262635231,0.07327341288328171,0.017605891451239586
1790006492350350000,10.52535009765625,-0.038126081228256226,0.06883233040571213,0.011591408401727676
1790006492360362200,10.5353623046875,-0.04032425209879875,0.05642465874552727,0.010969560593366623
1790006492370375200,10.545375244140626,-0.027170633897185326,0.045764293521642685,0.011896606534719467
1790006492380387300,10.55538720703125,-0.02701617032289505,0.0537247471511364,0.016575515270233154
1790006492390399200,10.565399169921875,-0.033490050584077835,0.08694767951965332,0.028596756979823112
1790006492400412400,10.575412353515626,-0.03877296298742294,0.11763768643140793,0.04093704745173454
1790006492410424300,10.58542431640625,-0.02931048348546028,0.13673147559165955,0.047444213181734085
1790006492420436200,10.595436279296875,-0.016801083460450172,0.14598943293094635,0.0444718599319458
1790006492430449200,10.60544921875,0.017486581578850746,0.15879763662815094,0.037941791117191315
1790006492440461000,10.6154609375,0.01908234879374504,0.15953613817691803,0.03478248044848442
1790006492450474200,10.62547412109375,0.008559665642678738,0.14265835285186768,0.03068600781261921
1790006492460486100,10.635486083984375,-0.008227037265896797,0.12068167328834534,0.036919932812452316
1790006492470498300,10.645498291015626,-0.016986174508929253,0.10740235447883606,0.04753183200955391
1790006492480511200,10.65551123046875,-0.00857351440936327,0.10177243500947952,0.05416310206055641
1790006492490523400,10.6655234375,0.009134909138083458,0.10199001431465149,0.04611476510763168
1790006492500535300,10.675535400390626,0.0292391125112772,0.1007351353764534,0.03883075341582298
1790006492510548200,10.68554833984375,0.03743578866124153,0.0998549610376358,0.027154922485351562
1790006492520560400,10.695560302734375,0.04103425145149231,0.10180119425058365,0.01366281509399414
1790006492530572300,10.705572265625,0.040105342864990234,0.10955365747213364,0.0031188279390335083
1790006492540585200,10.715585205078124,0.049363553524017334,0.12469851970672607,-0.0008109325426630676
1790006492550597000,10.72559716796875,0.06891408562660217,0.14499154686927795,0.001847701147198677
1790006492560610300,10.7356103515625,0.08836954087018967,0.17488153278827667,0.006358297076076269
1790006492570622200,10.745622314453126,0.10208242386579514,0.20926080644130707,0.004535895772278309
1790006492580634000,10.755634033203124,0.1139390841126442,0.23928076028823853,-0.000037550569686573
1790006492590647300,10.765647216796875,0.12863893806934357,0.2686881721019745,-0.002683401107788086
1790006492600659200,10.7756591796875,0.14020851254463196,0.29711422324180603,0.004445348400622606
1790006492610671400,10.78567138671875,0.1509636789560318,0.32947590947151184,0.003150519449263811
1790006492620684000,10.79568408203125,0.16465339064598083,0.3602633774280548,-0.00018855179951060563
1790006492630696200,10.8056962890625,0.17657743394374847,0.38575488328933716,-0.0009345032158307731
1790006492640709000,10.815709228515624,0.18727216124534607,0.40665245056152344,0.0011446266435086727
1790006492650721300,10.82572119140625,0.20144310593605042,0.41911762952804565,-0.002445048186928034
1790006492660733200,10.835733154296875,0.2155330926179886,0.43055272102355957,-0.008340754546225071
1790006492670746400,10.845746337890626,0.22087086737155914,0.4394442141056061,-0.012893960811197758
1790006492680758300,10.85575830078125,0.22223147749900818,0.4416365325450897,-0.00998898409307003
1790006492690770200,10.865770263671875,0.22702915966510773,0.44219446182250977,-0.005169195588678122
1790006492700783400,10.875783447265626,0.23272138833999634,0.4443652033805847,0.007596134208142757
1790006492710795300,10.885795166015624,0.2307722270488739,0.4630339741706848,0.011609517969191074
1790006492720808200,10.89580810546875,0.23802907764911652,0.47762808203697205,0.004065847955644131
1790006492730820000,10.905820068359375,0.2501019835472107,0.4784083962440491,-0.006392918061465025
1790006492740832300,10.915832275390626,0.26457706093788147,0.47896870970726013,-0.013479056768119335
1790006492750845200,10.92584521484375,0.27421265840530396,0.4840005040168762,-0.021796109154820442
1790006492760857000,10.935857177734375,0.2715071439743042,0.4929220974445343,-0.0166732519865036
1790006492770869200,10.945869140625,0.2656734883785248,0.5077782869338989,-0.006957241799682379
1790006492780882200,10.955882080078124,0.2718730568885803,0.5050573348999023,0.0007866977830417454
1790006492790894300,10.965894287109375,0.26648467779159546,0.5026513934135437,0.004037085920572281
1790006492800906500,10.975906494140625,0.25610047578811646,0.5033608675003052,-0.003139334265142679
1790006492810919200,10.985919189453124,0.26402419805526733,0.49910569190979004,-0.007742874324321747
1790006492820931300,10.995931396484375,0.2667914927005768,0.4869246482849121,-0.002377670258283615
1790006492830944300,11.0059443359375,0.26912200450897217,0.4754149913787842,-0.003999002743512392
1790006492840956400,11.015956298828126,0.262778103351593,0.46274447441101074,-0.004546548705548048
1790006492850968300,11.02596826171875,0.2478199154138565,0.44930270314216614,-0.007880560122430325
1790006492860981500,11.0359814453125,0.23005476593971252,0.4276975393295288,-0.01823626086115837
1790006492870993400,11.045993408203126,0.22176408767700195,0.40441617369651794,-0.013879862613976002
1790006492881005300,11.05600537109375,0.21873953938484192,0.3873136341571808,0.004258394706994295
1790006492891018500,11.0660185546875,0.22243094444274902,0.3865351974964142,0.013977867551147938
1790006492901030400,11.076030517578126,0.22070308029651642,0.39526423811912537,0.012433766387403011
1790006492911043300,11.086043212890624,0.21844258904457092,0.41318729519844055,-0.004466387443244457
1790006492921055200,11.09605517578125,0.21304462850093842,0.41896185278892517,-0.018849587067961693
1790006492931067100,11.106067138671875,0.2277066558599472,0.403438538312912,-0.015776565298438072
1790006492941080300,11.116080322265624,0.23793959617614746,0.39038559794425964,0.005428321193903685
1790006492951092200,11.12609228515625,0.22636549174785614,0.39712339639663696,0.022169483825564384
1790006492961104400,11.1361044921875,0.20470760762691498,0.4268282949924469,0.014787734486162663
1790006492971117300,11.146117431640626,0.19985638558864594,0.45798060297966003,0.029205022379755974
1790006492981129500,11.15612939453125,0.21398019790649414,0.4822755753993988,0.042753588408231735
1790006492991141400,11.166141357421875,0.23877929151058197,0.49763134121894836,0.04532061144709587
1790006493001154300,11.176154296875,0.25652021169662476,0.502708375453949,0.03341228514909744
1790006493011166200,11.186166259765624,0.2612009644508362,0.5010098218917847,0.012724583968520164
1790006493021179400,11.196179443359375,0.25262346863746643,0.4886775314807892,0.01799950748682022
1790006493031191300,11.20619140625,0.22565042972564697,0.4832010269165039,0.03356461971998215
1790006493041203200,11.216203125,0.20578432083129883,0.485774427652359,0.04519863799214363
1790006493051216400,11.22621630859375,0.20311875641345978,0.47884488105773926,0.0556560717523098
1790006493061228300,11.236228271484375,0.216399684548378,0.47046658396720886,0.06042739003896713
1790006493071240400,11.246240478515626,0.23395949602127075,0.4750139117240906,0.0480724535882473
1790006493081253400,11.25625341796875,0.23178395628929138,0.4887070953845978,0.030162429437041283
1790006493091265500,11.266265625,0.2208160012960434,0.4943540692329407,0.027150927111506462
1790006493101277400,11.27627734375,0.2145296037197113,0.48762452602386475,0.03466397151350975
1790006493111290400,11.286290283203124,0.2069089710712433,0.48137328028678894,0.05278225615620613
1790006493121302300,11.29630224609375,0.1924205720424652,0.49716717004776,0.08315160870552063
1790006493131315200,11.306315185546875,0.1704992949962616,0.5117940306663513,0.09659604728221893
1790006493141327400,11.316327392578126,0.16941405832767487,0.4985339045524597,0.0860118493437767
1790006493151339300,11.32633935546875,0.168453186750412,0.46604758501052856,0.06374701857566833
1790006493161352400,11.3363525390625,0.16199982166290283,0.44369035959243774,0.05349970981478691
1790006493171364400,11.3463642578125,0.15342897176742554,0.4316856265068054,0.05657033622264862
1790006493181376500,11.35637646484375,0.1342339664697647,0.3932245075702667,0.06305486708879471
1790006493191389400,11.366389404296875,0.10866203159093857,0.34843096137046814,0.061618622392416
1790006493201401300,11.3764013671875,0.09108250588178635,0.32284781336784363,0.06308069825172424
1790006493211414300,11.386414306640624,0.06333503127098083,0.3095669150352478,0.0629613921046257
1790006493221426200,11.39642626953125,0.058272093534469604,0.29143422842025757,0.061714231967926025
1790006493231438300,11.406438232421875,0.07695550471544266,0.2588251531124115,0.05121471732854843
1790006493241451300,11.416451171875,0.09204710274934769,0.22235530614852905,0.032944899052381516
1790006493251463400,11.42646337890625,0.08112601190805435,0.202168807387352,0.01804265007376671
1790006493261475300,11.436475341796875,0.05409705638885498,0.18293413519859314,0.003930293023586273
1790006493271488500,11.446488525390626,0.033483657985925674,0.1450330913066864,0.005802761763334274
1790006493281500400,11.45650048828125,0.012957610189914703,0.10669129341840744,0.028746692463755608
1790006493291513300,11.466513427734375,0.0006559365428984165,0.09145188331604004,0.05344564840197563
1790006493301525200,11.476525146484375,-0.019391806796193123,0.10401428490877151,0.04099616780877113
1790006493311537200,11.486537109375,-0.02316204458475113,0.11372336745262146,0.015631424263119698
1790006493321550300,11.49655029296875,-0.0024945829063653946,0.1010134294629097,0.004603273700922728
1790006493331562200,11.506562255859375,0.02256443165242672,0.0885825976729393,0.008106129243969917
1790006493341574400,11.516574462890626,0.0199287012219429,0.09795080125331879,0.010003099218010902
1790006493351587300,11.52658740234375,0.006431001238524914,0.11166421324014664,0.004231496714055538
1790006493361599500,11.536599609375,-0.011530688032507896,0.11287328600883484,0.017465010285377502
1790006493371611400,11.546611328125,-0.006671485025435686,0.1014866754412651,0.04429848864674568
1790006493381624600,11.55662451171875,0.0018197379540652037,0.10104219615459442,0.04525243118405342
1790006493391636500,11.566636474609375,0.008400408551096916,0.11418090015649796,0.018255969509482384
1790006493401649200,11.576649169921875,0.037470944225788116,0.112962506711483,0.0012415656819939613
1790006493411661300,11.586661376953124,0.05307040736079216,0.0990874320268631,-0.003413107246160507
1790006493421673200,11.596673095703125,0.048650894314050674,0.09153284877538681,-0.016683371737599373
1790006493431686400,11.606686279296875,0.04457785561680794,0.1013479232788086,-0.028785841539502144
1790006493441698300,11.6166982421875,0.044502753764390945,0.10132981836795807,-0.01872175559401512
1790006493451710500,11.62671044921875,0.04896168410778046,0.09051365405321121,0.007121825125068426
1790006493461723400,11.636723388671875,0.05895999073982239,0.10497701913118362,0.00824780948460102
1790006493471735300,11.6467353515625,0.057556770741939545,0.13894270360469818,0.0005850964807905257
1790006493481748200,11.656748291015624,0.06639260798692703,0.16660469770431519,-0.007299458142369986
1790006493491760000,11.666760009765625,0.09288759529590607,0.18158550560474396,-0.0039116512052714825
1790006493501772300,11.676772216796875,0.114589162170887,0.2046940177679062,0.005018460564315319
1790006493511785200,11.68678515625,0.11440087854862213,0.24918238818645477,-0.01164254080504179
1790006493521797400,11.69679736328125,0.11572419852018356,0.28491082787513733,-0.0021816615480929613
1790006493531809300,11.706809326171875,0.12067209184169769,0.2932739555835724,0.030125144869089127
1790006493541822500,11.716822509765626,0.1255432814359665,0.3108130097389221,0.034749992191791534
1790006493551834400,11.72683447265625,0.13402678072452545,0.3367660343647003,0.013587181456387043
1790006493561846300,11.73684619140625,0.1568617820739746,0.3627454340457916,0.0012708604335784912
1790006493571859500,11.746859375,0.183860644698143,0.3691468834877014,0.01512835267931223
1790006493581871400,11.756871337890624,0.21342119574546814,0.3716457188129425,0.020486632362008095
1790006493591884300,11.76688427734375,0.22197900712490082,0.38558924198150635,0.026014024391770363
1790006493601896200,11.776896240234375,0.19874106347560883,0.4132072925567627,0.023500265553593636
1790006493611908400,11.786908447265626,0.20160448551177979,0.42562320828437805,0.003984621725976467
1790006493621921300,11.79692138671875,0.23719418048858643,0.4083472788333893,-0.004848018288612366
1790006493631933400,11.806933349609375,0.2688722014427185,0.4084857702255249,0.02905908226966858
1790006493641945300,11.8169453125,0.267864465713501,0.43913769721984863,0.04252109304070473
1790006493651958300,11.826958251953124,0.26395389437675476,0.4766775965690613,0.027176227420568466
1790006493661970400,11.836970458984375,0.24948279559612274,0.5045545101165771,0.0017603494925424457
1790006493671983400,11.8469833984375,0.2515062689781189,0.5138028860092163,-0.009367669001221657
1790006493681995300,11.856995361328124,0.2830636501312256,0.5059270858764648,0.014428474009037018
1790006493692007400,11.86700732421875,0.3035617470741272,0.5057073831558228,0.04868924245238304
1790006493702020400,11.877020263671875,0.2826998829841614,0.5221795439720154,0.0408124104142189
1790006493712032300,11.8870322265625,0.26576483249664307,0.5385888814926147,0.012644688598811626
1790006493722044200,11.897044189453124,0.2529166638851166,0.5439836978912354,-0.00561021501198411
1790006493732057300,11.907057373046875,0.26096129417419434,0.5520341396331787,0.017125191166996956
1790006493742069200,11.9170693359375,0.3009971082210541,0.5595653057098389,0.05723080039024353
1790006493752082400,11.92708251953125,0.32303744554519653,0.577409029006958,0.07611021399497986
1790006493762094300,11.93709423828125,0.29848816990852356,0.6104127764701843,0.059119246900081635
1790006493772106500,11.9471064453125,0.2737918794155121,0.6284080147743225,0.03849679231643677
1790006493782119200,11.957119140625,0.25713247060775757,0.6176370978355408,0.05144268274307251
1790006493792131300,11.96713134765625,0.26529425382614136,0.5928841233253479,0.06790155172348022
1790006493802144000,11.97714404296875,0.28685495257377625,0.5543119311332703,0.09063216298818588
1790006493812157200,11.9871572265625,0.27715569734573364,0.5478497743606567,0.10055483877658844
1790006493822169000,11.997169189453125,0.22740812599658966,0.5607490539550781,0.09973618388175964
1790006493832181000,12.007180908203125,0.19124771654605865,0.5685617327690125,0.09065160900354385
1790006493842194200,12.017194091796876,0.20762856304645538,0.5454116463661194,0.08298516273498535
1790006493852206000,12.0272060546875,0.23223750293254852,0.5105748772621155,0.08872400969266891
1790006493862219000,12.037218994140625,0.23567751049995422,0.4964795410633087,0.09413289278745651
1790006493872231000,12.04723095703125,0.22889016568660736,0.49409282207489014,0.12654249370098114
1790006493882243000,12.0572431640625,0.1917223036289215,0.501422107219696,0.13182567059993744
1790006493892256000,12.067256103515625,0.14958763122558594,0.49441957473754883,0.11948511749505997
1790006493902268200,12.07726806640625,0.1440059095621109,0.4825860857963562,0.13613227009773254
1790006493912280000,12.087280029296876,0.13570137321949005,0.4828132688999176,0.1498933583498001
1790006493922293200,12.097293212890625,0.1601065844297409,0.4666156470775604,0.13495755195617676
1790006493932305200,12.10730517578125,0.17323783040046692,0.4459095597267151,0.11835061013698578
1790006493942318000,12.117318115234376,0.16089753806591034,0.44424641132354736,0.1156373843550682
1790006493952330200,12.127330322265625,0.12224441766738892,0.44023942947387695,0.12731267511844635
1790006493962342100,12.137342041015625,0.09103483706712723,0.43697306513786316,0.1396750807762146
1790006493972355000,12.14735498046875,0.08742731809616089,0.42551589012145996,0.14243757724761963
1790006493982367000,12.157366943359374,0.09480773657560349,0.4043900966644287,0.15077699720859528
1790006493992379100,12.167379150390625,0.1009276807308197,0.3926577866077423,0.16858528554439545
1790006494002392000,12.17739208984375,0.09832550585269928,0.3785651624202728,0.1342928260564804
1790006494012404200,12.187404296875,0.11254385858774185,0.32870784401893616,0.05254363641142845
1790006494022417200,12.197417236328125,0.08483979105949402,0.2439649999141693,0.032221585512161255
1790006494032429000,12.207428955078125,0.05956665799021721,0.20193685591220856,0.10561111569404602
1790006494042441200,12.217441162109376,0.028924059122800827,0.1453699767589569,0.1278543621301651
1790006494052454000,12.227453857421875,0.006193447392433882,0.10556184500455856,0.11052864044904709
