time,seconds_elapsed,z,y,x
1790006481901790200,0.076790283203125,0.12153031677007675,-0.2333596646785736,0.005946862045675516
1790006481911802000,0.086802001953125,0.12750805914402008,-0.2538263201713562,-0.06640749424695969
1790006481921814300,0.096814208984375,0.14122599363327026,-0.31608861684799194,-0.1108093112707138
1790006481931827000,0.106826904296875,0.13847388327121735,-0.4038163423538208,-0.09314350038766861
1790006481941839000,0.116839111328125,0.11479438096284866,-0.44976386427879333,-0.02761509269475937
1790006481951852000,0.12685205078125,0.07609252631664276,-0.43538573384284973,0.08764225989580154
1790006481961864200,0.1368642578125,0.02818705514073372,-0.32527145743370056,0.19839327037334442
1790006481971876000,0.1468759765625,-0.02055092342197895,-0.20017960667610168,0.28985127806663513
1790006481981889300,0.15688916015625,-0.07909625768661499,-0.12922555208206177,0.35976243019104004
1790006481991901200,0.166901123046875,-0.12152095139026642,-0.1116071343421936,0.3729778528213501
1790006482001914000,0.1769140625,-0.13157756626605988,-0.17456746101379395,0.36660143733024597
1790006482011926300,0.18692626953125,-0.12266530841588974,-0.24227194488048553,0.32895714044570923
1790006482021938200,0.196938232421875,-0.10913911461830139,-0.3217422366142273,0.2689257562160492
1790006482031951000,0.206951171875,-0.08873450756072998,-0.40661612153053284,0.21662047505378723
1790006482041963000,0.216962890625,-0.07528181374073029,-0.4058946669101715,0.1720399558544159
1790006482051976200,0.22697607421875,-0.09478068351745605,-0.2919076681137085,0.1374335139989853
1790006482061988000,0.236988037109375,-0.09678870439529419,-0.14857447147369385,0.12332142889499664
1790006482072000000,0.247,-0.08798003196716309,0.019088296219706535,0.13732245564460754
1790006482082013200,0.25701318359375,-0.10699740052223206,0.09700439870357513,0.1625596433877945
1790006482092025000,0.267025146484375,-0.13479334115982056,0.05113810673356056,0.19176386296749115
1790006482102038300,0.277038330078125,-0.1251140832901001,-0.02541285939514637,0.21595601737499237
1790006482112050200,0.28705029296875,-0.09952616691589355,-0.003608228638768196,0.22168661653995514
1790006482122062000,0.29706201171875,-0.07247484475374222,0.11191783100366592,0.19689631462097168
1790006482132075000,0.307074951171875,-0.04636361449956894,0.22599592804908752,0.1429518461227417
1790006482142087200,0.317087158203125,-0.029115118086338043,0.24781069159507751,0.07808736711740494
1790006482152100000,0.32710009765625,-0.02687832899391651,0.2315014898777008,0.015811743214726448
1790006482162112300,0.3371123046875,-0.046812091022729874,0.19394053518772125,-0.023518353700637817
1790006482172124200,0.347124267578125,-0.07686399668455124,0.14270450174808502,-0.03540324047207832
1790006482182137300,0.357137451171875,-0.09666513651609421,0.10847862809896469,-0.018276453018188477
1790006482192149200,0.367149169921875,-0.10469163209199905,0.09042452275753021,0.010595142841339111
1790006482202162000,0.377161865234375,-0.07944673299789429,0.060305505990982056,0.029023420065641403
1790006482212174000,0.387174072265625,-0.030491171404719353,-0.03294241428375244,0.035953495651483536
1790006482222186000,0.39718603515625,0.0009445138275623322,-0.0550176240503788,0.0342959463596344
1790006482232199200,0.40719921875,0.050070781260728836,-0.015504568815231323,0.04333231970667839
1790006482242211000,0.417211181640625,0.0855102613568306,0.020578600466251373,0.061460722237825394
1790006482252224300,0.427224365234375,0.09090263396501541,0.03764493390917778,0.0671905130147934
1790006482262236200,0.437236083984375,0.07161974906921387,-0.0019030068069696426,0.06449832022190094
1790006482272248000,0.447248046875,0.04144266992807388,-0.12373118102550507,0.046418655663728714
1790006482282261200,0.45726123046875,0.02795828878879547,-0.24991413950920105,0.03574790060520172
1790006482292273200,0.467273193359375,0.025282343849539757,-0.3111327588558197,0.050449348986148834
1790006482302286000,0.4772861328125,0.018402334302663803,-0.27348336577415466,0.06440697610378265
1790006482312298000,0.487298095703125,0.037062834948301315,-0.11672493070363998,0.08718632161617279
1790006482322310100,0.49731005859375,0.07337130606174469,0.030897017568349838,0.08227838575839996
1790006482332323000,0.507322998046875,0.07975836843252182,0.08678451180458069,0.029855389147996902
1790006482342335200,0.517335205078125,0.06808014214038849,0.09585976600646973,-0.0494610033929348
1790006482352348200,0.52734814453125,0.08379412442445755,0.08377806842327118,-0.11029079556465149
1790006482362360300,0.5373603515625,0.0703134685754776,0.09412631392478943,-0.1328384429216385
1790006482372373000,0.547373046875,0.055113475769758224,0.08410298079252243,-0.10048024356365204
1790006482382385200,0.55738525390625,0.05663547292351723,0.0745459571480751,-0.03069131076335907
1790006482392397000,0.56739697265625,0.07368475943803787,0.023196488618850708,0.049980100244283676
1790006482402410000,0.577409912109375,0.0392700619995594,-0.009667718783020973,0.0996704250574112
1790006482412422100,0.587422119140625,-0.011098833754658699,-0.016249455511569977,0.12041911482810974
1790006482422435000,0.59743505859375,-0.05292883887887001,0.007798889186233282,0.11507707834243774
1790006482432447200,0.607447265625,-0.06720791012048721,0.005820426624268293,0.10439886897802353
1790006482442459100,0.617459228515625,-0.04890879616141319,0.015269855037331581,0.07434669137001038
1790006482452472300,0.627472412109375,-0.03284194692969322,-0.00784558430314064,0.05192873626947403
1790006482462484200,0.637484130859375,-0.034908294677734375,-0.0640886202454567,0.041132014244794846
1790006482472497200,0.6474970703125,-0.041577912867069244,-0.13593937456607819,0.0493374802172184
1790006482482509000,0.657509033203125,-0.03544119372963905,-0.17746444046497345,0.06535825878381729
1790006482492521000,0.66752099609375,-0.019625741988420486,-0.16315874457359314,0.07654300332069397
1790006482502534100,0.6775341796875,0.005584273021668196,-0.09601166844367981,0.07818324118852615
1790006482512546000,0.687546142578125,0.01952991634607315,-0.037837039679288864,0.06472442299127579
1790006482522559200,0.697559326171875,0.025637609884142876,-0.019414888694882393,0.03445999696850777
1790006482532571100,0.707571044921875,0.018664922565221786,-0.05753936991095543,0.010492611676454544
1790006482542583300,0.717583251953125,0.0004275942628737539,-0.11634223908185959,-0.003987527452409267
1790006482552596000,0.727595947265625,-0.01596868969500065,-0.13997939229011536,0.0024216356687247753
1790006482562608000,0.737608154296875,-0.015492250211536884,-0.12115909904241562,0.031204547733068466
1790006482572621000,0.74762109375,0.01004799734801054,-0.08677821606397629,0.0614284984767437
1790006482582633000,0.757633056640625,0.018655333667993546,-0.06678161025047302,0.07663488388061523
1790006482592645000,0.76764501953125,0.055179521441459656,-0.04724545404314995,0.05511973425745964
1790006482602658000,0.777657958984375,0.07409196346998215,-0.024851199239492416,-0.008623025380074978
1790006482612670200,0.787670166015625,0.09543000161647797,-0.02812502346932888,-0.08022051304578781
1790006482622683100,0.79768310546875,0.13674256205558777,-0.05602988973259926,-0.12235145270824432
1790006482632695300,0.8076953125,0.13328631222248077,-0.08742270618677139,-0.11478780955076218
1790006482642707200,0.817707275390625,0.09730833023786545,-0.11506231874227524,-0.05556097254157066
1790006482652720000,0.82772021484375,0.06633763015270233,-0.0960225835442543,0.017244525253772736
1790006482662732000,0.83773193359375,0.06856776773929596,-0.08884323388338089,0.07778536528348923
1790006482672745200,0.8477451171875,0.07056966423988342,-0.04775864630937576,0.11780788004398346
1790006482682757000,0.857757080078125,0.0884714350104332,0.008328326046466827,0.15255388617515564
1790006482692769000,0.86776904296875,0.09434956312179565,0.07823097705841064,0.17339417338371277
1790006482702782200,0.8777822265625,0.04791708290576935,0.11451814323663712,0.1889350563287735
1790006482712794000,0.887794189453125,0.022551804780960083,0.137903094291687,0.2246246039867401
1790006482722807300,0.897807373046875,0.0419771671295166,0.18376272916793823,0.30535459518432617
1790006482732819200,0.907819091796875,0.02260267175734043,0.19715923070907593,0.42336004972457886
1790006482742831000,0.9178310546875,-0.0065719918347895145,0.1976979821920395,0.5240352749824524
1790006482752844000,0.927843994140625,-0.037373848259449005,0.14728407561779022,0.5664647817611694
1790006482762856200,0.937856201171875,-0.1121857687830925,0.092439204454422,0.5469672083854675
1790006482772869000,0.947869140625,-0.23805607855319977,-0.005932103376835585,0.48157915472984314
1790006482782881000,0.957881103515625,-0.3871456980705261,-0.11590388417243958,0.4141513705253601
1790006482792893400,0.9678935546875,-0.41983839869499207,-0.2719784080982208,0.371904581785202
1790006482802906400,0.97790625,-0.35791537165641785,-0.3081657290458679,0.36389461159706116
1790006482812918500,0.98791845703125,-0.27278661727905273,-0.21047192811965942,0.3957172632217407
1790006482822931200,0.99793115234375,-0.2022956758737564,-0.04280170425772667,0.4407329261302948
1790006482832943400,1.007943359375,-0.1661698967218399,0.22528326511383057,0.5050365924835205
1790006482842956300,1.017956298828125,-0.10249005258083344,0.5983028411865234,0.5666617155075073
1790006482852968400,1.027968505859375,0.031842190772295,0.9752445220947266,0.6035678386688232
1790006482862980400,1.03798046875,0.13514700531959534,1.3350149393081665,0.6120436191558838
1790006482872993300,1.0479931640625,0.16862906515598297,1.65438711643219,0.590806782245636
1790006482883005400,1.05800537109375,0.1307506561279297,1.8887481689453125,0.5346625447273254
1790006482893017300,1.068017333984375,0.0634981244802475,2.037289619445801,0.4600370526313782
1790006482903030300,1.0780302734375,-0.020127268508076668,2.0787386894226074,0.3800732493400574
1790006482913042400,1.08804248046875,-0.11389902979135513,2.0237390995025635,0.3132140636444092
1790006482923055400,1.098055419921875,-0.23965616524219513,1.8238102197647095,0.27169352769851685
1790006482933067300,1.1080673828125,-0.35187777876853943,1.5013853311538696,0.2683855891227722
1790006482943079200,1.1180791015625,-0.4014328122138977,1.118462085723877,0.30933037400245667
1790006482953092400,1.12809228515625,-0.3673821687698364,0.7577444314956665,0.4014802575111389
1790006482963104300,1.138104248046875,-0.26855331659317017,0.3762332797050476,0.6033217310905457
1790006482973117400,1.148117431640625,-0.20503000915050507,0.17606475949287415,0.8380101323127747
1790006482983129300,1.15812939453125,-0.135770782828331,0.06347376853227615,1.0598763227462769
1790006482993141500,1.1681416015625,-0.016445981338620186,-0.09947334229946136,1.279241919517517
1790006483003154200,1.178154296875,0.01103278063237667,-0.23151420056819916,1.387866735458374
1790006483013166300,1.188166259765625,-0.06906764209270477,-0.35908520221710205,1.3717020750045776
1790006483023179300,1.19817919921875,-0.1863977313041687,-0.6191068887710571,1.2375032901763916
1790006483033191400,1.20819140625,-0.24109533429145813,-0.8419397473335266,1.0540729761123657
1790006483043203300,1.218203369140625,-0.20071275532245636,-0.9559304714202881,0.9150232076644897
1790006483053216500,1.228216552734375,-0.12149570137262344,-0.7937788367271423,0.8365699052810669
1790006483063228400,1.238228515625,0.004611367359757423,-0.5639967918395996,0.8532527685165405
1790006483073241300,1.248241455078125,0.22505852580070496,-0.40116769075393677,0.9529556632041931
1790006483083253500,1.25825341796875,0.3920115530490875,-0.28465917706489563,1.0298798084259033
1790006483093265400,1.268265380859375,0.4796050488948822,-0.23617073893547058,1.0728919506072998
1790006483103278300,1.2782783203125,0.4873647093772888,-0.20675240457057953,1.1054198741912842
1790006483113290200,1.288290283203125,0.4126150906085968,-0.27476766705513,1.1334338188171387
1790006483123303400,1.298303466796875,0.22662179172039032,-0.3111991882324219,1.1179825067520142
1790006483133315300,1.3083154296875,-0.05537793040275574,-0.25484803318977356,1.0678242444992065
1790006483143327200,1.3183271484375,-0.28860506415367126,-0.15206198394298553,1.0035035610198975
1790006483153340400,1.32834033203125,-0.38394302129745483,0.04725324735045433,0.9289240837097168
1790006483163352300,1.338352294921875,-0.27283647656440735,0.19166448712348938,0.7601459622383118
1790006483173365200,1.348365234375,-0.4449525773525238,0.2006814181804657,0.7674742341041565
1790006483183377200,1.358377197265625,-0.5385763049125671,0.3177952468395233,0.8336825370788574
1790006483193389300,1.368389404296875,-0.4357883930206299,0.3062951862812042,0.90425044298172
1790006483203402200,1.37840234375,-0.31438764929771423,0.2496015578508377,0.9422971606254578
1790006483213414400,1.388414306640625,-0.2644882798194885,0.17980462312698364,0.9448745846748352
1790006483223426300,1.39842626953125,-0.19681867957115173,0.027481408789753914,0.9392741918563843
1790006483233439500,1.408439453125,-0.08651720732450485,-0.15309342741966248,0.8954758644104004
1790006483243451400,1.418451416015625,-0.021747803315520287,-0.302338570356369,0.8166241645812988
1790006483253464600,1.428464599609375,-0.02868826687335968,-0.3728524148464203,0.7344094514846802
1790006483263476500,1.4384765625,-0.025886354967951775,-0.3881629407405853,0.655369758605957
1790006483273488400,1.44848828125,0.00728518096730113,-0.3626407980918884,0.5657171010971069
1790006483283501300,1.458501220703125,0.055039387196302414,-0.2936084568500519,0.438713401556015
1790006483293513200,1.46851318359375,0.1156446784734726,-0.1571478247642517,0.3231905400753021
1790006483303526400,1.4785263671875,0.22982583940029144,-0.04999181255698204,0.2732964754104614
1790006483313538300,1.488538330078125,0.3965948522090912,-0.06939293444156647,0.3575114905834198
1790006483323550500,1.498550537109375,0.5845663547515869,-0.06328417360782623,0.5592946410179138
1790006483333563400,1.5085634765625,0.6482326984405518,0.08009695261716843,0.8289064168930054
1790006483343575300,1.5185751953125,0.5951215028762817,0.3283222019672394,1.1777528524398804
1790006483353588200,1.528588134765625,0.502590000629425,0.5154207348823547,1.5594712495803833
1790006483363600100,1.53860009765625,0.41397836804389954,0.7445468902587891,1.843424677848816
1790006483373612300,1.5486123046875,0.42421823740005493,0.8925970792770386,2.0966720581054688
1790006483383625200,1.558625244140625,0.5577406287193298,0.8953030705451965,2.3181397914886475
1790006483393637400,1.568637451171875,0.7710025310516357,0.7962385416030884,2.457984447479248
1790006483403649300,1.578649169921875,0.9268629550933838,0.8408331871032715,2.4465880393981934
1790006483413662500,1.588662353515625,0.9937490820884705,0.8577660918235779,2.2863245010375977
1790006483423674400,1.59867431640625,0.9770081639289856,0.678657054901123,2.027703046798706
1790006483433687600,1.6086875,0.8611028790473938,0.23997901380062103,1.7620607614517212
1790006483443699500,1.618699462890625,0.7354719638824463,-0.3582066297531128,1.5109864473342896
1790006483453712400,1.62871240234375,0.6305357217788696,-1.2026880979537964,1.3382400274276733
1790006483463724300,1.638724365234375,0.46806958317756653,-1.738744854927063,1.2571046352386475
1790006483474362400,1.6493623046875,0.26054754853248596,-1.5839451551437378,1.282235860824585
1790006483484375300,1.659375244140625,0.05957874655723572,-1.050995945930481,1.3944777250289917
1790006483494387500,1.669387451171875,-0.1298614889383316,-0.5372394919395447,1.4898231029510498
1790006483504400100,1.679400146484375,-0.29556843638420105,-0.2557918429374695,1.4819492101669312
1790006483514412300,1.689412353515625,-0.4546686112880707,-0.18414296209812164,1.40067458152771
1790006483524424200,1.699424072265625,-0.5783833265304565,-0.12647034227848053,1.3019288778305054
1790006483534437400,1.709437255859375,-0.6552544236183167,-0.006860585417598486,1.2371184825897217
1790006483544449300,1.71944921875,-0.6792148947715759,0.09203510731458664,1.1665127277374268
1790006483554462500,1.72946240234375,-0.6514424085617065,0.14766134321689606,0.9773938655853271
1790006483564474400,1.739474365234375,-0.5476222634315491,0.15229471027851105,0.6597219109535217
1790006483574486300,1.749486328125,-0.3994421064853668,0.21254393458366394,0.2957514524459839
1790006483584499500,1.75949951171875,-0.23700179159641266,0.32730406522750854,0.04633069783449173
1790006483594511400,1.769511474609375,-0.09502680599689484,0.46561720967292786,-0.04981420934200287
1790006483604524300,1.779524169921875,-0.007151548285037279,0.5648873448371887,0.013244915753602982
1790006483614536200,1.7895361328125,0.004431338049471378,0.5704850554466248,0.178569957613945
1790006483624548400,1.79954833984375,-0.026749486103653908,0.4487181305885315,0.3300500214099884
1790006483634561300,1.809561279296875,-0.07184851914644241,0.3421400189399719,0.3498604893684387
1790006483644573400,1.819573486328125,-0.0708777979016304,0.3358837068080902,0.2760331332683563
1790006483654586400,1.82958642578125,0.004384732339531183,0.4129270911216736,0.19476890563964844
1790006483664598500,1.8395986328125,0.10931088030338287,0.5184926986694336,0.18124909698963165
1790006483674610400,1.8496103515625,0.2045828104019165,0.5300175547599792,0.2624283730983734
1790006483684623400,1.859623291015625,0.23772744834423065,0.4434511959552765,0.3755413591861725
1790006483694635300,1.86963525390625,0.21932846307754517,0.3068685829639435,0.4697040617465973
1790006483704648200,1.879648193359375,0.15680304169654846,0.19072864949703217,0.4951910376548767
1790006483714660400,1.889660400390625,0.10731510818004608,0.15845832228660583,0.4738263785839081
1790006483724672300,1.89967236328125,0.09777087718248367,0.22155314683914185,0.45120948553085327
1790006483734685400,1.909685546875,0.10538804531097412,0.29494452476501465,0.48348140716552734
1790006483744697300,1.919697265625,0.1282680630683899,0.27639642357826233,0.5905106067657471
1790006483754710500,1.92971044921875,0.12355506420135498,0.16872428357601166,0.70110023021698
1790006483764722400,1.939722412109375,0.07060130685567856,-0.03594416752457619,0.7812792062759399
1790006483774734300,1.949734375,0.01500648446381092,-0.2679086923599243,0.7819125056266785
1790006483784747500,1.95974755859375,-0.023571802303195,-0.316535085439682,0.7142898440361023
1790006483794759400,1.969759521484375,-0.022151537239551544,-0.12105373293161392,0.6382509469985962
1790006483804772600,1.979772705078125,0.03190051391720772,0.1574106365442276,0.5552729964256287
1790006483814784500,1.989784423828125,0.09918447583913803,0.3570592999458313,0.46553835272789
1790006483824797700,1.999797607421875,0.1281823068857193,0.42140820622444153,0.3514602482318878
1790006483834809600,2.0098095703125,0.13966026902198792,0.11243012547492981,0.01955980248749256
1790006483844821800,2.01982177734375,0.04242980480194092,0.14364317059516907,-0.17362721264362335
1790006483854834400,2.02983447265625,-0.07809687405824661,0.22370925545692444,-0.21516107022762299
1790006483864846600,2.0398466796875,-0.10660921037197113,0.2560701370239258,-0.214149609208107
1790006483874859500,2.049859619140625,-0.05692820996046066,0.3281536400318146,-0.19881752133369446
1790006483884871400,2.059871337890625,0.043260976672172546,0.4351024627685547,-0.1854758858680725
1790006483894883600,2.069883544921875,0.17732210457324982,0.5255322456359863,-0.16194471716880798
1790006483904896500,2.079896484375,0.31087350845336914,0.5382706522941589,-0.12502825260162354
1790006483914908700,2.08990869140625,0.38785138726234436,0.4756850600242615,-0.11192843317985535
1790006483924921600,2.099921630859375,0.3710486888885498,0.31817692518234253,-0.10031412541866302
1790006483934933800,2.109933837890625,0.3409419357776642,0.09505008161067963,-0.05420175567269325
1790006483944946400,2.119946533203125,0.3322512209415436,-0.12683464586734772,-0.001804061233997345
1790006483954958600,2.12995849609375,0.31152278184890747,-0.1751617044210434,0.05436386913061142
1790006483964970500,2.139970458984375,0.243787944316864,0.04573792591691017,0.08998551219701767
1790006483974983700,2.149983642578125,0.19713175296783447,0.3818957209587097,0.11631272733211517
1790006483984995600,2.15999560546875,0.22564223408699036,0.5378850698471069,0.15934382379055023
1790006483995008800,2.1700087890625,0.25918954610824585,0.4724051058292389,0.20306840538978577
1790006484005020700,2.180020751953125,0.2836799621582031,0.30654075741767883,0.22180506587028503
1790006484015032600,2.190032470703125,0.31002527475357056,0.1344323754310608,0.21660684049129486
1790006484025045800,2.200045654296875,0.2977089583873749,0.01242630835622549,0.19636309146881104
1790006484035057700,2.2100576171875,0.24283133447170258,-0.06403304636478424,0.18164487183094025
1790006484045070600,2.220070556640625,0.1493232250213623,-0.10574134439229965,0.17093336582183838
1790006484055082500,2.23008251953125,0.04125641658902168,-0.8324013352394104,-0.2318713366985321
1790006484065095700,2.240095703125,-0.10704357177019119,-0.8932114243507385,-0.5296223163604736
1790006484075107600,2.250107666015625,-0.11253900825977325,-0.753001868724823,-0.6083964705467224
1790006484085119500,2.260119384765625,0.02583085373044014,-0.5586749911308289,-0.5822482705116272
1790006484095132700,2.270132568359375,0.1744011491537094,-0.38297906517982483,-0.584358274936676
1790006484105144600,2.28014453125,0.2907746136188507,-0.250420480966568,-0.6178004145622253
1790006484115157500,2.290157470703125,0.39065036177635193,-0.2217063009738922,-0.6054648756980896
1790006484125169400,2.30016943359375,0.499922513961792,-0.2895417809486389,-0.544387698173523
1790006484135181600,2.310181640625,0.541983962059021,-0.3445912003517151,-0.4694514274597168
1790006484145194500,2.320194580078125,0.5289611220359802,-0.3748529553413391,-0.39636096358299255
1790006484155206700,2.33020654296875,0.5049556493759155,-0.5549145936965942,-0.26093044877052307
1790006484165219600,2.340219482421875,0.43058979511260986,-1.112686276435852,-0.007860089652240276
1790006484175231700,2.350231689453125,0.36374497413635254,-1.6256884336471558,0.18752406537532806
1790006484185244700,2.36024462890625,0.19223900139331818,-1.6045695543289185,0.17960435152053833
1790006484195256800,2.3702568359375,-0.001328862737864256,-1.1109198331832886,0.03596222773194313
1790006484205268700,2.380268798828125,0.04324180260300636,-0.78057461977005,0.12228646129369736
1790006484215281400,2.390281494140625,0.03762759268283844,-0.34677019715309143,0.118577741086483
1790006484225293600,2.40029345703125,-0.027712533250451088,0.06166043505072594,0.07717437297105789
1790006484235306500,2.410306396484375,-0.029929347336292267,0.26079750061035156,0.06219649314880371
1790006484245318700,2.420318603515625,-0.05533537268638611,0.0899282917380333,0.04324730113148689
1790006484255330600,2.43033056640625,-0.07180515676736832,-0.19413912296295166,0.12365798652172089
1790006484265343700,2.44034375,-0.15723590552806854,-0.18714512884616852,0.045970916748046875
1790006484275355600,2.450355712890625,-0.25180503726005554,-0.1427483707666397,-0.029733166098594666
1790006484285368600,2.46036865234375,-0.2489011138677597,-0.21683165431022644,-0.0516752153635025
1790006484295380500,2.47038037109375,-0.16462191939353943,-0.32401907444000244,-0.07874145358800888
1790006484305393700,2.4803935546875,-0.008317530155181885,-0.3365553617477417,-0.08833256363868713
1790006484315405600,2.490405517578125,0.08776559680700302,-0.33089402318000793,-0.07738803327083588
1790006484325417500,2.50041748046875,0.09195315092802048,-0.30632954835891724,-0.10509396344423294
1790006484335430700,2.5104306640625,0.06615857034921646,-0.3116665482521057,-0.13766628503799438
1790006484345442600,2.520442626953125,0.035253915935754776,-0.33563312888145447,-0.15796250104904175
1790006484355455700,2.530455810546875,0.002642709296196699,-0.34154799580574036,-0.19423635303974152
1790006484365467600,2.540467529296875,-0.020426923409104347,-0.3135392665863037,-0.2542480230331421
1790006484375479800,2.550479736328125,-0.006581415422260761,-0.26386305689811707,-0.29410436749458313
1790006484385492500,2.560492431640625,-0.02314441278576851,0.10927882045507431,-0.3404284715652466
1790006484395504600,2.570504638671875,0.030432263389229774,0.05348879098892212,-0.29626765847206116
1790006484405517600,2.580517578125,0.118159718811512,0.07864261418581009,-0.2907802164554596
1790006484415529500,2.590529541015625,0.16867241263389587,0.0700262263417244,-0.2507891356945038
1790006484425542700,2.600542724609375,0.1701989471912384,0.057371947914361954,-0.18850523233413696
1790006484435554600,2.610554443359375,0.17726430296897888,0.035713255405426025,-0.1155945435166359
1790006484445566700,2.620566650390625,0.14494872093200684,0.04153705760836601,-0.05532161518931389
1790006484455579400,2.630579345703125,0.11291702091693878,0.060148026794195175,-0.04774705320596695
1790006484465591600,2.640591552734375,0.10960005223751068,0.0462588407099247,-0.04563623294234276
1790006484475604500,2.6506044921875,0.09820305556058884,0.06591403484344482,-0.045624248683452606
1790006484485616600,2.66061669921875,0.07949168235063553,0.09315870702266693,-0.05064377188682556
1790006484495628500,2.670628662109375,0.03466589003801346,0.11709493398666382,-0.04048274829983711
1790006484505641700,2.680641845703125,-0.009468281641602516,0.16324138641357422,-0.03422671556472778
1790006484515653600,2.690653564453125,-0.04145444557070732,0.2147810012102127,-0.04858355224132538
1790006484525666800,2.700666748046875,-0.08374544233083725,0.24572454392910004,-0.0597163662314415
1790006484535678700,2.7106787109375,-0.10443554073572159,0.23211658000946045,-0.03455828130245209
1790006484545690600,2.720690673828125,-0.09352456778287888,0.23532356321811676,0.07270585745573044
1790006484555703600,2.73070361328125,-0.07238706201314926,0.23527349531650543,0.1935017853975296
1790006484565715500,2.740715576171875,-0.06435470283031464,0.28082287311553955,0.1961953192949295
1790006484575728600,2.750728759765625,-0.052920151501894,0.29313841462135315,0.2340761125087738
1790006484585740500,2.760740478515625,-0.007555866148322821,0.23037034273147583,0.2806451916694641
1790006484595753700,2.770753662109375,0.01884884387254715,0.25862303376197815,0.2529906630516052
1790006484605765600,2.780765625,0.02570701576769352,0.260168194770813,0.1887243539094925
1790006484615777500,2.790777587890625,-0.08131743967533112,0.1942959725856781,-0.0957380160689354
1790006484625790700,2.800790771484375,-0.20952734351158142,-0.03634309396147728,-0.15991805493831635
1790006484635802600,2.810802734375,-0.04348297417163849,-0.22683900594711304,0.0037643422838300467
1790006484645815600,2.820815673828125,0.08893818408250809,0.012266784906387329,0.022148409858345985
1790006484655827500,2.830827392578125,0.02090134285390377,0.4239579439163208,-0.16984020173549652
1790006484665839600,2.840839599609375,-0.11720060557126999,0.5064927339553833,-0.37374088168144226
1790006484675852500,2.8508525390625,-0.14894895255565643,0.24138571321964264,-0.48779234290122986
1790006484685864700,2.86086474609375,-0.14699871838092804,-0.13094817101955414,-0.4403177797794342
1790006484695877600,2.870877685546875,-0.07724173367023468,-0.3169529139995575,-0.32878538966178894
1790006484705889800,2.880889892578125,0.01259094849228859,-0.27842363715171814,-0.2696368396282196
1790006484715901700,2.890901611328125,0.06287888437509537,-0.22079603374004364,-0.2005767971277237
1790006484725914400,2.900914306640625,0.11700417101383209,-0.25167590379714966,-0.12682269513607025
1790006484735926500,2.910926513671875,0.15169769525527954,-0.33059388399124146,-0.052167102694511414
1790006484745939500,2.920939453125,0.15699312090873718,-0.3520752191543579,-0.011382919736206532
1790006484755951600,2.93095166015625,0.16951210796833038,0.03175713121891022,-0.05471920967102051
1790006484765964500,2.940964599609375,0.23023244738578796,-0.0664655789732933,0.034419722855091095
1790006484775976700,2.950976806640625,0.2630375325679779,-0.04381565749645233,0.08850559592247009
1790006484786003700,2.961003662109375,0.2881988286972046,0.01419677771627903,0.14145350456237793
1790006484796017000,2.971016845703125,0.2935757339000702,0.09578511863946915,0.1434953510761261
1790006484806028800,2.98102880859375,0.2645888328552246,0.11315611749887466,0.07198680192232132
1790006484816042000,2.9910419921875,0.21774329245090485,0.04342976585030556,0.0047092316672205925
1790006484826054000,3.001053955078125,0.13597439229488373,-0.028779717162251472,-0.08460041135549545
1790006484836065800,3.011065673828125,0.057203423231840134,-0.03153209388256073,-0.14860974252223969
1790006484846079000,3.021078857421875,0.03165879100561142,0.0038437137845903635,-0.14715002477169037
1790006484856091000,3.0310908203125,0.06588920205831528,-0.021625161170959473,-0.10373783111572266
1790006484866103800,3.041103759765625,0.08603068441152573,-0.07478292286396027,-0.05975598841905594
1790006484876115700,3.05111572265625,0.0498519092798233,-0.04741227999329567,-0.05634794384241104
1790006484886129000,3.06112890625,-0.011929966509342194,-0.005567098036408424,-0.09737659990787506
1790006484896140800,3.071140869140625,-0.02670704759657383,-0.02912542223930359,-0.12163907289505005
1790006484906153000,3.081153076171875,-0.01954154670238495,-0.05344487354159355,-0.10801353305578232
1790006484916166000,3.091165771484375,-0.0049852412194013596,-0.04753878340125084,-0.08268820494413376
1790006484926178000,3.101177978515625,0.029693644493818283,0.010319722816348076,-0.06662721186876297
1790006484936190700,3.111190673828125,0.037167005240917206,0.05933466926217079,-0.0663830041885376
1790006484946203000,3.121202880859375,0.013775396160781384,0.05939965322613716,-0.10054709762334824
1790006484956214800,3.13121484375,-0.003330619540065527,0.02990567311644554,-0.1513165384531021
1790006484966227700,3.141227783203125,0.00020179740386083722,0.0036146820057183504,-0.1960427314043045
1790006484976239900,3.151239990234375,0.03906850144267082,0.003726534778252244,-0.21256817877292633
1790006484986252800,3.161252685546875,0.0818236917257309,-0.01968877762556076,-0.20916464924812317
1790006484996265000,3.171264892578125,0.09771956503391266,-0.0474703386425972,-0.19836074113845825
1790006485006276900,3.18127685546875,0.10825609415769577,-0.09101275354623795,-0.17745013535022736
1790006485016290000,3.1912900390625,0.07393301278352737,-0.09437260031700134,-0.1583257019519806
1790006485026302000,3.201302001953125,0.06447505950927734,-0.0800011157989502,-0.1608669012784958
1790006485036315000,3.21131494140625,0.0670199766755104,-0.09671591222286224,-0.16446642577648163
1790006485046326800,3.221326904296875,0.04343502223491669,-0.11965478956699371,-0.17728635668754578
1790006485056340000,3.231340087890625,0.02775353007018566,-0.1429012566804886,-0.2061781883239746
1790006485066351900,3.241351806640625,0.03182124346494675,-0.1654166877269745,-0.22614629566669464
1790006485076363800,3.25136376953125,0.027655260637402534,-0.20274941623210907,-0.20344550907611847
1790006485086377000,3.261376953125,0.03718724474310875,-0.21648280322551727,-0.16018380224704742
1790006485096388900,3.271388916015625,0.06023690477013588,-0.1714996099472046,-0.1177990511059761
1790006485106402000,3.281402099609375,0.09578744322061539,-0.10175541788339615,-0.1018616333603859
1790006485116414000,3.2914140625,0.1094028502702713,-0.07492247223854065,-0.12102892994880676
1790006485126425900,3.30142578125,0.13644592463970184,-0.10480207204818726,-0.14814577996730804
1790006485136438800,3.311438720703125,0.19147934019565582,-0.1514396220445633,-0.15194717049598694
1790006485146451000,3.321450927734375,0.24644166231155396,-0.1798241287469864,-0.1378697007894516
1790006485156463900,3.3314638671875,0.28547242283821106,-0.19257694482803345,-0.12496322393417358
1790006485166475800,3.341475830078125,0.30158933997154236,-0.17108096182346344,-0.11950720846652985
1790006485176489000,3.351489013671875,0.28612250089645386,-0.12352941930294037,-0.1339106410741806
1790006485186500900,3.3615009765625,0.2262495756149292,-0.0756380632519722,-0.15374746918678284
1790006485196513000,3.371512939453125,0.058513838797807693,0.0434395931661129,-0.2002161592245102
1790006485206525700,3.381525634765625,-0.09491592645645142,-0.026508865877985954,-0.2807498872280121
1790006485216537900,3.391537841796875,-0.08781860768795013,-0.015584046021103859,-0.36657851934432983
1790006485226550800,3.40155078125,0.040226712822914124,0.08390073478221893,-0.4954853355884552
1790006485236563000,3.41156298828125,0.01297564897686243,0.7593808770179749,-0.3157004117965698
1790006485246574800,3.421574951171875,0.05011369660496712,0.15929774940013885,-0.06990636140108109
1790006485256588000,3.431588134765625,0.023691145703196526,-0.048594459891319275,0.024003617465496063
1790006485266600000,3.441599853515625,0.00021298270439729095,0.06352728605270386,-0.02330584079027176
1790006485276613000,3.451613037109375,-0.009189041331410408,0.09751081466674805,-0.03526289761066437
1790006485286625000,3.461625,-0.00777223939076066,-0.1956544816493988,0.09198346734046936
1790006485296637000,3.471636962890625,-0.00032870424911379814,-0.060927290469408035,0.031042085960507393
1790006485306649900,3.48164990234375,0.004422108642756939,0.008093053475022316,-0.00454813102260232
1790006485316661800,3.491661865234375,0.003591734915971756,-0.019970273599028587,0.007994292303919792
1790006485326675000,3.501675048828125,-0.006440392695367336,-0.06692366302013397,0.029619159176945686
1790006485336686800,3.511686767578125,-0.014460502192378044,-0.01357841957360506,0.001058355439454317
1790006485346700000,3.521699951171875,-0.02310592122375965,0.16105037927627563,-0.08022531121969223
1790006485356712000,3.5317119140625,-0.01122263167053461,0.05329941585659981,-0.03267510607838631
1790006485366723800,3.541723876953125,-0.02364281378686428,-0.06674603372812271,0.0249509047716856
1790006485376736800,3.55173681640625,-0.01398592721670866,-0.060558710247278214,0.015899086371064186
1790006485386748700,3.561748779296875,-0.01725495606660843,0.015111016109585762,-0.02438308857381344
1790006485396761900,3.571761962890625,-0.05220628157258034,0.04644470661878586,-0.04016045108437538
1790006485406773800,3.581773681640625,-0.05523669347167015,0.017476966604590416,-0.01884983852505684
1790006485416786000,3.591785888671875,-0.03723612055182457,-0.06336674839258194,0.016115868464112282
1790006485426798800,3.601798828125,-0.006827616132795811,-0.09569432586431503,0.028776003047823906
1790006485436811000,3.61181103515625,0.004676440730690956,-0.0331483893096447,0.003462923690676689
1790006485446824000,3.621823974609375,0.009576923213899136,-0.007219323422759771,-0.00725816423073411
1790006485456836000,3.631836181640625,0.009053612127900124,0.0056725069880485535,-0.012450262904167175
1790006485466848800,3.641848876953125,-0.013468741439282894,0.022455746307969093,-0.019421353936195374
1790006485476861000,3.65186083984375,-0.013859426602721214,0.010958881117403507,-0.01278528943657875
1790006485486872800,3.661872802734375,-0.018978288397192955,-0.031160876154899597,0.006209707818925381
1790006485496885800,3.6718857421875,-0.027026094496250153,-0.00816075038164854,-0.005931643303483725
1790006485506898000,3.68189794921875,-0.024862010031938553,0.03803550824522972,-0.025871528312563896
1790006485516910800,3.691910888671875,-0.0663284957408905,0.056780166923999786,-0.04050160199403763
1790006485526923000,3.701923095703125,-0.20805953443050385,0.11277765780687332,-0.07999095320701599
1790006485536935000,3.711934814453125,-0.2943917512893677,0.16122613847255707,-0.10895869135856628
1790006485546947800,3.72194775390625,-0.314502090215683,0.12103238701820374,-0.09788739681243896
1790006485556959700,3.731959716796875,-0.29491692781448364,0.059728819876909256,-0.06857691705226898
1790006485566973000,3.741972900390625,-0.2606196701526642,0.013713655062019825,-0.04344572871923447
1790006485576984800,3.75198486328125,-0.22386832535266876,0.0019123894162476063,-0.0288486760109663
1790006485586998000,3.761998046875,-0.16162066161632538,-0.028088653460144997,-0.009100273251533508
1790006485597010000,3.772010009765625,-0.0821860209107399,-0.050395820289850235,0.011175970546901226
1790006485607021800,3.782021728515625,-0.028060466051101685,-0.021207312121987343,0.0012016338296234608
1790006485617035000,3.792034912109375,-0.020779384300112724,-0.035772405564785004,0.006904260255396366
1790006485627047000,3.802046875,-0.033347904682159424,-0.04777127504348755,0.012270264327526093
1790006485637059800,3.812059814453125,-0.10033013671636581,-0.1493367850780487,0.04883946105837822
1790006485647071700,3.82207177734375,-0.15808264911174774,-0.22990752756595612,0.0656871497631073
1790006485657084000,3.832083984375,-0.19391974806785583,-0.17995434999465942,0.0390976183116436
1790006485667096800,3.842096923828125,-0.211709663271904,-0.14277370274066925,0.01508309505879879
1790006485677109000,3.85210888671875,-0.20459821820259094,-0.11948753893375397,0.008972471579909325
1790006485687122000,3.862121826171875,-0.25805237889289856,-0.09188893437385559,-0.00934741459786892
1790006485697133800,3.8721337890625,-0.3362411856651306,-0.10411843657493591,-0.014383185654878616
1790006485707147000,3.88214697265625,-0.43232885003089905,0.04427369683980942,-0.08559957146644592
1790006485717159000,3.892158935546875,-0.48937055468559265,0.11541951447725296,-0.11925606429576874
1790006485727171000,3.902171142578125,-0.44946789741516113,0.22491909563541412,-0.15529796481132507
1790006485737183700,3.912183837890625,-0.3984891176223755,0.4048835337162018,-0.22527065873146057
1790006485747196000,3.92219580078125,-0.38144010305404663,0.47225165367126465,-0.25052061676979065
1790006485757208800,3.932208740234375,-0.33857518434524536,0.3509984612464905,-0.19418783485889435
1790006485767221000,3.942220947265625,-0.14882336556911469,-0.05138278752565384,-0.004017629195004702
1790006485777233000,3.95223291015625,0.03783838823437691,0.07061049342155457,-0.029942968860268593
1790006485787230700,3.962230712890625,0.06989619135856628,0.054058149456977844,-0.02193617634475231
1790006485797242600,3.97224267578125,0.07359505444765091,0.0455448217689991,-0.016611719503998756
1790006485807255800,3.982255859375,0.09085021167993546,0.013665452599525452,-0.007639262359589338
1790006485817267700,3.992267822265625,0.07325150817632675,0.03129478171467781,-0.01686232164502144
1790006485827279600,4.002279541015625,0.05573536455631256,0.03404342755675316,-0.015712369233369827
1790006485837292500,4.01229248046875,0.0454997718334198,0.02406376414000988,-0.0144063550978899
1790006485847304700,4.0223046875,0.04087628051638603,0.03086833469569683,-0.011222653090953827
1790006485857317600,4.032317626953125,0.03876625746488571,0.03198899328708649,-0.010365115478634834
1790006485867329500,4.04232958984375,0.039154812693595886,0.0317210778594017,-0.008331792429089546
1790006485877342700,4.0523427734375,0.03250143676996231,0.010649081319570541,-0.000006217975169420242
1790006485887354600,4.062354736328125,0.02907847799360752,0.03200763463973999,-0.0015820106491446495
1790006485897366500,4.072366455078125,0.07869050651788712,0.009447462856769562,0.003578662872314453
1790006485907379700,4.082379638671875,0.05561021715402603,0.012182530015707016,-0.0008395211771130562
1790006485917391600,4.0923916015625,0.005344119854271412,0.03747190907597542,-0.014779038727283478
1790006485927404500,4.102404541015625,-0.014543301425874233,0.03477998450398445,-0.016497842967510223
1790006485937416400,4.11241650390625,-0.03325760364532471,0.038174450397491455,-0.01846938207745552
1790006485947428600,4.1224287109375,-0.0683727115392685,0.06179029867053032,-0.03436845541000366
1790006485957441500,4.132441650390625,-0.13197271525859833,0.058988653123378754,-0.04113900661468506
1790006485967453700,4.14245361328125,-0.1755249947309494,0.06429392844438553,-0.046282634139060974
1790006485977466600,4.152466552734375,-0.11361662298440933,0.07485096901655197,-0.047679200768470764
1790006485987478800,4.162478759765625,-0.06978285312652588,0.0734991505742073,-0.039740584790706635
1790006485997491700,4.17249169921875,-0.04502611234784126,0.09540710598230362,-0.04109080135822296
1790006486007504000,4.18250390625,-0.004421958699822426,0.07886195182800293,-0.03316044062376022
1790006486017515800,4.192515869140625,0.015794895589351654,0.0892067402601242,-0.03430693596601486
1790006486027528400,4.202528564453125,0.01655496284365654,0.08201833069324493,-0.03705424815416336
1790006486037540600,4.21254052734375,0.022109784185886383,0.06385264545679092,-0.03767769783735275
1790006486047553500,4.222553466796875,0.03976680710911751,0.09461402148008347,-0.03720072656869888
1790006486057565700,4.232565673828125,0.05529303476214409,0.08615501970052719,-0.033477090299129486
1790006486067577600,4.24257763671875,0.08114354312419891,0.07828538119792938,-0.025943810120224953
1790006486077590800,4.2525908203125,0.08159174770116806,0.07302137464284897,-0.01991547830402851
1790006486087602700,4.262602783203125,0.0885990634560585,0.06901411712169647,-0.018382295966148376
1790006486097615600,4.27261572265625,0.09929963946342468,0.07069377601146698,-0.01749865896999836
1790006486107627500,4.28262744140625,0.090608149766922,0.09436048567295074,-0.02418825402855873
1790006486117640700,4.292640625,0.07667528837919235,0.07323069870471954,-0.023203948512673378
1790006486127652600,4.302652587890625,0.0857742428779602,0.0707334578037262,-0.02508707158267498
1790006486137664500,4.31266455078125,0.060440659523010254,0.04549681022763252,-0.01979776658117771
1790006486147677700,4.322677734375,0.038482364267110825,0.03272775188088417,-0.01713540405035019
1790006486157689600,4.332689697265625,0.033543530851602554,0.02978682331740856,-0.01702195405960083
1790006486167702800,4.342702880859375,0.03291342779994011,0.03685858100652695,-0.015132972970604897
1790006486177714700,4.352714599609375,0.03786584362387657,0.03429875150322914,-0.013022683560848236
1790006486187726800,4.362726806640625,0.03593531623482704,0.03941628336906433,-0.013820568099617958
1790006486197739500,4.372739501953125,0.02430742420256138,0.02821262925863266,-0.008666018955409527
1790006486207751700,4.382751708984375,0.0062445346266031265,0.017306186258792877,-0.0036808475852012634
1790006486217764600,4.3927646484375,0.005881013348698616,0.014875518158078194,-0.0007090265862643719
1790006486227776500,4.402776611328125,0.03659870848059654,0.02785443514585495,-0.00302997138351202
1790006486237788700,4.41278857421875,0.0961427316069603,0.025227492675185204,0.00042654527351260185
1790006486247801600,4.422801513671875,0.11393611133098602,0.05264606699347496,-0.013216562569141388
1790006486257813800,4.432813720703125,0.11388204991817474,0.053824782371520996,-0.015043757855892181
1790006486267826400,4.442826416015625,0.13483446836471558,0.04156571999192238,-0.019473658874630928
1790006486277838600,4.452838623046875,0.170555979013443,0.04903322458267212,-0.01154862530529499
1790006486287851500,4.4628515625,0.152828648686409,0.03226036950945854,-0.009058302268385887
1790006486297863700,4.47286376953125,0.10436364263296127,0.024743862450122833,-0.007146685384213924
1790006486307875600,4.48287548828125,0.08851437270641327,0.031971413642168045,-0.006815388798713684
1790006486317888800,4.492888671875,0.07734906673431396,0.03097832202911377,-0.002202793024480343
1790006486327900700,4.502900634765625,0.07498657703399658,0.024571556597948074,-0.0009846631437540054
1790006486337913900,4.512913818359375,0.12010558694601059,0.03111414425075054,-0.0004560262896120548
1790006486347925800,4.52292578125,0.08719104528427124,0.025967052206397057,-0.0015465905889868736
1790006486357937700,4.532937744140625,0.08217977732419968,0.024100176990032196,-0.004361552186310291
1790006486367950600,4.54295068359375,0.08361628651618958,0.025795811787247658,-0.005567964166402817
1790006486377962500,4.55296240234375,0.09449263662099838,0.021943548694252968,-0.0021601831540465355
1790006486387975700,4.5629755859375,0.09004169702529907,0.015033177100121975,-0.0012531103566288948
1790006486397987600,4.572987548828125,0.04723777249455452,0.012299709022045135,0.0005903299897909164
1790006486407999700,4.582999755859375,0.028570612892508507,-0.0006965168286114931,0.0004209526814520359
1790006486418012700,4.5930126953125,0.0024828193709254265,-0.005764778703451157,-0.001139925792813301
1790006486428024600,4.603024658203125,0.001485199318267405,-0.00596531480550766,-0.0020640427246689796
1790006486438037800,4.613037841796875,0.001461497158743441,-0.002327170455828309,-0.003985513001680374
1790006486448049700,4.623049560546875,0.00473026093095541,-0.00041821651393547654,-0.005759445019066334
1790006486458062600,4.6330625,0.03195016458630562,0.0008161586592905223,-0.0030134599655866623
1790006486468074500,4.643074462890625,0.042401205748319626,0.0007434543804265559,-0.0026296982541680336
1790006486478086700,4.653086669921875,0.04887188598513603,0.014056595973670483,-0.014629635959863663
1790006486488099600,4.663099609375,0.03251608461141586,0.007713479455560446,-0.02099858596920967
1790006486498111700,4.67311181640625,0.012841717340052128,-0.009495601058006287,-0.021498993039131165
1790006486508124700,4.683124755859375,0.01194769423455,-0.00918401125818491,-0.02213841862976551
1790006486518136800,4.69313671875,0.0015107656363397837,0.0018465355969965458,-0.018574310466647148
1790006486528148700,4.703148681640625,0.002240205416455865,-0.004285659175366163,-0.015613939613103867
1790006486538161700,4.71316162109375,0.035721730440855026,0.02352812886238098,-0.011088164523243904
1790006486548173600,4.723173583984375,0.0025701711419969797,0.002778908470645547,-0.011989111080765724
1790006486558186500,4.7331865234375,0.026396941393613815,0.010866927914321423,-0.011872464790940285
1790006486568198700,4.74319873046875,0.034630101174116135,0.006002665031701326,-0.009051645174622536
1790006486578210600,4.75321044921875,0.001437795115634799,-0.003266467247158289,-0.006004455499351025
1790006486588223700,4.7632236328125,0.00290972413495183,-0.0008664265042170882,-0.007313665933907032
1790006486598235600,4.773235595703125,-0.0013073913287371397,-0.005857190117239952,0.002260930836200714
1790006486608248800,4.783248779296875,-0.00902150385081768,-0.0047772787511348724,0.0056266337633132935
1790006486618260700,4.7932607421875,-0.032412316650152206,-0.03257535398006439,0.010020051151514053
1790006486628272600,4.803272705078125,-0.02641247771680355,-0.017479490488767624,0.010290628299117088
1790006486638285600,4.81328564453125,-0.022760484367609024,-0.016334865242242813,0.00491263996809721
1790006486648297500,4.82329736328125,-0.012112900614738464,-0.009705991484224796,-0.004664086736738682
1790006486658310700,4.833310546875,-0.019213154911994934,-0.013200324960052967,-0.010565385222434998
1790006486668322600,4.843322509765625,-0.03230898454785347,-0.018105866387486458,-0.006072632968425751
1790006486678335700,4.853335693359375,-0.05510697513818741,-0.01957087218761444,-0.008987195789813995
1790006486688347600,4.86334765625,-0.05793258920311928,-0.026279641315340996,-0.012311087921261787
1790006486698359800,4.87335986328125,-0.06511273980140686,-0.03324247524142265,-0.0100945383310318
1790006486708372500,4.88337255859375,-0.06029001995921135,-0.032585471868515015,-0.00889318622648716
1790006486718384600,4.893384521484375,-0.02694670855998993,-0.01787630282342434,-0.005092589184641838
1790006486728397600,4.9033974609375,-0.031238926574587822,-0.016049373894929886,-0.005803919397294521
1790006486738409500,4.913409423828125,-0.0363447405397892,-0.009415972977876663,-0.0031937556341290474
1790006486748421600,4.923421630859375,-0.08466033637523651,-0.01932399719953537,-0.0015423297882080078
1790006486758434600,4.9334345703125,-0.09268524497747421,-0.012812568806111813,-0.0004951744340360165
1790006486768446700,4.94344677734375,-0.045943304896354675,-0.017256850376725197,0.0030604118946939707
1790006486778459600,4.953459716796875,-0.011508896015584469,-0.011915882118046284,0.002036958932876587
1790006486788472000,4.96347216796875,-0.006821999326348305,-0.002224904950708151,0.001426828559488058
1790006486798484000,4.97348388671875,-0.0026123402640223503,-0.007002882193773985,-0.0032182568684220314
1790006486808497000,4.983496826171875,-0.012484678067266941,-0.011936921626329422,-0.002784428186714649
1790006486818509000,4.993509033203125,-0.05595119670033455,-0.02967996522784233,-0.0021220995113253593
1790006486828522000,5.00352197265625,-0.13580207526683807,-0.018681908026337624,-0.002819315530359745
1790006486838534100,5.0135341796875,-0.1278083324432373,-0.02101590298116207,-0.008224466815590858
1790006486848546000,5.023546142578125,-0.03478796035051346,-0.034732334315776825,-0.003934056498110294
1790006486858559200,5.033559326171875,0.0004051830619573593,-0.01670086942613125,-0.006116783246397972
1790006486868571100,5.043571044921875,-0.0015160214388743043,-0.004095595329999924,-0.006394018419086933
1790006486878583800,5.053583740234375,0.0010430101538076997,0.004382311832159758,-0.005419568158686161
1790006486888596000,5.063595947265625,-0.001708567957393825,-0.002382117323577404,-0.0017598522827029228
1790006486898607900,5.07360791015625,-0.009699116460978985,-0.012736753560602665,0.0005365917459130287
1790006486908621000,5.08362109375,-0.010206714272499084,-0.015013223513960838,0.002849280834197998
1790006486918633000,5.093633056640625,-0.015766330063343048,0.0034281013067811728,0.0017794887535274029
1790006486928646100,5.103646240234375,-0.01286268513649702,-0.0131852300837636,0.0010971869342029095
1790006486938658000,5.113657958984375,0.003681137692183256,-0.0021155348513275385,0.00072487723082304
1790006486948670000,5.123669921875,0.008896672166883945,-0.004308115690946579,-0.004041914828121662
1790006486958683100,5.13368310546875,0.003125601913779974,0.00017478362133260816,-0.0008011138997972012
1790006486968695000,5.143695068359375,-0.0034127249382436275,-0.00010724512685555965,0.0011693588458001614
1790006486978708000,5.1537080078125,-0.005733936093747616,-0.0008420113008469343,0.0032514180056750774
1790006486988719900,5.163719970703125,-0.009069012477993965,-0.019573088735342026,0.004793388303369284
1790006486998733000,5.173733154296875,-0.03625616058707237,-0.02759506180882454,0.0025414195843040943
1790006487008745000,5.183744873046875,-0.04364696517586708,0.003911198582500219,-0.007950902916491032
1790006487018757000,5.193757080078125,-0.013631006702780724,0.013401639647781849,-0.013457254506647587
1790006487028770000,5.20377001953125,-0.01466031838208437,0.012849832884967327,-0.013464444316923618
1790006487038782200,5.2137822265625,-0.04449544847011566,0.021725615486502647,-0.018787570297718048
1790006487048795000,5.223794921875,-0.0883617028594017,0.02547588013112545,-0.04576006904244423
1790006487058806800,5.233806884765625,-0.04532608762383461,0.007479834370315075,-0.03312443196773529
1790006487068819000,5.24381884765625,-0.003278501331806183,0.0006352441851049662,-0.019734591245651245
1790006487078831900,5.253831787109375,0.006806623190641403,0.0019023761851713061,-0.010434833355247974
1790006487088844000,5.263843994140625,0.0036401250399649143,0.0036475458182394505,-0.0031644031405448914
1790006487098857000,5.27385693359375,0.0022638030350208282,0.008676925674080849,-0.00021149031817913055
1790006487108869000,5.283869140625,0.0059091378934681416,0.00886734202504158,0.0033776520285755396
1790006487118881000,5.293881103515625,0.00720636360347271,0.007165581453591585,0.0016921372152864933
1790006487128894200,5.303894287109375,0.00567211676388979,0.014528689906001091,-0.0014269566163420677
1790006487138906000,5.313906005859375,0.004740809090435505,0.014765444211661816,0.0008870637975633144
1790006487148919000,5.3239189453125,0.006382647901773453,0.01229003630578518,0.0035877753980457783
1790006487158931000,5.333930908203125,0.00937630794942379,0.012575526721775532,0.00020209886133670807
1790006487168942800,5.34394287109375,0.011864765547215939,0.011756605468690395,-0.0018626498058438301
1790006487178956000,5.3539560546875,0.012106047943234444,0.006157841067761183,-0.0028522806242108345
1790006487188968000,5.363968017578125,0.010989651083946228,0.00793177355080843,0.002387755084782839
1790006487198981000,5.373981201171875,0.010381651110947132,0.012302553281188011,0.004893256817013025
1790006487208993000,5.383992919921875,0.013605141080915928,0.008389304392039776,0.004585928283631802
1790006487219005200,5.394005126953125,0.0223791915923357,0.013415488414466381,-0.0015563862398266792
1790006487229017900,5.404017822265625,0.02280023694038391,0.012455152347683907,-0.004307165741920471
1790006487239030000,5.414030029296875,0.02569109946489334,0.010592803359031677,-0.002838166430592537
1790006487249043000,5.42404296875,0.04782329872250557,0.003131158882752061,-0.0031697293743491173
1790006487259054800,5.434054931640625,0.05287904292345047,0.005594849120825529,-0.0033569494262337685
1790006487269067000,5.44406689453125,0.06088290736079216,0.012498295865952969,-0.008953849785029888
1790006487279080000,5.454079833984375,0.04372389242053032,0.012761948630213737,-0.01268946472555399
1790006487289092000,5.464092041015625,0.028666649013757706,0.014166233129799366,-0.01516540627926588
1790006487299105000,5.47410498046875,0.02610175870358944,0.012944907881319523,-0.017014704644680023
1790006487309117200,5.4841171875,0.02761123701930046,0.016526060178875923,-0.014218918047845364
1790006487319129000,5.494129150390625,0.019273146986961365,0.02516402304172516,-0.01651722565293312
1790006487329142000,5.50414208984375,0.018390575423836708,0.02191470004618168,-0.019008345901966095
1790006487339154000,5.51415380859375,0.02224470116198063,0.014321229420602322,-0.009344800375401974
1790006487349167000,5.5241669921875,0.02700670063495636,0.01975833810865879,-0.005908790975809097
1790006487359179000,5.534178955078125,0.01412978395819664,0.019952483475208282,0.0017033223994076252
1790006487369191000,5.54419091796875,0.007760567590594292,0.021286994218826294,0.00391534436494112
1790006487379204000,5.5542041015625,0.0067480336874723434,0.01994023285806179,0.005002712830901146
1790006487389216000,5.564216064453125,0.007672416977584362,0.016158010810613632,0.004728407133370638
1790006487399229000,5.57422900390625,0.006534714251756668,0.016115134581923485,0.0010561742819845676
1790006487409241000,5.584240966796875,0.014109278097748756,0.018542073667049408,0.007231246214359999
1790006487419253000,5.5942529296875,0.011169147677719593,0.014972105622291565,0.008295711129903793
1790006487429266000,5.604265869140625,0.018871009349822998,0.009387456811964512,0.010723715648055077
1790006487439278000,5.614278076171875,0.011369151063263416,0.013980078510940075,0.008928745053708553
1790006487449291000,5.624291015625,0.008369899354875088,0.008755489252507687,0.009517303667962551
1790006487459303000,5.634302978515625,0.004130945540964603,0.010662046261131763,0.009742073714733124
1790006487469315000,5.644315185546875,0.0022861738689243793,0.002242195652797818,0.009367367252707481
1790006487479328000,5.654327880859375,-0.000018259568605571985,-0.0025887785013765097,0.00839451514184475
1790006487489340200,5.664340087890625,-0.000842507928609848,-0.007275143172591925,0.0026769740507006645
1790006487499352000,5.67435205078125,0.0015370264882221818,-0.009238424710929394,0.0019842861220240593
1790006487509365000,5.684364990234375,0.0016552708111703396,-0.010305020958185196,0.004355564713478088
1790006487519377000,5.694376953125,0.0059056757017970085,-0.010895177721977234,0.005702857859432697
1790006487529390000,5.70439013671875,0.004538675304502249,-0.01355034951120615,0.012038517743349075
1790006487539402000,5.714402099609375,0.010181381367146969,-0.0038769494276493788,0.0037939040921628475
1790006487549414000,5.724413818359375,0.010610949248075485,0.006493932101875544,0.0003022337332367897
1790006487559427000,5.734427001953125,0.010173924267292023,-0.002422863617539406,0.0016002580523490906
1790006487569439000,5.74443896484375,0.018492840230464935,-0.00025105581153184175,0.004266082309186459
1790006487579452200,5.7544521484375,0.011802979744970798,0.00045468186726793647,0.005301519297063351
1790006487589464000,5.764464111328125,0.011676213704049587,0.0003742543631233275,0.005195259116590023
1790006487599476200,5.774476318359375,0.010145694948732853,-0.0030556307174265385,0.004956373944878578
1790006487609489000,5.784489013671875,0.0005103779258206487,-0.006593640428036451,0.002355797216296196
1790006487619501000,5.7945009765625,0.00341854989528656,-0.0037097029853612185,0.002863661851733923
1790006487629514000,5.804513916015625,-0.0033791689202189445,-0.005704677198082209,0.0008569699712097645
1790006487639526100,5.814526123046875,0.0013988084392622113,-0.007727348245680332,-0.0018136482685804367
1790006487649538000,5.8245380859375,-0.0026020584627985954,-0.007469820324331522,0.00007666368037462234
1790006487659551000,5.834551025390625,-0.0012201442150399089,-0.009031497873365879,-0.000878612045198679
1790006487669563100,5.844563232421875,-0.0034747766330838203,-0.005225041881203651,0.0001504332758486271
1790006487679575800,5.854575927734375,-0.0018963207257911563,-0.003948322497308254,-0.000033058226108551025
1790006487689588000,5.864587890625,-0.0017035078490152955,-0.006397365592420101,-0.00006182072684168816
1790006487699600000,5.874599853515625,-0.001170343137346208,-0.0070698135532438755,-0.002158527262508869
1790006487709613000,5.884613037109375,-0.0023389379493892193,-0.0031885222997516394,-0.0022509386762976646
1790006487719625000,5.894625,0.0002539154957048595,-0.002110474742949009,-0.0006927233189344406
1790006487729638100,5.90463818359375,0.0011521996930241585,0.00022245421132538468,-0.000334261916577816
1790006487739650000,5.914650146484375,0.002644102554768324,-0.0003051179810427129,-0.0017332201823592186
1790006487749662000,5.924661865234375,0.003666756208986044,0.0027878773398697376,0.0008649593219161034
1790006487759675100,5.934675048828125,0.001686163479462266,0.004980723839253187,-0.000605105422437191
1790006487769687000,5.94468701171875,0.0005031874170526862,0.013082326389849186,-0.004646984860301018
1790006487779700000,5.954699951171875,0.0021972241811454296,0.004235038999468088,-0.004304768517613411
1790006487789711400,5.96471142578125,0.004393799230456352,0.007932838052511215,-0.0019239028915762901
1790006487799723300,5.97472314453125,0.004132276866585016,0.0026323487982153893,0.003691106103360653
1790006487809736400,5.984736328125,0.003915762063115835,0.007424174342304468,0.0035789869725704193
1790006487819748400,5.994748291015625,0.0022741896100342274,0.005125067196786404,0.0016295528039336205
1790006487829761500,6.004761474609375,0.002754623768851161,0.009015679359436035,-0.00013638893142342567
1790006487839773400,6.0147734375,0.002881922759115696,0.0009785256115719676,0.0008292729035019875
1790006487849785300,6.024785400390625,0.004673468880355358,-0.0026050033047795296,0.002035462763160467
1790006487859798500,6.034798583984375,0.008881529793143272,-0.0020963395945727825,0.004590499214828014
1790006487869810400,6.044810546875,0.011478910222649574,0.0004728119820356369,0.006325016263872385
1790006487879822600,6.054822509765625,0.032182324677705765,0.003317600581794977,0.006046183407306671
1790006487889835300,6.064835205078125,0.03631102293729782,-0.005378419067710638,0.0024450570344924927
1790006487899847200,6.07484716796875,0.003198344027623534,-0.00949646532535553,0.0032203029841184616
1790006487909860400,6.0848603515625,0.0027754339389503,-0.004570948891341686,0.0005861702375113964
1790006487919872300,6.094872314453125,0.0021661026403307915,-0.0042383200488984585,-0.0013392954133450985
1790006487929884400,6.104884521484375,0.0048601566813886166,-0.0063749742694199085,0.0014349198900163174
1790006487939897300,6.1148974609375,0.00011839816579595208,-0.0030707900878041983,0.0003052069805562496
1790006487949909500,6.124909423828125,0.003212991403415799,-0.0033301820512861013,-0.001432505901902914
1790006487959922400,6.13492236328125,0.005170681048184633,-0.001210838439874351,-0.000881231389939785
1790006487969934300,6.144934326171875,0.013542860746383667,0.0030217233579605818,-0.0013299738056957722
1790006487979946500,6.154946533203125,0.01614370383322239,0.004416953306645155,-0.002544641960412264
1790006487989959400,6.16495947265625,0.013107167556881905,0.00697332201525569,0.00025966670364141464
1790006487999971300,6.174971435546875,0.011625384911894798,0.011519603431224823,0.0022951210848987103
1790006488009984500,6.184984619140625,0.010956664569675922,0.013104718178510666,0.0005867029540240765
1790006488019996400,6.194996337890625,0.01368054561316967,0.018996961414813995,0.00023010559380054474
1790006488030008300,6.20500830078125,0.01607712358236313,0.019824936985969543,-0.0006231712177395821
1790006488040021500,6.215021484375,0.019792500883340836,0.0230588149279356,0.000017585698515176773
1790006488050033400,6.225033447265625,0.019794898107647896,0.02474565990269184,0.0007813801057636738
1790006488060045600,6.235045654296875,0.016243573278188705,0.026750754565000534,0.0011297217570245266
1790006488070058200,6.245058349609375,0.01283472590148449,0.029409654438495636,0.0009763236157596111
1790006488080070400,6.2550703125,0.013267755508422852,0.029830167070031166,0.0014772643335163593
1790006488090083300,6.265083251953125,0.016857163980603218,0.03272875025868416,-0.0008314303122460842
1790006488100095200,6.27509521484375,0.019783979281783104,0.03478125110268593,0.00037578074261546135
1790006488110107400,6.285107421875,0.020313415676355362,0.036443594843149185,-0.0011257096193730831
1790006488120120300,6.295120361328125,0.014642746187746525,0.03816293179988861,0.0015209401026368141
1790006488130132500,6.305132568359375,0.012723938561975956,0.03941967710852623,0.002680480480194092
1790006488140145400,6.3151455078125,0.009688201360404491,0.04271374270319939,0.0014367839321494102
1790006488150157600,6.325157470703125,0.0127495052292943,0.04165566712617874,-0.000868714414536953
1790006488160169500,6.33516943359375,0.010167037136852741,0.042094290256500244,-0.002394971903413534
1790006488170182400,6.345182373046875,0.011713801883161068,0.04454093798995018,0.00021306145936250687
1790006488180194300,6.3551943359375,0.008571803569793701,0.044208306819200516,0.0009456970728933811
1790006488190207500,6.36520751953125,0.001935739303007722,0.04367514327168465,0.000022911932319402695
1790006488200219400,6.375219482421875,-0.0013468731194734573,0.04362374544143677,0.0014026956632733345
1790006488210231300,6.385231201171875,-0.0024155995342880487,0.04385197535157204,-0.0016002845950424671
1790006488220244500,6.395244384765625,-0.006443630903959274,0.04299390688538551,-0.0007776343263685703
1790006488230256400,6.40525634765625,-0.010315600782632828,0.03892113268375397,-0.0021097478456795216
1790006488240268500,6.4152685546875,-0.013609930872917175,0.03676716983318329,-0.00014247046783566475
1790006488250281200,6.42528125,-0.016739677637815475,0.03364061936736107,0.00018110359087586403
1790006488260293400,6.43529345703125,-0.019096042960882187,0.03194977715611458,-0.0015387660823762417
1790006488270306300,6.445306396484375,-0.026234112679958344,0.02984694577753544,-0.0007414151914417744
1790006488280318500,6.455318359375,-0.030583322048187256,0.0280530396848917,0.00029428815469145775
1790006488290330400,6.465330322265625,-0.03462040796875954,0.025270037353038788,-0.0013262457214295864
1790006488300343300,6.47534326171875,-0.03760581091046333,0.02341674268245697,-0.0006934786215424538
1790006488310355500,6.48535546875,-0.04004792869091034,0.020612433552742004,-0.0015677944757044315
1790006488320368400,6.495368408203125,-0.04549063369631767,0.01848829723894596,-0.0016804463230073452
1790006488330380500,6.505380615234375,-0.04973357915878296,0.01716736890375614,-0.0025558271445333958
1790006488340392400,6.515392333984375,-0.05309848487377167,0.014897823333740234,-0.002230388578027487
1790006488350405400,6.5254052734375,-0.0565938837826252,0.013471169397234917,-0.0021566194482147694
1790006488360417300,6.535417236328125,-0.05875663459300995,0.012254370376467705,-0.0022759283892810345
1790006488370430500,6.545430419921875,-0.06277108192443848,0.014407536014914513,-0.002851704601198435
1790006488380442400,6.5554423828125,-0.06669498980045319,0.01541847176849842,-0.004532425198704004
1790006488390454300,6.565454345703125,-0.07080636918544769,0.016764964908361435,-0.002760890405625105
1790006488400467500,6.575467529296875,-0.07650020718574524,0.0202206838876009,-0.0020764577202498913
1790006488410479400,6.585479248046875,-0.07592922449111938,0.023165341466665268,-0.0032021761871874332
1790006488420491500,6.595491455078125,-0.07812793552875519,0.024235665798187256,-0.0038898042403161526
1790006488430504400,6.60550439453125,-0.07993462681770325,0.02709084004163742,-0.004260516259819269
1790006488440516400,6.615516357421875,-0.08952146768569946,0.030831515789031982,-0.007366028148680925
1790006488450529300,6.625529296875,-0.09480652213096619,0.03329573944211006,-0.0040290881879627705
1790006488460541400,6.63554150390625,-0.09836822748184204,0.033562056720256805,-0.0028511718846857548
1790006488470553300,6.64555322265625,-0.09773865342140198,0.033680565655231476,-0.0073620337061584
1790006488480566500,6.65556640625,-0.10250012576580048,0.03333302214741707,-0.007401448208838701
1790006488490578400,6.665578369140625,-0.10651937127113342,0.03430241346359253,-0.005091689061373472
1790006488500591400,6.67559130859375,-0.11365130543708801,0.03243633732199669,-0.006647241767495871
1790006488510603500,6.685603515625,-0.11763672530651093,0.03081846609711647,-0.005624320823699236
1790006488520615400,6.695615478515625,-0.12612156569957733,0.025069501250982285,-0.006699173245579004
1790006488530628400,6.70562841796875,-0.13061325252056122,0.019526131451129913,-0.0066584269516170025
1790006488540640300,6.71564013671875,-0.13272327184677124,0.010950220748782158,-0.00864700973033905
1790006488550652400,6.72565234375,-0.13719499111175537,0.002000134903937578,-0.007721560541540384
1790006488560665300,6.735665283203125,-0.14525212347507477,-0.008006161078810692,-0.007532475981861353
1790006488570677200,6.74567724609375,-0.15228578448295593,-0.019340308383107185,-0.007282139267772436
1790006488580690400,6.7556904296875,-0.1568475216627121,-0.032281938940286636,-0.010581264272332191
1790006488590702300,6.765702392578125,-0.16305401921272278,-0.041365448385477066,-0.006623006891459227
1790006488600714500,6.775714599609375,-0.1602686196565628,-0.052680954337120056,-0.00625282758846879
1790006488610727400,6.7857275390625,-0.16233283281326294,-0.06565453857183456,-0.006038709077984095
1790006488620739600,6.795739501953125,-0.16265667974948883,-0.06969109177589417,-0.005907681304961443
1790006488630752300,6.805752197265625,-0.16692864894866943,-0.06457675993442535,0.0003265123814344406
1790006488640764400,6.815764404296875,-0.1862136572599411,-0.07887899875640869,-0.010554898530244827
1790006488650776300,6.8257763671875,-0.15488210320472717,-0.11407560110092163,-0.0018865750171244144
1790006488660789500,6.83578955078125,-0.15293560922145844,-0.11942961812019348,-0.004763854201883078
1790006488670801400,6.845801513671875,-0.15984384715557098,-0.08404366672039032,-0.006378261838108301
1790006488680814600,6.855814697265625,-0.18135260045528412,-0.05265911668539047,-0.012638023123145103
1790006488690826500,6.865826416015625,-0.15890374779701233,-0.047382861375808716,-0.011525087058544159
1790006488700838400,6.87583837890625,-0.12654873728752136,-0.09910144656896591,-0.007992137223482132
1790006488710851300,6.885851318359375,-0.11939574778079987,-0.12327282875776291,-0.0012511448003351688
1790006488720863200,6.89586328125,-0.15035472810268402,-0.08742188662290573,-0.00019307062029838562
1790006488730875400,6.90587548828125,-0.1549912989139557,-0.04776955395936966,-0.004742015618830919
1790006488740888300,6.915888427734375,-0.13414913415908813,-0.04667472839355469,-0.012702470645308495
1790006488750900200,6.925900146484375,-0.09907795488834381,-0.04392847418785095,-0.006461352575570345
1790006488760913400,6.935913330078125,-0.08994224667549133,-0.007423460483551025,0.004523387644439936
1790006488770925300,6.94592529296875,-0.09870058298110962,0.05783383920788765,0.002622423227876425
1790006488780937500,6.9559375,-0.08044728636741638,0.08427982777357101,-0.009509874507784843
1790006488790950700,6.96595068359375,-0.03716852143406868,0.06842390447854996,-0.0067353923805058
1790006488800962600,6.975962646484375,-0.023467088118195534,0.07291532307863235,-0.002707360778003931
1790006488810975500,6.9859755859375,-0.03206696733832359,0.11303158104419708,-0.002934794407337904
1790006488820987600,6.995987548828125,-0.036466509103775024,0.1355789750814438,-0.006919416133314371
1790006488830999600,7.00599951171875,-0.003588988445699215,0.11363718658685684,-0.009092289954423904
1790006488841012500,7.016012451171875,0.01897677406668663,0.09560838341712952,-0.0052312384359538555
1790006488851024600,7.026024658203125,0.002743225544691086,0.11630721390247345,0.0008870712481439114
1790006488861036500,7.03603662109375,-0.016285859048366547,0.15120288729667664,0.003295101458206773
1790006488871049700,7.0460498046875,-0.009836481884121895,0.1413649022579193,0.0010809493251144886
1790006488881061600,7.0560615234375,0.0076892483048141,0.09822621941566467,-0.010039612650871277
1790006488891074600,7.066074462890625,0.004216486122459173,0.07450491189956665,-0.009686743840575218
1790006488901086500,7.07608642578125,-0.01471779029816389,0.07550173252820969,-0.004756432957947254
1790006488911098400,7.086098388671875,-0.027402158826589584,0.06370818614959717,0.0013909414410591125
1790006488921111600,7.096111572265625,-0.014733768999576569,0.02383614145219326,0.0021640569902956486
1790006488931123500,7.10612353515625,0.0006891294033266604,-0.007459729444235563,0.00029345275834202766
1790006488941136600,7.11613671875,-0.0031029456295073032,-0.009928214363753796,0.0022186515852808952
1790006488951148500,7.1261484375,-0.007947235368192196,-0.0026378105394542217,0.000997059978544712
1790006488961160700,7.13616064453125,0.006560600362718105,-0.017419951036572456,0.0013850824907422066
1790006488971173600,7.146173583984375,0.025795280933380127,-0.040946584194898605,0.007091171108186245
1790006488981185800,7.156185791015625,0.03130509704351425,-0.049308378249406815,0.004642128478735685
1790006488991197700,7.16619775390625,0.021391212940216064,-0.04471895098686218,-0.0009896587580442429
1790006489001210600,7.176210693359375,0.018570125102996826,-0.052851978689432144,0.0014798911288380623
1790006489011222500,7.186222412109375,0.026397954672574997,-0.0845412015914917,0.009507989510893822
1790006489021235700,7.196235595703125,0.04322433844208717,-0.12499381601810455,0.009648604318499565
1790006489031247600,7.20624755859375,0.05361546203494072,-0.14713212847709656,0.006945762783288956
1790006489041259500,7.216259521484375,0.05035069212317467,-0.1551719456911087,0.00841795839369297
1790006489051272700,7.226272705078125,0.05603707581758499,-0.16832636296749115,0.01277702022343874
1790006489061284600,7.23628466796875,0.07058832049369812,-0.19035843014717102,0.01012903917580843
1790006489071297500,7.246297607421875,0.08041565120220184,-0.19789624214172363,0.010401480831205845
1790006489081309400,7.256309326171875,0.07869870960712433,-0.18985243141651154,0.011881665326654911
1790006489091321600,7.266321533203125,0.08087318390607834,-0.181392639875412,0.012140258215367794
1790006489101334500,7.27633447265625,0.09079771488904953,-0.1825750768184662,0.01169311348348856
1790006489111346400,7.286346435546875,0.10938552021980286,-0.18174123764038086,0.012241192162036896
1790006489121358600,7.296358642578125,0.12503159046173096,-0.16719213128089905,0.01792544312775135
1790006489131371500,7.30637158203125,0.1422790139913559,-0.15162062644958496,0.016018619760870934
1790006489141383700,7.3163837890625,0.16090276837348938,-0.1302303820848465,0.019027993083000183
1790006489151396600,7.326396728515625,0.18103545904159546,-0.11144551634788513,0.018308673053979874
1790006489161408800,7.33640869140625,0.20383718609809875,-0.08218962699174881,0.016455112025141716
1790006489171420700,7.346420654296875,0.22204148769378662,-0.04781727492809296,0.01744900271296501
1790006489181433600,7.35643359375,0.24165086448192596,-0.0216546431183815,0.017034083604812622
1790006489191445500,7.366445556640625,0.25646549463272095,-0.0027400758117437363,0.014211664907634258
1790006489201458700,7.376458740234375,0.2625444233417511,0.013028500601649284,0.019585125148296356
1790006489211470600,7.386470703125,0.26304805278778076,0.013450078666210175,0.022480780258774757
1790006489221482500,7.396482421875,0.2664307951927185,0.004968443885445595,0.022697562351822853
1790006489231495700,7.40649560546875,0.26518550515174866,-0.004302286077290773,0.02147197350859642
1790006489241507600,7.416507568359375,0.2583789825439453,0.006144496146589518,0.02267812006175518
1790006489251519700,7.426519775390625,0.2652054727077484,0.026615682989358902,0.02183150127530098
1790006489261532700,7.43653271484375,0.2881067991256714,0.04410093277692795,0.020126279443502426
1790006489271544600,7.446544677734375,0.31185072660446167,0.06167380139231682,0.01875821314752102
1790006489281557500,7.4565576171875,0.32505229115486145,0.08354554325342178,0.019954770803451538
1790006489291569700,7.466569580078125,0.3232991397380829,0.1114829033613205,0.019343309104442596
1790006489301581600,7.47658154296875,0.3274632394313812,0.13408754765987396,0.02316840924322605
1790006489311594500,7.486594482421875,0.3307170867919922,0.16187657415866852,0.029875580221414566
1790006489321606700,7.496606689453125,0.3288688659667969,0.19670672714710236,0.030271857976913452
1790006489331618600,7.50661865234375,0.33612439036369324,0.23533613979816437,0.02110738679766655
1790006489341631700,7.5166318359375,0.33862215280532837,0.2511904537677765,0.009574036113917828
1790006489351643600,7.5266435546875,0.3538181483745575,0.26619765162467957,0.007091171108186245
1790006489361656600,7.536656494140625,0.3538237512111664,0.2855399250984192,0.01503085345029831
1790006489371668500,7.54666845703125,0.33973854780197144,0.3090641498565674,0.025000130757689476
1790006489381680400,7.556680419921875,0.3093859851360321,0.30967721343040466,0.011502165347337723
1790006489391693600,7.566693603515625,0.30814921855926514,0.29294028878211975,0.014827653765678406
1790006489401705500,7.57670556640625,0.3097183406352997,0.2748984396457672,0.014745894819498062
1790006489411718700,7.58671875,0.30732762813568115,0.26874256134033203,0.01172320730984211
1790006489421730600,7.59673046875,0.24880652129650116,0.25883132219314575,-0.0035798484459519386
1790006489431742700,7.60674267578125,0.18623848259449005,0.24339033663272858,-0.0024123191833496094
1790006489441755600,7.616755615234375,0.1733541041612625,0.214084655046463,0.011527997441589832
1790006489451767800,7.626767822265625,0.17185847461223602,0.15943391621112823,0.024976694956421852
1790006489461779700,7.63677978515625,0.16850103437900543,0.09961345791816711,0.02261420525610447
1790006489471792600,7.646792724609375,0.1249181404709816,0.04141753166913986,0.006767597049474716
1790006489481804500,7.656804443359375,0.07902361452579498,0.0168453436344862,-0.0028477460145950317
1790006489491817700,7.666817626953125,0.05565198138356209,0.014646637253463268,-0.001355842687189579
1790006489501829600,7.67682958984375,0.058758825063705444,0.004716242663562298,0.016861509531736374
1790006489511841500,7.686841552734375,0.07378730922937393,-0.0020271476823836565,0.011135447770357132
1790006489521854700,7.696854736328125,0.07003890722990036,-0.027348749339580536,0.023834731429815292
1790006489531866600,7.70686669921875,0.02454892173409462,-0.06323111802339554,0.013209784403443336
1790006489541878800,7.716878662109375,-0.018574047833681107,-0.10796556621789932,-0.007760212756693363
1790006489551891500,7.726891357421875,-0.0654669851064682,-0.16486026346683502,-0.00921083614230156
1790006489561903600,7.736903564453125,-0.07489297538995743,-0.2050822526216507,-0.004756166599690914
1790006489571916500,7.74691650390625,-0.051000695675611496,-0.22200290858745575,0.00608289847150445
1790006489581928400,7.756928466796875,-0.006995421834290028,-0.20737363398075104,0.013273965567350388
1790006489591940600,7.766940673828125,-0.005260372534394264,-0.15562814474105835,0.026969006285071373
1790006489601953500,7.77695361328125,-0.026434898376464844,-0.09639067202806473,0.027504567056894302
1790006489611965700,7.786965576171875,-0.027106814086437225,-0.07467924803495407,-0.005064827390015125
1790006489621978600,7.796978515625,-0.025128353387117386,-0.10512717068195343,-0.03315345197916031
1790006489631990800,7.80699072265625,-0.027181651443243027,-0.14013893902301788,-0.031136641278862953
1790006489642002700,7.817002685546875,-0.02503461018204689,-0.11788584291934967,-0.0022940747439861298
1790006489652015600,7.827015625,-0.03814881294965744,-0.045883286744356155,0.02447548694908619
1790006489662027500,7.837027587890625,-0.010300138033926487,0.05519859120249748,0.03194858133792877
1790006489672039400,7.847039306640625,0.03087126463651657,0.12450709193944931,0.022595295682549477
1790006489682052600,7.857052490234375,0.07851788401603699,0.14152470231056213,-0.005176680162549019
1790006489692064500,7.867064453125,0.10244904458522797,0.13483190536499023,-0.030438361689448357
1790006489702077700,7.87707763671875,0.0743793323636055,0.13176687061786652,-0.03418276458978653
1790006489712089600,7.887089599609375,0.03634433075785637,0.13682368397712708,-0.014096138998866081
1790006489722101800,7.897101806640625,0.044692009687423706,0.13670997321605682,0.015581861138343811
1790006489732114400,7.907114501953125,0.09412853419780731,0.1466747224330902,0.03629033640027046
1790006489742126600,7.917126708984375,0.13232891261577606,0.15923871099948883,0.03614892065525055
1790006489752138500,7.927138427734375,0.15259769558906555,0.17852959036827087,0.010575651191174984
1790006489762151400,7.9371513671875,0.11456270515918732,0.1636829972267151,-0.026140285655856133
1790006489772163600,7.94716357421875,0.08739765733480453,0.15149131417274475,-0.03305544704198837
1790006489782176500,7.957176513671875,0.06409180164337158,0.13387076556682587,-0.01439547911286354
1790006489792188700,7.967188720703125,0.10461340099573135,0.13103796541690826,0.013659591786563396
1790006489802200800,7.977200927734375,0.1686546951532364,0.11321235448122025,0.026488836854696274
1790006489812213800,7.9872138671875,0.21839988231658936,0.10622608661651611,0.031088117510080338
1790006489822226000,7.997225830078125,0.2231442928314209,0.13934117555618286,0.028294727206230164
1790006489832238600,8.007238525390624,0.1803203970193863,0.19857387244701385,0.021440550684928894
1790006489842250800,8.017250732421875,0.18035076558589935,0.24753795564174652,0.013281955383718014
1790006489852262700,8.0272626953125,0.2128211259841919,0.2549058496952057,0.0006811642087996006
1790006489862275800,8.03727587890625,0.28266653418540955,0.25361448526382446,-0.0012048869393765926
1790006489872287700,8.047287841796875,0.323467493057251,0.26919451355934143,0.01631764881312847
1790006489882299600,8.057299560546875,0.32608404755592346,0.30780208110809326,0.03785090148448944
1790006489892312800,8.067312744140626,0.3216102123260498,0.35316503047943115,0.035415709018707275
1790006489902324700,8.07732470703125,0.3275088369846344,0.37929490208625793,0.013510676100850105
1790006489912337700,8.087337646484375,0.3487078845500946,0.4047291576862335,-0.007892882451415062
1790006489922349600,8.097349609375,0.35799193382263184,0.42609331011772156,-0.01203436404466629
1790006489932361700,8.10736181640625,0.3623400628566742,0.4452688694000244,-0.003540479112416506
1790006489942374700,8.117374755859375,0.36073338985443115,0.46304893493652344,0.01786734163761139
1790006489952386800,8.12738671875,0.3588353395462036,0.48160049319267273,0.03603862226009369
1790006489962398700,8.137398681640626,0.3671100437641144,0.49054765701293945,0.021140100434422493
1790006489972412000,8.147411865234375,0.39167770743370056,0.48011258244514465,-0.010867899283766747
1790006489982423800,8.157423828125,0.39886346459388733,0.4930049479007721,-0.02948153205215931
1790006489992436700,8.167436767578126,0.3715839087963104,0.5269355177879333,-0.02197088487446308
1790006490002449000,8.177448974609375,0.32922792434692383,0.5430814623832703,-0.005227058660238981
1790006490012460800,8.187460693359375,0.3262254595756531,0.5323851704597473,-0.012445023283362389
1790006490022473700,8.1974736328125,0.34476372599601746,0.5099722743034363,-0.024635909125208855
1790006490032485600,8.207485595703124,0.37028026580810547,0.4978010356426239,-0.02183985710144043
1790006490042497800,8.217497802734375,0.39185985922813416,0.4728464186191559,-0.006666496861726046
1790006490052510700,8.2275107421875,0.39254721999168396,0.43974146246910095,0.00447110878303647
1790006490062522600,8.237522705078124,0.3590151071548462,0.4184516370296478,0.00018608244135975838
1790006490072535800,8.247535888671875,0.30690476298332214,0.40037035942077637,-0.015081286430358887
1790006490082547700,8.257547607421875,0.30338725447654724,0.3765084445476532,-0.03351781889796257
1790006490092560000,8.267559814453126,0.34830573201179504,0.33963191509246826,-0.029630934819579124
1790006490102572800,8.27757275390625,0.3995297849178314,0.32627642154693604,-0.01637345179915428
1790006490112584700,8.287584716796875,0.4111552834510803,0.3408292829990387,-0.009222598746418953
1790006490122596900,8.297596923828126,0.3982831537723541,0.3777659833431244,-0.005203622858971357
1790006490132609800,8.30760986328125,0.3379915952682495,0.3711791932582855,-0.007043866906315088
1790006490142621700,8.31762158203125,0.30564776062965393,0.327991783618927,-0.013996047899127007
1790006490152635000,8.327634765625,0.3149176836013794,0.270878404378891,-0.02617095597088337
1790006490162646800,8.337646728515624,0.34018468856811523,0.22335083782672882,-0.03177584707736969
1790006490172658700,8.34765869140625,0.35524141788482666,0.1998084932565689,-0.0323106087744236
1790006490182672000,8.357671875,0.34164223074913025,0.19709233939647675,-0.029765425249934196
1790006490192683800,8.367683837890626,0.31640586256980896,0.20112517476081848,-0.010696126148104668
1790006490202696700,8.37769677734375,0.27285704016685486,0.21253441274166107,0.009228313341736794
1790006490212708600,8.38770849609375,0.26315996050834656,0.22461238503456116,0.013215065002441406
1790006490222720800,8.397720703125,0.2709222733974457,0.23605093359947205,-0.00034042447805404663
1790006490232733700,8.407733642578124,0.2891257703304291,0.2595847547054291,-0.01661393605172634
1790006490242745900,8.417745849609375,0.27679240703582764,0.29114508628845215,-0.016938840970396996
1790006490252757800,8.4277578125,0.24036860466003418,0.34092435240745544,-0.0042888266034424305
1790006490262770700,8.437770751953124,0.20738908648490906,0.3877107501029968,0.016889428719878197
1790006490272782800,8.447782958984375,0.1860281378030777,0.42499688267707825,0.04105415195226669
1790006490282795800,8.457795654296875,0.1706925928592682,0.4546580910682678,0.06419941782951355
1790006490292808000,8.467807861328126,0.17038153111934662,0.4820742905139923,0.06623274087905884
1790006490302819800,8.47781982421875,0.14168916642665863,0.4819517731666565,0.04547606408596039
1790006490312832800,8.487832763671875,0.11695639789104462,0.4817461669445038,0.02792024239897728
1790006490322844700,8.4978447265625,0.09257995337247849,0.47821828722953796,0.03662718087434769
1790006490332856600,8.507856689453124,0.06638562679290771,0.47186291217803955,0.05227724462747574
1790006490342869800,8.517869873046875,0.0478803887963295,0.4612201154232025,0.07193350791931152
1790006490352881700,8.527881591796875,0.039205942302942276,0.44173485040664673,0.07923802733421326
1790006490362894800,8.537894775390624,0.03681362420320511,0.41625505685806274,0.07205894589424133
1790006490372906800,8.54790673828125,0.03122524358332157,0.37801340222358704,0.06428571045398712
1790006490382919000,8.5579189453125,0.026511183008551598,0.3366060256958008,0.05868294835090637
1790006490392931600,8.567931640625,0.016911286860704422,0.30155429244041443,0.052306804805994034
1790006490402943700,8.57794384765625,0.0017887926660478115,0.28327757120132446,0.045042235404253006
1790006490412955600,8.58795556640625,0.00041939527727663517,0.2748739421367645,0.04661376774311066
1790006490422968800,8.59796875,0.013021739199757576,0.27146562933921814,0.052385903894901276
1790006490432980700,8.607980712890624,0.03176267072558403,0.27911850810050964,0.060673657804727554
1790006490442994000,8.617993896484375,0.044862229377031326,0.30365580320358276,0.06470675021409988
1790006490453005800,8.628005859375,0.04535624384880066,0.3348749876022339,0.056469861418008804
1790006490463017700,8.638017822265626,0.05065247416496277,0.36052200198173523,0.04398682340979576
1790006490473031000,8.648031005859375,0.060611363500356674,0.3728170394897461,0.040697287768125534
1790006490483042800,8.658042724609375,0.07216229289770126,0.3840901851654053,0.049300629645586014
1790006490493055000,8.668054931640626,0.0805259495973587,0.4009871482849121,0.061895519495010376
1790006490503067600,8.678067626953125,0.07769501209259033,0.4196673631668091,0.06636643409729004
1790006490513079800,8.688079833984375,0.07279479503631592,0.42774394154548645,0.06232854723930359
1790006490523092700,8.6980927734375,0.07169970124959946,0.42472976446151733,0.05347619950771332
1790006490533104600,8.708104736328124,0.07572879642248154,0.41620099544525146,0.04951528087258339
1790006490543116800,8.71811669921875,0.0803360641002655,0.4081025719642639,0.049838587641716
1790006490553129700,8.728129638671875,0.08025138080120087,0.40115174651145935,0.04983752220869064
1790006490563142000,8.738141845703124,0.07866600155830383,0.3928288221359253,0.04739939793944359
1790006490573153800,8.74815380859375,0.080055370926857,0.3922748863697052,0.06407877802848816
1790006490583166700,8.758166748046875,0.06449291855096817,0.39256489276885986,0.06965011358261108
1790006490593178600,8.7681787109375,0.07690645009279251,0.4071846008300781,0.0574570931494236
1790006490603191800,8.77819189453125,0.08825603872537613,0.3902333080768585,0.043656591325998306
1790006490613203700,8.78820361328125,0.09640957415103912,0.37860408425331116,0.043827835470438004
1790006490623215600,8.798215576171875,0.08272865414619446,0.3703554570674896,0.05164714157581329
1790006490633228800,8.808228759765624,0.052255962044000626,0.3706345558166504,0.06330753117799759
1790006490643240700,8.81824072265625,0.05786937475204468,0.349433958530426,0.0842764601111412
1790006490653254000,8.82825390625,0.060852646827697754,0.3132748603820801,0.08446288108825684
1790006490663265800,8.838265869140624,0.08035071194171906,0.3699192404747009,0.05252358689904213
1790006490673278000,8.84827783203125,0.08403892815113068,0.36859992146492004,0.0512189045548439
1790006490683290600,8.85829052734375,0.08775323629379272,0.3868974447250366,0.055207256227731705
1790006490693302800,8.868302734375,0.09064888954162598,0.3765113651752472,0.05723525211215019
1790006490703314700,8.878314697265624,0.10006902366876602,0.38292771577835083,0.06312030553817749
1790006490713327600,8.88832763671875,0.11189692467451096,0.39410582184791565,0.05591272562742233
1790006490723339800,8.89833984375,0.11309481412172318,0.38340869545936584,0.05390523746609688
1790006490733352700,8.908352783203124,0.11984086781740189,0.410255491733551,0.06552008539438248
1790006490743364900,8.91836474609375,0.13466374576091766,0.4354947805404663,0.07482969760894775
1790006490753376800,8.928376708984375,0.1564238965511322,0.450724333524704,0.06765221059322357
1790006490763390000,8.938389892578124,0.17424577474594116,0.46458688378334045,0.04614931344985962
1790006490773401900,8.94840185546875,0.1647481471300125,0.47876450419425964,0.05070118606090546
1790006490783413800,8.958413818359375,0.15301452577114105,0.49823859333992004,0.07467683404684067
1790006490793427000,8.968427001953126,0.17149899899959564,0.5087062120437622,0.0830649882555008
1790006490803438800,8.97843896484375,0.17800162732601166,0.538169801235199,0.08208254724740982
1790006490813452000,8.9884521484375,0.17760588228702545,0.5644964575767517,0.08695453405380249
1790006490823464000,8.9984638671875,0.18395859003067017,0.5788690447807312,0.05770343542098999
1790006490833476000,9.00847607421875,0.1894146054983139,0.5926759243011475,0.051713719964027405
1790006490843489000,9.018489013671875,0.20463857054710388,0.6197813153266907,0.07606540620326996
1790006490853501200,9.028501220703125,0.2146376222372055,0.6408005356788635,0.09228494763374329
1790006490863513000,9.03851318359375,0.20814856886863708,0.6519080996513367,0.06704164296388626
1790006490873525800,9.04852587890625,0.2065565288066864,0.6501607894897461,0.0539010725915432
1790006490883538000,9.058537841796875,0.2041570246219635,0.6424346566200256,0.07183453440666199
1790006490893550800,9.06855078125,0.20114977657794952,0.650175929069519,0.08217452466487885
1790006490903563000,9.07856298828125,0.2073000818490982,0.66123366355896,0.06047295406460762
1790006490913575000,9.088574951171875,0.2136051207780838,0.666159451007843,0.05771099030971527
1790006490923588000,9.098588134765626,0.20298735797405243,0.6766102313995361,0.08047622442245483
1790006490933600000,9.10860009765625,0.19726823270320892,0.6766104698181152,0.08654503524303436
1790006490943612000,9.11861181640625,0.189792200922966,0.6658300161361694,0.09029743075370789
1790006490953625000,9.128625,0.17876964807510376,0.6655653119087219,0.09774096310138702
1790006490963637000,9.138636962890626,0.16525383293628693,0.6339682340621948,0.08323206007480621
1790006490973650000,9.14864990234375,0.17080067098140717,0.5886098146438599,0.08228051662445068
1790006490983661800,9.158661865234375,0.15377295017242432,0.5426391363143921,0.097032830119133
1790006490993674000,9.168674072265626,0.112452931702137,0.49281859397888184,0.09213127940893173
1790006491003687000,9.17868701171875,0.07591862231492996,0.44222065806388855,0.06859239935874939
1790006491013699000,9.188698974609375,0.04610293731093407,0.3891254961490631,0.07321058958768845
1790006491023711000,9.1987109375,0.02511989139020443,0.3439673185348511,0.09598834067583084
1790006491033724200,9.20872412109375,0.013941804878413677,0.3101763427257538,0.1154794842004776
1790006491043736000,9.218736083984375,-0.0019372928654775023,0.2965952754020691,0.12144176661968231
1790006491053749000,9.2287490234375,-0.026516137644648552,0.29077041149139404,0.12598218023777008
1790006491063761000,9.238760986328124,-0.0390431173145771,0.2774873673915863,0.12568284571170807
1790006491073772800,9.248772705078125,-0.05077381059527397,0.2568577229976654,0.11692690849304199
1790006491083786000,9.258785888671875,-0.06912831217050552,0.24044863879680634,0.1162925437092781
1790006491093798000,9.2687978515625,-0.08441033214330673,0.22292664647102356,0.12207027524709702
1790006491103810000,9.27881005859375,-0.09071030467748642,0.19706867635250092,0.12841391563415527
1790006491113823000,9.288822998046875,-0.09843720495700836,0.17323525249958038,0.13144619762897491
1790006491123835100,9.298835205078126,-0.10986162722110748,0.17166665196418762,0.12792682647705078
1790006491133848000,9.30884814453125,-0.11572244763374329,0.1773138791322708,0.12037064135074615
1790006491143860000,9.31885986328125,-0.10255204886198044,0.1631927341222763,0.11251698434352875
1790006491153872100,9.3288720703125,-0.07851622253656387,0.13607056438922882,0.1089097335934639
1790006491163884800,9.338884765625,-0.07385968416929245,0.12082477658987045,0.10227659344673157
1790006491173897000,9.34889697265625,-0.09012867510318756,0.12399420142173767,0.09197095781564713
1790006491183908900,9.358908935546875,-0.1081036776304245,0.1302771270275116,0.08748193830251694
1790006491193922000,9.368922119140626,-0.10767890512943268,0.1227497085928917,0.09951729327440262
1790006491203934000,9.378933837890624,-0.09648191183805466,0.12091025710105896,0.11582915484905243
1790006491213947100,9.388947021484375,-0.0862998440861702,0.1339365839958191,0.12049741297960281
1790006491223959000,9.398958984375,-0.08404947072267532,0.15231052041053772,0.09770447760820389
1790006491233971000,9.408970947265624,-0.0770895704627037,0.1673366129398346,0.08966120332479477
1790006491243984000,9.41898388671875,-0.06938078254461288,0.1771373152732849,0.09252063930034637
1790006491253995800,9.428995849609375,-0.06765265762805939,0.19411656260490417,0.09195950627326965
1790006491264008000,9.439008056640626,-0.06973312050104141,0.21340849995613098,0.09333236515522003
1790006491274020900,9.449020751953125,-0.06823509186506271,0.23212546110153198,0.09642909467220306
1790006491284033000,9.459032958984375,-0.06055426970124245,0.23913250863552094,0.08791203796863556
1790006491294045000,9.469044921875,-0.04830612242221832,0.23969922959804535,0.07897819578647614
1790006491304058000,9.47905810546875,-0.03913339972496033,0.23590822517871857,0.07397890836000443
1790006491314070000,9.489070068359375,-0.036038272082805634,0.23838043212890625,0.0650503933429718
1790006491324083200,9.499083251953126,-0.029203267768025398,0.24007447063922882,0.062361136078834534
1790006491334095000,9.50909521484375,-0.018967675045132637,0.23899482190608978,0.06652764976024628
1790006491344107000,9.51910693359375,-0.0017407514387741685,0.2387591302394867,0.07588093727827072
1790006491354120000,9.529119873046875,0.010960928164422512,0.23829014599323273,0.0819241851568222
1790006491364131800,9.5391318359375,0.018306992948055267,0.2240249216556549,0.07124384492635727
1790006491374145000,9.54914501953125,0.020814625546336174,0.18722909688949585,0.05639911815524101
1790006491384157000,9.559156982421875,0.008429327979683876,0.13948634266853333,0.045169632881879807
1790006491394168800,9.5691689453125,-0.024833552539348602,0.09301524609327316,0.04427214711904526
1790006491404182000,9.57918212890625,-0.049888040870428085,0.06346374750137329,0.05492319539189339
1790006491414194000,9.58919384765625,-0.08329180628061295,0.03492265194654465,0.06561551988124847
1790006491424206000,9.5992060546875,-0.09259529411792755,0.014343075454235077,0.06815990060567856
1790006491434219000,9.609218994140624,-0.1104978621006012,0.002762052696198225,0.06168123334646225
1790006491444231000,9.61923095703125,-0.14074178040027618,0.00040355706005357206,0.05301397293806076
1790006491454243800,9.629243896484375,-0.17775145173072815,-0.01427978090941906,0.060132335871458054
1790006491464256000,9.639256103515624,-0.19490647315979004,-0.038254886865615845,0.06855591386556625
1790006491474268000,9.649267822265625,-0.20022054016590118,-0.0608624629676342,0.07615125179290771
1790006491484281000,9.659281005859375,-0.20649735629558563,-0.07416495680809021,0.07991509884595871
1790006491494293000,9.66929296875,-0.21677741408348083,-0.07598815858364105,0.08403580635786057
1790006491504305000,9.679304931640624,-0.22788307070732117,-0.08659286051988602,0.07587481290102005
1790006491514318000,9.689318115234375,-0.22715549170970917,-0.11737074702978134,0.0707000270485878
1790006491524330000,9.699330078125,-0.22507423162460327,-0.16133767366409302,0.06693085283041
1790006491534343000,9.709343017578124,-0.2498496174812317,-0.2006126493215561,0.07185104489326477
1790006491544354800,9.719354736328125,-0.25651445984840393,-0.2291042059659958,0.057130154222249985
1790006491554367000,9.729366943359375,-0.29755109548568726,-0.23599860072135925,0.0627179965376854
1790006491564380000,9.7393798828125,-0.27397066354751587,-0.22813507914543152,0.07524631172418594
1790006491574392000,9.74939208984375,-0.22923782467842102,-0.23450084030628204,0.06936098635196686
1790006491584404000,9.759404052734375,-0.15989843010902405,-0.22271127998828888,0.032702840864658356
1790006491594417000,9.7694169921875,-0.14298388361930847,-0.18513035774230957,-0.0016271676868200302
1790006491604429000,9.779428955078124,-0.16844052076339722,-0.1341494619846344,-0.0008955975063145161
1790006491614441000,9.78944091796875,-0.18547888100147247,-0.07817194610834122,0.031944639980793
1790006491624454100,9.7994541015625,-0.16737978160381317,-0.05191397666931152,0.05933791771531105
1790006491634466000,9.809466064453124,-0.13602611422538757,-0.02138855680823326,0.05842285230755806
1790006491644479000,9.81947900390625,-0.10979078710079193,0.014252261258661747,0.025006040930747986
1790006491654491000,9.829490966796875,-0.09322539716959,0.0574340857565403,-0.0001626955345273018
1790006491664502800,9.839502685546876,-0.07411056011915207,0.09937487542629242,0.006742880679666996
1790006491674516000,9.849515869140625,-0.06152845174074173,0.1326601207256317,0.04441622644662857
1790006491684527900,9.85952783203125,-0.053740039467811584,0.15632711350917816,0.063204824924469
1790006491694540000,9.8695400390625,-0.03873312473297119,0.1614270657300949,0.04278663545846939
1790006491704553000,9.879552978515624,-0.02272193320095539,0.142049640417099,0.014124630950391293
1790006491714565000,9.889565185546875,-0.010938511230051517,0.11714428663253784,0.003289559856057167
1790006491724577800,9.899577880859376,-0.0036395853385329247,0.09779029339551926,0.016025329008698463
1790006491734590000,9.90958984375,-0.018277915194630623,0.09896128624677658,0.0264180488884449
1790006491744601900,9.919601806640625,-0.011839192360639572,0.10997691750526428,0.03277208283543587
1790006491754615000,9.929614990234375,0.011619794182479382,0.1203206330537796,0.02743697538971901
1790006491764627000,9.939626953125,0.040671419352293015,0.12962652742862701,0.01500826794654131
1790006491774638800,9.949638916015624,0.05057571455836296,0.13942162692546844,-0.0048615774139761925
1790006491784652000,9.959652099609375,0.047660086303949356,0.15761661529541016,0.0036549456417560577
1790006491794663200,9.9696630859375,0.04162349924445152,0.19003233313560486,0.03056778758764267
1790006491804676400,9.97967626953125,0.036769621074199677,0.21426044404506683,0.041068896651268005
1790006491814688300,9.989688232421875,0.0529099740087986,0.22558847069740295,0.03497185558080673
1790006491824700200,9.9997001953125,0.06613682955503464,0.24358370900154114,0.023384176194667816
1790006491834713300,10.00971337890625,0.07379820942878723,0.2724558711051941,0.022717587649822235
1790006491844725200,10.019725341796875,0.07078883796930313,0.30808496475219727,0.03411298617720604
1790006491854737400,10.0297373046875,0.07071816921234131,0.3453850746154785,0.04423936828970909
1790006491864750000,10.03975,0.06420887261629105,0.3821401596069336,0.053288258612155914
1790006491874762200,10.04976220703125,0.06231989711523056,0.41908085346221924,0.05237559229135513
1790006491884775200,10.059775146484375,0.07739285379648209,0.44494307041168213,0.03759824484586716
1790006491894787300,10.069787353515625,0.10920990258455276,0.44753459095954895,0.028138963505625725
1790006491904799200,10.07979931640625,0.13385479152202606,0.43972113728523254,0.024234235286712646
1790006491914812400,10.0898125,0.13700371980667114,0.4305849075317383,0.026146652176976204
1790006491924824300,10.09982421875,0.12611964344978333,0.4068952798843384,0.019546272233128548
1790006491934836200,10.109836181640626,0.11995042860507965,0.3619357943534851,-0.005392365623265505
1790006491944849200,10.11984912109375,0.12376780807971954,0.31051522493362427,-0.017995508387684822
1790006491954861000,10.129861083984375,0.13922318816184998,0.2886357605457306,-0.009106410667300224
1790006491964874200,10.139874267578126,0.15433131158351898,0.29887187480926514,0.0067127663642168045
1790006491974886100,10.14988623046875,0.17512206733226776,0.3203287124633789,0.0015478315763175488
1790006491984898300,10.159898193359375,0.20180481672286987,0.32672110199928284,-0.013939514756202698
1790006491994911200,10.1699111328125,0.21689695119857788,0.3245817720890045,-0.0197348203510046
1790006492004923100,10.179923095703124,0.2126990109682083,0.34192270040512085,-0.010533064603805542
1790006492014935300,10.189935302734375,0.19559486210346222,0.3733421266078949,0.006167084444314241
1790006492024948200,10.1999482421875,0.18901365995407104,0.4124610424041748,0.019658925011754036
1790006492034960400,10.20996044921875,0.1999208927154541,0.44916391372680664,0.024897096678614616
1790006492044973000,10.21997314453125,0.22343741357326508,0.48432457447052,0.029291313141584396
1790006492054985200,10.229985107421875,0.24703514575958252,0.5287493467330933,0.03455211967229843
1790006492064997000,10.2399970703125,0.2546030580997467,0.5760414600372314,0.038482680916786194
1790006492075010300,10.25001025390625,0.26293742656707764,0.6023159623146057,0.03542883321642876
1790006492085022200,10.260022216796875,0.26870477199554443,0.5952524542808533,0.031806934624910355
1790006492095034000,10.2700341796875,0.26530390977859497,0.5712738633155823,0.03743552416563034
1790006492105047300,10.28004736328125,0.25149887800216675,0.5494463443756104,0.040478985756635666
1790006492115059200,10.29005908203125,0.237918883562088,0.5305986404418945,0.03654789179563522
1790006492125071400,10.3000712890625,0.23757266998291016,0.5028106570243835,0.02099769562482834
1790006492135084000,10.310083984375,0.2522594928741455,0.46958956122398376,0.0024280063807964325
1790006492145096200,10.32009619140625,0.2617723047733307,0.44154489040374756,0.0011036163195967674
1790006492155109000,10.330109130859375,0.2558440864086151,0.4381336271762848,0.01032933872193098
1790006492165121300,10.340121337890626,0.2375420480966568,0.44049373269081116,0.017477262765169144
1790006492175133200,10.35013330078125,0.2250576764345169,0.43912914395332336,0.02159717306494713
1790006492185146400,10.360146484375,0.2213928997516632,0.437558650970459,0.025247301906347275
1790006492195158300,10.370158203125,0.20203065872192383,0.43245524168014526,0.028617532923817635
1790006492205170200,10.380170166015626,0.18824000656604767,0.4343380928039551,0.03338059410452843
1790006492215183400,10.390183349609375,0.17548905313014984,0.43203607201576233,0.03494733199477196
1790006492225195300,10.4001953125,0.16675947606563568,0.423132061958313,0.031031688675284386
1790006492235208200,10.410208251953126,0.15285058319568634,0.40933528542518616,0.03642219305038452
1790006492245220000,10.42022021484375,0.13123610615730286,0.3983164429664612,0.047443684190511703
1790006492255232300,10.430232177734375,0.10485989600419998,0.3870781660079956,0.06395155191421509
1790006492265245200,10.4402451171875,0.09837030619382858,0.3596385717391968,0.06686878204345703
1790006492275257000,10.450257080078124,0.09663312137126923,0.3079109191894531,0.05384938791394234
1790006492285269200,10.460269287109375,0.08652536571025848,0.26555681228637695,0.0390549935400486
1790006492295282200,10.4702822265625,0.054393261671066284,0.23883065581321716,0.026408175006508827
1790006492305294300,10.48029443359375,0.021791910752654076,0.2089395970106125,0.02852299064397812
1790006492315307300,10.490307373046875,0.012422109954059124,0.1676265150308609,0.03669703006744385
1790006492325319200,10.500319091796875,0.00941806472837925,0.11528182029724121,0.03817242383956909
1790006492335331300,10.510331298828126,-0.003915583714842796,0.0816575437784195,0.028552817180752754
1790006492345344300,10.52034423828125,-0.03004891611635685,0.07103126496076584,0.023435553535819054
1790006492355356200,10.530356201171875,-0.04126215726137161,0.06422316282987595,0.019899673759937286
1790006492365368000,10.5403681640625,-0.03162790462374687,0.051116421818733215,0.019486885517835617
1790006492375381200,10.55038134765625,-0.024953756481409073,0.04667346924543381,0.019721243530511856
1790006492385393200,10.56039306640625,-0.026124216616153717,0.06729725003242493,0.028197286650538445
1790006492395405300,10.5704052734375,-0.03739045187830925,0.10234072059392929,0.042219895869493484
1790006492405418200,10.580418212890624,-0.035668984055519104,0.1270681768655777,0.05215614661574364
1790006492415430400,10.590430419921875,-0.019975509494543076,0.14213474094867706,0.053356967866420746
1790006492425443000,10.600443115234375,0.005665671080350876,0.1557360291481018,0.04861600697040558
1790006492435455200,10.610455322265626,0.02242707461118698,0.16046102344989777,0.043306730687618256
1790006492445467100,10.620467041015624,0.016917260363698006,0.1536521166563034,0.038118891417980194
1790006492455480300,10.630480224609375,0.001124981208704412,0.13285069167613983,0.03930746018886566
1790006492465492200,10.6404921875,-0.013664085417985916,0.1122833639383316,0.048107609152793884
1790006492475504000,10.650504150390624,-0.015626301988959312,0.10409707576036453,0.06004523113369942
1790006492485517300,10.660517333984375,0.002446175320073962,0.10185975581407547,0.05614636093378067
1790006492495529200,10.670529296875,0.02092585153877735,0.10184404253959656,0.04964824765920639
1790006492505542400,10.68054248046875,0.03486350551247597,0.10062164813280106,0.04081747308373451
1790006492515554300,10.69055419921875,0.040081966668367386,0.09771853685379028,0.02755626291036606
1790006492525566500,10.70056640625,0.040312863886356354,0.10433249920606613,0.01589348167181015
1790006492535579100,10.7105791015625,0.044415198266506195,0.11451509594917297,0.008709338493645191
1790006492545591000,10.720591064453124,0.059933967888355255,0.13087382912635803,0.008543956093490124
1790006492555603200,10.730603271484375,0.0773443803191185,0.15867216885089874,0.011457987129688263
1790006492565616000,10.7406162109375,0.09774898737668991,0.19057071208953857,0.01402873545885086
1790006492575628300,10.750628173828124,0.10892601311206818,0.225077822804451,0.008960207924246788
1790006492585641200,10.76064111328125,0.12114299833774567,0.25344979763031006,0.00387277128174901
1790006492595653400,10.7706533203125,0.13708122074604034,0.2821754813194275,0.008190021850168705
1790006492605665300,10.780665283203126,0.14726966619491577,0.31271713972091675,0.013453226536512375
1790006492615678200,10.79067822265625,0.1594855934381485,0.34506574273109436,0.007345799822360277
1790006492625690000,10.800690185546875,0.1713489145040512,0.3735905885696411,0.0045974175445735455
1790006492635702000,10.810701904296875,0.18276162445545197,0.3958280086517334,0.007941282354295254
1790006492645715200,10.820715087890624,0.19653655588626862,0.41538599133491516,0.006931145675480366
1790006492655727000,10.83072705078125,0.20971840620040894,0.42608895897865295,0.0005001439712941647
1790006492665739300,10.8407392578125,0.2224712073802948,0.4351508915424347,-0.0027015083469450474
1790006492675752200,10.850752197265624,0.2233644425868988,0.440842866897583,-0.002723878715187311
1790006492685764400,10.860764404296875,0.22505713999271393,0.44325995445251465,-0.0013550142757594585
1790006492695777300,10.87077734375,0.23127961158752441,0.4409720301628113,0.008839832618832588
1790006492705789400,10.88078955078125,0.23191797733306885,0.45318129658699036,0.019786223769187927
1790006492715801300,10.89080126953125,0.2328929603099823,0.47296565771102905,0.015318239107728004
1790006492725814000,10.90081396484375,0.24669133126735687,0.4780919849872589,0.004809138830751181
1790006492735826200,10.910826171875,0.25683534145355225,0.4765833020210266,-0.0016013565473258495
1790006492745838000,10.920838134765624,0.272774338722229,0.47953009605407715,-0.01437787152826786
1790006492755851300,10.930851318359375,0.27618053555488586,0.48604604601860046,-0.013781055808067322
1790006492765863200,10.94086328125,0.2686674892902374,0.5018447637557983,-0.0058424402959644794
1790006492775876400,10.95087646484375,0.27163344621658325,0.5061862468719482,0.005099156871438026
1790006492785888300,10.96088818359375,0.26780062913894653,0.5035787224769592,0.011055316776037216
1790006492795900400,10.970900390625,0.2623771131038666,0.505987286567688,0.008260062895715237
1790006492805913300,10.980913330078126,0.259736567735672,0.5024223923683167,0.000929711852222681
1790006492815925200,10.99092529296875,0.26496994495391846,0.4922432005405426,0.0024338653311133385
1790006492825937200,11.000937255859375,0.2716696560382843,0.4834204316139221,0.003037071321159601
1790006492835950300,11.010950439453126,0.2639462351799011,0.4688955545425415,0.002569952979683876
1790006492845962200,11.020962158203124,0.2564920485019684,0.4556276798248291,0.00412763562053442
1790006492855974400,11.030974365234375,0.23951201140880585,0.4353751838207245,-0.005804616026580334
1790006492865987300,11.0409873046875,0.22731660306453705,0.4154376685619354,-0.011878754012286663
1790006492875999500,11.05099951171875,0.21819207072257996,0.39448872208595276,0.00004368554800748825
1790006492886012400,11.061012451171875,0.22249653935432434,0.38408881425857544,0.020402219146490097
1790006492896024300,11.0710244140625,0.2242310643196106,0.3896060883998871,0.020273588597774506
1790006492906036500,11.081036376953126,0.21931566298007965,0.40391871333122253,0.011840157210826874
1790006492916049200,11.091049072265625,0.2148500680923462,0.4154544472694397,-0.006124462001025677
1790006492926061300,11.101061279296875,0.2216520607471466,0.4125007390975952,-0.012633760459721088
1790006492936073200,11.1110732421875,0.2369455248117447,0.39932769536972046,0.001730531919747591
1790006492946086400,11.12108642578125,0.2347060739994049,0.39102473855018616,0.0203004889190197
1790006492956098300,11.131098388671875,0.21553051471710205,0.4095859229564667,0.026757586747407913
1790006492966111500,11.141111572265626,0.1971331238746643,0.44281071424484253,0.025518950074911118
1790006492976123400,11.151123291015624,0.2089250683784485,0.471393883228302,0.04539385437965393
1790006492986135300,11.16113525390625,0.22397193312644958,0.49035853147506714,0.04924052581191063
1790006492996148200,11.171148193359375,0.2511740028858185,0.5037038922309875,0.05013694614171982
1790006493006160400,11.181160400390626,0.2592170238494873,0.5027494430541992,0.029067613184452057
1790006493016172300,11.19117236328125,0.2609909474849701,0.49475300312042236,0.021772418171167374
1790006493026185200,11.201185302734375,0.24388732016086578,0.48285266757011414,0.030218899250030518
1790006493036197400,11.211197265625,0.21215735375881195,0.482858270406723,0.047589633613824844
1790006493046210300,11.221210205078124,0.2016056478023529,0.48380208015441895,0.058177560567855835
1790006493056222500,11.231222412109375,0.20847846567630768,0.47372308373451233,0.06731700152158737
1790006493066234400,11.241234375,0.22863832116127014,0.4689653515815735,0.06307271867990494
1790006493076247600,11.25124755859375,0.23944810032844543,0.47574523091316223,0.04282150790095329
1790006493086259500,11.261259521484375,0.22379402816295624,0.4903790354728699,0.033148907124996185
1790006493096271400,11.271271240234375,0.21837903559207916,0.4952174723148346,0.037544723600149155
1790006493106284300,11.2812841796875,0.21255816519260406,0.4853118360042572,0.04601597040891647
1790006493116296200,11.291296142578124,0.199995756149292,0.48646098375320435,0.07401538640260696
1790006493126308400,11.301308349609375,0.18139943480491638,0.5050027370452881,0.10047335922718048
1790006493136321300,11.3113212890625,0.1669592559337616,0.5081055760383606,0.10246247053146362
1790006493146333400,11.32133349609375,0.1735556274652481,0.4837845265865326,0.08057314902544022
1790006493156346400,11.331346435546875,0.1662476509809494,0.45365723967552185,0.06408951431512833
1790006493166358300,11.341358154296875,0.1549167037010193,0.4366825222969055,0.06013312190771103
1790006493176370400,11.351370361328126,0.1459711492061615,0.4102407991886139,0.0684158205986023
1790006493186383400,11.36138330078125,0.12556520104408264,0.37137940526008606,0.06745388358831406
1790006493196395500,11.3713955078125,0.10135627537965775,0.33081334829330444,0.0681266039609909
1790006493206407400,11.381407470703126,0.07731033116579056,0.3101469576358795,0.07125634700059891
1790006493216420400,11.39142041015625,0.05962800234556198,0.29982346296310425,0.06986618041992188
1790006493226432300,11.401432373046875,0.06587285548448563,0.2733122408390045,0.06379044055938721
1790006493236445400,11.411445556640626,0.08654563874006271,0.23899023234844208,0.04824263975024223
1790006493246457300,11.421457275390624,0.08772515505552292,0.2158670723438263,0.03336941823363304
1790006493256469200,11.43146923828125,0.06972777843475342,0.19747687876224518,0.016290033236145973
1790006493266482400,11.441482421875,0.04638436809182167,0.16881513595581055,0.011523241177201271
1790006493276494300,11.451494384765626,0.023961620405316353,0.12663012742996216,0.023292548954486847
1790006493286506500,11.461506591796875,0.008257491514086723,0.0921214148402214,0.05178224667906761
1790006493296519200,11.471519287109375,-0.01005280576646328,0.09511373937129974,0.05843641981482506
1790006493306531300,11.48153125,-0.023631198331713676,0.11030840873718262,0.03440325707197189
1790006493316543200,11.491543212890624,-0.013689354062080383,0.10706121474504471,0.016169391572475433
1790006493326556400,11.501556396484375,0.013043457642197609,0.09377443790435791,0.011524040251970291
1790006493336568300,11.511568359375,0.02550465427339077,0.09094270318746567,0.014627953991293907
1790006493346580200,11.521580322265624,0.013695932924747467,0.10629928857088089,0.010880088433623314
1790006493356593400,11.531593505859375,-0.004225810058414936,0.11299154162406921,0.015868188813328743
1790006493366605300,11.541605224609375,-0.009667979553341866,0.10704337060451508,0.03890213370323181
1790006493376618500,11.551618408203124,-0.0020675845444202423,0.10117802768945694,0.05459347739815712
1790006493386630400,11.56163037109375,0.0019220970571041107,0.10573336482048035,0.040848638862371445
1790006493396642600,11.571642578125,0.0274847149848938,0.11576895415782928,0.01476244442164898
1790006493406655200,11.5816552734375,0.045091137290000916,0.10685242712497711,0.004922330379486084
1790006493416667400,11.59166748046875,0.05534563958644867,0.09257548302412033,-0.0033427895978093147
1790006493426679300,11.60167919921875,0.04759078100323677,0.0975382849574089,-0.018103893846273422
1790006493436692200,11.611692138671875,0.04263543710112572,0.10168375819921494,-0.018855437636375427
1790006493446704400,11.621704345703124,0.049731962382793427,0.0933789610862732,0.0023593041114509106
1790006493456717300,11.63171728515625,0.05012957379221916,0.09757397323846817,0.016432778909802437
1790006493466729500,11.6417294921875,0.05527666211128235,0.12209849059581757,0.012221788987517357
1790006493476741400,11.651741455078126,0.06258571147918701,0.15606525540351868,0.0006929640658199787
1790006493486754300,11.66175439453125,0.07639820128679276,0.17351321876049042,0.00019308878108859062
1790006493496766200,11.67176611328125,0.10874015837907791,0.18924583494663239,0.0077327643521130085
1790006493506778400,11.6817783203125,0.11824977397918701,0.22359289228916168,0.003952407278120518
1790006493516791300,11.691791259765624,0.11055030673742294,0.2664937376976013,-0.0036932621151208878
1790006493526803200,11.70180322265625,0.12318221479654312,0.29187631607055664,0.01831350289285183
1790006493536816400,11.71181640625,0.12435879558324814,0.29877737164497375,0.04604526609182358
1790006493546828300,11.721828369140624,0.12670983374118805,0.3220933675765991,0.029406901448965073
1790006493556840400,11.73184033203125,0.14464861154556274,0.3453510105609894,0.009132521227002144
1790006493566853400,11.741853271484375,0.16967114806175232,0.3668674826622009,0.015382694080471992
1790006493576865500,11.751865478515626,0.2022213637828827,0.3722534477710724,0.02438311278820038
1790006493586877400,11.76187744140625,0.22216685116291046,0.3728809058666229,0.029590126127004623
1790006493596890400,11.771890380859375,0.21295416355133057,0.40162572264671326,0.0347508005797863
1790006493606902300,11.78190234375,0.19508622586727142,0.42427858710289,0.020506883040070534
1790006493616914200,11.7919140625,0.22274954617023468,0.418383926153183,-0.002742779441177845
1790006493626927400,11.80192724609375,0.25383397936820984,0.399514377117157,0.01916651427745819
1790006493636939300,11.811939208984375,0.27165159583091736,0.4198164641857147,0.0460553839802742
1790006493646952400,11.821952392578124,0.272615909576416,0.4569520950317383,0.043259065598249435
1790006493656964400,11.83196435546875,0.25545451045036316,0.4918203353881836,0.021882671862840652
1790006493666976500,11.8419765625,0.2455693781375885,0.5134388208389282,-0.0001422031782567501
1790006493676989400,11.851989501953126,0.26955699920654297,0.5101599097251892,0.0047628069296479225
1790006493687001300,11.86200146484375,0.29734230041503906,0.5030948519706726,0.04347291588783264
1790006493697013500,11.872013427734375,0.2963297665119171,0.5096275806427002,0.05621401220560074
1790006493707026200,11.882026123046876,0.27621597051620483,0.527657151222229,0.03271374851465225
1790006493717038300,11.892038330078124,0.25920236110687256,0.5423178672790527,0.006491465028375387
1790006493727051300,11.90205126953125,0.25596529245376587,0.5463901162147522,0.009438252076506615
1790006493737063400,11.9120634765625,0.2764064073562622,0.5567591190338135,0.04411021247506142
1790006493747075300,11.922075439453126,0.31872960925102234,0.5675420165061951,0.0776790976524353
1790006493757088500,11.932088623046875,0.320474773645401,0.5912028551101685,0.07675924152135849
1790006493767100400,11.942100341796875,0.2877855598926544,0.6253246068954468,0.05614876374602318
1790006493777112300,11.9521123046875,0.2588082253932953,0.6323888897895813,0.04657523334026337
1790006493787125200,11.962125244140625,0.26360884308815,0.6063013672828674,0.06844138354063034
1790006493797138200,11.97213818359375,0.27411314845085144,0.5701505541801453,0.08615753054618835
1790006493807151000,11.982151123046876,0.2910921275615692,0.5467235445976257,0.10250481218099594
1790006493817163000,11.9921630859375,0.26091212034225464,0.5561074614524841,0.10860265791416168
1790006493827175200,12.002175048828125,0.20283788442611694,0.5681585073471069,0.10374131798744202
1790006493837188000,12.01218798828125,0.1965501606464386,0.5595442652702332,0.09194431453943253
1790006493847200300,12.0222001953125,0.2220238298177719,0.5236008763313293,0.08977703750133514
1790006493857212200,12.032212158203125,0.23372888565063477,0.49861177802085876,0.09231601655483246
1790006493867225000,12.04222509765625,0.23653799295425415,0.4908020496368408,0.12001741677522659
1790006493877237000,12.052237060546876,0.21669290959835052,0.49974679946899414,0.1424068808555603
1790006493887250200,12.062250244140625,0.1656550168991089,0.49840378761291504,0.12990041077136993
1790006493897262000,12.072261962890625,0.1446024626493454,0.48972854018211365,0.13014888763427734
1790006493907274000,12.08227392578125,0.1392199546098709,0.4792710840702057,0.1533079892396927
1790006493917287200,12.092287109375,0.1494813859462738,0.4717860221862793,0.15604493021965027
1790006493927299000,12.102299072265625,0.1697365790605545,0.4499582052230835,0.12728998064994812
1790006493937311200,12.112311279296875,0.17271746695041656,0.439420610666275,0.12308724224567413
1790006493947324200,12.12232421875,0.1432945877313614,0.44095805287361145,0.12906470894813538
1790006493957336000,12.132336181640625,0.10502683371305466,0.4321898818016052,0.13905581831932068
1790006493967348200,12.14234814453125,0.08926065266132355,0.4269176125526428,0.15420228242874146
1790006493977361200,12.152361083984376,0.0909898430109024,0.41440820693969727,0.1482892632484436
1790006493987373000,12.162373046875,0.1087414100766182,0.3819354772567749,0.1504799872636795
1790006493997386000,12.172385986328125,0.1276130974292755,0.34761959314346313,0.16969628632068634
1790006494007398100,12.182398193359376,0.10514054447412491,0.31073296070098877,0.0865047350525856
1790006494017410000,12.19241015625,0.09439761936664581,0.2626168131828308,0.03969142213463783
1790006494027423200,12.20242333984375,0.0860225111246109,0.19733236730098724,0.05527730658650398
1790006494037435100,12.21243505859375,0.04748763516545296,0.12138274312019348,0.12089572846889496
1790006494047447300,12.222447265625,0.018947869539260864,0.11059214919805527,0.13817457854747772
1790006494057460000,12.2324599609375,-0.013544293120503426,0.12444271892309189,0.11384314298629761
