time,seconds_elapsed,z,y,x
1789221421151121700,0.05912158203125,3.474285884094238,9.149591281890869,-0.4296095603942871
1789221421161201400,0.069201416015625,3.499275363922119,9.185504306793213,-0.4278139091491699
1789221421171281700,0.07928173828125,3.5172318763732906,9.182511554718017,-0.42541970748901364
1789221421181361400,0.089361328125,3.491494208526611,9.191340173339842,-0.44053310546874996
1789221421191441400,0.09944140625,3.501071015167236,9.194033650207519,-0.471807364654541
1789221421201520400,0.109520263671875,3.463661614227295,9.195230751037597,-0.4997895965576172
1789221421211600600,0.1196005859375,3.4754829849243163,9.152434396362304,-0.4777928688049316
1789221421221680600,0.1296806640625,3.4497453170776367,9.179069889831542,-0.4905120651245117
1789221421231760400,0.139760498046875,3.4350808319091795,9.189544522094726,-0.522235237121582
1789221421241840600,0.149840576171875,3.4567782844543453,9.1676974319458,-0.5262754524230957
1789221421251920400,0.15992041015625,3.4466029273986813,9.147047442626953,-0.5150526321411133
1789221421261999600,0.16999951171875,3.4524387939453125,9.20630393371582,-0.5029319862365722
1789221421272079400,0.180079345703125,3.459471761322021,9.220968418884278,-0.49589901885986326
1789221421282159600,0.19015966796875,3.4712931320190425,9.158419900512694,-0.4779425064086914
1789221421292239400,0.2002392578125,3.458274660491943,9.185653944396972,-0.47854105682373044
1789221421302319600,0.210319580078125,3.4440590881347655,9.17981807785034,-0.4478653480529785
1789221421312399600,0.220399658203125,3.420715621948242,9.195679663848876,-0.37708676147460934
1789221421322478600,0.230478515625,3.4166754066467284,9.177274238586426,-0.3184288208007812
1789221421332558600,0.24055859375,3.422511273193359,9.170839821624755,-0.28969840087890625
1789221421342638600,0.250638671875,3.459621398925781,9.20540610809326,-0.2877531120300293
1789221421352718600,0.260718505859375,3.444956913757324,9.15512787322998,-0.2353799507141113
1789221421362798300,0.27079833984375,3.443610175323486,9.165602505493164,-0.22729952011108398
1789221421372878600,0.280878662109375,3.4579753852844237,9.174880036926268,-0.23986907882690428
1789221421382957600,0.29095751953125,3.443011624908447,9.19343509979248,-0.30481179885864257
1789221421393037600,0.30103759765625,3.423109823608398,9.21303762588501,-0.35927988662719723
1789221421403117600,0.31111767578125,3.4108395401000973,9.227851748657226,-0.3999813148498535
1789221421413197600,0.321197509765625,3.4196681587219238,9.197924227905274,-0.41524435043334956
1789221421423277600,0.331277587890625,3.4044051231384276,9.221866244506835,-0.4204816665649414
1789221421433357600,0.341357666015625,3.3954268669128416,9.226205735015869,-0.4330512252807617
1789221421443436500,0.3514365234375,3.4151790306091305,9.236381092071532,-0.44202948150634763
1789221421453516500,0.3615166015625,3.417722869873047,9.22635537261963,-0.4429273071289062
1789221421463596500,0.371596435546875,3.404704398345947,9.209147048187255,-0.42796354675292964
1789221421473676500,0.381676513671875,3.407397875213623,9.211840525054932,-0.36810850524902344
1789221421483756500,0.391756591796875,3.393032665252685,9.200019154357909,-0.3848679168701172
1789221421493836500,0.40183642578125,3.3963246925354,9.184756118774413,-0.3494038047790527
1789221421503915500,0.41191552734375,3.4400188728332517,9.284265125274658,-0.3730465461730957
1789221421513995500,0.42199560546875,3.407846788024902,9.219771318054198,-0.32665888900756834
1789221421524075500,0.432075439453125,3.3954268669128416,9.169941996002196,-0.2632125450134277
1789221421534155500,0.442155517578125,3.426401850891113,9.236081816864013,-0.2998737579345703
1789221421544235500,0.452235595703125,3.46007031173706,9.210493786621093,-0.32007483444213863
1789221421554315500,0.4623154296875,3.4174235946655274,9.17443112411499,-0.27952304382324217
1789221421564394500,0.47239453125,3.4281975021362303,9.169044170379639,-0.25573066482543944
1789221421574474500,0.482474609375,3.4460043769836424,9.19927096633911,-0.24301146850585936
1789221421584554500,0.492554443359375,3.4458547393798824,9.19268691177368,-0.25692776565551756
1789221421594634500,0.502634521484375,3.4938884101867673,9.169493083190918,-0.20964228286743164
1789221421604714800,0.51271484375,3.419518521118164,9.204209007263183,-0.25438392639160157
1789221421614794500,0.52279443359375,3.404854035949707,9.161711927795409,-0.29718028106689454
1789221421624873700,0.532873779296875,3.4392706848144527,9.134627521514892,-0.3101987525939941
1789221421634953500,0.542953369140625,3.4389714096069333,9.174880036926268,-0.3021183219909668
1789221421645033500,0.553033447265625,3.4554315460205074,9.195978939056396,-0.33803134689331055
1789221421655113500,0.563113525390625,3.5070565193176266,9.222614432525635,-0.3898059577941894
1789221421665193500,0.573193359375,3.4727895080566404,9.227103560638428,-0.41404724960327144
1789221421675273700,0.583273681640625,3.597138356781006,9.280374547576903,-0.28865093765258787
1789221421685352400,0.5933525390625,3.6427778259277344,9.256133255767821,-0.16445172653198242
1789221421695432700,0.6034326171875,3.5984850952148437,9.178920252227783,-0.20201076507568358
1789221421705512400,0.613512451171875,3.49867681350708,9.09093334121704,-0.3413233741760254
1789221421715592700,0.6235927734375,3.284695040130615,9.029133010864257,-0.4906617027282715
1789221421725672400,0.63367236328125,3.2782606231689453,8.981548252868652,-0.603338818359375
1789221421735752700,0.643752685546875,3.3373674766540526,9.126547090911865,-0.6697779144287109
1789221421745831400,0.65383154296875,3.529202884674072,9.19328546218872,-0.6844423995971679
1789221421755911700,0.66391162109375,3.5889082885742187,9.236680367279051,-0.7790133651733397
1789221421765991400,0.673991455078125,3.633500294494629,9.25718071899414,-0.9575310264587402
1789221421776071400,0.684071533203125,3.6082115394592282,9.228599936676025,-1.041328084564209
1789221421786151700,0.694151611328125,3.556586566162109,9.214683639526367,-0.9539397239685058
1789221421796231400,0.7042314453125,3.5193268028259275,9.207351396942139,-0.8945335952758788
1789221421806310700,0.714310546875,3.3988685317993164,9.133131145477295,-0.9172785110473632
1789221421816390400,0.724390380859375,3.332130160522461,9.099163409423827,-0.9747393508911132
1789221421826470700,0.734470703125,3.359962754821777,9.09198080444336,-1.0586860466003418
1789221421836550400,0.74455029296875,3.4193688835144043,9.159168088531494,-1.0052654220581054
1789221421846630700,0.754630615234375,3.4804210258483885,9.215431827545165,-0.9267056800842285
1789221421856709400,0.76470947265625,3.560028231048584,9.235632904052734,-0.93852705078125
1789221421866789600,0.77478955078125,3.558831130218506,9.193884012603759,-0.9504980590820312
1789221421876869400,0.784869384765625,3.501220652770996,9.1554271484375,-0.9135375709533691
1789221421886949600,0.79494970703125,3.4763808105468748,9.176226775360107,-0.8040028450012207
1789221421897029600,0.805029541015625,3.450792780303955,9.183259742736816,-0.6787561706542968
1789221421907109400,0.815109375,3.430890979003906,9.176376412963867,-0.5995978782653808
1789221421917190400,0.8251904296875,3.4038065727233886,9.189843797302245,-0.6272808349609375
1789221421927269000,0.83526904296875,3.4235587364196776,9.169343445587158,-0.66394204788208
1789221421937349400,0.845349365234375,3.5003228271484375,9.19313582458496,-0.672920304107666
1789221421947429000,0.85542919921875,3.5303999855041504,9.194781838226318,-0.6124667121887206
1789221421957509400,0.86550927734375,3.5208231788635254,9.21243907546997,-0.5265747276306152
1789221421967589000,0.875589111328125,3.465606903076172,9.210344149017333,-0.4800374328613281
1789221421977669000,0.885669189453125,3.4214638099670407,9.20615429611206,-0.44861353607177734
1789221421987748000,0.895748046875,3.4132337417602536,9.19418328781128,-0.41748891448974607
1789221421997828400,0.905828369140625,3.4076971504211424,9.194781838226318,-0.4273649963378906
1789221422007908000,0.915908203125,3.395726142120361,9.181763366699219,-0.3892074073791504
1789221422017988000,0.925988037109375,3.404554760742187,9.198672415924072,-0.34267011260986324
1789221422028068400,0.936068359375,3.44091669845581,9.21857421722412,-0.36107553787231444
1789221422038148000,0.946148193359375,3.4668040039062498,9.216329653167724,-0.40970775909423823
1789221422048227300,0.956227294921875,3.4446576385498044,9.223811533355713,-0.43948564224243164
1789221422058307000,0.96630712890625,3.3999159950256344,9.211391612243652,-0.48722003784179685
1789221422068387300,0.97638720703125,3.3809120193481443,9.223212982940673,-0.49200844116210934
1789221422078467000,0.986467041015625,3.337666751861572,9.185803582000732,-0.5276221908569335
1789221422088547300,0.99654736328125,3.3002573509216306,9.183858293151856,-0.5958569381713866
1789221422098627300,1.00662744140625,3.370287749481201,9.194781838226318,-0.5804442649841308
1789221422108706300,1.016706298828125,3.4042554855346676,9.231143775939941,-0.5445312400817871
1789221422118786000,1.0267861328125,3.4873043556213377,9.235183991241454,-0.5906196220397949
1789221422128866300,1.0368662109375,3.450643142700195,9.22515827178955,-0.6462848106384277
1789221422138946300,1.0469462890625,3.440467785644531,9.213785813903808,-0.6898293533325195
1789221422149026000,1.057026123046875,3.4210148971557617,9.172785110473633,-0.7647977928161621
1789221422159106300,1.067106201171875,3.3865982482910155,9.162160840606688,-0.771830760192871
1789221422169185300,1.077185302734375,3.4235587364196776,9.166500331115722,-0.7601590270996094
1789221422179265300,1.087265380859375,3.450044592285156,9.171288734436034,-0.7700351089477538
1789221422189345000,1.097344970703125,3.4753333473205563,9.151835845947264,-0.7900865478515624
1789221422199425300,1.10742529296875,3.467851467132568,9.159168088531494,-0.7992144416809082
1789221422209505300,1.11750537109375,3.5235166557312008,9.171887284851074,-0.7477391059875488
1789221422219585300,1.127585205078125,3.5482068603515624,9.154529322814941,-0.6798036338806152
1789221422229664300,1.137664306640625,3.5296517974853514,9.147795630645751,-0.6455366226196289
1789221422239744300,1.147744140625,3.5269583206176756,9.135674984741211,-0.5909188972473144
1789221422249824300,1.15782421875,3.536086214447021,9.128342742156981,-0.5566518859863281
1789221422259904300,1.167904296875,3.545214108276367,9.122506875610352,-0.5122095176696777
1789221422269984300,1.177984375,3.573345977783203,9.143905052947998,-0.45923780593872066
1789221422280064000,1.18806396484375,3.568407936859131,9.093776455688475,-0.45400048980712887
1789221422290143200,1.198143310546875,3.872770822906494,9.13582462234497,-0.6723217536926269
1789221422300223200,1.20822314453125,3.7957074569702147,9.10425108795166,-1.011849476623535
1789221422310303200,1.21830322265625,3.4796728378295896,8.944587764739989,-1.3346177879333496
1789221422320383200,1.22838330078125,3.4440590881347655,8.949825080871582,-1.0491092399597168
1789221422330463200,1.238463134765625,3.531896361541748,9.208249222564696,0.03561374969482422
1789221422340543200,1.248543212890625,3.9393595565795896,9.12983911819458,1.1553519386291504
1789221422350622200,1.258622314453125,3.994575832366943,9.357737188720703,1.3108254089355469
1789221422360702200,1.2687021484375,3.7385458923339843,9.081655809783935,0.01945288848876953
1789221422370782200,1.2787822265625,3.5558383781433105,9.103353262329101,-1.5345336265563965
1789221422380862200,1.2888623046875,3.397072880554199,8.697835356140136,-1.560869844818115
1789221422390942200,1.298942138671875,3.7196915542602538,9.027786272430419,0.03950432739257812
1789221422401022200,1.309022216796875,3.8560114112854,9.102305799102783,1.1893196746826171
1789221422411101200,1.31910107421875,3.9272389106750487,9.170091633605956,0.8152256652832031
1789221422421181200,1.32918115234375,3.534739476013183,9.262268397521972,-0.13138181610107422
1789221422431261200,1.33926123046875,3.6495115180969235,9.166051418304443,-0.23582886352539062
1789221422441341200,1.349341064453125,3.61973363494873,9.204657920074462,0.5458779785156249
1789221422451421200,1.359421142578125,3.7651813858032224,9.197774590301513,0.8313865264892578
1789221422461501200,1.369501220703125,3.515735500335693,9.030180474090576,0.14200608596801756
1789221422471580200,1.379580078125,3.6029742233276365,9.013271424865723,-0.512059880065918
1789221422481660200,1.38966015625,3.441664886474609,9.00773483352661,-0.4514566505432129
1789221422491740200,1.399740234375,3.5130420234680173,9.131784407043456,-0.3844190040588379
1789221422501820400,1.4098203125,3.6182372589111327,9.274389043426513,-0.3950432739257812
1789221422511900200,1.419900146484375,3.6706104202270504,9.309703517913817,-0.5662286926269531
1789221422521980200,1.429980224609375,3.446303652191162,9.277082520294188,-0.7838017684936524
1789221422532059100,1.44005908203125,3.3520319618225094,9.128492379760742,-1.1397896278381348
1789221422542139400,1.450139404296875,3.3954268669128416,9.094524643707274,-1.2982558502197266
1789221422552219100,1.46021923828125,3.49224239654541,9.108291303253173,-1.2937667221069336
1789221422562299100,1.470299072265625,3.4632127014160154,9.179369165039063,-1.396867031097412
1789221422572379100,1.480379150390625,3.4534862571716305,9.194632200622559,-1.7169418655395507
1789221422582459100,1.490459228515625,3.540126429748535,9.277531433105468,-2.0527286483764646
1789221422592538000,1.5005380859375,3.4926913093566894,9.234735078430175,-2.3255180000305176
1789221422602618000,1.5106181640625,3.3735797767639157,9.171139096832276,-2.428019758605957
1789221422612698400,1.520698486328125,3.3360207382202147,9.119214848327637,-2.503736386108398
1789221422622778000,1.530778076171875,3.384204046630859,9.042899670410156,-2.535309920501709
1789221422632858400,1.5408583984375,3.3988685317993164,9.035866703033447,-2.5597008499145506
1789221422642938000,1.550938232421875,3.507355794525146,9.11038622970581,-2.649034499359131
1789221422653017300,1.561017333984375,3.5699043128967283,9.115773183441162,-2.63661457824707
1789221422663097000,1.57109716796875,3.676595924377441,9.197475315093994,-2.624344294738769
1789221422673177300,1.58117724609375,3.55613765335083,9.156324974060057,-2.590825471496582
1789221422683257000,1.591257080078125,3.468599655151367,9.114127169799804,-2.38776724319458
1789221422693337000,1.601337158203125,3.4938884101867673,9.03990691833496,-2.3569418968200684
1789221422703417300,1.611417236328125,3.525162669372558,9.03392141418457,-2.357839722442627
1789221422713497000,1.6214970703125,3.4899978324890135,9.018957653808593,-2.504634211730957
1789221422723576300,1.631576416015625,3.5610756942749022,9.075071755218506,-2.5700258445739745
1789221422733656000,1.641656005859375,3.691559684753418,9.16201120300293,-2.3325509674072262
1789221422743736300,1.651736328125,3.6255695014953613,9.17458076171875,-1.9928736068725585
1789221422753816000,1.661816162109375,3.6023756729125975,9.151835845947264,-1.846976943206787
1789221422763896300,1.671896240234375,3.684825992584228,9.060856182861327,-1.5713444770812988
1789221422773976300,1.681976318359375,3.7042788810729976,9.036614891052245,-1.5324387001037596
1789221422784055300,1.69205517578125,3.522918105316162,9.038859455108643,-1.633144807434082
1789221422794135000,1.702135009765625,3.569455400085449,9.063699297332763,-1.5381249290466308
1789221422804215300,1.71221533203125,3.659387599945068,9.105897101593017,-1.417965933227539
1789221422814295300,1.72229541015625,3.634098844909668,9.156773886871337,-1.30229606552124
1789221422824375000,1.732375,3.5965398063659664,9.14210940170288,-1.115997248840332
1789221422834455300,1.742455322265625,3.5959412559509274,9.099163409423827,-1.0429740982055664
1789221422844534300,1.7525341796875,3.604021686553955,9.036165978240966,-1.108964281463623
1789221422854614300,1.7626142578125,3.582773146820068,9.055020316314696,-1.1674725845336913
1789221422864694000,1.772694091796875,3.5673604736328124,9.068487700653076,-1.1581950531005858
1789221422874774300,1.782774169921875,3.5869629997253414,9.087192401123046,-1.101183126068115
1789221422884854300,1.792854248046875,3.545663021087646,9.158419900512694,-1.0633248123168946
1789221422894934300,1.802934326171875,3.4286464149475098,9.17458076171875,-1.1436802055358886
1789221422905013200,1.81301318359375,3.3207577026367185,9.14929200668335,-1.2883797683715819
1789221422915094000,1.823093994140625,3.2558149826049805,9.14854381866455,-1.3992612327575682
1789221422925174300,1.83317431640625,3.163338943481445,9.145102153778076,-1.3947721046447754
1789221422935254000,1.84325390625,3.105429190826416,9.192237998962401,-1.2963105613708494
1789221422945334300,1.853334228515625,3.1076737548828124,9.214833277130126,-1.215506255340576
1789221422955414000,1.8634140625,3.1118636077880857,9.247454274749755,-1.1263222434997557
1789221422965493200,1.8734931640625,3.0602386344909664,9.223961170959472,-0.9828197814941406
1789221422975573000,1.883572998046875,3.068319065093994,9.251644127655029,-0.6163572898864745
1789221422985653200,1.8936533203125,3.114257809448242,9.24476079788208,-0.16744447860717773
1789221422995733200,1.903733154296875,3.061884648132324,9.234136528015137,0.2480991470336914
1789221423005813200,1.913813232421875,2.916137622070312,9.196727127075194,0.07496843948364257
1789221423015893200,1.923893310546875,3.0150480781555173,9.101108698272705,-0.543932689666748
1789221423025972200,1.93397216796875,2.902520600128174,9.510966094970703,-0.7493851196289062
1789221423036052200,1.94405224609375,2.9421745651245117,9.279925634765624,-0.6001964286804199
1789221423046132000,1.954132080078125,3.0831331878662107,9.313294820404051,-0.390703783416748
1789221423056212200,1.964212158203125,3.33257907333374,8.914959519195556,-0.06958148574829101
1789221423066292200,1.974292236328125,3.232920429229736,8.922890312194824,0.3274070770263672
1789221423076372200,1.984372314453125,3.3571196403503416,8.743025912475586,0.8809165733337402
1789221423086451000,1.994450927734375,3.4198177963256833,9.083451461029052,1.5272013839721679
1789221423096531200,2.00453125,3.515136949920654,9.264961874389648,2.0265420677185055
1789221423106611200,2.014611083984375,3.445705101776123,9.347711469268798,1.8698714965820311
1789221423116691200,2.024691162109375,3.4669536415100097,9.242516233825683,1.0480617767333984
1789221423126771200,2.034771240234375,3.3069910430908203,9.215581465148926,1.0506056159973145
1789221423136851200,2.044851318359375,3.4274493141174314,8.94443812713623,1.9053356086730955
1789221423146931200,2.05493115234375,3.474285884094238,8.814552687072753,2.4090157829284666
1789221423157010200,2.06501025390625,3.2612019363403317,8.735095119476318,2.779219214630127
1789221423167090200,2.075090087890625,3.4006641830444333,8.981248977661132,3.12188932723999
1789221423177170200,2.085170166015625,3.684377079772949,9.287706790161133,3.1917700881958004
1789221423187250200,2.095250244140625,3.8467338798522945,9.510367544555663,3.023727059173584
1789221423197330200,2.105330078125,3.624522038269043,9.412654189300536,2.9563901374816894
1789221423207410200,2.11541015625,3.4157775810241695,9.190292710113525,2.899677485656738
1789221423217489200,2.1254892578125,3.3432033432006834,8.978555500793457,2.470217562866211
1789221423227569200,2.135569091796875,3.3637036949157713,8.837147965240478,2.0233996780395507
1789221423237649200,2.145649169921875,3.4983775382995606,8.936507334136962,2.01741417388916
1789221423247729200,2.155729248046875,3.723133219146728,9.086144937896728,2.3136966293334957
1789221423257809200,2.16580908203125,3.7728129035949705,9.296984321594238,2.411409984588623
1789221423267889200,2.17588916015625,3.771316527557373,9.352799147796631,2.2095488571166992
1789221423277968100,2.185968017578125,3.8392519996643064,9.266158975219726,1.9710265167236327
1789221423288048400,2.19604833984375,3.8453871414184566,9.086294575500487,1.7758990814208984
1789221423298128100,2.206128173828125,3.656694123077392,8.908375464630126,1.6626234153747557
1789221423308208000,2.2162080078125,3.577236555480957,8.780285675811767,1.5617676704406738
1789221423318288100,2.2262880859375,3.655646659851074,8.756194021606445,1.3820529083251953
1789221423328368000,2.2363681640625,3.6152445068359373,8.904933799743652,1.034893667602539
1789221423338447000,2.246447021484375,3.7563527671813963,9.153481859588622,0.5223848747253418
1789221423348527000,2.256527099609375,3.5372833152770995,9.158719175720215,0.2346317626953125
1789221423358607000,2.266607177734375,3.725976333618164,9.32182416381836,0.37544074783325193
1789221423368687000,2.27668701171875,3.286640328979492,9.219920955657958,0.591816722869873
1789221423378767400,2.286767333984375,3.6454713027954098,9.125200352478027,0.5452794281005859
1789221423388847000,2.29684716796875,3.3764228912353516,8.960000437927246,0.3033154228210449
1789221423398926300,2.30692626953125,2.7741315361022947,9.164854317474365,-0.06239888076782226
1789221423409006000,2.317006103515625,3.53069926071167,9.509170443725585,-0.4584896179199218
1789221423419086300,2.32708642578125,4.357147746276855,9.44228243484497,-0.2214636535644531
1789221423429166000,2.337166015625,3.2607530235290527,9.620500820922851,0.34551322708129883
1789221423439246000,2.34724609375,2.709488091278076,9.21213980026245,0.2180219886779785
1789221423449326300,2.357326416015625,3.312078721618652,8.852111725616455,-0.007481880187988281
1789221423459406000,2.367406005859375,2.8191724548339843,9.214234726715087,-0.08693944778442382
1789221423469485300,2.3774853515625,3.257161721038818,9.486575165557861,-0.4478653480529785
1789221423479565000,2.38756494140625,3.580229307556152,9.17413184890747,0.14559738845825196
1789221423489645300,2.397645263671875,2.970605709838867,9.446771562957764,0.6955155822753906
1789221423499725000,2.40772509765625,2.9709049850463867,9.086144937896728,0.8400655075073241
1789221423509805300,2.417805419921875,3.1899744369506835,9.313893370819091,0.5069722015380859
1789221423519885000,2.427885009765625,3.4287960525512693,9.306561128234863,0.5099649536132812
1789221423529964300,2.43796435546875,3.5296517974853514,9.331251332855224,0.7785644523620605
1789221423540044000,2.4480439453125,3.519775715637207,9.459790034484863,1.002871220397949
1789221423550124300,2.458124267578125,3.2327707916259762,9.185504306793213,1.149216796875
1789221423560204300,2.468204345703125,3.1899744369506835,9.195530026245116,0.8939350448608397
1789221423570284000,2.478283935546875,3.146429894256592,8.990526509094238,0.6153098266601562
1789221423580364300,2.4883642578125,3.511994560241699,9.1554271484375,0.7020996368408202
1789221423590443000,2.498443115234375,3.749918350219726,9.04020619354248,0.8686462898254395
1789221423600523300,2.508523193359375,3.612999942779541,9.247753549957276,1.0630255371093749
1789221423610603000,2.51860302734375,3.629908992004394,9.26989991531372,1.1637316444396972
1789221423620683300,2.528683349609375,3.4222119979858396,9.118466660308837,1.166425121307373
1789221423630763000,2.538762939453125,3.501071015167236,9.220818781280517,1.0166378799438476
1789221423640843300,2.54884326171875,3.6146459564208984,9.033472501373291,1.0474632263183594
1789221423650922000,2.558921875,3.713706050109863,9.223063345336913,0.8946832328796386
1789221423661002200,2.569002197265625,3.93891064376831,9.226205735015869,0.6114192489624023
1789221423671082200,2.579082275390625,3.604021686553955,9.170091633605956,0.45115737533569333
1789221423681162200,2.589162353515625,3.3699884742736814,8.932766394042968,0.24480711975097655
1789221423691242200,2.5992421875,3.732111475372314,9.073575379180907,0.19123685760498046
1789221423701322000,2.609322021484375,3.515136949920654,8.948328704833983,0.2485480598449707
1789221423711401200,2.619401123046875,3.3444004440307613,9.118915573120116,0.3298012786865234
1789221423721481000,2.62948095703125,3.1069255668640134,9.03392141418457,0.31109657821655273
1789221423731561200,2.639561279296875,3.976020769500732,9.339032488250732,0.32097266006469727
1789221423741641200,2.64964111328125,3.5001731895446775,9.323769452667236,0.26007015533447264
1789221423751721200,2.65972119140625,3.7371991539001463,9.417741867828369,0.18435352783203124
1789221423761801200,2.66980126953125,3.7216368431091307,9.262418035125732,-0.0025438392639160153
1789221423771881200,2.679881103515625,3.622576749420166,9.069684801483154,-0.02902969512939453
1789221423781960200,2.689960205078125,3.4138322921752926,9.033023588562012,-0.05282207412719726
1789221423792040200,2.700040283203125,3.668365856170654,9.151985483551025,-0.313490779876709
1789221423802120200,2.7101201171875,3.616291970062256,9.17458076171875,-0.5559036979675293
1789221423812200200,2.7202001953125,3.878457051849365,9.112630793762207,-0.9117419197082519
1789221423822280200,2.7302802734375,3.7844846366882323,9.108440940856934,-0.8319850769042968
1789221423832360200,2.740360107421875,3.487005080413818,9.204657920074462,-0.3229179489135742
1789221423842439200,2.750439208984375,3.731662562561035,9.166350693511962,-0.13557166900634765
1789221423852519200,2.760519287109375,3.5269583206176756,9.160065914154051,-0.2581248664855957
1789221423862599200,2.77059912109375,3.3851018722534176,9.258228182220458,-0.3541922080993652
1789221423872679200,2.78067919921875,3.5514988876342772,9.188796334075928,-0.2967313682556152
1789221423882759200,2.79075927734375,3.593696691894531,9.090634066009521,-0.31004911499023435
1789221423892839200,2.800839111328125,3.5851673484802244,9.195081113433837,-0.2688987739562988
1789221423902919200,2.810919189453125,3.693804248809814,9.24520971069336,-0.1680430290222168
1789221423912997600,2.82099755859375,3.729118723297119,9.19343509979248,-0.08065466842651367
1789221423923077600,2.83107763671875,3.5434184570312497,9.096769207763671,0.22221184158325194
1789221423933157600,2.84115771484375,3.3857004226684566,8.978256225585938,0.40132805328369137
1789221423943238000,2.85123779296875,3.473687333679199,9.000103315734863,0.4562450538635254
1789221423953317600,2.861317626953125,3.9318776763916015,9.061305095672607,0.6260837341308594
1789221423963397600,2.871397705078125,3.268384541320801,9.06549494857788,0.7167641220092773
1789221423973476600,2.8814765625,3.8787563270568843,9.21917276763916,0.7480383811950683
1789221423983556900,2.891556884765625,3.54985287399292,9.149441644287108,0.8628104232788085
1789221423993636600,2.90163671875,3.0787936973571775,9.03362213897705,0.9091980804443359
1789221424003716600,2.911716552734375,4.004601551818848,9.006837007904052,0.9400234268188477
1789221424013796600,2.921796630859375,3.73480495223999,9.22485899658203,1.1513117233276366
1789221424023876600,2.931876708984375,3.67734411239624,9.191789086151122,0.8988730857849121
1789221424033955600,2.94195556640625,3.616142332458496,9.096918845367432,0.8090905235290526
1789221424044035600,2.95203564453125,3.1317654090881346,8.949825080871582,0.8167220413208007
1789221424054115800,2.96211572265625,3.2570120834350584,9.068936613464356,0.6512228515624999
1789221424064195600,2.972195556640625,3.7222353935241697,9.197325677490234,0.4173392768859863
1789221424074275800,2.98227587890625,3.6297593544006346,9.196128576660156,0.3688566932678222
1789221424084355600,2.99235546875,3.6261680519104003,9.221866244506835,0.3087023765563965
1789221424094434800,3.002434814453125,3.6444238395690918,9.228749574279785,0.3459621398925781
1789221424104514600,3.0125146484375,3.4576761100769042,9.139415924835205,0.3541922080993652
1789221424114594800,3.0225947265625,3.2671874404907224,9.178920252227783,0.19812018737792966
1789221424124674600,3.032674560546875,3.216460292816162,9.21273835067749,0.029628245544433593
1789221424134754600,3.042754638671875,3.484610878753662,9.297732509613036,0.02977788314819336
1789221424144834800,3.052834716796875,3.533542375183105,9.335441185760498,0.16415245132446288
1789221424154914600,3.06291455078125,3.3349732749938963,9.264512961578369,0.042646717071533204
1789221424164993800,3.072993896484375,3.3261446563720702,9.266158975219726,-0.076614453125
1789221424175073500,3.083073486328125,3.205985660552978,9.18744959564209,-0.24271219329833982
1789221424185153800,3.09315380859375,3.1573534393310547,9.166500331115722,-0.3860650177001953
1789221424195233500,3.103233642578125,3.254019331359863,9.240122032165527,-0.25139117431640623
1789221424205313800,3.113313720703125,3.264793238830566,9.261071296691894,-0.08454524612426757
1789221424215393800,3.123393798828125,3.245041075134277,9.279177446746825,-0.019901801300048826
1789221424225472800,3.13347265625,3.2028432708740233,9.268253901672363,0.055066638183593745
1789221424235552800,3.143552734375,3.197157041931152,9.27603505706787,0.11686696853637694
1789221424245632800,3.1536328125,3.120542588806152,9.274239405822753,0.19333178405761717
1789221424255712800,3.163712646484375,3.1063270164489745,9.275286869049072,0.35030163040161133
1789221424265792500,3.17379248046875,3.1465795318603513,9.306860403442382,0.5155015449523925
1789221424275872800,3.183872802734375,3.1597476409912106,9.331849883270262,0.5967547637939453
1789221424285952500,3.193952392578125,3.168426622009277,9.337236837005614,0.6121674369812011
1789221424296031700,3.20403173828125,3.1733646629333494,9.3086560546875,0.6296750366210937
1789221424306111500,3.214111572265625,3.144933518218994,9.273640855407715,0.7179612228393554
1789221424316191700,3.224191650390625,3.11560454788208,9.241768045806884,0.8397662322998046
1789221424326271700,3.234271728515625,3.1794998046874996,9.237278917694091,0.9325415466308593
1789221424336351700,3.244351806640625,3.2531215057373046,9.271545928955078,0.9234136528015137
1789221424346431700,3.254431640625,3.2644939636230466,9.283217662048338,0.9136872085571288
1789221424356510700,3.2645107421875,3.2855928657531734,9.27678324508667,0.900818374633789
1789221424366590700,3.2745908203125,3.349937035369873,9.244910435485838,0.903362213897705
1789221424376670700,3.284670654296875,3.4401685104370117,9.148394181060791,0.9099462684631348
1789221424386750700,3.294750732421875,3.500472464752197,9.222315157318114,1.0116998390197753
1789221424396830500,3.30483056640625,3.306542130279541,9.06534531097412,1.2952630981445312
1789221424406910700,3.31491064453125,3.7644331977844234,9.10993731689453,1.3582605293273926
1789221424416989400,3.324989501953125,3.647416591644287,9.226804285430907,1.5728408531188964
1789221424427069700,3.335069580078125,3.2671874404907224,9.249549201202392,1.7679682884216308
1789221424437149700,3.345149658203125,3.6469676788330077,9.125349990081787,1.3461398834228515
1789221424447229700,3.355229736328125,3.855412860870361,9.056067779541015,0.7668927192687988
1789221424457309700,3.365309814453125,3.4593221237182616,9.261520209503173,-0.04997895965576172
1789221424467389700,3.3753896484375,3.2851439529418944,9.026738809204101,-0.5565022483825683
1789221424477469700,3.3854697265625,4.118176493072509,9.294739757537842,-0.07975684280395508
1789221424487548700,3.395548583984375,3.3877953491210935,9.296535408782958,0.44532150878906246
1789221424497628700,3.405628662109375,3.4748844345092773,8.79061067047119,0.4477157104492187
1789221424507708700,3.415708740234375,3.935319341278076,9.166949243927002,0.40013095245361324
1789221424517788700,3.42578857421875,3.676745561981201,8.962095364379882,0.13407529296874998
1789221424527868700,3.43586865234375,3.5230677429199218,9.120112673950194,-0.10115502014160156
1789221424537948700,3.44594873046875,3.6700118698120114,9.236830004882812,-0.6347627151489258
1789221424548027600,3.456027587890625,2.922123126220703,9.172635472869873,-0.9102455436706542
1789221424558107600,3.466107666015625,1.7533038032531738,8.834005575561523,-1.196352642059326
1789221424568187600,3.476187744140625,2.77083950881958,9.256133255767821,-2.277035416412353
1789221424578267600,3.486267578125,3.4760815353393553,10.565312651062012,-3.484161965942383
1789221424588347600,3.49634765625,3.191470812988281,10.482263780975341,-4.058920001983642
1789221424598427600,3.506427734375,4.026598279571533,9.14270795211792,-2.5731682342529294
1789221424608507600,3.516507568359375,3.5884593757629393,8.216002272033691,0.6907271789550781
1789221424618587000,3.5265869140625,2.6795605705261227,7.8350249328613275,2.8229133949279785
1789221424628666600,3.53666650390625,2.3431752372741697,7.809586540222168,3.9133226135253905
1789221424638746600,3.54674658203125,2.9753941131591795,9.197475315093994,4.489128112792969
1789221424648826600,3.55682666015625,4.30327820892334,11.197232251739502,3.56227279510498
1789221424658906600,3.56690673828125,3.435978657531738,10.525658686065674,1.767070462799072
1789221424668986600,3.576986572265625,2.3982418754577637,8.933364944458008,1.7155951271057128
1789221424679065600,3.587065673828125,2.060210528564453,9.05935980682373,3.0047230834960934
1789221424689145600,3.5971455078125,3.094505645751953,8.711751653289795,3.8750153869628905
1789221424699225600,3.6072255859375,3.152714673614502,9.044246408843994,3.351283773803711
1789221424709305900,3.617305908203125,2.596362062835693,9.310900618743895,1.9665373886108397
1789221424719385600,3.627385498046875,2.5267805770874023,9.668235216522216,1.0524012672424317
1789221424729465600,3.637465576171875,3.1432875045776365,9.92725790863037,1.045069024658203
1789221424739545600,3.647545654296875,3.764283560180664,9.85124200592041,1.8332102836608886
1789221424749624800,3.657624755859375,3.3264439315795897,9.320627062988281,2.071732624053955
1789221424759704600,3.66770458984375,2.3747487716674804,8.866776210784911,2.098966667938232
1789221424769784600,3.67778466796875,2.7581203125,8.500164081573486,2.1906945190429687
1789221424779864600,3.687864501953125,3.219004132080078,9.0527757522583,1.8632874420166015
1789221424789944600,3.697944580078125,3.6077626266479492,9.326313291931152,1.6437690773010254
1789221424800024800,3.70802490234375,3.794809631347656,9.75562357711792,1.4573206230163573
1789221424810103600,3.718103515625,3.487005080413818,9.245508985900878,1.2387000839233397
1789221424820183800,3.728183837890625,3.614047406005859,9.048585899353027,1.0673650276184081
1789221424830263600,3.738263671875,3.661332888793945,8.954912759399413,1.0290578010559082
1789221424840343800,3.74834375,3.7880759391784666,8.798840738677978,0.9296984321594238
1789221424850423600,3.758423583984375,3.946542161560058,8.872163164520263,0.6973112335205077
1789221424860503600,3.768503662109375,3.9018005180358886,9.048585899353027,0.6112696113586426
1789221424870583800,3.778583740234375,3.8967128395080564,9.207650672149658,0.8952817832946777
1789221424880662800,3.788662841796875,4.1277532997131345,9.20615429611206,0.9846154327392578
1789221424890742800,3.79874267578125,4.165761251068115,9.11083514251709,1.0262146865844726
1789221424900822500,3.808822509765625,3.8703766212463377,8.86213744506836,1.216254443359375
1789221424910902800,3.81890283203125,3.602525310516357,8.783876978302002,1.3685855239868163
1789221424920982500,3.828982421875,3.6565444854736326,8.660575592803955,1.4902408958435058
1789221424931062800,3.839062744140625,4.226065205383301,9.038260904693603,1.7800889343261719
1789221424941141500,3.8491416015625,3.6840778045654297,8.95670841064453,1.7561469177246092
1789221424951221800,3.8592216796875,3.834912509155273,9.095721744537354,1.1257236930847168
1789221424961301500,3.869301513671875,3.8361096099853516,9.061604370880126,0.7751227874755859
1789221424971381800,3.8793818359375,3.809474116516113,8.949076892852784,0.17328034515380858
1789221424981461800,3.889461669921875,3.6897640335083004,9.09093334121704,-0.43200376205444335
1789221424991541500,3.89954150390625,3.627514790344238,9.127145641326903,-0.7706336593627929
1789221425001621800,3.909621826171875,3.7912183288574215,9.164555042266846,-0.17552490921020505
1789221425011700700,3.91970068359375,3.756053491973877,9.322721989440918,0.7694365585327148
1789221425021780700,3.92978076171875,3.515136949920654,9.20615429611206,1.3482348098754882
1789221425031860500,3.939860595703125,3.618536534118652,9.041104019165038,1.3144167114257812
1789221425041940700,3.949940673828125,3.749319799804687,8.966584492492675,0.790385823059082
1789221425052020500,3.9600205078125,3.6584897743225095,8.949226530456542,0.7631517791748046
1789221425062100700,3.970100830078125,3.5889082885742187,8.93171893081665,0.9026140258789062
1789221425072179500,3.980179443359375,3.6840778045654297,8.942343200683593,1.124227317047119
1789221425082259700,3.990259765625,3.759046244049072,9.029581923675536,1.2849381034851073
1789221425092339700,4.000339599609375,3.792864342498779,9.183110105133055,1.3037924415588378
1789221425102419700,4.010419677734375,3.8512230079650878,9.244012609863281,1.1972504676818847
1789221425112499700,4.020499755859375,3.91990666809082,9.184307205963135,1.051503441619873
1789221425122579500,4.030579345703125,3.771316527557373,9.126397453308105,0.8866028022766113
1789221425132659700,4.04065966796875,3.4663550910949703,9.056815967559814,0.7543231605529784
1789221425142738700,4.05073876953125,3.3755250656127926,9.042001844787597,0.5987000526428222
1789221425152818700,4.060818603515625,3.492840946960449,9.087491676330567,0.4542997650146484
1789221425162898700,4.070898681640625,3.4950855110168453,9.171139096832276,0.3995324020385742
1789221425172978700,4.080978759765625,3.3865982482910155,9.23159268875122,0.3012204963684082
1789221425183058700,4.09105859375,3.39018955078125,9.281571648406981,0.17687164764404295
1789221425193138700,4.101138671875,3.4199674339294432,9.300725261688232,0.037708676147460936
1789221425203217700,4.1112177734375,3.282749751281738,9.226654647827148,-0.14320318679809568
1789221425213297700,4.121297607421875,3.209277687835693,9.222015882110595,-0.39594109954833984
1789221425223377700,4.131377685546875,3.284246127319336,9.144353965759278,-0.5611410140991211
1789221425233457700,4.141457763671875,3.118148387145996,9.191789086151122,-0.2958335426330566
1789221425243537700,4.15153759765625,3.010858225250244,9.290998817443848,-0.2841618095397949
1789221425253617700,4.16161767578125,3.031358576965332,9.350704221343994,-0.2893991256713867
1789221425263697700,4.17169775390625,2.9836241813659665,9.342174877929686,-0.3199251968383789
1789221425273777000,4.18177685546875,2.919579286956787,9.438840769958496,-0.41853637771606444
1789221425283856600,4.191856689453125,2.713977219390869,9.465775538635253,-0.24570494537353516
1789221425293936600,4.2019365234375,2.8297967247009277,9.466673364257812,-0.048931496429443354
1789221425304016600,4.2120166015625,2.9077579162597655,9.402029919433593,0.15173253021240232
1789221425314096600,4.2220966796875,2.724900764465332,9.325565103912353,0.3130418670654297
1789221425324176600,4.2321767578125,2.5846903297424313,9.287706790161133,0.44636897201538084
1789221425334256600,4.242256591796875,2.7226562004089354,9.444078086090087,0.5304653053283691
1789221425344335600,4.252335693359375,2.8413188201904296,9.574861351776123,0.4381389038085937
1789221425354415600,4.26241552734375,2.7998692039489743,9.715071786499022,0.5137058937072754
1789221425364496000,4.272495849609375,2.7551275604248047,9.532663547515869,0.586729044342041
1789221425374575600,4.28257568359375,2.701706935882568,9.45574981918335,0.5814917282104491
1789221425384655600,4.292655517578125,2.5335142692565915,9.409960712432861,0.6772597946166992
1789221425394735600,4.302735595703125,2.530521517181396,9.451559966278076,0.8500912269592285
1789221425404814800,4.31281494140625,2.8012159423828122,9.411008175659179,0.9992799179077148
1789221425414894600,4.32289453125,2.8221652069091796,9.392303475189209,0.8524854286193847
1789221425424974600,4.332974609375,2.5106197158813477,9.344120166778564,0.7803601036071777
1789221425435054800,4.343054931640625,2.5311200675964356,9.37240167388916,0.7411550514221191
1789221425445134600,4.353134521484375,2.8220155693054196,9.432256715393066,0.773776049041748
1789221425455214800,4.36321484375,2.947711156463623,9.467720827484131,0.9006687370300293
1789221425465294600,4.373294677734375,2.798821740722656,9.42297918395996,1.0090063621520995
1789221425475373800,4.383373779296875,2.7067946144104003,9.292944106292724,1.061080248260498
1789221425485453600,4.39345361328125,2.858676782226562,9.20630393371582,1.1448773063659667
1789221425495533800,4.403533935546875,2.9117981315612793,9.313294820404051,1.1133037719726562
1789221425505613600,4.413613525390625,3.0819360870361328,9.42297918395996,0.9865607215881347
1789221425515693600,4.423693603515625,3.3432033432006834,9.51350993423462,0.8469488372802734
1789221425525773800,4.43377392578125,3.510198908996582,9.494356320953369,0.8195651557922363
1789221425535852500,4.4438525390625,3.506906881713867,9.415497303771971,0.9093477180480957
1789221425545932800,4.453932861328125,3.432088079833984,9.152434396362304,1.1842319961547851
1789221425556012500,4.464012451171875,3.561674244689941,9.005041356658936,1.2452841384887694
1789221425566092800,4.4740927734375,3.582922784423828,8.830114997863769,1.1385925270080566
1789221425576172500,4.484172607421875,3.7578491432189938,8.750657430267333,1.0838251640319823
1789221425586252800,4.494252685546875,4.05398196105957,8.820238916015624,0.8864531646728515
1789221425596332500,4.50433251953125,4.065504056549072,8.946383415985107,0.6889315277099609
1789221425606411800,4.514411865234375,4.221426439666748,9.153332221984863,0.502483073425293
1789221425616491500,4.524491455078125,4.390965844726562,9.265710062408447,0.4234744186401367
1789221425626571800,4.53457177734375,4.3813890380859375,9.085097474670409,0.481384171295166
1789221425636651800,4.54465185546875,4.402188665008545,8.85480520248413,0.6218938812255859
1789221425646731500,4.5547314453125,4.23938295211792,8.493131114196776,0.8758288948059082
1789221425656811800,4.564811767578125,4.145410536956787,8.275258763122558,0.8110358123779297
1789221425666890500,4.574890380859375,4.144512711334229,8.447940557861328,0.5291185668945312
1789221425676970800,4.584970703125,4.327220225524902,8.75305163192749,0.26665420989990235
1789221425687050500,4.595050537109375,4.426729232025147,9.237278917694091,0.16983868026733398
1789221425697130800,4.605130859375,3.9791631591796874,9.771036250305174,-0.024690204620361325
1789221425707210800,4.615210693359375,4.491223039245606,9.139116649627685,0.01601122360229492
1789221425717290800,4.625290771484375,4.641608831024169,8.591891932678221,0.28490999755859375
1789221425727370800,4.635370849609375,3.839700912475586,8.071153071594237,0.22026655273437498
1789221425737449700,4.64544970703125,3.3146225608825683,8.411578620147704,0.5776011505126952
1789221425747529700,4.65552978515625,4.093037375640869,8.826822970581054,0.5574000740051269
1789221425757609700,4.665609619140625,4.7572786987304685,9.19343509979248,0.49036242752075193
1789221425767689700,4.675689697265625,4.113687364959716,9.29518867034912,0.4514566505432129
1789221425777769500,4.68576953125,3.359364204406738,9.68529390335083,0.5998971534729004
1789221425787849700,4.695849609375,2.4238299057006834,9.90226842880249,0.7881412590026855
1789221425797929700,4.7059296875,5.2834045135498044,8.571092305755615,0.7900865478515624
1789221425808008700,4.7160087890625,2.980032878875732,9.664344638824462,0.9473556694030761
1789221425818088700,4.726088623046875,0.9635165306091308,9.013421062469481,0.8267477607727051
1789221425828168700,4.736168701171875,0.8672995513916015,10.61753617477417,0.8417115211486816
1789221425838248700,4.746248779296875,4.673780915832519,8.764124814605712,0.07347206344604491
1789221425848328700,4.75632861328125,4.621707029724121,9.09138225402832,-0.3746925598144531
1789221425858408700,4.76640869140625,0.6485293746948242,8.675240077972411,0.10250175857543944
1789221425868488400,4.776488525390625,2.5061305877685545,9.364021968078612,0.8776245460510254
1789221425878567700,4.786567626953125,6.084713881683349,9.740809454345703,1.8332102836608886
1789221425888647700,4.796647705078125,4.164713787841797,9.157073162078857,0.7019499992370605
1789221425898727700,4.806727783203125,3.0105589500427246,8.876203379821776,0.33533787002563475
1789221425908807700,4.8168076171875,3.393631215667724,8.90598126296997,-0.22400749282836913
1789221425918887700,4.8268876953125,4.491372676849365,9.271396291351317,0.1031003089904785
1789221425928967400,4.836967529296875,4.185962327575683,9.126996003723145,0.18315642700195311
1789221425939046700,4.847046630859375,3.7352538650512694,9.010278672790527,0.3101987525939941
1789221425949126400,4.85712646484375,3.5787329315185543,9.044994596862793,0.3371335212707519
1789221425959206700,4.86720654296875,3.57514162902832,9.130736943817139,0.30151977157592774
1789221425969286400,4.877286376953125,3.7618893585205075,9.090035515594481,0.23074118499755858
1789221425979366700,4.88736669921875,3.83685779800415,8.85510447769165,0.24690204620361328
1789221425989446700,4.89744677734375,3.7051767066955565,8.79150849609375,0.38187516479492184
1789221425999526400,4.9075263671875,3.702183954620361,9.016713089752196,0.42108021697998044
1789221426009605600,4.917605712890625,3.7951089065551757,9.160664464569091,0.42721535873413086
1789221426019685600,4.927685546875,3.834313958740234,9.2573303565979,0.297479556274414
1789221426029765600,4.937765625,3.6236242126464844,9.325116191101074,0.27174188842773433
1789221426039845400,4.947845458984375,3.3602620300292965,9.324667278289795,0.25528175201416015
1789221426049925600,4.957925537109375,3.376572528839111,9.277980345916747,0.20171148986816406
1789221426060005400,4.96800537109375,3.5506010620117183,9.222764070129394,0.19871873779296872
1789221426070085600,4.978085693359375,3.4383728591918943,9.077465956878662,0.2738368148803711
1789221426080164400,4.988164306640625,3.1184476623535153,8.946383415985107,0.31708208236694335
1789221426090244600,4.99824462890625,3.1114146949768067,9.041253656768799,0.37708676147460934
1789221426100324600,5.00832470703125,3.2555157073974605,9.210344149017333,0.4382885414123535
1789221426110404600,5.018404541015625,3.3405098663330075,9.362375954437255,0.45175592575073237
1789221426120484600,5.028484619140625,3.461566687774658,9.494356320953369,0.5617395645141601
1789221426130564400,5.038564453125,3.322553353881836,9.469666116333007,0.6551134292602538
1789221426140643600,5.0486435546875,2.985868745422363,9.383025943756103,0.570119270324707
1789221426150723600,5.0587236328125,2.8392238937377927,9.279775997161865,0.40895957107543945
1789221426160803600,5.068803466796875,2.9230209518432617,9.20645357131958,0.3462614151000976
1789221426170883600,5.078883544921875,3.0111575004577635,9.151835845947264,0.35134909362792965
1789221426180963600,5.088963623046875,2.9887118598937987,9.126247815704344,0.3093009269714355
1789221426191043600,5.099043701171875,2.9613281784057617,9.234735078430175,0.313490779876709
1789221426201123600,5.10912353515625,3.0181904678344726,9.321973801422118,0.28790274963378903
1789221426211202600,5.11920263671875,3.125779904937744,9.371204573059082,0.30885201416015623
1789221426221282600,5.129282470703125,3.202394358062744,9.432256715393066,0.31648353195190426
1789221426231362600,5.139362548828125,3.0783447845458984,9.390657461547852,0.34177228698730466
1789221426241442600,5.149442626953125,3.002628157043457,9.384372682189941,0.2593219673156738
1789221426251522600,5.1595224609375,2.8407202697753906,9.349806395721435,0.14036007232666015
1789221426261602600,5.1696025390625,2.6888381019592282,9.251494490051268,0.18405425262451172
1789221426271682600,5.1796826171875,2.8853122756958007,9.315838659667968,0.19946692581176756
1789221426281761500,5.189761474609375,3.0002339553833006,9.368361458587646,0.28999767608642574
1789221426291841500,5.199841552734375,3.015347353363037,9.433753091430663,0.4255693450927734
1789221426301921500,5.209921630859375,2.9563901374816894,9.470713579559325,0.4918588035583496
1789221426312001500,5.22000146484375,2.854337291717529,9.481936399841308,0.5919663604736328
1789221426322081500,5.23008154296875,2.653224352264404,9.515455223083496,0.6313210502624511
1789221426332161500,5.24016162109375,2.4934113914489746,9.437793306732177,0.642244595336914
1789221426342240500,5.250240478515625,2.6226982810974118,9.265859700012207,0.7107786178588866
1789221426352320500,5.260320556640625,2.708889540863037,9.210493786621093,0.7471405555725097
1789221426362400500,5.270400390625,2.5803508392333985,9.21812530441284,0.8819640365600585
1789221426372480500,5.28048046875,2.579752288818359,9.345616542816161,1.1924620643615722
1789221426382560500,5.290560546875,2.5673323677062987,9.610175826263427,1.5688006378173827
1789221426392640500,5.300640625,2.5233389122009275,9.542090716552734,1.58960026473999
1789221426402720500,5.310720458984375,2.6417022567749022,9.542389991760253,1.1939584403991699
1789221426412799500,5.320799560546875,2.426673020172119,9.357437913513182,1.0646715507507323
1789221426422879500,5.33087939453125,2.295141566467285,9.133131145477295,0.985064345550537
1789221426432959500,5.34095947265625,2.315641918182373,9.23847601852417,1.1731588134765625
1789221426443039700,5.351039794921875,2.30456873550415,9.264812236785888,1.3551181396484375
1789221426453119500,5.361119384765625,2.3555951583862305,9.208698135375975,1.5367781906127929
1789221426463199500,5.371199462890625,2.48353530960083,9.267356076049804,1.8269255043029784
1789221426473279500,5.381279541015625,2.6791116577148437,9.367613270568848,1.5387234794616698
1789221426483358700,5.391358642578125,2.74525147857666,9.401581006622314,1.37906015625
1789221426493438500,5.4014384765625,2.8369793296813963,9.566481645965576,1.511190160369873
1789221426503518500,5.4115185546875,2.786102544403076,9.67885948638916,1.7305588874816893
1789221426513598500,5.421598388671875,2.8095956481933593,9.679308399200439,1.8836381561279296
1789221426523678500,5.431678466796875,2.9792846908569333,9.948805723571777,2.015618522644043
1789221426533758700,5.4417587890625,2.984073094177246,9.775375740814209,2.1676503280639645
1789221426543837400,5.45183740234375,2.3713071067810056,9.281272373199462,2.037914525604248
1789221426553917700,5.461917724609375,2.1806687995910643,8.653243350219727,2.0127754081726072
1789221426563997400,5.47199755859375,2.8348844032287595,9.144653240966797,2.064550019073486
1789221426574077700,5.48207763671875,2.5502736808776856,9.270498465728759,2.0497358963012693
1789221426584157400,5.492157470703125,3.1598972785949706,9.39813934173584,2.0849007331848144
1789221426594237400,5.502237548828125,3.98380192489624,9.82505542526245,2.1998224128723143
1789221426604317400,5.5123173828125,3.675997373962402,10.15755018081665,2.046743144226074
1789221426614396700,5.522396728515625,3.2140660911560057,9.890297420501708,1.758840394592285
1789221426624476400,5.532476318359375,2.869001776885986,9.341875602722167,1.758840394592285
1789221426634556400,5.542556396484375,2.4597429306030274,8.680477394104003,1.8155530464172362
1789221426644636700,5.55263671875,2.532766081237793,8.522160809326172,2.0931308013916015
1789221426654716400,5.56271630859375,2.7316344566345214,8.792406321716308,2.1787235107421874
1789221426664796700,5.572796630859375,3.0832828254699707,9.08464856185913,1.9584569580078124
1789221426674876400,5.58287646484375,3.196408853912353,9.622745384979247,2.0190601875305174
1789221426684955600,5.59295556640625,2.8809727851867675,9.826402163696288,2.086546746826172
1789221426695035400,5.603035400390625,2.968211508178711,9.839570272827148,2.1890485054016113
1789221426705115600,5.61311572265625,2.9715035354614256,9.730484459686279,2.0869956596374513
1789221426715195600,5.623195556640625,2.8610709838867185,9.395146589660644,1.8291700683593748
1789221426725275400,5.633275390625,3.055300593566894,9.25089593963623,1.7121534622192383
1789221426735355600,5.643355712890625,2.449717211151123,9.048585899353027,1.7549498168945312
1789221426745435400,5.653435302734375,1.8899229354858398,8.854655564880371,1.6775871757507324
1789221426755514600,5.6635146484375,2.0413561904907227,9.355342987060546,1.5004162528991698
1789221426765594400,5.673594482421875,2.2055086418151855,10.04831473007202,1.5521908638000488
1789221426775674600,5.683674560546875,1.643320164489746,9.936086527252197,1.666962905883789
1789221426785754400,5.69375439453125,0.9193734375,9.43016178894043,1.6117466300964354
1789221426795834600,5.703834716796875,1.422455061340332,9.491662844085694,1.7854758880615234
1789221426805914600,5.71391455078125,2.9336452217102047,10.146028085327147,2.050633721923828
1789221426815993600,5.72399365234375,2.9351415977478026,9.554211362457275,1.839943975830078
1789221426826073600,5.734073486328125,3.3821091201782223,9.590722937774657,1.9138649520874023
1789221426836153600,5.744153564453125,1.901295393371582,9.192986186981202,2.018611274719238
1789221426846233600,5.754233642578125,0.9252093040466308,8.61329011001587,2.1734861946105957
1789221426856313300,5.764313232421875,2.019359462738037,9.41594621658325,2.2390274650573727
1789221426866393600,5.7743935546875,4.404133953857421,10.166378799438476,1.7325041763305664
1789221426876473300,5.784473388671875,4.700865322113037,11.63791499481201,1.384746385192871
1789221426886552600,5.794552490234375,3.071760729980469,10.755053132629394,1.4414590370178222
1789221426896632300,5.80463232421875,1.2764087600708007,8.453477149200438,1.7384896804809569
1789221426906712600,5.814712646484375,0.8812158485412597,7.933187200927734,1.9681834022521971
1789221426916791600,5.82479150390625,1.9999065742492674,8.12741681060791,2.43879366607666
1789221426926871800,5.834871826171875,3.4069489624023435,8.75230344390869,2.8048072448730466
1789221426936951800,5.844951904296875,3.559878593444824,9.700257663726806,2.6218004554748533
1789221426947031800,5.85503173828125,2.4521114128112793,9.115922821044922,2.5781062751770016
1789221426957110800,5.86511083984375,1.7902642913818358,8.354865968322754,2.261473105621338
1789221426967190800,5.875190673828125,4.86531704864502,9.646088851165771,1.5981296081542968
1789221426977270800,5.885270751953125,5.0309658760070795,10.854412501525879,1.4751274978637694
1789221426987350800,5.895350830078125,4.847809449005126,9.300425986480713,2.035221048736572
1789221426997430800,5.9054306640625,4.448576322174072,8.948927255249023,2.161215911102295
1789221427007510800,5.9155107421875,2.8713959785461425,7.658153285217285,2.139518458557129
1789221427017589800,5.92558984375,2.7091888160705566,6.713341455078124,2.2608745552062985
1789221427027670000,5.935669921875,5.226392586517334,7.764246346282959,2.2340894241333005
1789221427037749800,5.945749755859375,6.2852282707214355,9.661800799560547,1.9584569580078124
1789221427047829800,5.955829833984375,6.196642809295654,9.994894105529784,2.287360411071777
1789221427057909800,5.96590966796875,6.570437543487548,10.61095212020874,1.9418471839904785
1789221427067989800,5.97598974609375,4.19449167098999,8.896105181121825,2.1478981643676756
1789221427078069800,5.98606982421875,3.5488054107666014,7.061548159027099,1.853411360168457
1789221427088148700,5.996148681640625,2.6439468208312986,6.875249342346191,1.465849966430664
1789221427098228700,6.006228759765625,3.2160113800048826,6.486041934967041,1.695094775390625
1789221427108308700,6.016308837890625,5.326500143432617,8.81664761352539,1.9868881027221679
1789221427118389000,6.026388916015625,4.984428581237792,10.100837528991699,1.81944362411499
1789221427128468700,6.03646875,4.9449242538452145,9.641001172637939,0.8327332649230956
1789221427138548700,6.046548828125,5.237615406799316,9.210044873809814,-0.11806406936645507
1789221427148628700,6.056628662109375,4.037222549438476,8.32613554840088,-0.5761047744750977
1789221427158708000,6.0667080078125,3.555239827728271,7.850886518859863,-0.9038111267089843
1789221427168787700,6.07678759765625,3.785382462310791,8.872761714935303,-1.0332476539611817
1789221427178867700,6.08686767578125,3.977966058349609,8.379256897735596,-1.101183126068115
1789221427188947700,6.09694775390625,4.322731097412109,9.358335739135741,-1.229572190093994
1789221427199027700,6.10702783203125,3.5550901901245116,9.847052153015136,-1.4392144729614258
1789221427209108000,6.11710791015625,4.087201509094238,9.191789086151122,-1.6877625328063963
1789221427219187700,6.127187744140625,3.1669302459716797,8.6321444480896,-1.8059762397766113
1789221427229267000,6.137266845703125,1.7387889556884764,9.045892422485352,-1.7857751632690428
1789221427239346700,6.1473466796875,1.3379098152160644,10.46385835571289,-1.818845073699951
1789221427249427000,6.157427001953125,7.696011598968505,12.112266198730469,-3.03255567779541
1789221427259506700,6.167506591796875,2.198924587249756,9.311798444366454,-2.993649900817871
1789221427269586700,6.177586669921875,0.36855741806030273,6.159682321166992,-2.6575638427734374
1789221427279667000,6.1876669921875,1.4309844047546385,6.981791316223144,-3.7165491645812985
1789221427289746000,6.197745849609375,10.887931324768065,9.686042091369629,-4.933551795959472
1789221427299826000,6.207825927734375,7.250390814971923,11.049988849639892,-3.967940338897705
1789221427309905700,6.21790576171875,1.2102689392089843,8.67015239944458,-3.0009821434020996
1789221427319986000,6.22798583984375,0.6690297264099121,7.762301057434081,-3.2173581184387205
1789221427330065700,6.238065673828125,0.049829322052001954,9.191489810943603,-3.8717233596801757
1789221427340146000,6.24814599609375,0.1427542739868164,9.510217906951905,-4.3926118583679195
1789221427350225700,6.2582255859375,4.089745348358154,9.118167385101318,-4.368220928955078
1789221427360305000,6.268304931640625,8.195651557922362,8.632294085693358,-3.5449148330688476
1789221427370384600,6.278384521484375,1.7063175956726073,9.443629173278808,-2.2737433891296384
1789221427380465000,6.28846484375,2.7015572982788085,9.400383905792236,-0.9068038787841797
1789221427390545000,6.298544921875,2.993051350402832,9.164704679870605,-0.3356371452331543
1789221427400624600,6.308624755859375,3.5954923431396484,9.249100288391112,-1.1888707618713379
1789221427410705000,6.318704833984375,3.4581250228881832,9.055319591522217,-2.552368607330322
1789221427420784600,6.32878466796875,2.0533271987915036,8.03808316116333,-2.91119958114624
1789221427430864000,6.33886376953125,1.4480430915832518,7.781005757904052,-2.362777763366699
1789221427440943600,6.348943603515625,3.4995746391296385,9.55181716079712,-1.6829741294860838
1789221427451024000,6.35902392578125,4.24581736907959,10.700884320068358,-1.0983400115966797
1789221427461103600,6.369103515625,3.4861072547912597,10.314669664764404,-0.4417302062988281
1789221427471184000,6.379183837890625,4.276642715454101,10.364050074005126,-0.35404257049560545
1789221427481263900,6.389263916015625,3.0942063705444336,9.40382557067871,-0.49111061553955077
1789221427491343600,6.399343505859375,1.70467158203125,7.750928599548339,-0.6271311973571777
1789221427501422800,6.4094228515625,3.7376480667114254,7.812130379486083,-0.7875427085876464
1789221427511502800,6.4195029296875,4.417302062988281,9.04095438156128,-0.7836521308898925
1789221427521582800,6.429582763671875,4.754585221862793,8.621669815826415,-1.2336124053955078
1789221427531662600,6.43966259765625,5.151573784637451,10.05504842224121,-1.9608511596679685
1789221427541742800,6.449742919921875,3.033902416229248,10.159645107269286,-2.1871032165527344
1789221427551822800,6.45982275390625,2.471564301300049,8.732551280212402,-1.6903063720703124
1789221427561902800,6.46990283203125,4.649389986419678,9.532813185119629,-1.0845733520507812
1789221427571981800,6.47998193359375,4.161421760559082,9.296984321594238,-0.9983820922851562
1789221427582061800,6.490061767578125,2.0560206756591795,8.405593115997315,-1.62805712890625
1789221427592141800,6.500141845703125,1.4948796615600586,8.0437693901062,-2.362927400970459
1789221427602221800,6.510221923828125,2.147598889160156,8.964040653228759,-3.272574394226074
1789221427612301800,6.5203017578125,2.6607062324523922,9.712378309631347,-3.7716158027648925
1789221427622381600,6.530381591796875,1.6593313880920408,10.386794989776611,-3.8998552291870117
1789221427632460800,6.540460693359375,1.3201029403686522,9.993248091888427,-3.6688147689819335
1789221427642540800,6.550540771484375,2.1914427070617672,9.115473908233643,-2.5049334869384765
1789221427652620800,6.560620849609375,1.9786580345153808,8.176946857452393,-1.224484511566162
1789221427662700800,6.57070068359375,3.967641063690185,8.593687583923339,-1.1513117233276366
1789221427672780800,6.58078076171875,3.836408885192871,9.952097750854492,-2.2762872283935547
1789221427682860800,6.59086083984375,2.5189994216918943,10.009408953094482,-3.2231939849853513
1789221427692940800,6.60094091796875,3.8878842208862303,8.989927958679198,-3.5538930892944336
1789221427703019800,6.611019775390625,5.005976396179199,10.741286473083495,-2.756623936462402
1789221427713099800,6.621099853515625,3.727173434448242,8.75978532409668,-1.6234183631896972
1789221427723179800,6.6311796875,4.166359801483154,7.990498403167724,-1.4989198768615721
1789221427733259800,6.641259765625,2.166902140045166,9.08494783706665,-1.4266449142456055
1789221427743339800,6.65133984375,2.24082311630249,6.842927619934081,-1.7329530891418456
1789221427753419800,6.661419677734375,6.092644674682616,8.616582137298584,-1.7340005523681639
1789221427763499800,6.671499755859375,4.881328272247314,10.649408984374999,-0.7167641220092773
1789221427773579000,6.6815791015625,3.097648035430908,7.624185549163818,0.15637129592895507
1789221427783658800,6.69165869140625,4.432565098571777,7.211933950805664,0.854879630279541
1789221427793738800,6.70173876953125,3.461417050170898,9.541641803741454,0.8702923034667969
1789221427803818800,6.71181884765625,3.295618585205078,9.66614029006958,-0.25094226150512694
1789221427813898800,6.721898681640625,4.3357495689392085,9.413851290130614,-0.48976387710571284
1789221427823979000,6.73197900390625,4.416703512573242,8.968230506134033,-0.02977788314819336
1789221427834058800,6.742058837890625,4.294000677490234,8.052149095916748,0.8090905235290526
1789221427844138000,6.752137939453125,3.141641490936279,8.106168270874022,1.4003086959838866
1789221427854217700,6.7622177734375,3.4605192245483396,8.374318856811524,1.7776947326660155
1789221427864298000,6.772298095703125,3.633949207305908,9.036914166259765,2.1155764419555663
1789221427874377700,6.782377685546875,3.6872201942443845,8.799738564300537,2.5380033973693847
1789221427884457700,6.792457763671875,5.4321442916870115,9.239972394561766,2.899228572845459
1789221427894537700,6.802537841796875,5.225644398498535,9.865457578277587,2.65576819152832
1789221427904617000,6.812616943359375,3.1048306404113766,8.365490238189697,1.553986515045166
1789221427914696700,6.82269677734375,2.47725053024292,7.8532807205200195,1.101931314086914
1789221427924776700,6.832776611328125,4.412064746856689,11.086201149749755,1.6234183631896972
1789221427934856700,6.842856689453125,4.899883335113525,10.0357451713562,2.5417443374633786
1789221427944936700,6.852936767578125,5.310339282226562,7.861959701538085,3.3641526077270507
1789221427955016700,6.8630166015625,5.693561185455322,8.356063069152832,3.995772933197021
1789221427965096700,6.8730966796875,4.9808372787475585,10.797101299285888,4.067150070190429
1789221427975175700,6.88317578125,3.1051299156188965,10.685322009277343,3.9649475868225097
1789221427985255700,6.893255615234375,2.4251766441345213,8.586953891754149,4.241028965759277
1789221427995336000,6.9033359375,3.164835319519043,6.896048969268798,4.090194261169433
1789221428005415700,6.913415771484375,4.332906454467773,6.704363198852539,4.4005426513671875
1789221428015495700,6.92349560546875,3.206135298156738,8.558223471832274,4.619163190460204
1789221428025575700,6.93357568359375,2.7647043670654297,9.065046035766601,4.7289971916198725
1789221428035655700,6.94365576171875,5.073612593078613,10.300903005218505,5.052812966156005
1789221428045734700,6.953734619140625,4.601505953216552,11.691784532165526,4.846013797760009
1789221428055814700,6.963814697265625,4.152293866729736,10.04247886352539,5.598391669464111
1789221428065894700,6.973894775390625,4.512022666168213,8.634837924957274,6.12212328262329
1789221428075974700,6.983974609375,4.370764768218994,8.551340142059326,6.676979517364502
1789221428086055000,6.994054931640625,2.8745383682250973,9.266308612823487,6.759130561828613
1789221428096134700,7.004134765625,1.6558897232055663,8.227823642730712,6.498761131286621
1789221428106214000,7.0142138671875,1.193210252380371,7.2337810409545895,6.831704799652099
1789221428116293600,7.024293701171875,1.8673276573181152,7.336133161926269,7.860313687896728
1789221428126374000,7.034373779296875,2.428618309020996,8.070404883575439,8.607603881072997
1789221428136453600,7.04445361328125,2.5439889015197754,9.143905052947998,9.235333628845215
1789221428146533600,7.05453369140625,3.2721254814147946,9.08539674987793,9.846603240203857
1789221428156614000,7.06461376953125,2.4447791702270507,6.951414882659912,9.381828842926025
1789221428166693600,7.074693603515625,3.8308722938537594,5.703437267303467,8.232911321258545
1789221428176774000,7.08477392578125,3.7569513175964353,7.589469625091552,7.347056707000732
1789221428186852600,7.0948525390625,1.8882769218444824,8.877250843048095,5.718401027679443
1789221428196932900,7.104932861328125,5.304353778076171,12.132766550445556,4.53297193069458
1789221428207012600,7.1150126953125,5.740996305847168,9.929053559875488,3.530100710296631
1789221428217092900,7.1250927734375,8.46619634552002,8.912864592742919,5.167285733032227
1789221428227172600,7.135172607421875,6.944830828094482,10.932074417877196,6.733542531585693
1789221428237252600,7.145252685546875,2.3663690658569334,7.990797678375244,5.5638253829956055
1789221428247331600,7.15533154296875,1.2973580245971679,4.2217257148742675,3.6764462867736816
1789221428257411800,7.165411865234375,0.5985504150390625,3.732261112976074,2.0515315475463867
1789221428267491800,7.175491943359375,-0.5143044441223145,4.52638787612915,0.9409212524414062
1789221428277571600,7.185571533203125,-0.232387198638916,7.523479441833496,1.6713023963928222
1789221428287651800,7.19565185546875,1.2840402778625488,9.575459902191161,3.4014123710632322
1789221428297731600,7.205731689453125,3.171120098876953,10.034099157714843,4.566939666748047
1789221428307811800,7.215811767578125,5.416731618499756,10.411485194396972,4.459499867248535
1789221428317890600,7.225890625,7.646631189727783,9.384522319793701,3.139097651672363
1789221428327970800,7.235970703125,5.718401027679443,8.901043222045898,2.351255667877197
1789221428338050600,7.246050537109375,4.989516259765625,8.785822267150879,2.4863784240722655
1789221428348130800,7.256130859375,2.9198785621643064,7.50791713104248,2.7889456588745114
1789221428358210800,7.2662109375,2.0470424194335934,5.513547148132324,1.9268834236145018
1789221428368290600,7.27629052734375,1.3643956710815428,6.951414882659912,0.9367313995361327
1789221428378370800,7.286370849609375,1.9309236389160156,12.086229255676269,0.637755467224121
1789221428388449800,7.29644970703125,5.72678073348999,13.472621654510498,-0.5241805259704589
1789221428398529800,7.30652978515625,5.074360781097412,8.314613452911377,-0.9759364517211914
1789221428408609500,7.316609619140625,2.9314006576538083,4.872200378417968,0.4873696754455566
1789221428418689800,7.326689697265625,4.367323103332519,10.541669909667968,1.1062708045959473
1789221428428769800,7.336769775390625,2.168697791290283,11.943325344085693,1.1034276901245117
1789221428438849800,7.346849853515625,1.4348749824523925,6.999149278259277,-0.029179332733154296
1789221428448929800,7.3569296875,3.137451638031006,6.855796453857422,-1.1246762298583983
1789221428459008800,7.3670087890625,5.966949087524414,9.51261210861206,-1.0935516082763672
1789221428469088800,7.3770888671875,3.026719811248779,9.576058452606201,0.6878840644836426
1789221428479168800,7.387168701171875,1.605611488342285,7.623287723541259,1.0333972915649414
1789221428489248800,7.397248779296875,2.1437083114624023,9.06489639816284,0.7003039855957031
1789221428499328500,7.40732861328125,2.388814706420898,7.529016033172607,-0.6607996582031249
1789221428509408800,7.41740869140625,6.60126288986206,9.58264250717163,-0.7139210075378417
1789221428519488800,7.42748876953125,5.934926640319824,13.188160569763182,0.9903016616821289
1789221428529567700,7.437567626953125,3.7030817802429197,10.452785173034668,1.5150807380676268
1789221428539647700,7.447647705078125,4.338742321014404,8.062025177764893,0.9355342987060546
1789221428549727700,7.457727783203125,4.982184017181396,9.514258122253418,0.6310217750549316
1789221428559807700,7.467807861328125,4.8035167182922365,10.814010348510742,1.1797428680419921
1789221428569887700,7.4778876953125,1.8321628204345701,6.9533601715087885,1.1206360145568848
1789221428579967700,7.4879677734375,1.3901333389282227,5.84185205078125,0.8026561065673827
1789221428590047500,7.498047607421875,1.0579378585815429,6.93959351196289,0.4444236831665039
1789221428600126700,7.508126708984375,0.27787703018188475,5.118952787017822,0.4332008628845215
1789221428610206700,7.518206787109375,-0.24316110610961914,6.511330690002441,0.48228199691772455
1789221428620286700,7.52828662109375,2.189198143005371,12.5777887840271,0.809539436340332
1789221428630366700,7.53836669921875,12.636446724700926,14.098106838226318,1.6724994972229004
1789221428640446700,7.54844677734375,7.754968814849853,12.403909888458251,2.889651766204834
1789221428650526700,7.558526611328125,2.7308862686157225,10.561571710968018,3.38345585861206
1789221428660605700,7.568605712890625,2.0868460220336913,7.5439797935485835,2.70065947265625
1789221428670685700,7.578685791015625,5.520879390716552,5.646126065063476,1.1879729362487792
1789221428680765700,7.588765625,11.161019951629639,9.608829087829589,0.7332242584228515
1789221428690845700,7.598845703125,4.484040434265136,11.876886248016357,2.133084041595459
1789221428700926000,7.608926025390625,0.9674071083068847,7.956231391906738,1.9319711021423338
1789221428711005700,7.619005615234375,-0.04833294601440429,5.95004003829956,1.4257470886230468
1789221428721085700,7.629085693359375,-0.9897031112670898,8.51662421798706,1.3594576301574706
1789221428731164700,7.63916455078125,-0.849791951751709,9.970802451324463,1.5605705696105956
1789221428741244700,7.64924462890625,1.5514426757812498,8.468590547180176,1.5237597190856933
1789221428751324700,7.65932470703125,3.0383915443420406,7.161506078338623,1.7745523429870604
1789221428761404700,7.66940478515625,7.233930678558349,9.85782606048584,1.638831036376953
1789221428771484700,7.679484619140625,7.0281789733886715,11.178078638458251,1.6904560096740722
1789221428781564700,7.689564697265625,2.5733178718566894,7.954136465454101,1.6801310150146482
1789221428791645000,7.69964501953125,1.4897919830322264,4.948814831542968,0.5023334358215332
1789221428801723600,7.7097236328125,1.862239978790283,9.210493786621093,-0.5237316131591797
1789221428811804000,7.719803955078125,4.902427174377441,12.254870835113525,-0.05835866546630859
1789221428821883600,7.729883544921875,7.240963645935058,9.898527488708496,1.0057143348693847
1789221428831964000,7.7399638671875,3.245789263153076,8.176946857452393,2.1178210060119627
1789221428842043600,7.750043701171875,5.650465555572509,10.000430696868897,1.7986439971923827
1789221428852123600,7.76012353515625,5.16489153137207,11.662904474639891,1.548150648498535
1789221428862203600,7.77020361328125,1.6934487617492675,7.403320446014404,1.2783540489196776
1789221428872282600,7.78028271484375,1.7322049011230467,6.810007347106933,0.15218144302368164
1789221428882362600,7.790362548828125,1.5439607955932617,8.039429899597167,-0.3413233741760254
1789221428892442600,7.800442626953125,0.8167220413208007,5.919663604736328,0.22176292877197265
1789221428902523000,7.81052294921875,-0.029328970336914062,7.103745963287353,1.036090768432617
1789221428912602600,7.8206025390625,1.1818377944946288,12.129474523162841,1.0437222862243651
1789221428922683000,7.830682861328125,9.347112918853759,14.400823710632324,-0.15562310791015624
1789221428932763000,7.840762939453125,7.704391304779052,10.586561190795898,0.22640169448852537
1789221428942842000,7.850842041015625,4.718672196960449,9.99130280303955,0.2214636535644531
1789221428952921900,7.860921875,4.632929850006104,12.506561284637451,0.5485714553833008
1789221428963001900,7.871001953125,2.1493945404052734,7.43773709487915,0.5470750793457031
1789221428973082000,7.88108203125,1.8025345748901367,4.986972420501709,0.1592144104003906
1789221428983161900,7.891161865234375,1.5453075340270994,6.5671455162048336,-0.32082302246093747
1789221428993242000,7.9012421875,0.42586862030029293,6.954856547546386,-0.474351203918457
1789221429003321900,7.91132177734375,1.4878466941833495,12.200552384948729,-0.11148001480102539
1789221429013401000,7.921401123046875,9.484779514312743,14.212729242706297,0.08110358123779296
1789221429023480800,7.931480712890625,8.47203221206665,10.537779331970214,0.05027823486328125
1789221429033561000,7.94156103515625,2.449567573547363,10.222642538452147,-0.2668038475036621
1789221429043640800,7.951640869140625,3.0125042388916015,9.668833766937256,-1.2780547737121581
1789221429053720800,7.961720947265625,2.212840884399414,7.438634920501708,-0.36631285400390623
1789221429063801000,7.971801025390625,1.21939683303833,5.318718988037109,0.14694412689208983
1789221429073880000,7.981880126953125,0.713771369934082,6.439355002593993,-0.7703343841552734
1789221429083960000,7.9919599609375,1.14278237991333,9.150040194702148,-1.661875227355957
1789221429094039800,8.002039794921876,1.7600374954223632,10.98130518951416,-1.7651251739501952
1789221429104120000,8.0121201171875,6.660220105743408,13.095684530639648,-1.7866729888916015
1789221429114199800,8.02219970703125,7.644835538482665,10.866682785034179,-1.3210007659912109
1789221429124280000,8.032280029296874,4.964377142333984,10.53433766708374,-1.2624924629211425
1789221429134360000,8.042360107421874,3.2775124351501463,11.079617095184325,-0.7070376777648926
1789221429144439000,8.05243896484375,1.5750854171752928,6.381594887542724,-0.4565443290710449
1789221429154518800,8.062518798828124,1.1189900009155274,5.3472997703552245,-0.44966099929809566
1789221429164599000,8.07259912109375,1.622819812774658,9.356240812683104,-1.077540384674072
1789221429174679000,8.082678955078125,1.86433490524292,9.296086495971679,-1.8555062866210936
1789221429184758800,8.0927587890625,5.654505770874023,9.060856182861327,-2.4651298843383787
1789221429194839000,8.102839111328125,6.8864721626281735,11.378742665100097,-1.9021932189941406
1789221429204918800,8.112918701171875,1.8505682456970214,8.482357206726073,-1.0799345863342285
1789221429214998000,8.122998046875,0.6546645164489746,6.140079795074462,-1.234809506225586
1789221429225077800,8.133077880859375,4.330961165618897,12.635548899078369,-1.8255787658691405
1789221429235158000,8.143157958984375,5.963657060241699,13.162572539520262,-1.4411597618103027
1789221429245238000,8.153238037109375,6.026205578613281,8.489689449310303,-2.635417477416992
1789221429255318000,8.163318115234375,8.614187935638427,13.243376845550536,-3.0261212608337402
1789221429265398000,8.17339794921875,3.068917615509033,12.045527827453613,-2.018760912322998
1789221429275477800,8.183477783203125,1.1981482933044434,6.389675318145752,-1.680430290222168
1789221429285557000,8.193556884765625,1.0045172340393065,4.490025938415527,-1.3949217422485352
1789221429295637000,8.203636962890625,1.1757026527404784,6.804171480560302,-2.553266432952881
1789221429305717000,8.213717041015625,0.9238625656127929,9.255085792541504,-3.4132337417602536
1789221429315796700,8.223796630859376,0.5149029945373534,10.057741899108887,-3.949983826446533
1789221429325877000,8.233876953125,1.4173673828125,9.546729482269287,-3.8914755233764646
1789221429335957000,8.24395703125,1.3696329872131348,8.903587061309814,-3.2775124351501463
1789221429346037000,8.254037109375,5.143642991638183,12.732214791107177,-2.426673020172119
1789221429356116000,8.264115966796876,9.938780004119872,12.255619023132324,-1.2505214546203614
1789221429366196000,8.274196044921876,7.760056493377685,12.277765388488769,-1.542464419555664
1789221429376276000,8.28427587890625,2.5344120948791504,9.70504606704712,-1.5400702178955077
1789221429386356000,8.29435595703125,1.1936591651916504,5.332485647583008,-1.7721581413269043
1789221429396436000,8.30443603515625,0.975487538909912,4.780472527313232,-1.9223942955017088
1789221429406516000,8.314515869140624,-0.004489128112792969,5.829881042480468,-1.965041012573242
1789221429416596000,8.324595947265625,-0.18166005096435545,9.765798934173583,-2.6631004341125486
1789221429426675000,8.334675048828124,1.387290224456787,12.996624436950682,-3.0157962661743163
1789221429436755000,8.3447548828125,6.142473996734619,11.467328126525878,-2.6282348724365234
1789221429446835000,8.3548349609375,7.383418644714355,9.258677095031738,-1.980453685760498
1789221429456915000,8.3649150390625,1.652298420715332,5.730820948791504,-0.917428148651123
1789221429466995000,8.374994873046875,3.2327707916259762,7.1668930320739745,-1.2345102310180662
1789221429477075000,8.385074951171875,4.710891041564941,12.173916891479491,-1.2170026313781737
1789221429487155000,8.395155029296875,3.2161610176086426,10.46370871810913,-1.0531494552612304
1789221429497234000,8.40523388671875,5.353883824920654,11.486182464599608,-2.607285607910156
1789221429507314000,8.41531396484375,4.251353960418701,13.207763095855713,-3.0410850212097165
1789221429517394200,8.425394287109375,1.7450737350463865,8.799140013885497,-2.261473105621338
1789221429527474000,8.435473876953125,0.9609726913452148,5.038447756195068,-1.511788710784912
1789221429537554000,8.445553955078125,0.7691372833251953,7.32251613998413,-0.7383119369506835
1789221429547634000,8.455634033203125,0.5838859298706054,7.061248883819579,-0.16130933685302734
1789221429557714000,8.4657138671875,0.6271311973571777,5.681290901947021,-0.3295020034790039
1789221429567793000,8.47579296875,0.45325230178833004,5.058798470306396,-0.5895721588134766
1789221429577873000,8.485872802734375,-0.029328970336914062,6.7173816703796385,-1.0096049125671387
1789221429587953000,8.495952880859376,1.4336778816223144,13.038522966003416,-1.5966332321166992
1789221429598033000,8.506032958984376,11.924022093200684,15.975609852600098,-1.312621060180664
1789221429608113200,8.516113037109376,11.291803217315673,12.767379627990723,-0.5199906730651855
1789221429618193000,8.52619287109375,5.19018028640747,10.590601406097411,-0.5859808563232421
1789221429628272000,8.536272216796876,1.5599720191955566,7.821407910919189,-0.5674257934570313
1789221429638352000,8.546351806640626,1.0711059677124022,3.997119671630859,-0.6962637702941894
1789221429648432000,8.55643212890625,0.4896142395019531,3.9975685844421385,-0.8729857803344726
1789221429658512000,8.566511962890624,0.23612813873291014,8.428936582183837,-0.7941267631530762
1789221429668591900,8.576591796875,1.255758770751953,11.477802758789062,-0.9686042091369629
1789221429678672100,8.586672119140625,8.393622107696533,12.498780129241943,-0.5880757827758789
1789221429688751900,8.596751953125,10.179546908569336,11.844265250396727,-0.388159944152832
1789221429698830800,8.606830810546874,3.3993174446105954,8.697984993743896,-0.3381809844970703
1789221429708910800,8.616910888671875,1.4845546669006346,6.425588343048095,-0.8032546569824218
1789221429718991000,8.6269912109375,0.9036614891052246,4.74321276397705,-1.2202946586608887
1789221429729070800,8.63707080078125,0.5032312614440918,5.201702381896973,-1.723226644897461
1789221429739151000,8.647151123046875,0.8958803337097168,6.199785198974609,-1.8929156875610351
1789221429749230800,8.65723095703125,0.8936357696533203,7.241861471557617,-1.2433388496398925
1789221429759310800,8.667310791015625,6.319794557189941,13.006949431610106,-0.5856815811157227
1789221429769389800,8.677389892578125,10.307487059783934,15.458911206817627,0.4064157318115234
1789221429779470000,8.687469970703125,8.180089247131347,14.688576822662352,0.6203975051879882
1789221429789550000,8.697550048828125,3.7994483970642086,11.990012276458739,-0.33533787002563475
1789221429799629800,8.7076298828125,1.4451999771118162,6.213252583312988,-0.28206688308715816
1789221429809710000,8.7177099609375,0.5243301635742187,2.49011936416626,-0.3963900123596191
1789221429819789800,8.727789794921875,-0.75971011428833,1.931222914123535,-0.4236240562438965
1789221429829870000,8.7378701171875,-1.159990704345703,5.640439836120605,0.13198036651611328
1789221429839948800,8.74794873046875,-0.28969840087890625,11.690886706542969,0.18555062866210936
1789221429850029000,8.758029052734376,3.1338603355407715,16.43424910812378,0.1897404815673828
1789221429860108800,8.76810888671875,18.027440675354004,17.733103508758543,0.8457517364501953
1789221429870189000,8.77818896484375,4.537461058807373,10.25271969680786,0.8925883064270019
1789221429880269000,8.78826904296875,2.242020217132568,5.16474189376831,0.9739911628723144
1789221429890348800,8.798348876953124,0.2882020248413086,3.62631768951416,0.44487259597778317
1789221429900429000,8.808428955078124,0.15367781906127928,8.106317908477783,0.2332850242614746
1789221429910508000,8.818508056640624,1.6172832214355468,14.436587097930907,0.5621884773254394
1789221429920588000,8.828588134765624,4.83942974319458,12.419921112060546,1.260247898864746
1789221429930668000,8.83866796875,9.569474398040771,7.914781775665283,1.5044564682006836
1789221429940748000,8.848748046875,3.282001563262939,6.8822823097229,1.5893009895324706
1789221429950828000,8.858828125,0.9900023864746094,5.661538738250732,1.4499883804321287
1789221429960908000,8.868907958984375,0.49320554199218747,5.3208139144897455,1.129314995574951
1789221429970988000,8.878988037109375,-0.819116242980957,6.399701037597656,0.9024643882751464
1789221429981067000,8.88906689453125,-0.1728314323425293,10.915315006256103,0.7601590270996094
1789221429991147000,8.89914697265625,1.4995184272766113,14.081646701812744,0.4634276588439941
1789221430001227300,8.909227294921875,5.435735594177245,13.533374521636961,0.591218172454834
1789221430011307000,8.91930712890625,14.167688323974609,12.84489190673828,1.433827519226074
1789221430021387000,8.929386962890625,5.675155760192871,10.168623363494872,2.532766081237793
1789221430031467000,8.939467041015625,0.5184942970275879,5.741295581054687,2.6515783386230467
1789221430041547000,8.949547119140625,0.37125089492797847,3.4644098022460934,1.956212393951416
1789221430051626000,8.9596259765625,-0.24929624786376953,6.959345675659179,1.2589011604309082
1789221430061706000,8.9697060546875,0.5614402893066406,13.422044144439697,0.739957950592041
1789221430071786000,8.979785888671875,2.398990063476562,13.863475075531005,0.10564414825439453
1789221430081866000,8.989865966796875,12.746879276275633,11.26890866394043,0.565031591796875
1789221430091946200,8.9999462890625,6.881234846496581,9.37763899002075,1.8792986656188964
1789221430102026000,9.01002587890625,1.7239748329162596,6.648847647857665,2.0247464164733886
1789221430112106000,9.02010595703125,1.2297218276977537,4.402188665008545,1.218798282623291
1789221430122185000,9.03018505859375,-0.2519897247314453,3.695899175262451,0.43185412445068355
1789221430132265200,9.04026513671875,-1.108964281463623,8.164377298736571,0.06823474731445311
1789221430142345000,9.050344970703126,0.018555062866210937,13.929614896392822,-0.23687632675170897
1789221430152425000,9.060425048828124,2.0067899040222166,16.166098522186278,0.018854338073730468
1789221430162505200,9.070505126953124,12.413636332702636,12.502221794128417,1.4282909278869629
1789221430172585000,9.0805849609375,8.891915328216552,8.496572779083252,1.9843442634582518
1789221430182665200,9.090665283203125,2.6063877822875976,7.247996613311767,2.98152925491333
1789221430192744000,9.100743896484374,0.35030163040161133,6.471078174591064,2.3487118286132813
1789221430202824200,9.11082421875,-0.16744447860717773,9.122506875610352,1.3335703247070312
1789221430212904000,9.120904052734375,0.16355390090942382,12.04807166671753,0.5978022270202636
1789221430222984200,9.130984130859375,1.5860089622497557,12.051214056396484,0.3848679168701172
1789221430233064000,9.14106396484375,9.594613515472412,11.4523643661499,1.3434464065551757
1789221430243144000,9.15114404296875,5.519083739471435,6.970568495941162,1.8032827629089354
1789221430253223000,9.161222900390625,0.6605003829956054,4.786757306671142,2.4320599739074704
1789221430263303200,9.17130322265625,0.3233668617248535,3.614795594024658,1.6674118186950682
1789221430273383200,9.181383056640625,-0.900818374633789,4.416853150177002,1.233462767791748
1789221430283463000,9.191462890625,-0.4656722229003906,10.799345863342284,0.9994295555114745
1789221430293543200,9.201543212890625,1.5786767196655274,16.282666215515135,0.5680243438720702
1789221430303623000,9.211622802734375,14.515446115112304,16.717812367248534,-0.7986158912658691
1789221430313703200,9.221703125,9.229647399902344,10.64207674179077,0.9232640151977538
1789221430323782000,9.231781982421875,2.593518948364258,6.401795964050293,2.2501006477355956
1789221430333862100,9.241862060546875,1.8360533981323242,9.540145427703857,2.1734861946105957
1789221430343942000,9.25194189453125,1.2862848419189452,9.727042794799804,1.1686696853637695
1789221430354022100,9.262022216796876,0.850989052581787,9.954791227722167,0.013617021942138671
1789221430364102100,9.27210205078125,3.2411504974365233,11.377844839477538,0.05162497329711914
1789221430374182000,9.282181884765626,3.952677303314209,6.124218209075927,0.5527613082885742
1789221430384262100,9.29226220703125,1.9761141952514647,4.272003949737549,0.4975450325012207
1789221430394340900,9.3023408203125,1.1194389137268066,4.708047927093506,0.42886137237548827
1789221430404421000,9.312421142578126,0.12973580245971678,3.9118262374877926,0.24031799163818357
1789221430414500900,9.3225009765625,-0.6718728408813476,6.831555162048339,-0.5398924743652344
1789221430424581000,9.3325810546875,0.5714660087585449,15.148413179016112,-0.8840589630126953
1789221430434661000,9.3426611328125,7.746140196228027,19.83700821762085,-1.9840449882507323
1789221430444741000,9.3527412109375,14.407856678009033,16.076465597534177,-2.033425397491455
1789221430454821000,9.362821044921875,5.514893886566162,7.7120228225708,0.6842927619934082
1789221430464900000,9.372900146484374,0.7772177139282226,5.392340689086914,1.1366472381591797
1789221430474980000,9.38297998046875,0.36152445068359373,6.795043586730957,1.1730091758728027
1789221430485060000,9.39306005859375,0.22340894241333006,10.34923595123291,0.23867197799682616
1789221430495140000,9.40314013671875,0.9021651130676269,11.269357576751709,-0.7638999671936034
1789221430505219800,9.4132197265625,2.3699603683471677,10.536731868743896,-0.8586205703735351
1789221430515300000,9.423300048828125,3.1507693847656246,7.828141603088379,-0.2950853546142578
1789221430525380000,9.433380126953125,2.7023054862976075,6.381145974731445,0.26261399459838863
1789221430535459000,9.443458984375,1.1945569908142089,5.171774861145019,0.6287772109985351
1789221430545539000,9.4535390625,-0.22161329116821288,4.248510845947266,0.3344400444030762
1789221430555619000,9.463619140625,-0.36960488128662106,10.247482380676269,-0.28790274963378903
1789221430565699000,9.473698974609375,1.3793594314575195,16.799514498901367,-0.9268553176879882
1789221430575779000,9.483779052734375,14.286500581359862,17.616835090637206,-1.0583867713928221
1789221430585859000,9.493859130859375,8.40170253829956,10.150816488647461,0.8156745780944824
1789221430595939000,9.50393896484375,2.0458453186035155,6.279542041778564,2.7908909477233883
1789221430606018000,9.51401806640625,1.04057989654541,6.863727246856689,3.708618371582031
1789221430616098000,9.52409814453125,0.41464580001831053,6.1456163864135736,3.049764002227783
1789221430626178000,9.534177978515626,0.4074631950378418,9.750984811401366,2.029534819793701
1789221430636258000,9.544258056640626,2.301725621032715,13.128604803466796,0.9705494979858398
1789221430646338000,9.554338134765626,2.742707639312744,6.934056920623779,0.051774610900878905
1789221430656418000,9.56441796875,1.9316718269348143,3.538330778503418,0.3598784370422363
1789221430666498000,9.574498046875,1.193359889984131,6.049698682403564,0.6272808349609375
1789221430676577000,9.584576904296876,2.3573908096313474,11.54917989578247,0.9584288520812988
1789221430686657000,9.594656982421874,6.132298639678955,13.174094635009764,1.3328221366882322
1789221430696737000,9.604737060546874,11.259780770111083,13.47651223220825,1.9490297889709471
1789221430706817000,9.614817138671874,7.0175547035217285,12.785336140441894,3.2118215270996093
1789221430716897000,9.62489697265625,2.7705402336120604,7.649474304199218,3.4205659843444822
1789221430726977000,9.63497705078125,1.9310732765197753,4.39246222076416,2.9830256309509275
1789221430737057000,9.64505712890625,0.7359177352905273,4.663755196380615,2.5758617111206052
1789221430747136000,9.655135986328125,-0.060303954315185544,8.582464763641356,2.0521300979614256
1789221430757216000,9.665216064453125,0.7936778503417968,11.528080993652344,0.9603741409301757
1789221430767296000,9.6752958984375,2.4052748428344723,11.23015252456665,0.5452794281005859
1789221430777376000,9.6853759765625,9.190741622924804,8.62556039352417,1.5466542724609373
1789221430787456000,9.6954560546875,5.2831052383422845,7.809287265014648,3.066822689056396
1789221430797536300,9.705536376953125,1.9728221679687499,8.94398921432495,4.153341329956055
1789221430807616000,9.715615966796875,1.151162085723877,8.522011171722411,3.2652421516418455
1789221430817695200,9.7256953125,7.268646602630615,10.17655415649414,1.0996867500305174
1789221430827775000,9.73577490234375,8.717886795043945,9.938780004119872,1.2861352043151855
1789221430837855000,9.74585498046875,1.7640777107238768,7.213579964447021,2.2239140670776365
1789221430847935000,9.75593505859375,1.4544775085449217,6.791302646636963,1.785625525665283
1789221430858015000,9.766014892578125,1.4712369201660156,7.2809168861389155,1.6205752487182616
1789221430868095200,9.77609521484375,0.32187048568725585,5.633257231140137,1.6946458625793457
1789221430878175000,9.786175048828126,1.0479121391296387,10.576535471343993,1.7369933044433592
1789221430888254000,9.79625390625,6.970269220733642,13.919140264129638,1.1831845329284667
1789221430898334000,9.806333984375,12.287641470336913,12.684031482696533,1.3359645263671873
1789221430908414200,9.816414306640626,5.044882173156738,9.776273566436767,2.1824644508361817
1789221430918494500,9.826494384765626,1.3352163383483886,6.810007347106933,2.0485387954711913
1789221430928574200,9.83657421875,1.2892775939941405,7.27807377166748,1.4624083015441893
1789221430938654500,9.846654541015624,0.8566752815246581,8.940248274230957,0.9329904594421387
1789221430948734500,9.856734375,2.750937707519531,9.737068514251709,0.371550170135498
1789221430958813400,9.8668134765625,6.655132427215576,8.124723333740233,0.3624222763061523
1789221430968893400,9.8768935546875,2.9357401481628416,9.667487028503418,1.6210241615295409
1789221430978973400,9.886973388671874,3.3545758010864257,10.49573116531372,1.6524480583190917
1789221430989053400,9.897053466796875,1.8819921424865722,6.421248852539062,1.4932336479187012
1789221430999133400,9.907133544921875,0.6048351943969726,5.32410594177246,0.806995597076416
1789221431009213400,9.91721337890625,1.5370774658203123,11.374403174591064,0.21742343826293944
1789221431019293200,9.927293212890625,3.388693174743652,12.87018066177368,-0.09606734161376952
1789221431029372400,9.937372314453125,8.798691101074219,10.942100137329101,-0.2952349922180176
1789221431039452400,9.947452392578125,4.857984806060791,8.285284482574463,0.678007982635498
1789221431049532400,9.957532470703125,1.37906015625,5.891232460021972,0.4686649749755859
1789221431059612400,9.9676123046875,2.463633508300781,8.997709114074706,-0.28490999755859375
1789221431069692400,9.9776923828125,1.9053356086730955,9.143605777740477,-0.5358522590637207
1789221431079772400,9.9877724609375,8.584559690093993,12.09820026397705,-0.9789292037963867
1789221431089852400,9.997852294921875,6.3715691680908195,11.81762975692749,-0.5714660087585449
1789221431099931400,10.007931396484375,2.051681185150146,8.402899639129638,-0.7676409072875976
1789221431110011400,10.018011474609375,2.038662713623047,8.8236805809021,-1.605611488342285
1789221431120091400,10.02809130859375,1.0161889671325683,6.2027779510498045,-1.1623849060058593
1789221431130171600,10.038171630859376,0.4198831161499023,7.517344300079345,-2.048688433074951
1789221431140251400,10.04825146484375,1.8659809188842773,12.406304090118407,-2.749740606689453
1789221431150331400,10.058331298828126,3.194164289855957,11.968464461517334,-2.8217162940979
1789221431160411400,10.068411376953126,9.76190835647583,11.063007321166992,-2.226308268737793
1789221431170490600,10.07849072265625,4.9628807662963865,8.518719144439697,-0.8762778076171874
1789221431180570400,10.0885703125,0.6540659660339355,6.382941625976562,-1.1257236930847168
1789221431190650400,10.098650390625,1.1228805786132812,9.03392141418457,-1.7120038246154785
1789221431200730400,10.10873046875,1.626710390472412,11.588384947967528,-1.257105509185791
1789221431210810400,10.118810302734374,8.74003316040039,10.656292314147949,-0.42661680831909177
1789221431220890600,10.128890625,5.9479451118469235,9.990853890228271,-0.13991115951538086
1789221431230970400,10.138970458984375,1.3389572784423827,9.031078299713133,-0.6950666694641113
1789221431241049600,10.149049560546874,2.005143890380859,8.182932361602782,-1.2346598686218262
1789221431251129300,10.15912939453125,0.9663596450805664,5.67560467300415,-0.7019499992370605
1789221431261209600,10.169209716796875,0.20605098037719724,8.056039673614501,-0.02663549346923828
1789221431271289300,10.179289306640625,0.8370727554321289,11.90097790222168,0.6777087074279785
1789221431281369300,10.189369384765625,5.07525860671997,12.062736151885986,0.2929904281616211
1789221431291449300,10.199449462890625,8.127716085815429,9.438391857147217,-0.5689221694946289
1789221431301529300,10.209529296875,1.5432126075744628,5.361216067504882,-0.232387198638916
1789221431311608300,10.2196083984375,1.4332289688110351,6.479008967590332,-1.7589900321960448
1789221431321688300,10.229688232421875,1.1124059463500975,8.6689552986145,-2.018910549926758
1789221431331768600,10.2397685546875,1.3124714225769043,10.485705445861816,-1.0257657737731933
1789221431341848300,10.249848388671875,9.150938020324707,12.366650125122069,0.0028431144714355467
1789221431351928600,10.259928466796875,6.723516812133789,9.89598364944458,0.117465518951416
1789221431362008300,10.27000830078125,2.49640414352417,9.464728075408935,-0.25782559127807614
1789221431372088300,10.28008837890625,1.4655506912231444,6.3426891105651855,-0.029927520751953124
1789221431382167300,10.290167236328125,-0.11596914291381835,5.167734645843505,0.2684498611450195
1789221431392247600,10.30024755859375,1.3093290328979492,11.977741992950438,0.702847824859619
1789221431402327600,10.31032763671875,3.3535283378601073,13.081917871093749,0.9115922821044922
1789221431412407300,10.3204072265625,9.72285294189453,10.640730003356932,-0.40626609420776366
1789221431422487600,10.330487548828126,4.828057285308837,8.180388522338866,0.4740519287109375
1789221431432567300,10.3405673828125,0.7263409286499023,6.177638833618164,0.2768295669555664
1789221431442647600,10.3506474609375,1.0416273597717285,8.122329132080077,0.010175357055664061
1789221431452726300,10.360726318359376,0.7794622779846191,10.258106650543212,0.969801309967041
1789221431462806500,10.370806640625,8.036437147521973,11.327267329406737,1.6738462356567383
1789221431472886300,10.38088623046875,7.427861013031006,9.843760125732421,1.7706617652893066
1789221431482966500,10.390966552734374,1.7881693649291992,8.780435313415527,1.846976943206787
1789221431493046500,10.401046630859375,1.7949030570983886,7.858218761444092,1.5809212837219238
1789221431503126300,10.411126220703125,1.0172364303588866,5.504868167114258,1.291671795654297
1789221431513206500,10.42120654296875,0.7870937957763672,8.29291600036621,1.1969511924743652
1789221431523285500,10.431285400390625,1.8299182563781737,11.568034233856201,1.1273697067260742
1789221431533365500,10.441365478515625,6.775291423034668,11.431265464019775,0.4632780212402344
1789221431543445200,10.4514453125,7.096264083099364,9.83747534637451,1.099387474822998
1789221431553525500,10.461525390625,1.5701473762512206,6.3886278549194335,1.617133583831787
1789221431563605200,10.471605224609375,1.5550339782714844,8.3762641456604,0.8755296195983886
1789221431573685500,10.481685546875,1.7483657623291016,9.862015913391113,0.44891281127929683
1789221431583765500,10.491765625,2.6515783386230467,9.101108698272705,0.32890345306396485
1789221431593844500,10.501844482421875,7.8362220336914055,10.604966616058348,0.7088333290100097
1789221431603924500,10.511924560546875,5.31797080001831,10.13151323776245,1.4586673614501953
1789221431614004500,10.52200439453125,2.7647043670654297,8.813355586242675,1.314566349029541
1789221431624084500,10.53208447265625,0.9973346290588379,5.679195975494385,1.0099041877746582
1789221431634164200,10.542164306640625,1.1139023223876952,8.26164174118042,0.46806642456054687
1789221431644244500,10.552244384765626,4.834042789459228,12.067524555206298,0.7439981658935546
1789221431654324500,10.562324462890626,9.520692539215087,11.094880130767821,0.8111854499816894
1789221431664403500,10.572403564453126,5.4418707359313965,11.916240937805176,1.5921441040039062
1789221431674483500,10.5824833984375,1.571793389892578,6.645405982971191,1.8222867385864256
1789221431684563500,10.5925634765625,1.707813971710205,6.674136402893066,1.0613795234680174
1789221431694643500,10.6026435546875,1.4459481651306152,8.531438340759276,0.866401725769043
1789221431704723500,10.612723388671874,4.986822782897949,9.529371520233154,0.7254431030273437
1789221431714803500,10.622803466796874,8.54879630279541,11.618611743927001,1.082777700805664
1789221431724883200,10.63288330078125,2.8184242668151853,7.87198542098999,1.23855044631958
1789221431734962400,10.64296240234375,2.6158149513244626,8.235006247711182,0.3302501914978027
1789221431745042400,10.65304248046875,1.857152300262451,7.933636113739013,0.4860229370117187
1789221431755122400,10.663122314453124,0.4321533996582031,4.25195251083374,0.7128735443115234
1789221431765202400,10.673202392578125,0.9371803123474121,8.891616053009033,0.5493196434020996
1789221431775282400,10.683282470703125,4.358195209503173,13.86018304824829,0.39160160903930663
1789221431785362400,10.693362548828125,11.531522658538817,13.428927474212646,0.244507844543457
1789221431795442400,10.7034423828125,6.884227598571777,11.726201181030273,1.3154641746520996
1789221431805521400,10.713521484375,1.8836381561279296,8.326734098815917,0.9136872085571288
1789221431815601400,10.723601318359375,1.3383587280273437,7.267748777008056,0.12913725204467771
1789221431825681400,10.733681396484375,0.6416460449218749,7.89772308883667,-0.3673603172302246
1789221431835761400,10.743761474609375,1.4740800346374512,8.150909914398193,-0.5720645591735839
1789221431845841400,10.75384130859375,2.7358243095397947,6.4463879699707025,-0.3869628433227539
1789221431855921400,10.76392138671875,5.567416685485839,8.56765064086914,-0.4478653480529785
1789221431866001400,10.77400146484375,4.652233100891113,11.652280204772948,0.06389525680541992
1789221431876080600,10.78408056640625,1.3313257606506348,6.432322035217285,0.42317514343261714
1789221431886160400,10.794160400390625,1.7292121490478514,8.243984503936767,-0.18659809188842771
1789221431896240400,10.804240478515625,5.785139398956298,13.032537461853027,-0.2079962692260742
1789221431906320400,10.8143203125,4.9908629981994626,9.980528895568847,0.2041056915283203
1789221431916400400,10.824400390625,5.514444973754882,10.436923587036132,0.3151367935180664
1789221431926480100,10.834480224609376,1.725620846557617,6.611587884521484,0.4709095390319824
1789221431936560000,10.84456005859375,0.9615712417602539,4.893598555755615,-0.2603694305419922
1789221431946639000,10.85463916015625,1.1140519599914551,9.707739543914794,-0.4961982940673828
1789221431956719000,10.864718994140626,1.6472107421875,10.959607736968994,-0.24166473007202147
1789221431966799400,10.87479931640625,11.295394519805907,14.049474617004394,-0.31693244476318355
1789221431976879000,10.884879150390624,7.7419503433227534,12.501024693298339,1.0172364303588866
1789221431986959000,10.894958984375,2.075623201751709,7.758260842132568,0.8391676818847655
1789221431997039000,10.9050390625,1.585859324645996,6.804021842956542,0.5367500846862793
1789221432007119000,10.915119140625,0.12075754623413085,4.6444519454956055,0.3479074287414551
1789221432017198000,10.925197998046874,-0.4553472282409668,7.877073099517822,0.10040683212280273
1789221432027278000,10.935278076171874,1.2553098579406738,12.917166869354247,-0.09816226806640624
1789221432037358300,10.9453583984375,3.5830724220275876,12.280608502960204,-0.39055414581298825
1789221432047438000,10.95543798828125,9.867702142333984,9.8702459815979,-0.5416881256103515
1789221432057518300,10.965518310546875,1.5282488471984863,5.463418550872802,0.5319616813659668
1789221432067598000,10.97559814453125,0.7866448829650878,4.165611613464355,0.3408744613647461
1789221432077678000,10.985677978515625,0.9629179801940917,8.888024750518799,0.3119944038391113
1789221432087757000,10.995757080078125,1.30873048248291,12.739397396087647,0.7474398307800293
1789221432097837300,11.00583740234375,11.548730982971191,15.17474939727783,1.2605471740722656
1789221432107917000,11.0159169921875,8.706813612365723,11.748796459197997,1.6958429634094236
1789221432117997000,11.0259970703125,2.5796026512145995,9.996540119171142,1.4074913009643555
1789221432128077300,11.036077392578125,1.250072541809082,7.032668101501464,0.6389525680541992
1789221432138157000,11.046156982421875,0.8010100929260253,5.060743759155273,-0.3826233528137207
1789221432148237300,11.0562373046875,0.4950011932373047,6.98478406829834,-1.0685621284484863
1789221432158316000,11.06631591796875,1.568052449798584,11.975796704101562,-0.9787795661926268
1789221432168396300,11.076396240234375,3.3358711006164548,9.539696514892578,0.1135749412536621
1789221432178476000,11.08647607421875,2.971204260253906,4.0720881111145015,1.0148422286987304
1789221432188556300,11.096556396484376,1.6181810470581053,3.469946393585205,0.7610568527221679
1789221432198636000,11.106635986328126,3.8795045150756833,11.060463481903076,0.7094318794250488
1789221432208716000,11.116716064453126,7.693767034912109,15.550489420318602,0.4423287567138672
1789221432218796300,11.12679638671875,11.86865617980957,15.53926660003662,-0.29882629470825195
1789221432228875300,11.136875244140626,8.400505437469482,16.843358316802977,0.9319429962158202
1789221432238955300,11.146955322265624,2.001702225494385,10.837204177093506,0.9753379013061523
1789221432249035000,11.157034912109374,1.2713210815429687,4.9163434715270995,0.24031799163818357
1789221432259115300,11.167115234375,0.5885246955871581,4.014477633666992,-0.3547907585144043
1789221432269195000,11.177195068359374,-0.3871124809265136,4.544942938995361,-0.563086302947998
1789221432279275300,11.187275146484374,-0.5117606048583984,7.474248670196533,-0.48662148742675776
1789221432289355300,11.197355224609375,0.7321767951965331,9.909899946594237,0.5539584091186524
1789221432299434200,11.207434326171875,1.341950030517578,6.492326714324951,1.4457985275268554
1789221432309514200,11.21751416015625,1.8240823898315428,7.373243287658691,1.3410522048950195
1789221432319594200,11.22759423828125,3.734056764221191,11.94497135772705,0.27952304382324217
1789221432329674200,11.23767431640625,10.186430238342284,11.296890895843505,-0.8571241943359375
1789221432339754000,11.24775390625,8.64381618118286,12.67939271697998,0.15936404800415038
1789221432349834200,11.257834228515625,3.950582376861572,11.589582048797606,0.7564180870056152
1789221432359914000,11.2679140625,2.3982418754577637,7.743596356964111,0.05057751007080078
1789221432369994200,11.277994140625,1.845779842376709,7.85283180770874,-0.1393126091003418
1789221432380073000,11.288072998046875,1.4867992309570313,8.498069155120849,0.2876034744262695
1789221432390153200,11.2981533203125,3.9272389106750487,9.891793796539305,0.8725368675231933
1789221432400233200,11.308233154296875,4.795436287689209,8.872612077331542,1.3845967475891112
1789221432410313200,11.318313232421875,4.029890306854248,9.724349317932129,0.7519289588928222
1789221432420393200,11.328393310546875,2.9363386985778805,7.20190823135376,0.45280338897705075
1789221432430473200,11.33847314453125,1.1035773277282714,3.955071504974365,0.3203741096496582
1789221432440553200,11.34855322265625,0.6254851837158203,6.299892755889892,0.07646481552124022
1789221432450632200,11.358632080078126,0.9207201759338378,10.641927104187012,0.39279870986938475
1789221432460712200,11.368712158203126,5.746233621978759,12.140248430633545,0.23089082260131835
1789221432470792000,11.3787919921875,11.768997535705566,13.995305804443358,0.6441898841857909
1789221432480872200,11.3888720703125,4.520701647186279,10.98788924407959,1.3332710494995117
1789221432490952200,11.3989521484375,2.2149358108520505,7.742698531341552,0.5828384666442871
1789221432501032200,11.4090322265625,1.790713204193115,7.839663698577881,-0.11387421646118163
1789221432511112200,11.4191123046875,3.033303865814209,9.977536143493651,-0.003591302490234375
1789221432521191200,11.429191162109374,4.545092576599121,9.235333628845215,1.195754091644287
1789221432531271200,11.439271240234374,5.576843854522704,9.631274728393555,1.8601450523376464
1789221432541351200,11.44935107421875,2.766200743103027,7.866598467254638,1.2415431983947753
1789221432551431200,11.45943115234375,1.2081740127563476,4.187309066009521,0.7312789695739745
1789221432561511200,11.46951123046875,-0.17597382202148437,3.0780455093383785,0.2985270195007324
1789221432571591200,11.479591064453125,0.028431144714355466,8.219892849731444,0.4487631736755371
1789221432581671200,11.489671142578125,0.45010991210937495,11.296741258239745,0.17238251953125
1789221432591750100,11.499750244140625,10.439467426300048,14.413692544555664,-0.21877017669677734
1789221432601830100,11.509830078125,12.055553546905516,15.19510011138916,0.8583212951660156
1789221432611910100,11.51991015625,4.496759630584717,12.072312958526611,1.5548843406677244
1789221432621990100,11.529990234375,2.812738037872314,9.922918418121338,1.068113215637207
1789221432632070100,11.540070068359375,1.7206828056335448,6.942885539245605,0.6028899055480956
1789221432642150100,11.550150146484375,2.166303589630127,6.309469562530517,0.15173253021240232
1789221432652230100,11.560230224609375,3.0328549530029294,9.634866030883789,1.0896610305786132
1789221432662309000,11.57030908203125,1.139639990234375,6.2110080192565915,1.6307506057739256
1789221432672389400,11.580389404296875,0.7879916213989258,4.818929391479492,1.6154875701904297
1789221432682469000,11.59046923828125,0.3416226493835449,3.8610990898132322,1.1709142494201659
1789221432692549000,11.600549072265625,0.5243301635742187,7.188291209411621,0.4791396072387695
1789221432702629000,11.610629150390626,7.8438535514831536,15.937152988433837,0.24181436767578124
1789221432712709000,11.620709228515626,12.28405016784668,19.080889405822752,0.6584054565429687
1789221432722789400,11.630789306640626,6.932560544586181,14.55554899291992,2.3406313980102538
1789221432732868000,11.6408681640625,3.2323218788146972,8.256254787445068,2.87917713394165
1789221432742948000,11.650947998046876,1.8761562759399413,6.10341858215332,2.3479636405944824
1789221432753028000,11.661028076171876,1.2918214332580567,6.507739387512206,1.5119383483886717
1789221432763108400,11.6711083984375,1.0582371337890624,7.771877864074707,0.7630021415710448
1789221432773188000,11.68118798828125,0.47629649276733393,7.960421244812011,0.5446808776855468
1789221432783268000,11.69126806640625,2.7451018409729,9.411157813262939,1.0139444030761717
1789221432793348000,11.70134814453125,4.5968671875,6.7742439598083495,1.705868682861328
1789221432803427300,11.71142724609375,1.219995383453369,5.66946953125,1.0109516510009764
1789221432813507000,11.721507080078124,1.6262614776611328,10.92309616165161,0.6260837341308594
1789221432823587000,11.731587158203125,5.6851814796447755,11.97669452972412,0.8047510330200195
1789221432833667300,11.741667236328125,9.038260904693603,12.574496756744384,1.4757260482788086
1789221432843747000,11.7517470703125,3.9408559326171875,10.620229651641845,2.1199159324645995
1789221432853827300,11.761827392578125,2.2786814300537106,7.25906979598999,1.2101193016052245
1789221432863907000,11.771906982421875,1.951723265838623,7.493551921081543,0.45504795303344725
1789221432873987000,11.781987060546875,0.745045629119873,4.9540521476745605,0.4752490295410156
1789221432884066000,11.792066162109375,0.12105682144165038,6.520757859039306,-0.08230068206787108
1789221432894146300,11.802146240234375,1.2381015335083008,12.42396132736206,-0.21682488784790038
1789221432904226000,11.81222607421875,5.735758989715576,13.152397182464599,-0.07691372833251953
1789221432914306000,11.82230615234375,11.431115826416015,11.546037506103515,0.5876268699645996
1789221432924385800,11.8323857421875,4.002506625366211,10.032752419281005,1.4047978240966796
1789221432934465500,11.842465576171875,1.7727566917419433,9.143456140136719,0.7890390846252441
1789221432944545800,11.8525458984375,1.5173253021240234,7.856572747802734,0.12464812393188476
1789221432954624800,11.862624755859375,1.2674305038452147,8.020575561523437,-0.5921159980773926
1789221432964704800,11.872704833984375,2.8104934738159177,7.675810522460937,-0.7640496047973633
1789221432974784500,11.882784423828125,5.206640422821045,8.04975489425659,-0.19647417373657225
1789221432984864800,11.89286474609375,2.372354570007324,9.22485899658203,0.4709095390319824
1789221432994944500,11.902944580078126,1.2898761444091795,8.825476232147217,0.548421817779541
1789221433005024800,11.913024658203126,6.737283471679687,12.785036865234375,-0.05820902786254883
1789221433015104800,11.923104736328124,3.8729204605102536,10.901548346710204,0.25752631607055665
1789221433025183700,11.933183837890626,6.449829634857178,10.768520516967772,-0.8514379653930664
1789221433035263700,11.943263671875,4.035875811004638,9.266607888031006,-0.17043723068237304
1789221433045343700,11.95334375,1.221342121887207,5.754762965393066,-0.15906477279663084
1789221433055423700,11.963423828125,1.186775835418701,8.106317908477783,-0.611568886566162
1789221433065503500,11.97350341796875,1.6852186935424804,11.938985853576659,-0.2876034744262695
1789221433075583700,11.983583740234375,7.2438067604064935,10.192415742492676,0.01705868682861328
1789221433085663500,11.99366357421875,5.340266802978515,9.316437210083008,0.25797522888183594
1789221433095742700,12.00374267578125,1.5955857688903807,8.674491889953613,-0.24495675735473632
1789221433105822500,12.013822509765625,1.681028840637207,7.83951406097412,-0.7237970893859863
1789221433115902700,12.02390283203125,1.2099696640014648,6.603208178710937,-0.3055599868774414
1789221433125982700,12.033982666015625,0.7682394577026367,7.509263869476318,-0.16953940505981444
1789221433136062700,12.044062744140625,1.608903515625,10.73156002883911,-0.32097266006469727
1789221433146142700,12.054142822265625,8.000973035430908,12.137554953765868,-0.9591770401000976
1789221433156222500,12.064222412109375,5.899911441040039,10.796951661682128,0.04369418029785156
1789221433166301700,12.0743017578125,1.6569371864318847,8.689754925537109,-0.018854338073730468
1789221433176381700,12.084381591796875,2.71337866897583,9.053523940277099,-0.5606921012878417
1789221433186461700,12.094461669921875,1.591695191192627,7.124096677398681,0.06823474731445311
1789221433196541700,12.104541748046875,1.753752716064453,8.147168974304199,0.05970540390014648
1789221433206621700,12.11462158203125,5.134215822601318,9.00204860458374,-0.282815071105957
1789221433216701700,12.12470166015625,4.555567208862304,7.970596601867675,-0.706738402557373
1789221433226781700,12.13478173828125,1.9297265380859374,8.240692476654052,-0.6392518432617187
1789221433236860700,12.144860595703125,2.1429601234436033,9.596858079528808,-0.8262988479614257
1789221433246940700,12.154940673828126,6.214000771331786,12.509853311920166,-0.842758984375
1789221433257020700,12.165020751953126,6.643460694122314,10.652850649261474,-0.4421791191101074
1789221433267100700,12.1751005859375,7.37354256286621,13.130400454711912,-0.7113771682739257
1789221433277180700,12.1851806640625,2.4730606773376462,8.283339193725585,-0.26740239791870113
1789221433287260700,12.1952607421875,1.3907318893432616,4.677521855926513,-0.8508394149780273
1789221433297340700,12.205340576171874,1.8077718910217284,8.124424058532714,-0.7727285858154297
1789221433307420700,12.215420654296874,1.013196215057373,8.518120594024658,0.29224224014282224
1789221433317499600,12.225499755859374,6.370222429656982,9.976488680267334,0.7158662963867187
1789221433327579600,12.23557958984375,6.191704768371582,8.765321915435791,0.20904373245239258
1789221433337659600,12.24565966796875,2.685396437072754,8.990227233886719,-0.4885667762756347
1789221433347739600,12.25573974609375,1.750011775970459,8.175749756622315,-0.5615899269104003
1789221433357819600,12.265819580078125,2.6439468208312986,8.294113101196288,-0.08738836059570312
1789221433367899600,12.275899658203125,6.085013156890869,11.177330450439452,0.587926145172119
1789221433377979600,12.285979736328125,5.853972696685791,10.825233168792725,0.8514379653930664
1789221433388058600,12.29605859375,5.579686968994141,11.84890401611328,0.7634510543823242
1789221433398139000,12.306138916015625,1.7712603157043456,7.195623451995849,0.884208600616455
1789221433408218600,12.316218505859375,1.2578536972045897,6.1741971687316894,0.4852747489929199
1789221433418298600,12.326298583984375,1.4516343940734862,9.211690887451171,0.6522703147888184
1789221433428378600,12.336378662109375,1.9850924514770507,8.926331977081299,0.9108440940856933
1789221433438458600,12.346458740234375,6.542604949188232,9.585635259246825,0.8854057014465332
1789221433448539000,12.356538818359375,4.240729690551758,9.23847601852417,0.9937433265686034
1789221433458617600,12.36661767578125,3.432237717437744,9.440037870788574,0.6943184814453125
1789221433468697900,12.37669775390625,1.2922703460693359,5.913827738189697,1.0471639511108397
1789221433478777600,12.386777587890625,0.2237082176208496,5.57370146484375,1.031003089904785
1789221433488857900,12.39685791015625,1.2137106040954588,10.874463940429687,1.2451345008850097
1789221433498937600,12.4069375,4.3257238494873045,12.081291214752197,0.8831611373901367
1789221433509017600,12.417017578125,10.238803399658202,12.527510549163818,0.5939116493225097
1789221433519097600,12.42709765625,3.812167593383789,8.928726178741455,1.624166551208496
1789221433529176800,12.4371767578125,2.1110873138427735,6.937348947906494,0.7478887435913085
1789221433539256600,12.447256591796876,2.8067525337219235,10.541071359252928,-0.18180968856811522
1789221433549336600,12.457336669921874,3.2486323776245114,9.44198315963745,-0.6139630882263183
1789221433559416800,12.467416748046874,9.373748412322998,12.938265771484375,-0.19003975677490234
1789221433569496600,12.47749658203125,3.5708021385192867,9.409511799621582,0.9168295982360839
1789221433579576800,12.487576904296875,1.0199299072265624,5.18389550704956,0.5283703788757323
1789221433589656600,12.497656494140625,1.4712369201660156,9.501987838745116,-0.010474632263183592
1789221433599735800,12.50773583984375,0.9720458740234375,9.2443118850708,-0.058957215881347655
1789221433609815600,12.517815673828125,7.00348876876831,10.360458771514892,0.18959084396362302
1789221433619895800,12.527895751953125,4.929661218261718,10.266336718749999,0.8005611801147461
1789221433629975600,12.5379755859375,1.9707272415161132,7.274931381988525,0.24959552307128904
1789221433640055600,12.5480556640625,2.204461178588867,8.310273962402343,-0.6952163070678711
1789221433650135800,12.5581357421875,1.0862193656921386,5.389198299407958,-0.48183308410644526
1789221433660215600,12.568215576171875,0.38247371520996093,6.3447840370178215,-0.5618892021179199
1789221433670294800,12.578294677734375,1.4366706336975097,12.131719087219238,-0.42931028518676756
1789221433680374500,12.58837451171875,5.808482865142822,11.595268277740479,-0.2292448089599609
1789221433690454800,12.598454833984375,10.742333936309814,11.35150862121582,0.12389993591308593
1789221433700534500,12.608534423828125,3.488351818847656,9.488370816802979,0.5196913978576659
1789221433710614800,12.61861474609375,0.8649053497314453,5.818209309387207,0.05776011505126953
1789221433720694800,12.62869482421875,-0.022744915771484374,4.955099610900879,-0.49111061553955077
1789221433730774500,12.6387744140625,-0.47973815765380856,9.758915604400634,-0.3612251754760742
1789221433740854800,12.648854736328126,0.6676829879760742,11.824513086700438,0.09786299285888671
1789221433750933800,12.658933837890626,7.638999671936035,10.568455040740966,-0.1714846939086914
1789221433761013800,12.669013671875,9.158569538116454,10.479420666503906,-0.19692308654785154
1789221433771093500,12.679093505859376,0.9789292037963867,6.525546262359619,0.7426514274597168
1789221433781173800,12.689173828125,2.1868039413452145,9.551667523193359,-0.022146365356445312
1789221433791253500,12.69925341796875,4.475810366058349,13.62405490951538,0.4429273071289062
1789221433801333800,12.709333740234374,8.28648158340454,11.169549295043945,0.7758709754943848
1789221433811413800,12.719413818359374,7.429357389068603,11.146205828857422,0.9789292037963867
1789221433821492700,12.72949267578125,1.7045219444274902,7.980173408508301,1.1559504890441894
1789221433831572700,12.73957275390625,0.28535891036987304,5.8171618461608885,1.0058639724731444
1789221433841652700,12.74965283203125,-0.289848038482666,9.195978939056396,1.6250643768310546
1789221433851732700,12.759732666015625,0.8424597091674804,12.552200753784179,2.5055320373535155
1789221433861812500,12.7698125,7.199962942504882,10.135254177856444,2.788646383666992
1789221433871892700,12.779892822265625,7.776965542602539,7.597699693298339,2.0108301193237303
1789221433881972500,12.789972412109375,2.45779764175415,7.515847924041748,1.7055694076538086
1789221433892051700,12.8000517578125,0.7003039855957031,5.209034624481201,1.3971663063049315
1789221433902131500,12.81013134765625,-0.6311714126586914,6.095487789154053,1.185578734588623
1789221433912211700,12.820211669921875,0.2959831802368164,12.413636332702636,1.5867571502685547
1789221433922292200,12.830292236328125,5.6872764060974115,14.110227484130858,1.712901650238037
1789221433932372200,12.840372314453125,14.99024623184204,12.71156480178833,1.8338088340759275
1789221433942452500,12.850452392578125,5.153668711090088,12.130671623992919,2.927210804748535
1789221433952532200,12.8605322265625,0.38097733917236326,8.181735260772705,2.8389246185302732
1789221433962611500,12.870611572265625,1.0326491035461425,6.070947222137451,1.6373346603393553
1789221433972691200,12.880691162109375,0.5346551582336425,8.214206620788573,0.6738181297302246
1789221433982771500,12.890771484375,0.8047510330200195,6.0327896331787105,0.10669161148071288
1789221433992851200,12.900851318359376,1.1513117233276366,3.6942531616210936,-0.30092122116088865
1789221434002931500,12.910931396484376,1.6106991668701172,6.5385647338867185,-0.6818985603332519
1789221434013011200,12.92101123046875,2.1888988677978514,10.223839639282225,-0.3064578125
1789221434023091200,12.93109130859375,9.230844500732422,13.08116968307495,0.7408557762145995
1789221434033170200,12.941170166015626,8.215553359222412,13.59816760406494,1.5586252807617187
1789221434043250400,12.95125048828125,7.071873153686523,11.723806979370117,0.5322609565734863
1789221434053330400,12.961330322265624,4.451120161437988,10.63609123764038,0.7294833183288574
1789221434063410200,12.97141015625,1.2735656455993651,6.232855109405517,0.6944681190490722
1789221434073490400,12.981490478515624,0.20515315475463866,5.433790305328369,-0.16415245132446288
1789221434083570200,12.991570068359374,1.0657190139770507,10.947038178253173,-0.010175357055664061
1789221434093650400,13.001650390625,0.9195230751037597,8.173654830169678,-0.09053075027465819
1789221434103729200,13.011729248046874,2.2375310890197753,6.585700579071045,-0.3372831588745117
