time,seconds_elapsed,z,y,x
1790587946014904800,0.05490478515625,4.0373572817340495,8.882344951316714,-0.9869508899495005
1790587946024984800,0.06498486328125,4.038890190389752,8.882726059588789,-0.9772032567866146
1790587946035064800,0.07506494140625,4.04110465156883,8.882284745562076,-0.9720537650689483
1790587946045144800,0.085144775390625,4.044842669053375,8.880942098781466,-0.9687617377862334
1790587946055224800,0.095224853515625,4.050330160553753,8.878928420871496,-0.9642830580022186
1790587946065304800,0.105304931640625,4.056505049796402,8.876921172702312,-0.9567696866974233
1790587946075384800,0.115384765625,4.061450981765986,8.875729332569241,-0.9467967934112995
1790587946085463800,0.1254638671875,4.063794622282684,8.875760896751284,-0.9363834628812968
1790587946095544800,0.135544921875,4.061886450573802,8.877567653912305,-0.9274893047425895
1790587946105624800,0.145624755859375,4.056072795858979,8.880455192047357,-0.9252965439386666
1790587946115703800,0.155703857421875,4.0481101464167235,8.883607518598437,-0.929889497752115
1790587946125784800,0.165784912109375,4.041892587076127,8.885461622032523,-0.939183834189549
1790587946135863800,0.17586376953125,4.039963080318272,8.88544759350717,-0.9475827561572193
1790587946145943800,0.18594384765625,4.042616517436504,8.884113130033017,-0.948781756683439
1790587946156023800,0.19602392578125,4.0494682830274105,8.881796085262298,-0.9412256422154605
1790587946166103800,0.206103759765625,4.058780301252007,8.878914976868034,-0.9282003756213932
1790587946176184000,0.21618408203125,4.066028080423176,8.876576889309286,-0.9187974642429501
1790587946186263800,0.226263916015625,4.067043687206507,8.875596061578392,-0.9237698458280413
1790587946196343800,0.23634375,4.0549031675577165,8.878561925646663,-0.9483050790823996
1790587946206423800,0.246423828125,4.0228690299153325,8.888828468117117,-0.9877494199160486
1790587946216503800,0.25650390625,3.9648786132395264,8.909708759060502,-1.033067548153922
1790587946226583800,0.266583740234375,3.8805984477922317,8.940942101714015,-1.0820794894084333
1790587946236663800,0.276663818359375,3.7760660601720213,8.97888692470491,-1.1363595803242177
1790587946246743800,0.286743896484375,3.655042848739028,9.021112786015868,-1.1960689297471194
1790587946256823800,0.29682373046875,3.5305230273619292,9.06180193927884,-1.260766662041843
1790587946266903800,0.30690380859375,3.419149103283882,9.096732382884621,-1.3150105856657028
1790587946276983800,0.31698388671875,3.331462052002549,9.123872903266548,-1.3515458341196178
1790587946287063800,0.327063720703125,3.2767052104204892,9.13903306299746,-1.3826298314303158
1790587946297144000,0.33714404296875,3.2567022868335247,9.141019852900504,-1.416349876333028
1790587946307223800,0.347223876953125,3.263920839910209,9.133519852533937,-1.4477705582521856
1790587946317303800,0.3573037109375,3.291282601827383,9.120064158633351,-1.470467689359188
1790587946327383800,0.3673837890625,3.3170629397720095,9.105627052479981,-1.501675751440972
1790587946337463800,0.3774638671875,3.323339828084409,9.093629740694166,-1.5593926118724046
1790587946347543800,0.387543701171875,3.3005601332604884,9.086880850955843,-1.6447781082130968
1790587946357623800,0.397623779296875,3.2459020758777855,9.086610801842808,-1.7515785868957638
1790587946367703800,0.407703857421875,3.162211108495295,9.091436030042171,-1.8752588887088
1790587946377783800,0.41778369140625,3.0596944446116683,9.099298433980346,-2.002851541659981
1790587946387863800,0.42786376953125,2.953065376973152,9.109016110396384,-2.115566212822497
1790587946397943800,0.43794384765625,2.8525971700519324,9.12066270904839,-2.201493268693983
1790587946408023800,0.44802392578125,2.764404799596965,9.135307904994487,-2.252685549662262
1790587946418103800,0.458103759765625,2.6920751841843127,9.153595256835223,-2.2660088493548334
1790587946428183800,0.468183837890625,2.632733645160496,9.173656632611156,-2.2545758934535085
1790587946438263800,0.478263916015625,2.578233116427064,9.193719761952757,-2.2357569189541042
1790587946448343800,0.48834375,2.5239564595773816,9.215005711087583,-2.209914767819643
1790587946458423800,0.498423828125,2.466384268313646,9.23578955591917,-2.188038597706705
1790587946468503800,0.50850390625,2.406312369188666,9.250866129019856,-2.1912362247042356
1790587946478583800,0.518583740234375,2.3490093502551317,9.254014948439597,-2.2395853912010786
1790587946488663800,0.528663818359375,2.3013412978902457,9.243720933440327,-2.329767620299011
1790587946498743800,0.538743896484375,2.269449929719418,9.22601634992361,-2.4291129606701434
1790587946508823800,0.54882373046875,2.2461960415124893,9.207543120121956,-2.51915724260211
1790587946518903800,0.55890380859375,2.227921549153328,9.192841225552558,-2.5881328714117404
1790587946528983800,0.56898388671875,2.2278271488681436,9.184897573071718,-2.616262110570073
1790587946539063800,0.579063720703125,2.257760807099938,9.181270030224322,-2.603303552536666
1790587946549143800,0.589143798828125,2.314170092064142,9.180991213282942,-2.554291684347391
1790587946559223800,0.599223876953125,2.388217178919166,9.186396287196875,-2.4651450819075107
1790587946569303800,0.6093037109375,2.46957546557039,9.199621679472923,-2.3320652297168967
1790587946579383800,0.6193837890625,2.545669986474514,9.221177677720785,-2.1586609659224747
1790587946589463800,0.6294638671875,2.609344878527522,9.248710996812582,-1.955258308096975
1790587946599543800,0.639543701171875,2.6621868263989685,9.2715050124228,-1.7670168329156934
1790587946609623800,0.649623779296875,2.693417830964923,9.286755773046613,-1.6346446906030176
1790587946619703800,0.659703857421875,2.6943355303317307,9.299593042787908,-1.5583739363491533
1790587946629783800,0.66978369140625,2.6553978969112038,9.31505247772634,-1.532665494596958
1790587946639863800,0.67986376953125,2.5789573390483853,9.336379927915335,-1.5334176281385123
1790587946649943800,0.68994384765625,2.4837109584286807,9.36492446987629,-1.516489581952244
1790587946660023800,0.70002392578125,2.3753654422610997,9.398971700906753,-1.4789745286807416
1790587946670103800,0.710103759765625,2.263515132842958,9.433794007962941,-1.4319260695189238
1790587946680183800,0.720183837890625,2.160964420559257,9.467972756418586,-1.3631160065345465
1790587946690263800,0.730263916015625,2.073099820753932,9.501219776982069,-1.2646991791851818
1790587946700343800,0.74034375,1.998378049507737,9.53018049852848,-1.1629823604423553
1790587946710423800,0.750423828125,1.9442767492249606,9.549714635559916,-1.0923013890195636
1790587946720503800,0.76050390625,1.9111909105725586,9.56126946427524,-1.0487358766026795
1790587946730583800,0.770583740234375,1.8920462112501262,9.568006663575767,-1.021658849911019
1790587946740663800,0.780663818359375,1.870822805957496,9.572223989009856,-1.021233537171036
1790587946750743800,0.790743896484375,1.8361187184534966,9.577357844766974,-1.0359857736881821
1790587946760823800,0.80082373046875,1.792269201463461,9.583272621768712,-1.0578538335599004
1790587946770903800,0.81090380859375,1.743726412090659,9.588058102479577,-1.094961402009055
1790587946780983800,0.82098388671875,1.6903053491570055,9.59226666008532,-1.1409168783023953
1790587946791063800,0.831063720703125,1.645173245010525,9.595599019378422,-1.1782573056593537
1790587946801143800,0.841143798828125,1.5984169006630777,9.599304303637146,-1.2119439597491175
1790587946811223800,0.851223876953125,1.54343691784963,9.605579730644822,-1.2333055314034223
1790587946821303800,0.8613037109375,1.4845269021108745,9.61445803362727,-1.236438130340725
1790587946831383800,0.8713837890625,1.4241985440067946,9.623964113119245,-1.2334366104371846
1790587946841463800,0.8814638671875,1.371913499365747,9.63243675791025,-1.226531653354317
1790587946851543800,0.891543701171875,1.3298628484912216,9.639016136300564,-1.2211592396009712
1790587946861623800,0.901623779296875,1.2917603507205844,9.645357029759884,-1.211955211795494
1790587946871703800,0.911703857421875,1.2558943798303603,9.653652564418316,-1.1832527027938515
1790587946881783800,0.92178369140625,1.223433029751852,9.663779406157136,-1.1335582591678945
1790587946891863800,0.93186376953125,1.1954520399577915,9.673145200395583,-1.0823751113541424
1790587946901941000,0.94194091796875,1.1709238209661095,9.68290613143146,-1.0201152006655931
1790587946912021000,0.95202099609375,1.1400353462275117,9.695006903591752,-0.9367747272212058
1790587946922101000,0.96210107421875,1.097448396519199,9.708998019543289,-0.8374598550535738
1790587946932181000,0.972180908203125,1.0469743468228727,9.72319021102488,-0.7306195558171719
1790587946942261000,0.982260986328125,0.9864734086308627,9.737270174303651,-0.6187437466315925
1790587946952340700,0.9923408203125,0.9228921131454407,9.750169403365254,-0.5028503358351066
1790587946962421000,1.0024208984375,0.8663497033208608,9.760573893001675,-0.3886103913340717
1790587946972501000,1.0125009765625,0.8244549005951732,9.767881001144646,-0.2813398291879333
1790587946982581000,1.0225810546875,0.7946193689756095,9.772689862731099,-0.18296333384895697
1790587946992661000,1.032660888671875,0.7622950162149965,9.776481071707606,-0.09854148577549494
1790587947002740700,1.04274072265625,0.7246888505939394,9.779757901421188,-0.039291922184336
1790587947012821000,1.052821044921875,0.6984190486319363,9.781744691324233,-0.0081034929598507
1790587947022901000,1.06290087890625,0.6979739352129399,9.781778593593835,0.005639752031952957
1790587947032981000,1.07298095703125,0.725691013373807,9.779763746640086,0.001900748594835022
1790587947043061000,1.08306103515625,0.7713199611265212,9.776258953389524,-0.014536369843338615
1790587947053141000,1.09314111328125,0.8202690662778913,9.772228674960136,-0.03305874058292247
1790587947063221000,1.103220947265625,0.8687052534710615,9.767964587774872,-0.05109710436495952
1790587947073300700,1.11330078125,0.9341955243829637,9.761799635404348,-0.070123086378281
1790587947083381000,1.123381103515625,1.0185687018759548,9.753265031293035,-0.08204869833448901
1790587947093461000,1.1334609375,1.0782378654189406,9.746775084751844,-0.09045811429671011
1790587947103541000,1.143541015625,1.1274446716584265,9.741083595111965,-0.10265622761794366
1790587947113621000,1.15362109375,1.1883210190340876,9.733636201715468,-0.1208498550269287
1790587947123700700,1.16370068359375,1.2513074904315173,9.7254447119534,-0.14258755738409234
1790587947133781000,1.173781005859375,1.3011125548250972,9.718505268079042,-0.16777097061518578
1790587947143861000,1.183861083984375,1.3494677126713097,9.711326170229912,-0.19863937068013474
1790587947153941000,1.19394091796875,1.403889623210579,9.702738959148526,-0.23730704631917177
1790587947164021000,1.20402099609375,1.4596486275725067,9.693412327876686,-0.2785110355027951
1790587947174101000,1.21410107421875,1.5145752727635204,9.683751350083947,-0.3184541013725102
1790587947184181000,1.224180908203125,1.5663503220558166,9.674303138259052,-0.3532380491796881
1790587947194260700,1.2342607421875,1.608631859076768,9.666510292425752,-0.3758446524590254
1790587947204341000,1.244341064453125,1.6389103852234779,9.661022800925373,-0.3859747090682387
1790587947214421000,1.2544208984375,1.6605685286715626,9.65722340864241,-0.38847602436468004
1790587947224501000,1.2645009765625,1.6780546471320092,9.654379709649085,-0.3840309180567041
1790587947234581000,1.2745810546875,1.6926821612909435,9.652241528576612,-0.3734470897980034
1790587947244660700,1.28466064453125,1.704921903530508,9.650507836651801,-0.36237697585970163
1790587947254741000,1.294740966796875,1.7145162458278238,9.64918798622489,-0.35213023406825955
1790587947264821000,1.304821044921875,1.7231974188029766,9.647890932151675,-0.34521537664588536
1790587947274901000,1.31490087890625,1.7312829639725387,9.64637175976038,-0.34721213995367284
1790587947284981000,1.32498095703125,1.736329141446203,9.64512263648212,-0.3565729657560587
1790587947295061000,1.33506103515625,1.7392874067299067,9.643979896187782,-0.3727065736290067
1790587947305141000,1.34514111328125,1.7409404346339403,9.642749477609991,-0.39609512106627226
1790587947315220700,1.355220703125,1.7410184683062135,9.641585110005735,-0.42315421024244276
1790587947325301000,1.365301025390625,1.740331070563942,9.640323127245903,-0.45363987633381037
1790587947335381000,1.375381103515625,1.7376570290490985,9.639138301375509,-0.48777434725631025
1790587947345461000,1.3854609375,1.7338693272039294,9.638025956219435,-0.5220480074537918
1790587947355541000,1.395541015625,1.7309600156284868,9.636671034479141,-0.5556210816338658
1790587947365620700,1.405620849609375,1.727889814402908,9.63568085439801,-0.5817543246693909
1790587947375701000,1.415700927734375,1.724712061149627,9.63527227359712,-0.5977310614801943
1790587947385781000,1.425781005859375,1.72525172098428,9.634413026419281,-0.6098897013075649
1790587947395861000,1.435861083984375,1.7325993072681127,9.6325700289011,-0.6181232766456901
1790587947405941000,1.44594091796875,1.743649109070748,9.630514849936961,-0.6190512051455677
1790587947416021000,1.45602099609375,1.7530097887426614,9.62915583654344,-0.6137563866730779
1790587947426101000,1.46610107421875,1.755643936638534,9.629466217666863,-0.601223360575363
1790587947436180700,1.4761806640625,1.7519826376520096,9.631184127500653,-0.5841511566780507
1790587947446261000,1.486260986328125,1.7484885119259357,9.632786886522174,-0.5679722118260339
1790587947456341000,1.496341064453125,1.747679387500137,9.633551441153884,-0.557394922905974
1790587947466421000,1.5064208984375,1.7476951695911584,9.63379869391322,-0.5530579896802083
1790587947476501000,1.5165009765625,1.7469012427344917,9.633999769443273,-0.552049397159554
1790587947486580700,1.526580810546875,1.747600330914557,9.63378115825653,-0.5536546769317239
1790587947496661000,1.536660888671875,1.7511916334047912,9.632891515940427,-0.5577526503024622
1790587947506741000,1.546740966796875,1.7533096484720705,9.632388242593407,-0.5598140032790601
1790587947516821000,1.556821044921875,1.74795835057199,9.633898647156357,-0.5504763756891712
1790587947526901000,1.56690087890625,1.7427923461109398,9.635645198562742,-0.5360962604200468
1790587947536981000,1.57698095703125,1.7423180065974593,9.63633493439257,-0.5251247480180115
1790587947547061000,1.58706103515625,1.7471954033754764,9.636004095003008,-0.5149002911236137
1790587947557141000,1.59714111328125,1.7556817844308912,9.634932666379212,-0.5060001781681552
1790587947567221000,1.607220947265625,1.766440640462935,9.633347443014383,-0.49869533504750574
1790587947577301000,1.617301025390625,1.7754295642130076,9.632323360663651,-0.48640338769666847
1790587947587381000,1.627381103515625,1.7830945458829401,9.63171078172326,-0.4702061400029808
1790587947597461000,1.6374609375,1.788868014717847,9.63145066948235,-0.4533050914214924
1790587947607540700,1.647540771484375,1.7905827096812426,9.632109425652027,-0.43202301474418486
1790587947617621000,1.65762109375,1.7900063710980116,9.633346858492493,-0.40603864212743934
1790587947627701000,1.667700927734375,1.794610357762128,9.633406479725242,-0.38374636549428104
1790587947637781000,1.677781005859375,1.8055208972245453,9.63199135223031,-0.36773327872846273
1790587947647861000,1.687861083984375,1.8197085586614905,9.629793549925088,-0.35512674900311975
1790587947657941000,1.69794091796875,1.8384535911418496,9.62671253504455,-0.3418404933853075
1790587947668021000,1.70802099609375,1.86080483142063,9.622963996165991,-0.32612617037035524
1790587947678101000,1.71810107421875,1.8856781375229357,9.618639703226089,-0.31043398612197487
1790587947688181000,1.728180908203125,1.9148500176019965,9.613332828989625,-0.2959162159478292
1790587947698261000,1.738260986328125,1.9480095060124991,9.606929391688109,-0.2873025735172443
1790587947708341000,1.748341064453125,1.9823700407758353,9.600013913211226,-0.28339703571237623
1790587947718421000,1.7584208984375,2.0175256714396177,9.592815526139736,-0.27902760672280563
1790587947728500700,1.768500732421875,2.0494126556962726,9.586405074575543,-0.26668623073967174
1790587947738581000,1.7785810546875,2.072302094504982,9.582049217453598,-0.24551725904801858
1790587947748661000,1.788660888671875,2.0902594837389885,9.578806874531507,-0.2183386168790981
1790587947758741000,1.798740966796875,2.1041975543290374,9.576371171817183,-0.18938945790631695
1790587947768821000,1.808821044921875,2.113071035005897,9.574887070739269,-0.16384954112144187
1790587947778900700,1.818900634765625,2.118850056798756,9.573928454840182,-0.14411094015962445
1790587947788981000,1.82898095703125,2.1204835032194853,9.573791092196107,-0.12827539278464392
1790587947799061000,1.83906103515625,2.114681538942456,9.575229600566624,-0.11610420400295406
1790587947809141000,1.84914111328125,2.105977423483133,9.57721405238211,-0.11043485312964767
1790587947819221000,1.859220947265625,2.1007712331421673,9.578345102238654,-0.11158003197624347
1790587947829301000,1.869301025390625,2.097742094579339,9.578975801357627,-0.11438039415134116
1790587947839381000,1.879381103515625,2.0913813273757693,9.580372808673978,-0.11386717479904182
1790587947849460700,1.889460693359375,2.076662335541099,9.583623334902525,-0.10976928362669422
1790587947859541000,1.899541015625,2.047569365917146,9.589963059318064,-0.10221372628114185
1790587947869621000,1.90962109375,2.002345930225402,9.59965384772718,-0.08743540547466837
1790587947879701000,1.919700927734375,1.946384389028698,9.611350715261697,-0.06243861455658916
1790587947889781000,1.929781005859375,1.8774273187890649,9.62518284125924,-0.03864598439703695
1790587947899861200,1.939861328125,1.785701075119525,9.64261971375048,-0.03918071232824586
1790587947909941500,1.94994140625,1.6830470485918223,9.66093512264192,-0.06382686774432658
1790587947920021200,1.960021240234375,1.58489588644132,9.677249713104963,-0.09658508187755942
1790587947930101500,1.9701015625,1.500032660409063,9.690343003433942,-0.132331700704433
1790587947940181200,1.98018115234375,1.4427872168816624,9.698528647977113,-0.1652535079015419
1790587947950261200,1.99026123046875,1.4140904069684446,9.702471832644939,-0.18096940181907264
1790587947960341200,2.00034130859375,1.4091766237027943,9.703204823094605,-0.1801102642390877
1790587947970421200,2.010421142578125,1.415195153339952,9.702382400795816,-0.17718761825803667
1790587947980500200,2.020500244140625,1.4185202061094342,9.701823013347386,-0.1811530695565976
1790587947990581200,2.030581298828125,1.4151367011509834,9.702179571700096,-0.1884098905507475
1790587948000661200,2.0406611328125,1.4088928383253514,9.703003163042665,-0.19274441262371836
1790587948010741200,2.0507412109375,1.4019902193300424,9.703967039638757,-0.19450875541511922
1790587948020821200,2.0608212890625,1.3962427617192268,9.704785370284318,-0.19502331734113393
1790587948030900200,2.070900146484375,1.3922355719044803,9.705386843308807,-0.19372575181126594
1790587948040980200,2.080980224609375,1.3912452456928788,9.70556570700705,-0.1918923075727187
1790587948051060500,2.091060546875,1.392975722747296,9.705337158948183,-0.19086599673228338
1790587948061140200,2.10114013671875,1.3940472975015639,9.705182845169306,-0.19089124077139422
1790587948071220500,2.111220458984375,1.3941146636493502,9.70515829524994,-0.19169696766370906
1790587948081300200,2.12130029296875,1.395321262960136,9.704956050676106,-0.1931281877769157
1790587948091380500,2.13138037109375,1.3966418440394102,9.704740946620703,-0.19438335720347238
1790587948101460200,2.141460205078125,1.3976348005995154,9.704598323279619,-0.19439828077796845
1790587948111540200,2.151540283203125,1.3985769037552178,9.704491355773806,-0.19296897862721232
1790587948121620500,2.161620361328125,1.400103967192024,9.70429846355021,-0.19157237316966055
1790587948131700200,2.1717001953125,1.4019750217609106,9.704029583480954,-0.19148345277719198
1790587948141780500,2.181780517578125,1.4028262317627667,9.70386942448318,-0.19335593211818486
1790587948151860200,2.191860107421875,1.400528914605826,9.704114339154959,-0.19762568185925483
1790587948161940200,2.201940185546875,1.39728087259531,9.704469143941997,-0.20313748581698163
1790587948172020500,2.2120205078125,1.3969349817670882,9.704459791591763,-0.20598145880494265
1790587948182100200,2.222100341796875,1.3962225957140326,9.704527011609077,-0.20761298726322128
1790587948192180500,2.232180419921875,1.3930283297173678,9.704947282847762,-0.20947998671149834
1790587948202260200,2.24226025390625,1.39285165797621,9.704954297110438,-0.21034365433612837
1790587948212340500,2.252340576171875,1.3960253195762633,9.704475573682785,-0.21133858365761116
1790587948222420200,2.262420166015625,1.3955324214927851,9.704475573682785,-0.21459933901922776
1790587948232500200,2.272500244140625,1.3925045981042086,9.704793553590774,-0.21979135470436884
1790587948242580500,2.28258056640625,1.3900724025212228,9.704974170854687,-0.2270848361807875
1790587948252660200,2.29266015625,1.3892092098206281,9.704902859184145,-0.23526542095635086
1790587948262740500,2.302740478515625,1.3885738345265388,9.70483914629817,-0.24158879702528938
1790587948272820200,2.3128203125,1.3894941642418503,9.704600661367177,-0.24583514762446282
1790587948282900200,2.322900146484375,1.393365598847717,9.703971131291985,-0.2487111962511204
1790587948292980500,2.33298046875,1.397916101758927,9.70332698816955,-0.24831300898008046
1790587948303060200,2.343060302734375,1.4009537158891558,9.702907885974644,-0.24755466489344835
1790587948313140500,2.353140380859375,1.398895906576514,9.703144032818079,-0.2499229466610588
1790587948323220200,2.36322021484375,1.3930657391183077,9.70387059352696,-0.25421907295240087
1790587948333300500,2.373300537109375,1.388723618260771,9.704324182513355,-0.26060919411461797
1790587948343380200,2.383380126953125,1.3904155168704688,9.703893974402547,-0.2675267184181139
1790587948353460200,2.393460205078125,1.3934445093028247,9.703294254943728,-0.27343921213122085
1790587948363540500,2.40354052734375,1.3907501556523143,9.703574240928887,-0.277227973422315
1790587948373620200,2.4136201171875,1.3829824442602694,9.70463573268056,-0.27886459818081927
1790587948383700500,2.423700439453125,1.3750126344248652,9.705811790722608,-0.2773710899537429
1790587948393780200,2.4337802734375,1.3678404047079384,9.706932319185137,-0.2736044491629116
1790587948403860200,2.443860107421875,1.362482677067071,9.707816700804234,-0.2689165470750071
1790587948413940500,2.4539404296875,1.3588535267844795,9.708433371397852,-0.26501049781348557
1790587948424020200,2.464020263671875,1.3562573728114367,9.708827339151501,-0.2639103545518592
1790587948434100500,2.4741005859375,1.354225574722886,9.70901672424376,-0.2673461194205098
1790587948444180200,2.48418017578125,1.3512699397876857,9.709247610390186,-0.27382137984922156
1790587948454260200,2.49426025390625,1.3452961260750889,9.709945529526472,-0.2784656254584901
1790587948464340200,2.50434033203125,1.3374544726639985,9.7110093593657,-0.2791340993045829
1790587948474420200,2.514420166015625,1.331262486156076,9.711897248116134,-0.2777869772782549
1790587948484500500,2.52450048828125,1.3311410517334936,9.711891402897239,-0.2785992800418287
1790587948494580200,2.534580322265625,1.3389594703994692,9.710657477188109,-0.28411230784226205
1790587948504660500,2.544660400390625,1.3514553793571888,9.708608727964759,-0.29476521928180005
1790587948514740200,2.554740234375,1.3654473720915614,9.706201666823029,-0.3092022523699328
1790587948524820200,2.5648203125,1.3794509091332554,9.703722124966978,-0.3244779282392934
1790587948534900500,2.574900390625,1.3880445499554275,9.702054484015703,-0.33745548323411495
1790587948544980200,2.584980224609375,1.387897396569699,9.701876789361238,-0.3430874977717176
1790587948555060500,2.595060546875,1.3848730803124605,9.702422148284315,-0.33991741636823863
1790587948565140200,2.60514013671875,1.3809383712120353,9.703279057374596,-0.33134624310620125
1790587948575220200,2.61522021484375,1.3744688829369842,9.704473235595225,-0.3231232256947085
1790587948585300200,2.62530029296875,1.369117731167376,9.705339497035741,-0.3198029586981982
1790587948595380200,2.635380126953125,1.3638934206478297,9.705932202231883,-0.3241242559634149
1790587948605460500,2.64546044921875,1.3541418419621885,9.706911860918998,-0.33549967299122363
1790587948615540200,2.655540283203125,1.3433463071815668,9.707790397319197,-0.3530256485380232
1790587948625620500,2.665620361328125,1.3306271108619867,9.708804542797804,-0.3727241092856973
1790587948635700200,2.6757001953125,1.3183404607407747,9.70993208552301,-0.3867517943879589
1790587948645780200,2.6857802734375,1.3097780918397008,9.71097311900854,-0.3896775091089308
1790587948655860500,2.695860595703125,1.312825204450637,9.710663322407006,-0.3871336698450148
1790587948665940200,2.705940185546875,1.3275380588054657,9.708757196524738,-0.38479620334077624
1790587948676020500,2.7160205078125,1.344302584993094,9.706467624282837,-0.3843411530496552
1790587948686100200,2.726100341796875,1.3570828638501464,9.704738608533143,-0.3830967424791306
1790587948696180200,2.73618017578125,1.3681370495669543,9.703425772368908,-0.37697321809753775
1790587948706260500,2.746260498046875,1.3756063625343142,9.702895611014961,-0.363185661894083
1790587948716340200,2.75634033203125,1.380084969253093,9.702955816769599,-0.3440978438580409
1790587948726420500,2.76642041015625,1.38767177112028,9.702473586210608,-0.3266996959419921
1790587948736500200,2.776500244140625,1.392327634102106,9.702163205087185,-0.31597876076754183
1790587948746580500,2.78658056640625,1.3904809833221137,9.702598089373112,-0.3106663701057434
1790587948756660200,2.79666015625,1.3905524411231278,9.70265654156208,-0.3085310385774821
1790587948766740200,2.806740234375,1.3952226248912512,9.702129887339472,-0.3039890112336725
1790587948776820500,2.816820556640625,1.4015328309513628,9.70147989899814,-0.29555730124125257
1790587948786900200,2.826900146484375,1.4086729119643568,9.70075450733304,-0.285250079700537
1790587948796980500,2.83698046875,1.4194767761819065,9.69948551031053,-0.2747026561957784
1790587948807060200,2.847060302734375,1.4314645894870162,9.698004916363955,-0.2645603794258088
1790587948817140200,2.85714013671875,1.441860019034147,9.696718383684754,-0.25509010189957915
1790587948827220500,2.867220458984375,1.452503870384395,9.69536229290068,-0.24609160660356283
1790587948837300200,2.87730029296875,1.4702091845534742,9.69282663694322,-0.2408149448422715
1790587948847380500,2.88738037109375,1.4807207878261803,9.691229723140596,-0.24071265351157634
1790587948857460200,2.897460205078125,1.4858374001875518,9.690330728474258,-0.24525285422448068
1790587948867540500,2.90754052734375,1.4983860622458158,9.688315296998619,-0.24854312794152647
1790587948877620200,2.9176201171875,1.5045913466267287,9.687329793092609,-0.24949032739745453
1790587948887700200,2.9277001953125,1.5060719405733047,9.687151513916254,-0.24748530771797522
1790587948897780200,2.9377802734375,1.5059502138897776,9.68723042437136,-0.24511629529800263
1790587948907860000,2.94785986328125,1.5017191521912812,9.687928928029537,-0.24341696230052037
1790587948917940200,2.957940185546875,1.4964388737007974,9.688796358513832,-0.24138730137012898
1790587948928020000,2.96802001953125,1.4906789949998258,9.689713473358749,-0.24024541959231718
1790587948938100200,2.978100341796875,1.4867761423423886,9.690299164292215,-0.24076115056211128
1790587948948180000,2.988179931640625,1.485147079835832,9.69047919703424,-0.2435447899312712
1790587948958260000,2.998260009765625,1.483227071558684,9.690655722644925,-0.24823236322561276
1790587948968340200,3.00834033203125,1.479675078165531,9.691067226055264,-0.25331065287059173
1790587948978420000,3.018419921875,1.4740703900262713,9.691834118774533,-0.2566719825298525
1790587948988500200,3.028500244140625,1.465333979732543,9.693139356154203,-0.25738475217539813
1790587948998580000,3.038580078125,1.4533653095193206,9.69495429662168,-0.25683906445875765
1790587949008659200,3.0486591796875,1.4391070670641959,9.697057406380772,-0.25770649494305253
1790587949018739000,3.058739013671875,1.4226958843588828,9.699403092724085,-0.2605746342578903
1790587949028819200,3.068819091796875,1.405975635704398,9.70176163854897,-0.26348599165994674
1790587949038899200,3.078899169921875,1.389588710657507,9.704069330969451,-0.2654627898919396
1790587949048979000,3.08897900390625,1.372097185369581,9.70649685037732,-0.26765544109800826
1790587949059059200,3.09905908203125,1.3535849387317895,9.708963532751799,-0.2723908355894498
1790587949069139000,3.109138916015625,1.3308876614943146,9.71190660046637,-0.2792620547994971
1790587949079219200,3.11921923828125,1.3011165003478526,9.71571125344634,-0.2871152525179088
1790587949089299000,3.129298828125,1.26500561478585,9.720249481397866,-0.29479106610910966
1790587949099379000,3.13937890625,1.2314207405701278,9.724393157073855,-0.3002900288515724
1790587949109459200,3.149459228515625,1.2044110069610179,9.727623809558153,-0.3051682658798061
1790587949119539000,3.1595390625,1.190966565106809,9.72906348697245,-0.31193123894240704
1790587949129619200,3.169619140625,1.1941766862597316,9.728379011839628,-0.3208750814417377
1790587949139699000,3.179698974609375,1.2092822662591933,9.72622914032936,-0.32934582653660327
1790587949149779200,3.189779296875,1.2268315130837262,9.723810388749838,-0.33581188074555246
1790587949159859200,3.199859130859375,1.239198242703825,9.722057992124556,-0.34111652649231256
1790587949169939000,3.20993896484375,1.2421020013213158,9.721521401029825,-0.34583076859787104
1790587949180019200,3.220019287109375,1.239497956302762,9.721692665943502,-0.35030915612094105
1790587949190099000,3.230098876953125,1.2380268608368932,9.721707278990745,-0.35508966839574274
1790587949200179200,3.24017919921875,1.239522944613546,9.72128700775206,-0.3613094196934253
1790587949210259000,3.250259033203125,1.2409560461565852,9.720815883108973,-0.3690055636866018
1790587949220339000,3.2603388671875,1.2402813617654145,9.720625328972934,-0.3762066541718319
1790587949230419200,3.270419189453125,1.238912265369296,9.720563954174517,-0.382250902772136
1790587949240499000,3.2804990234375,1.2398244117781518,9.720231945741176,-0.38767544857151803
1790587949250579200,3.2905791015625,1.2423078991569578,9.719705291518569,-0.3929099516915157
1790587949260659000,3.300658935546875,1.2439964367657899,9.719239427572488,-0.3990489293705672
1790587949270739200,3.3107392578125,1.244791532666236,9.718841952687502,-0.4061738493470475
1790587949280819200,3.320819091796875,1.2456801520690322,9.718409406489133,-0.41373964495882387
1790587949290899000,3.33089892578125,1.2472586534321308,9.717885090354084,-0.421222511527501
1790587949300979200,3.340979248046875,1.2482904806979,9.717441438239812,-0.4283654055520892
1790587949311059000,3.351058837890625,1.2490500668935478,9.71705390022695,-0.43486459484566
1790587949321139200,3.36113916015625,1.2499946542672813,9.716654671776293,-0.4410294741509482
1790587949331219000,3.371218994140625,1.2515749091960489,9.716166011476517,-0.44727571159675716
1790587949341299000,3.381298828125,1.2535671059265732,9.715606039506197,-0.4538460298977792
1790587949351379200,3.391379150390625,1.2554044043563306,9.715031454488635,-0.4609938192931935
1790587949361459000,3.401458984375,1.2565762246146797,9.714520582357048,-0.46851267049070444
1790587949371539200,3.411539306640625,1.2576115590117871,9.714034844666719,-0.47575924408547576
1790587949381619000,3.421618896484375,1.2588710575535893,9.713532740363478,-0.4825999037604779
1790587949391699200,3.43169921875,1.2604827305339277,9.713016023012996,-0.4887680710013956
1790587949401779200,3.441779296875,1.2615288785859942,9.712569448289274,-0.4948806355975568
1790587949411859000,3.45185888671875,1.2626235419549048,9.712100661733746,-0.5012410374749452
1790587949421939200,3.461939208984375,1.2641400839976966,9.711564655160903,-0.5077760287342593
1790587949432019000,3.47201904296875,1.265698711616546,9.711019296237826,-0.5142634910574183
1790587949442099200,3.48209912109375,1.267316522076726,9.710475690880417,-0.5205431923814118
1790587949452179000,3.492178955078125,1.268816551376134,9.7099496211797,-0.5266739136887714
1790587949462259000,3.502259033203125,1.2703244717210531,9.709443425223231,-0.5323179474577308
1790587949472339200,3.512339111328125,1.2717127112090587,9.708962948229908,-0.5377365749729797
1790587949482419000,3.5224189453125,1.2730480514660476,9.708518127071857,-0.5425740781320258
1790587949492499200,3.532499267578125,1.274223378855735,9.708097855833172,-0.5473090707646683
1790587949502579000,3.542578857421875,1.2757453277260065,9.707651281109452,-0.551691048708558
1790587949512659200,3.5526591796875,1.2773060011714696,9.707198276644945,-0.5560429603077471
1790587949522739200,3.5627392578125,1.2786093388549982,9.706780343493818,-0.5603207472248003
1790587949532819000,3.57281884765625,1.2799877876013517,9.706368255561589,-0.5643070769146085
1790587949542899200,3.582899169921875,1.2816210878916083,9.705940385538339,-0.567950803711824
1790587949552979000,3.59297900390625,1.2830983208373188,9.70556570700705,-0.571014465598762
1790587949563059200,3.60305908203125,1.2844992736764251,9.70520914865434,-0.5739035381037741
1790587949573139200,3.61313916015625,1.2888003318712113,9.704386726355551,-0.5781648853426798
1790587949583219000,3.623218994140625,1.2847455035224555,9.704611182761191,-0.5833803549686446
1790587949593299200,3.63329931640625,1.2818462749496102,9.704739193055033,-0.5876172253534198
1790587949603379000,3.64337890625,1.2811464561171828,9.704739193055033,-0.5891616783164442
1790587949613459200,3.653459228515625,1.288128131698072,9.703916770756244,-0.5874783648720011
1790587949623539000,3.6635390625,1.2935228303484618,9.703274381199478,-0.5862235059726983
1790587949633619000,3.673618896484375,1.2915442237518726,9.703624509811402,-0.5847893815163523
1790587949643699200,3.68369921875,1.2879025062486529,9.704339380082487,-0.5809362132195383
1790587949653779000,3.693779052734375,1.2863120221868156,9.704937345975637,-0.5744273062495514
1790587949663859200,3.703859130859375,1.2891430078290402,9.704822195163368,-0.570020851451531
1790587949673939000,3.71393896484375,1.289011928795278,9.7050074886024,-0.5671709419131279
1790587949684019200,3.724019287109375,1.286913787472248,9.705368138608335,-0.5657484348293393
1790587949694098000,3.734097900390625,1.2869174407340584,9.705317285203932,-0.5666141117479652
1790587949704178200,3.74417822265625,1.286590400736779,9.705478613245486,-0.5645791718542575
1790587949714258000,3.7542578125,1.2878832170262933,9.705744570705294,-0.5570223267339169
1790587949724338200,3.764338134765625,1.292588179846853,9.705618898499011,-0.5482257837507873
1790587949734418200,3.774418212890625,1.2941073522381483,9.706027479299902,-0.5372773964960128
1790587949744498000,3.784497802734375,1.28975427159518,9.707329209548234,-0.5240959529595449
1790587949754578200,3.794578125,1.2840155818127095,9.708805711841583,-0.5106826003633439
1790587949764658000,3.804657958984375,1.2820504192195832,9.709771342003345,-0.49706912208516146
1790587949774738200,3.81473828125,1.2846610401093959,9.71005892677307,-0.48456371464673426
1790587949784818200,3.824818115234375,1.2865747647762298,9.710351187717913,-0.4734777820847928
1790587949794898000,3.83489794921875,1.2839011616528033,9.711294606047868,-0.46124951108731327
1790587949804978200,3.844978271484375,1.2809559019811452,9.71237304893434,-0.4464989185379818
1790587949815058000,3.855057861328125,1.2830936446622014,9.712845342621206,-0.4297565676495433
1790587949825138200,3.86513818359375,1.284840196068585,9.71337784206271,-0.41213385373000055
1790587949835218200,3.87521826171875,1.2820612328745424,9.714471482518315,-0.394651899988018
1790587949845298200,3.885298095703125,1.278147274301201,9.715680858308076,-0.3772202516611665
1790587949855378200,3.895378173828125,1.2771496415659784,9.716523154351115,-0.358395358877629
1790587949865458000,3.9054580078125,1.2770599174559116,9.717249715059996,-0.3384644045483321
1790587949875538200,3.9155380859375,1.2758978879392147,9.718083827796578,-0.3182810828931629
1790587949885618000,3.925617919921875,1.2745590405508875,9.718886960873007,-0.2985610496344976
1790587949895698200,3.9356982421875,1.274140961269289,9.719505969554186,-0.279555210793484
1790587949905777700,3.945777587890625,1.2744485659137368,9.720007489335536,-0.2600487472202629
1790587949915857700,3.955857666015625,1.2734284290857611,9.720637603932618,-0.24078186455657705
1790587949925937700,3.965937744140625,1.2713589293353258,9.721351889681815,-0.22214544354984536
1790587949936017700,3.976017578125,1.2705471745610237,9.72186685346663,-0.20350832842336966
1790587949946098000,3.986097900390625,1.2699866180688142,9.72231459723413,-0.18475690273484213
1790587949956177700,3.996177734375,1.2687665747545658,9.722825469365715,-0.16515972867086529
1790587949966258000,4.0062578125,1.268125792632997,9.723238726341723,-0.14458459468651563
1790587949976337700,4.016337646484375,1.267773325933516,9.72356547407806,-0.12418277144245803
1790587949986417700,4.026417724609375,1.26629273198694,9.723988667926191,-0.10465777669870294
1790587949996497700,4.03649755859375,1.2645629855848848,9.724393741595744,-0.0862979715431109
1790587950006577700,4.04657763671875,1.263908028807491,9.724618198001384,-0.06888237473533954
1790587950016658000,4.056657958984375,1.263352879142761,9.724798230743408,-0.051117242970690126
1790587950026737700,4.066737548828125,1.2627196958057583,9.724957805219292,-0.033598224604350975
1790587950036817700,4.076817626953125,1.2628352850094438,9.724987615835666,-0.015976811017683938
1790587950046897700,4.086897705078125,1.2626026452973484,9.725032039499283,0.001978879734991642
1790587950056977700,4.096977783203125,1.2618521191909908,9.725108027344941,0.020189009327150415
1790587950067058000,4.107057861328125,1.260946548653394,9.725169402143358,0.038499579929979516
1790587950077137700,4.1171376953125,1.2600946079991757,9.725189860409497,0.05697554967799224
1790587950087218000,4.127218017578125,1.2601289486601948,9.725062434637547,0.07512604576472658
1790587950097297700,4.137297607421875,1.2596934798523782,9.724970080178975,0.09220924141351133
1790587950107377700,4.147377685546875,1.2584743133209646,9.724943776693939,0.10998856153371743
1790587950117457700,4.157457763671875,1.257505468288809,9.724858436498046,0.12727509316829963
1790587950127537700,4.16753759765625,1.2578627572938799,9.724560914856195,0.14520728402896782
1790587950137618000,4.177617919921875,1.258896630386263,9.72414298170507,0.1630878908328712
1790587950147697700,4.18769775390625,1.2598001550972462,9.723781162655353,0.17708717182455583
1790587950157777700,4.197777587890625,1.2607900429174304,9.723459675616025,0.18740345345456152
1790587950167857700,4.207857666015625,1.2621449646577239,9.723098441088199,0.19675249748760834
1790587950177937700,4.217937744140625,1.26252490388602,9.722847096675634,0.2065006055745296
1790587950188018000,4.228017822265625,1.261591568558663,9.72272551612258,0.21766996036991476
1790587950198097700,4.23809765625,1.2631582333534954,9.72222048920989,0.23072028834000227
1790587950208178000,4.248177978515625,1.2638492843575775,9.721817169106005,0.24357779715172945
1790587950218257700,4.258257568359375,1.2631756228797137,9.721576346087454,0.2563500388327986
1790587950228337700,4.268337646484375,1.2635570234127342,9.721189392596482,0.2688791559403762
1790587950238417700,4.278417724609375,1.2647371731080115,9.720716514387727,0.28020949171744286
1790587950248497700,4.28849755859375,1.2658726068787276,9.720259418269992,0.29071943275602535
1790587950258578000,4.298577880859375,1.2669523649394512,9.71981284354627,0.3007737755142152
1790587950268657700,4.30865771484375,1.2677177963539956,9.719399002048373,0.3107186482822522
1790587950278737700,4.318737548828125,1.2682844903260468,9.71899217481315,0.32096005631145086
1790587950288817700,4.328817626953125,1.269460402237624,9.718468443199992,0.33200624138489365
1790587950298897700,4.338897705078125,1.270143562196195,9.717952894893289,0.344265638172999
1790587950308978000,4.34897802734375,1.2705308079481124,9.717466572681069,0.3563344808250665
1790587950319057700,4.3590576171875,1.2716520670630036,9.716870360353589,0.3683930578114465
1790587950329137000,4.369136962890625,1.2731253544859586,9.716223879143595,0.3801574376242235
1790587950339216600,4.379216552734375,1.2746115013904868,9.715594349068402,0.3911061171399429
1790587950349297000,4.389296875,1.2755556503728032,9.71502327118218,0.40205600223205984
1790587950359376600,4.399376708984375,1.2765199653603136,9.714435242161155,0.4130805965282023
1790587950369457000,4.409456787109375,1.2785339355312286,9.7136958219707,0.42410942860804496
1790587950379536600,4.41953662109375,1.2805274474360049,9.712944126820563,0.4351747202407568
1790587950389616600,4.42961669921875,1.2822061943031846,9.712183079320193,0.44703225822970266
1790587950399697000,4.43969677734375,1.284370971121639,9.711298697701096,0.45983986348509787
1790587950409776600,4.449776611328125,1.2865639511212705,9.710378660246729,0.47297564124893393
1790587950419857000,4.45985693359375,1.2888538156241178,9.709422382435202,0.4861775795841589
1790587950429936600,4.4699365234375,1.2910219534434377,9.708481302192807,0.4990237632842734
1790587950440016600,4.4800166015625,1.2937825041979552,9.707495213764906,0.5109184184132144
1790587950450097000,4.490096923828125,1.2974907110661267,9.706416770878434,0.5218957395015285
1790587950460176600,4.5001767578125,1.3008525887146591,9.705431266972422,0.531767656631209
1790587950470257000,4.5102568359375,1.3034350064232945,9.704605337542295,0.5404380524840205
1790587950480336600,4.520336669921875,1.3056979829192161,9.703825585341454,0.5489032080883159
1790587950490416600,4.530416748046875,1.306935561890155,9.703210668313503,0.5567574287200346
1790587950500496600,4.54049658203125,1.3059066572338343,9.702947048941255,0.563736108626239
1790587950510576600,4.55057666015625,1.3053069377750157,9.702609195289016,0.570889012588188
1790587950520657000,4.560656982421875,1.307304979724437,9.701833534741402,0.5794411523561924
1790587950530736600,4.570736572265625,1.3109309151366353,9.700721189585327,0.5897765953443944
1790587950540817000,4.58081689453125,1.3144722410053014,9.69952350423336,0.6014966976240277
1790587950550896600,4.590896728515625,1.3172098492756485,9.698411159077287,0.6133212101262062
1790587950560976600,4.6009765625,1.3190144144795835,9.697533791720867,0.6232498989444226
1790587950571057000,4.611056884765625,1.3209167409695683,9.696710200378298,0.6319646819282323
1790587950581136600,4.62113671875,1.3234516662746667,9.695869657900928,0.6395104941979051
1790587950591217000,4.631216796875,1.3236287764072416,9.695390349951387,0.6463758499227464
1790587950601296600,4.641296630859375,1.3220342006921768,9.6951232234478,0.6536215832673012
1790587950611376600,4.651376708984375,1.3220986442305147,9.694552730083466,0.6618778088286519
1790587950621456600,4.66145654296875,1.324996411498636,9.69350059068203,0.6714224667653441
1790587950631536600,4.67153662109375,1.3277920335665345,9.692316349333524,0.6829024766787887
1790587950641617000,4.681616943359375,1.3290911334663629,9.691203419655562,0.6960518080439418
1790587950651696600,4.691696533203125,1.3296950907088816,9.690108610156178,0.7100077065516263
1790587950661777000,4.70177685546875,1.3295287942312657,9.689141810950636,0.7233853667799383
1790587950671856600,4.711856689453125,1.3298949971951544,9.688159229654072,0.7357558957923204
1790587950681936600,4.7219365234375,1.3305695354558527,9.687216395846008,0.746868241437152
1790587950692017000,4.732016845703125,1.3314897190406918,9.686351887971162,0.7563700100801884
1790587950702096600,4.7420966796875,1.3339524558924138,9.685355278149247,0.7647536614134908
1790587950712177000,4.752177001953125,1.3370514448210595,9.684329442232846,0.7723005696617067
1790587950722256600,4.762256591796875,1.3382079213798046,9.683621586224437,0.7791422522500157
1790587950732336600,4.772336669921875,1.3387922971390187,9.68299907041192,0.7858548285659402
1790587950742417000,4.7824169921875,1.340949475172907,9.682087800785899,0.7933584091290831
1790587950752496600,4.79249658203125,1.3443284500867128,9.68087433334291,0.8023939484998583
1790587950762577000,4.802576904296875,1.3484957988992332,9.67953051751852,0.8115724034726619
1790587950772656600,4.81265673828125,1.352565532556176,9.678326402425766,0.819119019459933
1790587950782737000,4.82273681640625,1.356314363695681,9.677297643899918,0.8250557160325348
1790587950792816600,4.832816650390625,1.3586815312184393,9.676596217632293,0.8293694145131856
1790587950802896600,4.842896728515625,1.3599424910649656,9.676047351577877,0.8336873507775365
1790587950812977000,4.852976806640625,1.3612258088737725,9.675372813317178,0.8394017829015851
1790587950823056600,4.863056640625,1.3620043920308351,9.674678985834122,0.846120423632115
1790587950833137000,4.873136962890625,1.3624259784437716,9.674031920102237,0.8527999744612723
1790587950843216600,4.883216552734375,1.3641532406277954,9.673275548776983,0.8586032539125531
1790587950853296600,4.893296630859375,1.366335114711523,9.672524438148736,0.863576146954298
1790587950863377000,4.903376953125,1.3689549418210982,9.671741178816557,0.8682080445386469
1790587950873456600,4.91345654296875,1.3717754060693084,9.670901805382966,0.8730811304677277
1790587950883537000,4.923536865234375,1.373401692096889,9.670198625549673,0.8782948465280235
1790587950893616600,4.93361669921875,1.3735691576182842,9.669631639316677,0.8842667605444788
1790587950903700000,4.943699951171875,1.373407245054841,9.668999186632037,0.8914108601454644
1790587950913779700,4.95377978515625,1.3731708059504628,9.66830535914898,0.8992558014921843
1790587950923859700,4.963859619140625,1.3727346064902841,9.66764894106686,0.906944017907232
1790587950933940000,4.97393994140625,1.372092363063991,9.667102413100004,0.913722937457636
1790587950944019700,4.984019775390625,1.3700756164141,9.66682827233374,0.9196179137803614
1790587950954100000,4.994099853515625,1.3746144288875162,9.665677933254837,0.924934871019423
1790587950964179700,5.0041796875,1.376299751625955,9.665053663876652,0.9289433760084211
1790587950974260000,5.014260009765625,1.3781946254618465,9.664233579665423,0.9346455331727862
1790587950984338700,5.024338623046875,1.3815293228425085,9.663078564411402,0.9416332001030444
1790587950994419000,5.0344189453125,1.376340229766816,9.663322310039401,0.9467175176300108
1790587951004498700,5.044498779296875,1.3813953211992978,9.662043376144766,0.9524011892896145
1790587951014579000,5.054578857421875,1.3819678603902459,9.66132675230801,0.9588130290932952
1790587951024659000,5.064658935546875,1.3804076253361999,9.661037413972617,0.963956748657301
1790587951034738700,5.07473876953125,1.3829790832594036,9.659664372053742,0.973968512649089
1790587951044819000,5.08481884765625,1.3780036329343914,9.659453359651565,0.9830718565590679
1790587951054898700,5.094898681640625,1.377066352084279,9.658760116690397,0.9911696766883135
1790587951064979000,5.10497900390625,1.3812293169826269,9.657326869016885,0.9993109706331044
1790587951075059000,5.115058837890625,1.3716012185461819,9.65797042761743,1.0063193150252103
1790587951085138700,5.125138671875,1.368025698146969,9.657759415215253,1.0131981878187506
1790587951095219000,5.135218994140625,1.3719826190792024,9.656546532294154,1.0193846944339573
1790587951105298700,5.145298583984375,1.376404088783264,9.655605452051757,1.0223385758034884
1790587951115379000,5.15537890625,1.3912132431194186,9.653111297148465,1.0258535251218825
1790587951125458700,5.165458740234375,1.3972712279841304,9.651849314388633,1.0294840636439622
1790587951135539000,5.1755390625,1.3962401313707231,9.651562314140795,1.0335630035206675
1790587951145619000,5.185618896484375,1.3898850632555781,9.651772742021084,1.0401345639307051
1790587951155698700,5.19569873046875,1.3810573214165867,9.652316931900382,1.0468182064130902
1790587951165779000,5.205779052734375,1.3816444736547768,9.651412092015146,1.0543600731600076
1790587951175858700,5.215858642578125,1.386370479263365,9.649992872866987,1.061127740664035
1790587951185939000,5.22593896484375,1.3878047498501835,9.649400752192735,1.0646228162381797
1790587951196019000,5.23601904296875,1.3877121031306683,9.649096800810097,1.0675048744805156
1790587951206098700,5.2460986328125,1.392416043037921,9.64831237243414,1.0684658284671604
1790587951216179000,5.256178955078125,1.402594468833506,9.646793200042843,1.0688749207247048
1790587951226258700,5.2662587890625,1.4069533946953714,9.645927523124218,1.0709680205464363
1790587951236339000,5.2763388671875,1.4020675223499535,9.646348963406682,1.0735757918920368
1790587951246418700,5.286418701171875,1.399297180853784,9.646137366482614,1.0790691286113112
1790587951256498700,5.296498779296875,1.4004326146245,9.645145432835816,1.0864333737690002
1790587951266579000,5.306578857421875,1.400239137879014,9.644503043279052,1.0923743811905384
1790587951276658700,5.31665869140625,1.4004161018811165,9.643736735081673,1.0988891699120402
1790587951286739000,5.326739013671875,1.4033695448592305,9.642890931907296,1.102529864501953
1790587951296818700,5.336818603515625,1.4078488822303712,9.64191302678585,1.1053749517347664
1790587951306899000,5.34689892578125,1.4120878349743782,9.640925769314169,1.1085790084730833
1790587951316979000,5.35697900390625,1.4148004549339412,9.639992287856339,1.1132157283630222
1790587951327058700,5.36705859375,1.415268949228525,9.639217796352504,1.1193136068467051
1790587951337139000,5.377138916015625,1.4147249054796993,9.63850058799386,1.1261575544573366
1790587951347218700,5.38721875,1.4155081648118792,9.637508069825172,1.1336461566470564
1790587951357299000,5.397298828125,1.417790576660633,9.636332596305012,1.1407699441123753
1790587951367378700,5.407378662109375,1.4193256772734224,9.635381579190492,1.1468665074218063
1790587951377458700,5.417458740234375,1.4206417283080517,9.634556818804144,1.1521527041964232
1790587951387539000,5.4275390625,1.4243831067934631,9.63340706424713,1.1571469322871417
1790587951397618700,5.43761865234375,1.429394797475636,9.632045128244162,1.1623032190717757
1790587951407699000,5.447698974609375,1.4311656065404414,9.63105845529437,1.168274110174924
1790587951417778700,5.45777880859375,1.4302652966998517,9.630411974084376,1.1746878496747464
1790587951427859000,5.46785888671875,1.4320716154694557,9.629416533306241,1.1806340447280554
1790587951437939000,5.47793896484375,1.4354253098115324,9.628228784826398,1.1862377099540085
1790587951448018700,5.488018798828125,1.436969178252667,9.627395841133595,1.1911175178848206
1790587951458099000,5.498098876953125,1.437976601729542,9.626734746876359,1.1952332095753402
1790587951468178700,5.5081787109375,1.4412560617916286,9.625784898805618,1.1989329408761114
1790587951478259000,5.518259033203125,1.4447300215125083,9.624858431610464,1.20218266338706
1790587951488338700,5.528338623046875,1.445754103863239,9.624315410774946,1.2052929774273187
1790587951498418700,5.538418701171875,1.4466862701468168,9.623706923487783,1.209030556520447
1790587951508499000,5.5484990234375,1.4477334411121905,9.623140521776676,1.2122792561180888
1790587951518578700,5.55857861328125,1.4474373807750642,9.622762920635939,1.2156283473502845
1790587951528659000,5.568658935546875,1.44700205809772,9.622449616903067,1.2186219762083141
1790587951538738700,5.57873876953125,1.4500291508339345,9.621809565433859,1.2200821118887513
1790587951548819000,5.58881884765625,1.4539603528030216,9.621128597432374,1.2207670254129916
1790587951558899000,5.59889892578125,1.4545232473827898,9.620895373198389,1.2219357038661838
1790587951568978700,5.608978759765625,1.4518673260465262,9.621223289978504,1.2225092659704386
1790587951579059000,5.619058837890625,1.4495542267985642,9.621514966401458,1.222954744715616
1790587951589138700,5.629138671875,1.448136030563712,9.62176864890158,1.2226470670059322
1790587951599219000,5.639218994140625,1.4456934597171842,9.622530865445732,1.2195287888549267
1790587951609298700,5.649298583984375,1.4442172496847807,9.623294835555553,1.215243512751162
1790587951619378700,5.659378662109375,1.4437503628253936,9.623920273977518,1.2108429397046565
1790587951629459000,5.669458984375,1.441861334208399,9.624872460135817,1.2055088852003215
1790587951639538700,5.67953857421875,1.441427765096724,9.625544660308957,1.200650777644664
1790587951649619000,5.689618896484375,1.4415665890455245,9.626271221017838,1.1946432077929376
1790587951659698700,5.69969873046875,1.4375513620547948,9.62777519584,1.1873421640645712
1790587951669779000,5.709779052734375,1.4278614504285156,9.630301499447226,1.1785147875517605
1790587951679859000,5.71985888671875,1.4209325279481708,9.632492287489772,1.1689314050398767
1790587951689938700,5.729938720703125,1.419382668157667,9.633702247801423,1.1608174374934286
1790587951700019000,5.74001904296875,1.4150832173980772,9.635110361033677,1.1543604433737695
1790587951710098700,5.7500986328125,1.4094668388210236,9.636606152549385,1.1487365390773863
1790587951720179000,5.760178955078125,1.4100934462867676,9.63700538100004,1.1446144907113165
1790587951730259000,5.770259033203125,1.4123748352222143,9.63708078432381,1.1411641310617326
1790587951740338700,5.780338623046875,1.4081155703425408,9.638104866674542,1.1377669629041105
1790587951750419000,5.7904189453125,1.4051599354073405,9.638990417337418,1.1339162788253276
1790587951760498700,5.800498779296875,1.4041083805277943,9.639719900655745,1.129013455345109
1790587951770579000,5.810578857421875,1.401075442572683,9.640862056428194,1.123003912732005
1790587951780658700,5.82065869140625,1.401725577044487,9.641281158623098,1.1185925260305405
1790587951790739000,5.830739013671875,1.4026751328542828,9.641357730990647,1.1167493823818861
1790587951800819000,5.84081884765625,1.4048906169466673,9.640974869152902,1.1172660266671328
1790587951810898700,5.850898681640625,1.4112339946240187,9.639588383230567,1.1212186367504298
1790587951820979000,5.86097900390625,1.4130949661903083,9.638664254122972,1.1268073966681957
1790587951831058700,5.87105859375,1.4091580651327966,9.638709262308478,1.131350008533895
1790587951841139000,5.881138916015625,1.4035739813901482,9.639434069451688,1.1321196777321398
1790587951851217700,5.8912177734375,1.4005917507089674,9.639895257222651,1.1318839692801237
1790587951861298700,5.901298583984375,1.403410315261036,9.639615271237492,1.130775423516333
1790587951871377700,5.911377685546875,1.409637519212812,9.638652563685179,1.1312296700898556
1790587951881458000,5.9214580078125,1.4162054994262754,9.63721580888033,1.1352633095201103
1790587951891538000,5.931537841796875,1.4185878645181655,9.636291095250844,1.1401201749667524
1790587951901615000,5.941614990234375,1.4192702938243746,9.63543886233568,1.1464647216878832
1790587951911695400,5.9516953125,1.4216890454038977,9.63432242552638,1.1528325031541287
1790587951921772300,5.961772216796875,1.4248726438760757,9.633023033365607,1.1597452782172708
1790587951931852300,5.971852294921875,1.426575502271205,9.632041621112823,1.165780539793521
1790587951941932300,5.981932373046875,1.4240882155001162,9.631651160490513,1.1720237450320272
1790587951952012300,5.99201220703125,1.4254545354172588,9.630506082108615,1.1797541200883686
1790587951962092300,6.00209228515625,1.4306287231847643,9.628760699746012,1.187708074767515
1790587951972172300,6.01217236328125,1.435623754993081,9.626832362031935,1.1972704875566065
1790587951982252300,6.022252197265625,1.4400364568687976,9.62494260276258,1.2071359018802643
1790587951992332300,6.032332275390625,1.4423745444275438,9.623502340826391,1.2157909175008534
1790587952002412300,6.042412353515625,1.4485598089337348,9.621778001251815,1.2220639333557337
1790587952012492300,6.0524921875,1.4516275259412825,9.620549920761585,1.2280844357542693
1790587952022572300,6.062572265625,1.4490394091442227,9.620395606982708,1.2323314256742597
1790587952032652000,6.072652099609375,1.4472187695883214,9.620355274972319,1.2347820336967705
1790587952042732300,6.082732177734375,1.4450032854959367,9.620244800335168,1.2382339277163148
1790587952052812300,6.092812255859375,1.4435564476884901,9.619940848952531,1.242282618585229
1790587952062892300,6.102892333984375,1.4432823069222271,9.618971127137542,1.2500905158571898
1790587952072972300,6.11297216796875,1.4378094284690917,9.61766822784543,1.266314943818748
1790587952083052000,6.123052001953125,1.42708389018476,9.615662148720025,1.2933870751395822
1790587952093132300,6.13313232421875,1.4152838545367121,9.612835400861501,1.326938923868537
1790587952103212300,6.14321240234375,1.4051998290263115,9.610691959092021,1.3529219447784124
1790587952113292300,6.153292236328125,1.3880473264344035,9.61236836787164,1.3587113418348133
1790587952123372300,6.163372314453125,1.366728497943282,9.618187283283472,1.3389977565832436
1790587952133452300,6.173452392578125,1.3525631944686174,9.624808162727952,1.3053858482301235
1790587952143532300,6.1835322265625,1.3390939104340969,9.630639353099465,1.2759282830774783
1790587952153612000,6.193612060546875,1.325125298575312,9.63633493439257,1.2471942098937927
1790587952163692300,6.2036923828125,1.3163560089252888,9.641621350362897,1.2152093912858515
1790587952173772300,6.213772216796875,1.3047734154202044,9.647487027525901,1.1806493884276599
1790587952183852300,6.223852294921875,1.2917198725797234,9.653891049349307,1.1420204556301234
1790587952193932300,6.233932373046875,1.283798139669746,9.65994961873591,1.0989124046571552
1790587952204012000,6.244011962890625,1.276390201500803,9.66565279881358,1.0565812563408166
1790587952214092300,6.25409228515625,1.263274114818126,9.671941669824719,1.0139362197697162
1790587952224172300,6.26417236328125,1.2488035447865724,9.677916068059206,0.9740695618707687
1790587952234252300,6.274252197265625,1.238940030159056,9.682855278027057,0.9368712463982403
1790587952244332300,6.284332275390625,1.235119010566175,9.687479430696367,0.8930950138401239
1790587952254412300,6.294412353515625,1.230903292567283,9.692425070405006,0.8439091773234307
1790587952264492300,6.3044921875,1.2227490660756826,9.69808791847229,0.7888934656094759
1790587952274572000,6.314572021484375,1.2174417534478008,9.703685300087928,0.7257509268674999
1790587952284652300,6.32465234375,1.2114735657583922,9.708801035666465,0.6647549717001616
1790587952294732300,6.334732177734375,1.2061653032824395,9.712546651935577,0.618060513607785
1790587952304812300,6.344812255859375,1.2010877077572046,9.715442373377083,0.5813376701598987
1790587952314892300,6.354892333984375,1.197229790220037,9.717987381684779,0.545674564898014
1790587952324972000,6.364971923828125,1.1948358077555894,9.7202985812366,0.5084959770392626
1790587952335052300,6.37505224609375,1.1858260604131967,9.723379596117137,0.46913715906459835
1790587952345132300,6.38513232421875,1.180449847267568,9.726220957022905,0.42137525440379975
1790587952355212300,6.39521240234375,1.1829953670319169,9.728433956897257,0.35845037700049576
1790587952365292300,6.405292236328125,1.1840198147088288,9.73053765117824,0.2917807966435328
1790587952375372300,6.415372314453125,1.173659164214134,9.732950557538867,0.2501789672487415
1790587952385452300,6.425452392578125,1.1638385388802737,9.734445180010795,0.23756496660299598
1790587952395532000,6.435531982421875,1.1554739575736224,9.73572528294921,0.22568702514683828
1790587952405612300,6.4456123046875,1.1572030463885514,9.736128018531202,0.19768449937440455
1790587952415692300,6.4556923828125,1.162623537067324,9.73594447865784,0.17344127133656292
1790587952425772300,6.465772216796875,1.15959315639548,9.736514972022174,0.16132188580734655
1790587952435852300,6.475852294921875,1.1529399821165949,9.737361359718442,0.15777445899145676
1790587952445932000,6.48593212890625,1.1464961397394537,9.738145203572511,0.15638861238993704
1790587952456012300,6.49601220703125,1.1456730598535387,9.738225283071397,0.1574571549369022
1790587952466092300,6.50609228515625,1.1489535428289324,9.737789229741692,0.16049849539417774
1790587952476172300,6.51617236328125,1.1482361152745784,9.73773603824973,0.16865626554973423
1790587952486252300,6.526252197265625,1.142218827746436,9.738230543768406,0.1804971081322059
1790587952496332300,6.536332275390625,1.1414047348845748,9.738248079425096,0.18466105941124258
1790587952506412300,6.546412353515625,1.1429491878475992,9.738043496763705,0.18591164399422705
1790587952516492000,6.556491943359375,1.140580266759172,9.73827672099769,0.18825807925621046
1790587952526572300,6.566572265625,1.139960235164687,9.73831471492052,0.19004642397770657
1790587952536652300,6.57665234375,1.143075956032425,9.737775201216339,0.19874946172479538
1790587952546732300,6.586732177734375,1.1406507016468792,9.737675247973202,0.21676778736580163
1790587952556812300,6.596812255859375,1.1403842327304183,9.737131058093905,0.24120153300706296
1790587952566892000,6.60689208984375,1.1379954378977417,9.73663596805334,0.27065160897299645
1790587952576972300,6.61697216796875,1.1377031769528985,9.735775551831722,0.3011555596397258
1790587952587052300,6.62705224609375,1.1471709702610968,9.733892222303151,0.32514939776007085
1790587952597132300,6.63713232421875,1.1477790922220796,9.733117146277428,0.3455454853830859
1790587952607212300,6.64721240234375,1.138003840399906,9.733310623022913,0.3714854708688333
1790587952617292300,6.657292236328125,1.1295810260999948,9.733044081041216,0.40281226395945996
1790587952627372300,6.667372314453125,1.1415786301467568,9.730196874916553,0.43642636426966636
1790587952637452000,6.6774521484375,1.1645306127976625,9.72566916835904,0.47501167712118475
1790587952647532300,6.6875322265625,1.1806944696784019,9.721752287176251,0.5137008887385949
1790587952657612300,6.6976123046875,1.185512172158435,9.719536364692448,0.5436653805000707
1790587952667692300,6.7076923828125,1.1861054618764668,9.71823054279089,0.5652888910261914
1790587952677772300,6.717772216796875,1.1910143497712908,9.716072487974166,0.5914460629265755
1790587952687852000,6.72785205078125,1.188986204944551,9.71440601606667,0.6220975871041416
1790587952697932300,6.737932373046875,1.1950479892015455,9.711601480039954,0.6534983952790498
1790587952708012300,6.74801220703125,1.2160912886869162,9.706166595509648,0.6941602221436798
1790587952718092300,6.75809228515625,1.2265927358917892,9.701692080444097,0.7368995128694922
1790587952728172300,6.76817236328125,1.2292854821071029,9.69853332415223,0.773096761540696
1790587952738252300,6.778252197265625,1.2295038010329007,9.69607424056232,0.8030247937493026
1790587952748332300,6.788332275390625,1.2406398198142647,9.692598088884353,0.8274792899176477
1790587952758412000,6.798412109375,1.2641269322551787,9.687801502257585,0.8478676326256245
1790587952768492300,6.8084921875,1.2794998579539358,9.684241179427504,0.8653089620962738
1790587952778572300,6.818572265625,1.2766456375665962,9.682827220976352,0.8851015308681875
1790587952788652300,6.82865234375,1.2658623777456581,9.681603816661237,0.9135207659490406
1790587952798732300,6.838732177734375,1.2680397217847406,9.677959322679042,0.9484529631204902
1790587952808812000,6.84881201171875,1.285790482530743,9.672007136276363,0.9845701322928071
1790587952818892300,6.858892333984375,1.3104153668299316,9.665388594919442,1.0165938216064125
1790587952828972300,6.86897216796875,1.3200712300561368,9.661023385447264,1.045190970537439
1790587952839052300,6.87905224609375,1.3061685230404139,9.660093995642661,1.0709344105377792
1790587952849132300,6.88913232421875,1.2954206267938018,9.658919106644392,1.09433172580339
1790587952859212300,6.89921240234375,1.3123416587173937,9.654176296031475,1.1158145126845687
1790587952869292300,6.909292236328125,1.3435467981897293,9.647525605970621,1.1360115706041454
1790587952879372300,6.919372314453125,1.3568582613140343,9.642849430853127,1.1596403565380722
1790587952889452300,6.929452392578125,1.3531301807016134,9.640055416220425,1.186906110734865
1790587952899532300,6.9395322265625,1.3543265508793294,9.636249009674787,1.2160896812517195
1790587952909611800,6.94961181640625,1.3668195372276006,9.631456514701247,1.2398419474348426
1790587952919691800,6.95969189453125,1.379811559139192,9.627505146726966,1.2560403641723095
1790587952929771800,6.969771728515625,1.382691936881095,9.625321372947097,1.2695320061691104
1790587952939851800,6.979851806640625,1.3826920830115674,9.623515200307965,1.2831534120254218
1790587952949931500,6.989931640625,1.387167182599008,9.62095090277791,1.2974722986266016
1790587952960011800,7.00001171875,1.3996977244786917,9.617039282292128,1.3129200431272388
1790587952970091500,7.010091552734375,1.41630413749516,9.613048166829348,1.3242973233185709
1790587952980171800,7.020171875,1.4272529631413517,9.610420156413316,1.3315978555902839
1790587952990251800,7.030251708984375,1.4318436519324778,9.608722704845666,1.338900872080028
1790587953000331500,7.04033154296875,1.4296566632822154,9.607742461636661,1.3482387553982436
1790587953010411800,7.050411865234375,1.4274160447485744,9.606986090311407,1.3559751948691903
1790587953020491500,7.060491455078125,1.4329618423074484,9.605219665160774,1.3626289536699652
1790587953030571800,7.07057177734375,1.4424835577599704,9.602904373955726,1.368890352152288
1790587953040651800,7.08065185546875,1.4467789168663323,9.601396307480334,1.3749256867937742
1790587953050731800,7.090731689453125,1.4521170630238949,9.599587212231755,1.3819067778527736
1790587953060811800,7.100811767578125,1.4517222184874117,9.598725626966356,1.388295309846103
1790587953070891500,7.1108916015625,1.4612521172463893,9.596756372720003,1.3919082396462559
1790587953080970800,7.120970703125,1.471218361596018,9.595050153324008,1.3931724143631756
1790587953091050800,7.13105078125,1.4639002936676144,9.59627881833613,1.3924179427340626
1790587953101130800,7.141130859375,1.4576356803148984,9.597565351015328,1.3901163877934217
1790587953111210500,7.15121044921875,1.4632476749777794,9.597180151090026,1.3868737526103854
1790587953121290800,7.161290771484375,1.469095231962204,9.596716040709614,1.3839021894536911
1790587953131370800,7.171370849609375,1.4642203194022179,9.598115970635414,1.3793503713682294
1790587953141450800,7.18145068359375,1.463027164094895,9.598763620889187,1.376118842101097
1790587953151530800,7.19153076171875,1.4620638720206915,9.599424130624532,1.3725240324795245
1790587953161610500,7.201610595703125,1.4537836810618638,9.601773324099183,1.3648682570293544
1790587953171690800,7.211690673828125,1.4564394562676548,9.602005379289388,1.3603884812667966
1790587953181770800,7.221770751953125,1.4528482999078929,9.60282312541306,1.3584583899870515
1790587953191850800,7.231850830078125,1.4405119654260574,9.605509588018059,1.3525871598660946
1790587953201930800,7.2419306640625,1.4454779172703622,9.605514264193177,1.3472501827523111
1790587953212010500,7.252010498046875,1.445206114591658,9.606620764130353,1.3396278711803256
1790587953222090800,7.2620908203125,1.4296192538812755,9.610607203418017,1.3277023094564675
1790587953232170500,7.27217041015625,1.4163323406763373,9.61455389521718,1.3132932603538034
1790587953242250800,7.282250732421875,1.4066761851891874,9.618533904764055,1.294387630484253
1790587953252330800,7.292330810546875,1.4108467488721013,9.620302083480357,1.2765829475939272
1790587953262410800,7.30241064453125,1.4177161962501703,9.621296939736604,1.2613862552449107
1790587953272490800,7.31249072265625,1.4167400446943939,9.623253919023275,1.2474800410978495
1790587953282570500,7.322570556640625,1.4024132670477032,9.62762848084569,1.229796792630106
1790587953292650800,7.332650634765625,1.3794085312962532,9.633288990825415,1.2113461399864405
1790587953302730800,7.342730712890625,1.3739327302336692,9.63456441758871,1.2074226098671554
1790587953312810800,7.352810791015625,1.3671834021039306,9.635979545083641,1.2037860069304704
1790587953322890800,7.362890869140625,1.3867790600642562,9.636660513085126,1.1755820951007305
1790587953332970500,7.372970458984375,1.420055014461279,9.637184244698286,1.13071339113079
1790587953343050800,7.38305078125,1.4153032898895441,9.641686816814541,1.097816791440174
1790587953353130800,7.393130859375,1.3681409950897097,9.649289693033694,1.0907632927320896
1790587953363210800,7.403210693359375,1.3305091835707425,9.654232994654775,1.093572651064396
1790587953373290800,7.413290771484375,1.347262311581522,9.65276701375544,1.0859753278031945
1790587953383370800,7.423370849609375,1.4075443463258444,9.646047934633494,1.06908885573633
1790587953393450800,7.43345068359375,1.4487921563848851,9.641967387321591,1.0506447058986872
1790587953403530500,7.443530517578125,1.431560889468342,9.646691493234037,1.0307069565024227
1790587953413610800,7.45361083984375,1.388020730688423,9.65545464540422,1.0079677398193627
1790587953423690800,7.463690673828125,1.3678171699628232,9.66035644597113,0.9884185513492673
1790587953433770800,7.473770751953125,1.3812975599132478,9.659539868891239,0.977586703146249
1790587953443850800,7.483850830078125,1.3947219818927348,9.657827804276346,0.9754411424849182
1790587953453930500,7.493930419921875,1.3832787968583404,9.659541037935018,0.9747686500508338
1790587953464010800,7.5040107421875,1.3696641130037606,9.662014734572171,0.9694726625345647
1790587953474090800,7.5140908203125,1.3648942682534455,9.663553196185827,0.9608249534375966
1790587953484170800,7.524170654296875,1.3505240898564457,9.666932317230104,0.9470475533019751
1790587953494250800,7.534250732421875,1.3429193139411508,9.669977676275371,0.9265454480212181
1790587953504330800,7.544330810546875,1.3492173911720513,9.67080009857416,0.9086288291890173
1790587953514410800,7.55441064453125,1.3457402165807784,9.672543142849207,0.8951266657982021
1790587953524490500,7.564490478515625,1.3391172913096845,9.674618780079484,0.8825429324265569
1790587953534570800,7.57457080078125,1.3376786368086933,9.675663320696353,0.8732425315745175
1790587953544650800,7.584650634765625,1.3335517661370335,9.677199444222449,0.8624724965613335
1790587953554730800,7.594730712890625,1.3241820263758302,9.679550391262769,0.8504360948741435
1790587953564810800,7.604810791015625,1.3135089489310978,9.682229839605093,0.8363590542048215
1790587953574890500,7.614890380859375,1.305906949494779,9.68491805577576,0.8169177100233733
1790587953584970800,7.624970703125,1.3024288981206715,9.687211719670891,0.7949804573729634
1790587953595050800,7.63505078125,1.3037813356429337,9.68877999190092,0.7733505901712924
1790587953605130800,7.645130859375,1.2991989762887357,9.691026894044876,0.7526290699861943
1790587953615210800,7.655210693359375,1.2764363787300883,9.695390349951387,0.7351940241258591
1790587953625290800,7.665290771484375,1.2593914281658827,9.698897481289505,0.7181199935976416
1790587953635370800,7.675370849609375,1.2621008332550525,9.69987713997662,0.699921342953667
1790587953645450500,7.685450439453125,1.2637781188175081,9.701548288059234,0.6732206752937286
1790587953655530800,7.69553076171875,1.2610057314947247,9.704538117524981,0.6341819195862859
1790587953665610800,7.70561083984375,1.2519972262613475,9.708144617584347,0.5956728868413717
1790587953675690800,7.715690673828125,1.24470487729609,9.710535896635054,0.5714947233963757
1790587953685770800,7.725770751953125,1.2429393289282917,9.711676883363722,0.5557167605606839
1790587953695850500,7.7358505859375,1.235476007310301,9.713560212892293,0.5391869564443826
1790587953705930800,7.7459306640625,1.2310602366946637,9.715138421994448,0.5205238300938159
1790587953716010800,7.7560107421875,1.2370952790752052,9.715708915358782,0.4949299911646172
1790587953726090800,7.7660908203125,1.225862083529681,9.718908003661037,0.4587531642269343
1790587953736170800,7.776170654296875,1.2072110860083252,9.723217099031805,0.41482141231354325
1790587953746250800,7.786250732421875,1.206954188637808,9.724986446791887,0.3718628162812441
1790587953756330800,7.796330810546875,1.2126855718966574,9.725699563497304,0.3325100627211854
1790587953766410500,7.806410400390625,1.2119274470057337,9.726889650064706,0.2987331182657741
1790587953776490800,7.81649072265625,1.2010196109570561,9.729032507312297,0.2718426819210872
1790587953786570800,7.82657080078125,1.1955805617082864,9.73044646576345,0.24369822692731394
1790587953796650800,7.836650634765625,1.196908814637363,9.731025726956128,0.21194276009583846
1790587953806730800,7.846730712890625,1.191959083275497,9.732363113039732,0.17530790545865893
1790587953816810500,7.856810546875,1.1875546377714723,9.733554368650912,0.1343451046197675
1790587953826890800,7.866890869140625,1.1799953814983368,9.734943777182698,0.09422160414922982
1790587953836970800,7.876970703125,1.1766627299442887,9.73566566171646,0.05170762834558263
1790587953847050800,7.88705078125,1.1813161817733198,9.735229023864864,0.013628982949635247
1790587953857130800,7.897130859375,1.1770443496730179,9.735734635299444,-0.020103675981122067
1790587953867210800,7.907210693359375,1.1727077087081967,9.736109313830733,-0.057400300728972065
1790587953877290800,7.917290771484375,1.1759300317555665,9.735465170708299,-0.09113079852703958
1790587953887370500,7.92737060546875,1.170579464507848,9.735770875656604,-0.12206494817142374
1790587953897450800,7.93745068359375,1.16754009681195,9.735627667793631,-0.1574624156339094
1790587953907531000,7.947531005859375,1.1752931220915168,9.734104988270998,-0.1904837376827374
1790587953917611000,7.957611083984375,1.1770554555889219,9.733145203328132,-0.22536747433627022
1790587953927691300,7.967691162109375,1.1739463105924426,9.732636084762214,-0.26080842474745586
1790587953937771000,7.97777099609375,1.1719343131829052,9.731978497636318,-0.2924824421068653
1790587953947851300,7.987851318359375,1.1718167512178421,9.73092928084433,-0.32597035875413566
1790587953957931000,7.997930908203125,1.1806555989727376,9.72876538080871,-0.3571935453398153
1790587953968011300,8.00801123046875,1.195271641889587,9.72591466755271,-0.38507443576026706
1790587953978091000,8.018091064453126,1.1945461040940135,9.724842654407023,-0.413381333040446
1790587953988170200,8.028170166015625,1.182391336724162,9.725197459194064,-0.4391789143808186
1790587953998250000,8.03825,1.1765666491586715,9.724769589170814,-0.46362285262253133
1790587954008330000,8.048330078125,1.1729507967490702,9.723958272787929,-0.4890909828128293
1790587954018410200,8.05841015625,1.1791725208081305,9.721945763921736,-0.5135120151029899
1790587954028490000,8.068489990234376,1.1840819932248443,9.72026234087944,-0.5336825503418222
1790587954038570200,8.0785703125,1.1838302104208618,9.718999773597716,-0.556737774171494
1790587954048650000,8.08864990234375,1.19607470190078,9.7161782864362,-0.5793728363603353
1790587954058730200,8.098730224609374,1.2118185798037797,9.712964585086702,-0.6001727555438876
1790587954068810200,8.108810302734375,1.2110364164501428,9.711765730690956,-0.6207852623965591
1790587954078890000,8.118889892578125,1.2070124216310678,9.710845108714699,-0.6426357135463505
1790587954088970200,8.12897021484375,1.2155575471363962,9.70836381329298,-0.6636684916377067
1790587954099050000,8.139050048828125,1.2190924432642758,9.706677467641233,-0.6816350870914757
1790587954109130200,8.149130126953125,1.215702727760747,9.705610715192556,-0.7025414623241871
1790587954119210000,8.1592099609375,1.2110432115171104,9.704615274414419,-0.724010805201903
1790587954129290000,8.1692900390625,1.2181548701532183,9.701991355651616,-0.7468729906775057
1790587954139370200,8.179370361328125,1.2384781117357313,9.697835405015946,-0.7671740204282105
1790587954149450000,8.189449951171875,1.2425821860536932,9.695862643638252,-0.7852597852822393
1790587954159530200,8.1995302734375,1.2344850965768097,9.695320207324624,-0.8044754309490323
1790587954169610000,8.20960986328125,1.243415275876969,9.692745388400555,-0.8215778107888996
1790587954179690200,8.219690185546876,1.253768765978515,9.690220253837108,-0.8355052138544619
1790587954189770200,8.229770263671876,1.2557932575434445,9.688460258427261,-0.852695198912546
1790587954199850000,8.23985009765625,1.2623578767560422,9.685942722648381,-0.8713967575773596
1790587954209930200,8.24993017578125,1.2653235946938395,9.683922614997625,-0.8893683214671909
1790587954220010000,8.260010009765624,1.255234746877849,9.683305944404005,-0.9101391606867313
1790587954230090200,8.27009033203125,1.2439249789647757,9.68270213329196,-0.9318257995769381
1790587954240170000,8.280169921875,1.2486790416240692,9.680243049702048,-0.9508196922518313
1790587954250250000,8.29025,1.263227060806006,9.6767318267107,-0.9672184538669883
1790587954260330200,8.300330322265625,1.2758061180025337,9.673516956317425,-0.9827230431213975
1790587954270410000,8.310409912109375,1.2730930596515535,9.672607440257073,-0.9951261592291295
1790587954280490200,8.320490234375,1.2619390668220818,9.67277870517075,-1.007584585720673
1790587954290570000,8.330570068359375,1.2672019557863474,9.670696053677796,-1.0208893268432468
1790587954300650200,8.340650146484375,1.2837323809571564,9.667100659534334,-1.0342023243375122
1790587954310730200,8.350730224609375,1.2873907573342322,9.665172906342148,-1.0475891177203505
1790587954320810000,8.36081005859375,1.275653996180743,9.66522492879033,-1.061378938946128
1790587954330890200,8.37089013671875,1.2755598881565033,9.6642177975744,-1.070629363176599
1790587954340970000,8.380969970703125,1.2827592981413005,9.66244611172676,-1.0779935352690517
1790587954351050200,8.39105029296875,1.2888133374832569,9.660521281144023,-1.0879764384925366
1790587954361130000,8.4011298828125,1.2983084571897983,9.658267949259281,-1.0966580498591065
1790587954371210000,8.4112099609375,1.2994498823098837,9.656986677277088,-1.1065384425561875
1790587954381290200,8.421290283203126,1.294358112128824,9.656631872490047,-1.1155628029458224
1790587954391370000,8.431369873046876,1.2882267697669565,9.656640640318393,-1.122556826551631
1790587954401450200,8.4414501953125,1.2936331588551402,9.654839728376269,-1.1317892036687582
1790587954411530000,8.451530029296874,1.30643199628219,9.652304072418808,-1.1387038784280419
1790587954421610200,8.4616103515625,1.309786129015684,9.651018708783388,-1.1457193832132964
1790587954431690200,8.471690185546874,1.3102908636674284,9.650151278299093,-1.152432324855402
1790587954441770000,8.48177001953125,1.309291185105592,9.649641575211286,-1.157815260002762
1790587954451850200,8.491850341796875,1.3145249941058457,9.648076810112595,-1.1649106981564312
1790587954461930000,8.501929931640625,1.3266395025305449,9.64575508916676,-1.170394755590707
1790587954472010200,8.51201025390625,1.3288606857113539,9.644920391908288,-1.174738045492023
1790587954482090200,8.52209033203125,1.3243835402972997,9.645116206741333,-1.178177006964758
1790587954492170000,8.532169921875,1.323242407438159,9.645298577570914,-1.177979146305099
1790587954502250200,8.542250244140625,1.320905488923192,9.645544076764583,-1.1785967667467891
1790587954512330000,8.552330078125,1.326531073720008,9.644611764350532,-1.17990777628012
1790587954522410200,8.56241015625,1.332930127107352,9.643601710525154,-1.1809405533939599
1790587954532490000,8.572489990234375,1.3271110655650495,9.644102645784615,-1.1834024134628474
1790587954542570200,8.5825703125,1.3232945760168133,9.644416534039378,-1.1851203963618724
1790587954552650200,8.592650146484376,1.333121119634807,9.643093176481127,-1.1848746049072594
1790587954562730000,8.60272998046875,1.3403062088333069,9.642218731734156,-1.183878433476761
1790587954572809200,8.612809326171876,1.338306121057272,9.642516253376007,-1.1837241196978836
1790587954582889000,8.622888916015626,1.339724025031179,9.642580550783872,-1.1815921491704882
1790587954592969200,8.63296923828125,1.3384119195193052,9.643201313030719,-1.1780143637489526
1790587954603049000,8.643049072265624,1.3349530112370849,9.643860069200397,-1.1765407109998165
1790587954613129200,8.653129150390624,1.3419994226172565,9.643177347633243,-1.174116990984231
1790587954623209000,8.663208984375,1.3511777314595876,9.64213748319149,-1.1721298357550054
1790587954633289200,8.673289306640624,1.3478368965990841,9.642645432713627,-1.1717934434074908
1790587954643369200,8.683369140625,1.3411146026067435,9.643432199177145,-1.1730337257921695
1790587954653449000,8.693448974609375,1.3446895384840667,9.642877487903833,-1.1734932330626993
1790587954663529200,8.703529296875,1.3524017202965914,9.641747022569179,-1.1739175959546118
1790587954673609000,8.71360888671875,1.354436294864118,9.641454177102446,-1.173980066731572
1790587954683689200,8.723689208984375,1.3585834776714443,9.640912909832597,-1.1736419208183884
1790587954693769200,8.733769287109375,1.356946816380322,9.641294602626562,-1.1724071183264255
1790587954703849000,8.743848876953125,1.3493405791603028,9.642335636112094,-1.1726265332307666
1790587954713929200,8.75392919921875,1.35048814176023,9.642007719331978,-1.1739818933624773
1790587954724009000,8.764009033203125,1.360429543929547,9.640335402205586,-1.1762409243356435
1790587954734089200,8.774089111328125,1.3635809936977923,9.639411273097991,-1.180171834043786
1790587954744169000,8.7841689453125,1.351696933028102,9.640790744757652,-1.1825603366155177
1790587954754249200,8.794249267578126,1.3482999840661882,9.641151979285478,-1.1834909685291348
1790587954764329200,8.8043291015625,1.3562806075565517,9.640119713628291,-1.182779166997969
1790587954774409000,8.814408935546876,1.3573822851881383,9.640278703582286,-1.1802255369924008
1790587954784489200,8.8244892578125,1.353238901773095,9.641279989579319,-1.1768054263506085
1790587954794569000,8.83456884765625,1.3452318286672234,9.642913143739104,-1.172578164044395
1790587954804649200,8.844649169921874,1.3422396611139178,9.64389104886055,-1.1679654095519334
1790587954814729200,8.854729248046874,1.3466707754291594,9.64359177365303,-1.1653395910929887
1790587954824809000,8.86480908203125,1.3523172568835318,9.642840663024783,-1.1650110897909849
1790587954834889200,8.87488916015625,1.3519032692551611,9.64310895857215,-1.1632673879288136
1790587954844969000,8.884968994140625,1.3372874455340207,9.645551675549148,-1.159902003148943
1790587954855049200,8.89504931640625,1.329776046990603,9.647146835786103,-1.1552681328032166
1790587954865129200,8.905129150390625,1.3425288533188402,9.646088266643881,-1.1493358201447874
1790587954875209200,8.915209228515625,1.3535766092948616,9.64540086890161,-1.1421322454415261
1790587954885289200,8.925289306640625,1.344378426708281,9.64728595199585,-1.1370572802647947
1790587954895369000,8.935368896484375,1.3336216165028512,9.649309566777944,-1.1325497397124766
1790587954905449000,8.945448974609375,1.3355747963972389,9.649584292066097,-1.1278855472937226
1790587954915529000,8.955529052734375,1.3393217278406022,9.649382047492265,-1.1251811837058514
1790587954925609000,8.96560888671875,1.34122843824476,9.649676062002777,-1.1203790441211312
1790587954935689000,8.97568896484375,1.3363937115646898,9.651454762113094,-1.1108034795895219
1790587954945769000,8.98576904296875,1.32145450110808,9.654611180317401,-1.1011964239411056
1790587954955849000,8.995848876953126,1.3162325286760925,9.656314477103948,-1.0924784260869025
1790587954965929000,9.005928955078126,1.3201238370262085,9.6570199950248,-1.081483277080953
1790587954976009000,9.016009033203124,1.3222766311459242,9.658330493101477,-1.0670629759319126
1790587954986089000,9.0260888671875,1.3138263443171978,9.660971362999081,-1.0535169733993708
1790587954996169000,9.0361689453125,1.3129457620903848,9.662157942435146,-1.0436809313006699
1790587955006249000,9.0462490234375,1.317320908434689,9.662899116191268,-1.0312405519224703
1790587955016329000,9.056328857421875,1.3156162964738904,9.66427566524148,-1.0204524697959423
1790587955026409000,9.066408935546875,1.3117324407778679,9.666113986584543,-1.0079635751008986
1790587955036489000,9.076489013671875,1.3095540738254785,9.667963998365401,-0.9929466232329607
1790587955046569000,9.08656884765625,1.3036331593438981,9.670463998487591,-0.9762426681261509
1790587955056648000,9.09664794921875,1.2869437442190945,9.674524672055243,-0.957982204292342
1790587955066728000,9.10672802734375,1.2797040022239088,9.67723568457961,-0.940138285370171
1790587955076808000,9.116807861328125,1.2887867417372763,9.677876320570707,-0.9209358645111322
1790587955086888000,9.126887939453125,1.294152944945544,9.679030751302838,-0.9010726416558027
1790587955096968000,9.136968017578125,1.2834873201549053,9.682040454512833,-0.883823546821624
1790587955107048000,9.1470478515625,1.2754073279432951,9.684609428218007,-0.867220348675549
1790587955117128000,9.1571279296875,1.2777619282454251,9.686153735050558,-0.8462408351413905
1790587955127208000,9.1672080078125,1.276767218119651,9.688080903720856,-0.8254264490410685
1790587955137288000,9.177287841796876,1.268183660300076,9.690825818514824,-0.8062227130077779
1790587955147368000,9.187367919921876,1.2551761485584079,9.694335872462391,-0.7840776628255843
1790587955157448000,9.197447998046876,1.2453373299807309,9.697294137746095,-0.7628875022154301
1790587955167528000,9.20752783203125,1.2399768258608876,9.69965385261476,-0.7413106803752482
1790587955177608000,9.21760791015625,1.247005701584369,9.700301502868532,-0.7207699966497719
1790587955187688000,9.22768798828125,1.2603458062812685,9.700059510806202,-0.7005424705266952
1790587955197768000,9.237767822265624,1.253425651629269,9.702415718543529,-0.6800296246562153
1790587955207848000,9.247847900390624,1.2437963841490447,9.705092244276404,-0.6591879852227867
1790587955217928000,9.257927978515625,1.2546896802157164,9.705075293141602,-0.6384583547964692
1790587955228008000,9.268008056640625,1.260700464937836,9.70569371730089,-0.6168859168704599
1790587955238088000,9.278087890625,1.2533363659106194,9.707678169116377,-0.6004224559886381
1790587955248168000,9.28816796875,1.2459784043632447,9.709624042487144,-0.5840407916387542
1790587955258248000,9.298248046875,1.2425680113978683,9.711175363582372,-0.5652143644852563
1790587955268328000,9.308327880859375,1.240584144104272,9.71242916303575,-0.5477856753004714
1790587955278408000,9.318407958984375,1.2374952381782234,9.71375193607211,-0.5310341181922704
1790587955288488000,9.328488037109375,1.2350133582346141,9.715052497276663,-0.5127217415081337
1790587955298568000,9.33856787109375,1.2244948868297039,9.717225165140627,-0.49652350743375717
1790587955308648000,9.34864794921875,1.2190586871251463,9.718606974887848,-0.4826579906232655
1790587955318728000,9.35872802734375,1.229715982478857,9.71800608638525,-0.46748201226871455
1790587955328808000,9.368807861328126,1.2367442736804484,9.717762925279139,-0.45377347611822183
1790587955338888000,9.378887939453126,1.231493221284449,9.719012048557401,-0.4411273450348526
1790587955348968000,9.388968017578126,1.2201551771249621,9.721078917959332,-0.42686731248144055
1790587955359048000,9.3990478515625,1.2117279789108781,9.722664141324161,-0.41462055597919967
1790587955369128000,9.4091279296875,1.2102344524174928,9.723445062568784,-0.40039837121814487
1790587955379208000,9.4192080078125,1.2174606042787433,9.72309902561009,-0.3866820901526138
1790587955389288000,9.429287841796874,1.2171276459973304,9.72369173080623,-0.37253680655267085
1790587955399368000,9.439367919921875,1.2019248161684721,9.726170103618502,-0.3568737022683024
1790587955409448000,9.449447998046875,1.2045513652797788,9.726303374609351,-0.34414847806673493
1790587955419528000,9.45952783203125,1.224138986064121,9.724297880005835,-0.33151769068297
1790587955429607000,9.46960693359375,1.2276309928983449,9.724260470604897,-0.3195021856533363
1790587955439687000,9.47968701171875,1.2139985541913658,9.726395144546032,-0.30627452835496516
1790587955449767000,9.489766845703125,1.1970517302393913,9.729079269063472,-0.28718431743243705
1790587955459847000,9.499846923828125,1.1910212179034947,9.730384506443142,-0.2673624495008029
1790587955469927000,9.509927001953125,1.198654927652329,9.729963650682569,-0.2478773392428644
1790587955480007000,9.5200068359375,1.2006105186995117,9.730250650930405,-0.2261304032664746
1790587955490087000,9.5300869140625,1.190151741592586,9.732034027215837,-0.20356668928079305
1790587955500167000,9.5401669921875,1.184121375387162,9.73320599360466,-0.18155567727442828
1790587955510247000,9.550246826171875,1.1901407818071543,9.73285060429573,-0.15987893872372805
1790587955520327000,9.560326904296875,1.2078110246628522,9.731020466259121,-0.1372239023259375
1790587955530407000,9.570406982421876,1.2086518594011664,9.731254275014996,-0.11063064056322909
1790587955540487200,9.580487060546876,1.1929410800501703,9.73348656411171,-0.08088810272305272
1790587955550567000,9.59056689453125,1.185084521330893,9.734669051894546,-0.0467737247405108
1790587955560647000,9.60064697265625,1.1863100445378572,9.734626381796598,-0.010183522095810622
1790587955570727000,9.610726806640624,1.1911528083939105,9.73400445050597,0.02597739945326466
1790587955580807000,9.620806884765624,1.1868013351861386,9.73436217790246,0.06388857133630663
1790587955590887000,9.630886962890624,1.1756451503995806,9.73542483869791,0.09870059446049853
1790587955600967000,9.640966796875,1.1840184264693407,9.734036014688014,0.1304331005414948
1790587955611047000,9.651046875,1.2036291358683258,9.73109586958289,0.1656522796944715
1790587955621127000,9.661126953125,1.2038445321846754,9.730344758954644,0.203853981789574
1790587955631207000,9.67120703125,1.199761135328561,9.729955467376111,0.2427254546387121
1790587955641287000,9.681286865234375,1.20791558101587,9.727792736384272,0.2852401428284123
1790587955651367000,9.691366943359375,1.2071717769112438,9.726541275018453,0.32788770015016194
1790587955661447200,9.701447265625,1.211276654946804,9.7246456705302,0.36666217889823016
1790587955671527000,9.71152685546875,1.2221674667954445,9.721571669912338,0.4095528973260894
1790587955681607000,9.72160693359375,1.2237121389541774,9.719452778062223,0.45294513553529975
1790587955691687000,9.73168701171875,1.224338892550394,9.717281279242037,0.49580593374893067
1790587955701767000,9.741766845703125,1.240514439868927,9.712998487356305,0.5377406300935894
1790587955711847200,9.75184716796875,1.2590946371763945,9.708003747808933,0.5828634549550712
1790587955721927000,9.761927001953126,1.2578979747377335,9.705333651816844,0.62816894290708
1790587955732007000,9.7720068359375,1.2658907270573079,9.701243752154708,0.6736175656568258
1790587955742087000,9.7820869140625,1.2819168559677898,9.695727034559845,0.7210792817946523
1790587955752167000,9.7921669921875,1.2874058087728917,9.691621352806687,0.7651535474512725
1790587955762247000,9.802246826171874,1.2912661374628542,9.687745972678064,0.8065989259090274
1790587955772327000,9.812326904296874,1.2993351698890327,9.683292500400542,0.84614848068282
1790587955782407200,9.8224072265625,1.31091250269711,9.678515787518023,0.8821762180060148
1790587955792486000,9.83248583984375,1.3262206925965845,9.673286070170999,0.9160003808703273
1790587955802566100,9.842566162109375,1.340235920076072,9.66833926141858,0.9472837001454084
1790587955812646000,9.85264599609375,1.345901252361387,9.664615856981277,0.9767946029204875
1790587955822726000,9.862725830078125,1.351878280944377,9.660920509594678,1.0046909101057797
1790587955832806000,9.872805908203125,1.3612205481767654,9.656810736188293,1.0312450089018792
1790587955842886000,9.882885986328125,1.3755346124723553,9.65231985450983,1.054037197881192
1790587955852966000,9.8929658203125,1.3854539489403366,9.648266195204853,1.0778925591126083
1790587955863046000,9.9030458984375,1.379059133336693,9.646747607335447,1.0994657276909798
1790587955873126100,9.913126220703125,1.3777258389063178,9.64498995001316,1.1164298681039362
1790587955883206000,9.923205810546875,1.392651020837575,9.641025722557305,1.1320425208427012
1790587955893286000,9.933285888671875,1.4003466899067163,9.638509940344095,1.1439080960076302
1790587955903366000,9.943365966796875,1.396921099372208,9.637834233039618,1.1537502755861728
1790587955913445400,9.9534453125,1.3957703219018875,9.636380527099966,1.1672167831417173
1790587955923525400,9.963525390625,1.4050035758018493,9.63376362259984,1.1776836704898626
1790587955933605400,9.97360546875,1.4143231928110123,9.631340779367088,1.1863188123662025
1790587955943685600,9.983685546875,1.4143622096471489,9.630208560466766,1.195424129037559
1790587955953765400,9.993765380859376,1.409118317644298,9.629970660057664,1.2035098934028297
1790587955963845400,10.003845458984374,1.4091737010933458,9.628991001370549,1.211259703812003
1790587955973925400,10.01392529296875,1.4228434761360287,9.62648749411702,1.2151749775595961
1790587955984005400,10.02400537109375,1.4280170793816447,9.625306759899853,1.2184487385332583
1790587955994085600,10.034085693359375,1.416931767874211,9.627016486427188,1.217885770888254
1790587956004165400,10.044165283203125,1.410950939898938,9.62792424892187,1.217661533678323
1790587956014245600,10.05424560546875,1.4133628233462572,9.627400517308711,1.2189945358477532
1790587956024325400,10.064325439453125,1.4222688911184667,9.626220367613435,1.2179552559278906
1790587956034405400,10.0744052734375,1.4198404949277639,9.626328504163027,1.2199400730695575
1790587956044485400,10.0844853515625,1.3995428261779248,9.629000353720784,1.2223017606995998
1790587956054565400,10.0945654296875,1.3980195621334015,9.629498950892687,1.2201136760707945
1790587956064645600,10.104645751953125,1.4099272959396243,9.627810267153382,1.2197342482991516
1790587956074725400,10.114725341796875,1.4083449951842426,9.628350949901343,1.2172921889092772
1790587956084805400,10.124805419921875,1.3990017050385475,9.630281041181087,1.2127905666410923
1790587956094885400,10.134885498046875,1.3969038559764624,9.631237903514505,1.2075872989095746
1790587956104965400,10.14496533203125,1.4039398920930921,9.630702481463551,1.2037127955637872
1790587956115044400,10.15504443359375,1.4084620456926524,9.630597267523408,1.1992526743497698
1790587956125124400,10.165124267578125,1.4005860516205428,9.632100657823681,1.196402910941839
1790587956135204600,10.17520458984375,1.3932941410467028,9.633647302743793,1.1924577535126357
1790587956145284400,10.185284423828126,1.3939762780919671,9.634309566044807,1.1862989386219531
1790587956155364600,10.195364501953126,1.387991358463466,9.636084759023785,1.1788787254933266
1790587956165444400,10.2054443359375,1.3831906801834701,9.638377253875136,1.1657026522517204
1790587956175524400,10.2155244140625,1.3785193273715675,9.640222004958988,1.1559463973909616
1790587956185604400,10.225604248046874,1.3650583727739751,9.643232877212762,1.1467649467434733
1790587956195684400,10.235684326171874,1.3620365407347679,9.64485784806609,1.1366417582664639
1790587956205764600,10.2457646484375,1.3703152703888712,9.644944357305764,1.1258978806078432
1790587956215844400,10.25584423828125,1.3630170762047171,9.647577628418803,1.112121576450765
1790587956225924600,10.265924560546875,1.3489391587525605,9.651608491370082,1.0941657946519554
1790587956236004400,10.27600439453125,1.3512785614855587,9.653150460115075,1.0775425035659223
1790587956246084400,10.28608447265625,1.3517897258780895,9.655092241832614,1.0593601464696227
1790587956256164600,10.29616455078125,1.3375491652101277,9.659255206730961,1.039290587387234
1790587956266244400,10.306244384765625,1.3234908292412757,9.663293083944916,1.0195614392403514
1790587956276324600,10.31632470703125,1.3142267418116331,9.666610245668888,0.9999227458558976
1790587956286404400,10.326404296875,1.3188085166439414,9.668102530053257,0.9792395849198102
1790587956296484400,10.336484375,1.3264319972597063,9.66886123946607,0.9612992929510772
1790587956306564400,10.346564453125,1.3135153786718845,9.672365448194741,0.9436257621597498
1790587956316644400,10.356644287109376,1.3028706505388021,9.675799514296651,0.9229469851378351
1790587956326724600,10.366724609375,1.307267570323497,9.677019411480426,0.9037273208830505
1790587956336804400,10.376804443359376,1.2966104211002587,9.680179921337961,0.8850454167667776
1790587956346884600,10.386884521484374,1.2826511615917087,9.68381973914504,0.8653520705856382
1790587956356964400,10.39696435546875,1.280415219233185,9.685557522723078,0.8490484399080276
1790587956367044400,10.40704443359375,1.2792843155071139,9.68693231820762,0.8349511601682752
1790587956377124600,10.41712451171875,1.2762402716360985,9.688718032580613,0.8187471904728562
1790587956387203300,10.427203369140624,1.268441872844845,9.691006435778737,0.8036312352098524
1790587956397283600,10.43728369140625,1.2594389205694199,9.693243401050568,0.790710890294984
1790587956407363300,10.44736328125,1.2629065966799855,9.693975806978344,0.776062041087076
1790587956417443600,10.457443603515625,1.26679600533396,9.694538701558113,0.7625923917263746
1790587956427523300,10.4675234375,1.266087272542715,9.695438280746341,0.7522512496497482
1790587956437603600,10.477603515625,1.260404550731182,9.696983756622672,0.7418067933291196
1790587956447683300,10.487683349609375,1.2556310527190566,9.698212421634793,0.73379833198376
1790587956457763300,10.497763427734375,1.257884969125688,9.698611650085448,0.7246036565285175
1790587956467843600,10.507843505859375,1.2641288319513202,9.698608727476,0.7136921672180294
1790587956477923300,10.51792333984375,1.257387979388982,9.700254156595468,0.7031707732036709
1790587956488003600,10.528003662109375,1.2511967235334216,9.70196622121036,0.6904780264995992
1790587956498083300,10.538083251953125,1.2605382601134478,9.701525491705537,0.6795954710226506
1790587956508163300,10.548163330078125,1.2642298081077634,9.701703186360001,0.6701145990371704
1790587956518243600,10.55824365234375,1.2602144349865614,9.70282313030064,0.6614050036851317
1790587956528323300,10.5683232421875,1.25952703724429,9.703201900485157,0.6571546527642756
1790587956538403600,10.578403564453126,1.2534177605837582,9.704231243532895,0.6536394842501729
1790587956548483300,10.5884833984375,1.2553154108986257,9.70427975884974,0.6492511130981147
1790587956558563600,10.5985634765625,1.258998483325541,9.703801035422087,0.6492712791033088
1790587956568643300,10.608643310546874,1.249149581745267,9.705271692496538,0.6463168862771242
1790587956578723300,10.618723388671874,1.2432945721067488,9.706289345106482,0.6423116692237556
1790587956588803600,10.628803466796874,1.253187166698277,9.705299749547242,0.6380054233971982
1790587956598883300,10.63888330078125,1.2641878686621784,9.704407184621692,0.629844621034339
1790587956608963600,10.648963623046875,1.255054129613936,9.706016957905888,0.6232674346011131
1790587956619043300,10.659043212890625,1.2501288020409642,9.706801970803737,0.6209249631281942
1790587956629123300,10.669123291015625,1.2620359513252972,9.705308517375588,0.6201997175935655
1790587956639203600,10.67920361328125,1.2621486179195345,9.705220254570245,0.6213556096304208
1790587956649283300,10.689283447265625,1.248377136068046,9.706913614484668,0.6227182032205164
1790587956659363600,10.699363525390625,1.2306652460277079,9.709158178541063,0.622985256658867
1790587956669442300,10.7094423828125,1.2197499573249369,9.710710668680072,0.6202321585584432
1790587956679522600,10.7195224609375,1.2355889661654829,9.708952426835895,0.6164035401809961
1790587956689602300,10.729602294921875,1.2453067887119948,9.707778122359514,0.6153421945597977
1790587956699682600,10.7396826171875,1.2354225235573946,9.709079268085956,0.614735826164484
1790587956709762300,10.74976220703125,1.244517684160918,9.707969845539331,0.6139085084948689
1790587956719842600,10.759842529296876,1.25528910741359,9.706674545031785,0.6124546564247458
1790587956729922600,10.769922607421876,1.2477733249559997,9.707870476818083,0.6088292324692011
1790587956740002300,10.780002197265626,1.2396489090807734,9.709199679595232,0.6042164779767394
1790587956750082600,10.79008251953125,1.2271499313831329,9.710876672896742,0.6027713572023436
1790587956760162300,10.800162353515624,1.2168314395297317,9.71233505501151,0.6001843729164451
1790587956770242600,10.81024267578125,1.2301174028865993,9.710905898991227,0.5962453529670834
1790587956780322600,10.820322509765624,1.2435446013450622,9.709224814036489,0.5957531124707311
1790587956790402300,10.83040234375,1.232480917147547,9.710854461064935,0.5921789437783882
1790587956800482600,10.840482666015625,1.2286245339803397,9.711800802004337,0.5846261172460392
1790587956810562300,10.850562255859375,1.236731998720765,9.71112509469986,0.5787438542744144
1790587956820642600,10.860642578125,1.2272352715790271,9.712805010610818,0.5707003581482917
1790587956830722300,10.870722412109375,1.2243235488507895,9.713590023508667,0.5635488789584487
1790587956840802300,10.88080224609375,1.2384113301098345,9.711897248116134,0.5619191588647663
1790587956850882600,10.890882568359375,1.2483264287941158,9.710723528161644,0.5602833012912423
1790587956860962300,10.90096240234375,1.23951534582898,9.71214976157248,0.5550882899314165
1790587956871042600,10.91104248046875,1.2248201001960783,9.714587217852472,0.5449712389342487
1790587956881122300,10.921122314453125,1.2208446937590838,9.715774381810427,0.5325634466513991
1790587956891202600,10.93120263671875,1.219851883329451,9.71677274519801,0.5164020374560728
1790587956901282600,10.941282470703126,1.2208671978518366,9.717647189944982,0.49721419311165804
1790587956911362000,10.951362060546876,1.2179856510661542,9.718849551472067,0.4804876973794773
1790587956921442300,10.9614423828125,1.212135829059407,9.720473353281617,0.46207989749684925
1790587956931522000,10.97152197265625,1.2098344202492386,9.721512048679589,0.445954180669412
1790587956941602300,10.981602294921874,1.2025061962530017,9.723179105108976,0.42912988711856304
1790587956951682300,10.991682373046874,1.1976640899840743,9.72460826112926,0.4098555335344746
1790587956961762300,11.00176220703125,1.203994900440797,9.724541041111946,0.39255430665425955
1790587956971842300,11.01184228515625,1.2032581836640834,9.72535294201672,0.37424178383965045
1790587956981922000,11.021922119140624,1.2009911885801703,9.726371179148554,0.35459271519165486
1790587956992002300,11.032002197265625,1.203208791564405,9.726712539932132,0.3372697148710489
1790587957002082300,11.042082275390625,1.1968368453796951,9.728179105353355,0.31703239800632
1790587957012162300,11.052162353515625,1.1958598901063202,9.728986330083012,0.29520795808061956
1790587957022242300,11.0622421875,1.2036128423206507,9.72868997748494,0.2725877829336561
1790587957032322000,11.072322021484375,1.1993262510426341,9.729861943873763,0.24853605887992306
1790587957042402300,11.08240234375,1.1818577413041145,9.732580555182695,0.22462226372584698
1790587957052482000,11.09248193359375,1.182807224048674,9.733007256162166,0.1997746583203785
1790587957062562300,11.102562255859375,1.202871960825473,9.730980134248734,0.1775395735008642
1790587957072642300,11.112642333984375,1.2106052584912628,9.730378076702356,0.15675083329845219
1790587957082722300,11.122722412109376,1.2043190178286283,9.731447751760482,0.13765282266195863
1790587957092802300,11.13280224609375,1.1911746548995374,9.733276720753311,0.12172381571670994
1790587957102882000,11.142882080078126,1.1893399137530476,9.733733816871046,0.10144651390146464
1790587957112962300,11.15296240234375,1.201225435727462,9.732517426818609,0.07461169390126597
1790587957123042300,11.163042236328126,1.1930450518812983,9.733654321894049,0.05493985629903618
1790587957133122300,11.173122314453124,1.173791485356912,9.736029818853735,0.04839208775653969
1790587957143201300,11.183201171875,1.1810314465478062,9.735162972891331,0.04630905723767355
1790587957153281300,11.19328125,1.2039316259462385,9.732390001046657,0.03908514756585937
1790587957163361300,11.203361328125,1.1938359099980442,9.733673611116409,0.027199577642383517
1790587957173441300,11.213441162109374,1.1605883049126713,9.737721425202489,0.014581396295153535
1790587957183521300,11.223521240234374,1.150772867210582,9.73889514515698,0.004196427064065937
1790587957193601000,11.23360107421875,1.1657549669608473,9.737114691480993,-0.0030236746531329115
1790587957203681300,11.243681396484375,1.172741026455909,9.736272395437956,-0.008641131513242726
1790587957213761300,11.25376123046875,1.1675121858917177,9.736900756469367,-0.009116562438689288
1790587957223841300,11.26384130859375,1.169708892218396,9.736641228750347,-0.0021172089236868486
1790587957233921300,11.27392138671875,1.1674265534348784,9.736913031429053,0.004981469073845073
1790587957244001000,11.2840009765625,1.1694867008350789,9.736665194147825,0.005262967737723374
1790587957254081300,11.294081298828125,1.1781707233544438,9.735620653530955,-0.0005948962969952845
1790587957264161300,11.304161376953125,1.1721190221000461,9.736349552327393,-0.004333599909774785
1790587957274241300,11.3142412109375,1.1687182006806134,9.736759886693953,-0.003386825145532202
1790587957284321300,11.3243212890625,1.1725243880305438,9.73629928344488,0.005626753269773325
1790587957294401300,11.3344013671875,1.1705303646691143,9.736528416025639,0.015529617522744229
1790587957304481300,11.344481201171876,1.1787727078355847,9.73552011576593,0.02349297135954257
1790587957314561000,11.35456103515625,1.1927524986755103,9.733795776191354,0.030924294970650225
1790587957324641300,11.364641357421876,1.1795128586784005,9.73538684477508,0.036945416140404995
1790587957334721300,11.37472119140625,1.1718760801896453,9.736294022747874,0.04065143333477899
1790587957344801300,11.38480126953125,1.1924238512430338,9.733759535834192,0.04959920765713323
1790587957354881300,11.39488134765625,1.1986183219689874,9.732938282579182,0.060103979330253784
1790587957364960300,11.404960205078124,1.1883281063620001,9.734158179762959,0.06645085043921135
1790587957375040300,11.415040283203124,1.183411254356429,9.73467898876667,0.07713539912602864
1790587957385120300,11.425120361328124,1.190589475422725,9.73370868242979,0.08818991363639943
1790587957395200300,11.4352001953125,1.1964560293685644,9.732896197003125,0.09791723466361872
1790587957405280300,11.4452802734375,1.190205444541201,9.73356196743548,0.10751249940954148
1790587957415360300,11.4553603515625,1.186031300661713,9.733992175546287,0.11453076240746304
1790587957425440300,11.465440185546875,1.1854893758047371,9.734000943374634,0.11929205852514133
1790587957435520300,11.475520263671875,1.1897742865823209,9.733436295229197,0.1226177140828222
1790587957445600300,11.485600341796875,1.1958210924658923,9.732652451375126,0.1260348381830845
1790587957455680300,11.49568017578125,1.197820668785274,9.732330964335798,0.13172700367639772
1790587957465760300,11.50576025390625,1.1948392418216913,9.732619133627415,0.13734753783876075
1790587957475840300,11.51584033203125,1.1946711187131702,9.732595168229937,0.14048592719603328
1790587957485920300,11.525920166015625,1.2015412236783654,9.73167805338502,0.14537351657450198
1790587957496000300,11.536000244140626,1.1901913429506121,9.733004333552717,0.14990454760026187
1790587957506080300,11.546080322265626,1.18233931427598,9.733964703017472,0.1496474675666541
1790587957516160300,11.55616015625,1.1902101207163185,9.733044081041216,0.1470320700370241
1790587957526240300,11.566240234375,1.1886399487901478,9.73331997537315,0.14143572046784683
1790587957536320300,11.5763203125,1.1909900190476328,9.733096688011289,0.13701431469586678
1790587957546400300,11.586400146484374,1.2004433454390615,9.731959208413958,0.1352219239869155
1790587957556480300,11.596480224609374,1.203459405324608,9.731650580856204,0.1306330435603857
1790587957566559200,11.606559326171874,1.200122954378277,9.73210475436449,0.12739264600020833
1790587957576639200,11.61663916015625,1.1924983047187327,9.733122406974434,0.12099519091490656
1790587957586719200,11.62671923828125,1.185370133339241,9.734092713311314,0.11278200991083867
1790587957596799200,11.63679931640625,1.1922699027903376,9.733357969295978,0.10310679353019223
1790587957606879200,11.646879150390625,1.1983844401478767,9.732723178523779,0.09137703750622458
1790587957616959200,11.656959228515625,1.1908943035881965,9.733748429918288,0.07927526069893501
1790587957627039200,11.667039306640625,1.190889262086898,9.733832016548513,0.06843131106616929
1790587957637119200,11.677119140625,1.205720116798207,9.732071436616778,0.05844408786059357
1790587957647199200,11.68719921875,1.2065542295347897,9.732014737993477,0.050142561852792276
1790587957657279200,11.697279296875,1.1956542845316231,9.733408822700381,0.03908617504574358
1790587957667359200,11.707359130859375,1.1931040885921567,9.733756028702855,0.029274746798491104
1790587957677439200,11.717439208984375,1.1969803455036132,9.733308284935354,0.018469505757896694
1790587957687519200,11.727519287109375,1.19632692309618,9.733401808437705,0.008214023537572938
1790587957697599200,11.73759912109375,1.190604672991857,9.734106157314777,-0.001319190984614397
1790587957707679200,11.74767919921875,1.1946574555139988,9.733605222055315,-0.011112648180575342
1790587957717759200,11.75775927734375,1.1969438128855079,9.733308284935354,-0.02082600575616816
1790587957727839200,11.767839111328126,1.189525134126842,9.734191497510672,-0.030370889738434922
1790587957737919200,11.777919189453126,1.1898563388425856,9.73411960131824,-0.03909393822709098
1790587957747999200,11.787999267578124,1.1912938242997972,9.733922032919526,-0.04408606569226831
1790587957758078500,11.798078369140624,1.1867711592435837,9.734446933576464,-0.050114600700209844
1790587957768158200,11.808158203125,1.1798479358516634,9.735265264222026,-0.05453350855442695
1790587957778238200,11.81823828125,1.181113498808071,9.735083477914333,-0.059343169291899533
1790587957788318200,11.828318115234374,1.1885535126157105,9.734143566715717,-0.06467232842540833
1790587957798398200,11.838398193359374,1.1880700399477033,9.734167532113194,-0.06970215755247045
1790587957808478500,11.848478515625,1.1817794884361326,9.73488357142806,-0.07643666257241274
1790587957818558200,11.85855810546875,1.1795595473643392,9.735104520702361,-0.08224676905670203
1790587957828638200,11.86863818359375,1.1814176693864167,9.734861359596252,-0.08415262094433419
1790587957838718200,11.87871826171875,1.1831214776296168,9.734615275880694,-0.08866955037950537
1790587957848798200,11.888798095703125,1.1816834076505154,9.734780111053585,-0.0897754657947924
1790587957858878200,11.898878173828125,1.1787872478175907,9.735134331318735,-0.08962447648416273
1790587957868958200,11.908958251953125,1.1797408952806143,9.734975341364741,-0.09410690086153335
1790587957879038200,11.9190380859375,1.1919511191647498,9.733443309491872,-0.09852629733951762
1790587957889118200,11.9291181640625,1.1965078326210379,9.73285060429573,-0.10171788732190616
1790587957899198200,11.9391982421875,1.1860550468634814,9.734077515742182,-0.10665285037290305
1790587957909278000,11.94927783203125,1.1882276416622102,9.73380220593214,-0.10760852539623156
1790587957919357700,11.959357666015626,1.1960583352878689,9.732841251945494,-0.10778177220444195
1790587957929437000,11.96943701171875,1.1924532965332268,9.733256262487172,-0.11023954975325613
1790587957939516700,11.9795166015625,1.184550779780373,9.73423182952106,-0.10936633798214607
1790587957949597000,11.989596923828126,1.1811726816494017,9.734619367533922,-0.111397743345052
1790587957959677000,11.999677001953126,1.1840261713843792,9.73423182952106,-0.11496322640744037
1790587957969757000,12.0097568359375,1.1890724949885159,9.733588270920514,-0.11724259691573678
1790587957979837000,12.0198369140625,1.1877367894053459,9.733715696692466,-0.12018419419243
1790587957989917000,12.0299169921875,1.1836970855604856,9.734199680817127,-0.12085990149690769
1790587957999997000,12.039996826171874,1.190398848221451,9.733417590528726,-0.1179091984651517
1790587958010076700,12.05007666015625,1.199390694580972,9.732336809554695,-0.11609100659466348
1790587958020157000,12.060156982421875,1.1827030330218373,9.734384389734268,-0.11560367973544634
1790587958030237000,12.07023681640625,1.1686784531921148,9.736098792436719,-0.11381958193080499
1790587958040317000,12.08031689453125,1.1805546958815305,9.734690094682573,-0.11181742092869244
1790587958050397000,12.09039697265625,1.1886470361180603,9.733717450258135,-0.11072650215313769
1790587958060476700,12.1004765625,1.1846828086622059,9.734199096295237,-0.1109029090328142
1790587958070557000,12.110556884765625,1.1783362161144613,9.73495839022994,-0.11189844114249571
1790587958080637000,12.120636962890625,1.1831743768606333,9.734336458939314,-0.11474110808935947
1790587958090717000,12.130717041015625,1.1910983017276973,9.733343940770625,-0.1169154747200664
1790587958100797000,12.140796875,1.1843446627490222,9.734134214365481,-0.11977433474990538
1790587958110876000,12.1508759765625,1.1779491895582526,9.734887663081288,-0.12160303888125344
1790587958120956000,12.160955810546875,1.1798030737966299,9.734632811537384,-0.12400993562620133
1790587958131036000,12.171035888671875,1.186566430451721,9.733754275137185,-0.12837107171146198
1790587958141116000,12.181115966796876,1.18148605844751,9.734327691110968,-0.13171064619664102
1790587958151195600,12.191195556640626,1.1779039621770382,9.734665544763207,-0.1386333033329807
1790587958161276000,12.20127587890625,1.1847943062126636,9.733754275137185,-0.14376637363880873
1790587958171356000,12.21135595703125,1.1782673886619508,9.734434658616781,-0.1512218407439068
1790587958181436000,12.221435791015624,1.1730852367836981,9.73492214987278,-0.1598851310024969
1790587958191516000,12.231515869140624,1.1719676309306173,9.734983524671197,-0.1642280190450139
1790587958201596000,12.241595947265624,1.169816736507043,9.735140761059522,-0.17014513413431123
1790587958211676000,12.251676025390625,1.1780580567602068,9.734029584947228,-0.17672957229223102
1790587958221756000,12.261755859375,1.1750238766960799,9.734294373363255,-0.1823391375360079
1790587958231836000,12.2718359375,1.1719104208506643,9.73447265253961,-0.1924648832962848
1790587958241916000,12.281916015625,1.177756954921782,9.733626264843345,-0.19949799680346622
1790587958251996000,12.291995849609375,1.1774389019485563,9.733490071243047,-0.20783769939718766
1790587958262076000,12.302075927734375,1.1774756537623703,9.733293671888113,-0.2166255110845901
1790587958272155600,12.31215576171875,1.1676117738086729,9.734368023121357,-0.2216653866816312
1790587958282235000,12.32223486328125,1.1642813872769475,9.734560915344954,-0.23050547654554246
1790587958292315000,12.33231494140625,1.1751363240946084,9.733113639146088,-0.23653034459194167
1790587958302395000,12.342394775390625,1.1787782607935369,9.732563604047893,-0.24103448761077598
1790587958312475000,12.352474853515625,1.1818175554241985,9.7320305200845,-0.24751941091697663
1790587958322555000,12.362554931640625,1.180469940207526,9.732099493667484,-0.25121273074327033
1790587958332635000,12.372634765625,1.170573619288951,9.73311071653664,-0.2581999410158023
1790587958342715000,12.38271484375,1.1680877207573503,9.733213592389225,-0.2654952856557444
1790587958352795000,12.392794921875,1.173048119643703,9.732478848373889,-0.27055397555110977
1790587958362875000,12.402875,1.1765722021166234,9.731950440585612,-0.2742552412218414
1790587958372955000,12.412954833984376,1.1793048419509082,9.731512633690237,-0.2780228501270525
1790587958383035000,12.423034912109374,1.1774429205365478,9.73167279268801,-0.28025513922376555
1790587958393115000,12.433114990234374,1.187489755841717,9.730337160170079,-0.284213813721668
1790587958403195000,12.44319482421875,1.1999401451572775,9.728680625134706,-0.2885992987968959
1790587958413275000,12.45327490234375,1.1892509202953427,9.729708214616775,-0.29806404163148253
1790587958423355000,12.46335498046875,1.1770515831314026,9.73089537857473,-0.3076006258595735
1790587958433435000,12.473434814453125,1.1732909154236315,9.731294022503494,-0.309344071993418
1790587958443513900,12.483513916015625,1.179305426472798,9.730525376218557,-0.3106334542168304
1790587958453593900,12.49359375,1.185472716930881,9.729849084392189,-0.3083281364165246
1790587958463673900,12.503673828125,1.1798640832688658,9.730670337647199,-0.3038715588664636
1790587958473753900,12.51375390625,1.179540038946271,9.730698979219794,-0.30426397398384286
1790587958483833900,12.523833740234375,1.1835863917276264,9.730213241529464,-0.30412186209941283
1790587958493913900,12.533913818359375,1.1784802276950328,9.730773798021673,-0.30597391970688476
1790587958503993900,12.543993896484375,1.1816797543887048,9.730233115273714,-0.3107570075312629
1790587958514073900,12.554073974609375,1.19624728198871,9.72854443153441,-0.30789635740313676
1790587958524153900,12.56415380859375,1.191512362421304,9.729358086004853,-0.30047236314853654
1790587958534233900,12.57423388671875,1.1774056572660803,9.731346629473567,-0.2915471157518215
1790587958544313900,12.58431396484375,1.17390027949363,9.73210241627693,-0.28021073382645845
1790587958554393900,12.594393798828126,1.1783698261231184,9.731727153223753,-0.27441408504536374
1790587958564473900,12.604473876953126,1.1794269339606165,9.731737674617767,-0.2694921367395669
1790587958574553900,12.614553955078126,1.1822815196741372,9.731523155084252,-0.26468519311556593
1790587958584633900,12.6246337890625,1.1879812656857072,9.731014036518335,-0.25777948711402715
1790587958594713000,12.634713134765626,1.188049070224911,9.731174780037998,-0.25137374825757
1790587958604792800,12.644792724609376,1.1911620876789093,9.730962598592042,-0.24473142416626215
1790587958614872800,12.654872802734374,1.192266907115653,9.73105904470384,-0.23527515689907594
1790587958624952800,12.664952880859374,1.1890990907344967,9.731666362947225,-0.22607090989788992
1790587958635032800,12.67503271484375,1.1900202241674065,9.73172890678942,-0.21842605770053342
1790587958645112800,12.68511279296875,1.188921469145268,9.732043379566074,-0.21018409812655298
1790587958655192800,12.69519287109375,1.1819190430372952,9.733061616697906,-0.2024033993887715
1790587958665272800,12.70527294921875,1.1819039915986358,9.733211838823557,-0.1951502499227412
1790587958675352800,12.715352783203125,1.1916536705881355,9.732238025355338,-0.18409084004154427
1790587958685432800,12.725432861328125,1.1835969131216406,9.733365568080544,-0.1763190187299624
1790587958695512800,12.735512939453125,1.173857024873793,9.73465969954431,-0.16986923980237914
1790587958705592800,12.7455927734375,1.186771962961182,9.733315299198031,-0.15658755076183006
1790587958715673000,12.755673095703125,1.1830254699092357,9.733940737619996,-0.1457529534792993
1790587958725752800,12.7657529296875,1.172963217839226,9.735279292747379,-0.1373412816279102
1790587958735832800,12.775832763671875,1.1865094395674765,9.733836692723632,-0.12247091689012013
1790587958745911800,12.785911865234375,1.1805388407252728,9.734704123207926,-0.11081113909613341
1790587958755991800,12.79599169921875,1.171874984211102,9.735823482626676,-0.10415119714974425
1790587958766071800,12.80607177734375,1.1799695164047181,9.734981186583637,-0.09048753218743949
1790587958776151800,12.81615185546875,1.169501971469447,9.736364165374637,-0.07645565496725029
1790587958786231800,12.826231689453126,1.1652743438370525,9.736940503957866,-0.06702849049696233
1790587958796311800,12.836311767578126,1.1744154624741523,9.735935126307606,-0.05197939905824605
1790587958806392000,12.84639208984375,1.1714672801930457,9.73635656659007,-0.03762473560749786
1790587958816471800,12.856471923828124,1.1715934638559817,9.736380531987548,-0.02564609655610984
1790587958826551800,12.8665517578125,1.1776538598734885,9.735672675979137,-0.014665646220726193
1790587958836631800,12.8766318359375,1.1780497273232786,9.735634097534417,-0.003899333538833889
1790587958846711800,12.8867119140625,1.1686669819500297,9.736763393825292,0.008100844915860215
1790587958856792000,12.8967919921875,1.168530569154024,9.736761055737734,0.020099326316278893
1790587958866871800,12.906871826171875,1.1794715037547052,9.735400288778543,0.03503441772019723
1790587958876951800,12.916951904296875,1.172038869535923,9.736240831255913,0.04846374648695346
1790587958887031800,12.92703173828125,1.163954785671085,9.737149178272485,0.05935598767427727
1790587958897111800,12.93711181640625,1.1727851578585802,9.735992993974685,0.07337215130210388
1790587958907190800,12.947190673828125,1.1703557387545704,9.736196407592296,0.08435545917320995
1790587958917270800,12.957270751953125,1.1797976669691503,9.734998137718438,0.09095454691099003
1790587958927350800,12.967350830078125,1.1950384907208382,9.73299907285571,0.10476729235462844
1790587958937430800,12.9774306640625,1.1854912755008786,9.73402666233778,0.11709592758719808
