time,seconds_elapsed,z,y,x
1790587946014904800,0.05490478515625,0.046263400465250015,-0.1983620673418045,0.003515506163239479
1790587946024984800,0.06498486328125,0.0237857885658741,-0.12529318034648895,-0.002292848192155361
1790587946035064800,0.07506494140625,0.0022911494597792625,-0.08162640035152435,-0.023039938881993294
1790587946045144800,0.085144775390625,-0.00571351358667016,-0.09445058554410934,-0.04130922257900238
1790587946055224800,0.095224853515625,0.005424358416348696,-0.12834542989730835,-0.05374458432197571
1790587946065304800,0.105304931640625,0.03991522639989853,-0.14318802952766418,-0.04812505096197128
1790587946075384800,0.115384765625,0.057873986661434174,-0.12622582912445068,-0.029713021591305733
1790587946085463800,0.1254638671875,0.06332281231880188,-0.11473987996578217,0.00995582900941372
1790587946095544800,0.135544921875,0.03734420984983444,-0.06891033798456192,0.051687829196453094
1790587946105624800,0.145624755859375,-0.027220936492085457,-0.01986663229763508,0.08691824972629547
1790587946115703800,0.155703857421875,-0.07324705272912979,0.019698690623044968,0.08800329267978668
1790587946125784800,0.165784912109375,-0.08199873566627502,0.07150117307901382,0.0400027371942997
1790587946135863800,0.17586376953125,-0.05240355804562569,0.024248436093330383,-0.007058246992528439
1790587946145943800,0.18594384765625,-0.007259784732013941,-0.09838959574699402,-0.039426039904356
1790587946156023800,0.19602392578125,0.03675800934433937,-0.2051924765110016,-0.0758088156580925
1790587946166103800,0.206103759765625,0.021551089361310005,-0.2645828425884247,-0.0744607225060463
1790587946176184000,0.21618408203125,-0.0657004565000534,-0.25212082266807556,-0.024564802646636963
1790587946186263800,0.226263916015625,-0.2317994087934494,-0.14033491909503937,0.056832849979400635
1790587946196343800,0.23634375,-0.3940141797065735,-0.04501825198531151,0.24089482426643372
1790587946206423800,0.246423828125,-0.4893883466720581,0.0035088034346699715,0.4901861548423767
1790587946216503800,0.25650390625,-0.4937383532524109,0.051398299634456635,0.7985913753509521
1790587946226583800,0.266583740234375,-0.45363008975982666,0.2815942168235779,1.0212756395339966
1790587946236663800,0.276663818359375,-0.37896278500556946,0.5785934329032898,1.187425136566162
1790587946246743800,0.286743896484375,-0.26531025767326355,1.0824291706085205,1.243323564529419
1790587946256823800,0.29682373046875,-0.03268551453948021,1.692712426185608,1.0874179601669312
1790587946266903800,0.30690380859375,0.16793014109134674,1.7271332740783691,0.8558493256568909
1790587946276983800,0.31698388671875,0.14775696396827698,1.324724555015564,0.5953149199485779
1790587946287063800,0.327063720703125,-0.00034142498043365777,0.9764640927314758,0.2499799281358719
1790587946297144000,0.33714404296875,-0.1394745409488678,0.6632236242294312,-0.051181234419345856
1790587946307223800,0.347223876953125,-0.22336065769195557,0.13942508399486542,-0.2303459346294403
1790587946317303800,0.3573037109375,-0.22669467329978943,0.07532253861427307,-0.3511120080947876
1790587946327383800,0.3673837890625,-0.29370060563087463,0.4495256841182709,-0.27126672863960266
1790587946337463800,0.3774638671875,-0.4600565731525421,0.9236029982566833,-0.07904774695634842
1790587946347543800,0.387543701171875,-0.5236544609069824,1.463973879814148,0.1571008563041687
1790587946357623800,0.397623779296875,-0.5737876892089844,1.9616092443466187,0.3944053053855896
1790587946367703800,0.407703857421875,-0.6011218428611755,2.3210535049438477,0.5653163194656372
1790587946377783800,0.41778369140625,-0.5286694765090942,2.4142613410949707,0.6412097215652466
1790587946387863800,0.42786376953125,-0.3627566397190094,2.2799651622772217,0.6119197607040405
1790587946397943800,0.43794384765625,-0.121123768389225,2.040877342224121,0.547624945640564
1790587946408023800,0.44802392578125,0.16307333111763,1.689029574394226,0.4574654996395111
1790587946418103800,0.458103759765625,0.4356875419616699,1.3494712114334106,0.36484289169311523
1790587946428183800,0.468183837890625,0.5439538359642029,1.279117226600647,0.2889734208583832
1790587946438263800,0.478263916015625,0.6280726790428162,1.3715331554412842,0.24928857386112213
1790587946448343800,0.48834375,0.717884361743927,1.529800295829773,0.22867225110530853
1790587946458423800,0.498423828125,0.6105160713195801,1.7583389282226562,0.22307588160037994
1790587946468503800,0.50850390625,0.2904203534126282,2.019516944885254,0.1606156975030899
1790587946478583800,0.518583740234375,-0.24923007190227509,2.1686205863952637,0.06001186743378639
1790587946488663800,0.528663818359375,-0.5743599534034729,2.0161046981811523,-0.08088292926549911
1790587946498743800,0.538743896484375,-0.6294732689857483,1.652040719985962,-0.15668343007564545
1790587946508823800,0.54882373046875,-0.6090420484542847,1.1550655364990234,-0.08767718821763992
1790587946518903800,0.55890380859375,-0.4452160894870758,0.4392823874950409,0.020019441843032837
1790587946528983800,0.56898388671875,-0.1660294532775879,-0.4288783073425293,-0.036262739449739456
1790587946539063800,0.579063720703125,0.02891712822020054,-1.2497295141220093,-0.12775669991970062
1790587946549143800,0.589143798828125,0.2412288635969162,-1.951288104057312,-0.17953334748744965
1790587946559223800,0.599223876953125,0.5420430302619934,-2.523308277130127,-0.1833091825246811
1790587946569303800,0.6093037109375,0.8886206746101379,-2.9038379192352295,-0.1396264135837555
1790587946579383800,0.6193837890625,1.1984128952026367,-3.116860866546631,-0.01558142900466919
1790587946589463800,0.6294638671875,1.4298375844955444,-2.907254695892334,-0.016197150573134422
1790587946599543800,0.639543701171875,1.3080486059188843,-1.5444271564483643,-0.17271432280540466
1790587946609623800,0.649623779296875,0.993371844291687,-0.345323771238327,-0.13001719117164612
1790587946619703800,0.659703857421875,0.7705422043800354,0.8015516996383667,0.045034512877464294
1790587946629783800,0.66978369140625,0.5043648481369019,1.6491868495941162,0.38280802965164185
1790587946639863800,0.67986376953125,0.5723303556442261,1.9723536968231201,0.6150470972061157
1790587946649943800,0.68994384765625,0.8580220341682434,1.9899969100952148,0.763865053653717
1790587946660023800,0.70002392578125,0.8946298360824585,1.7953286170959473,0.9042344093322754
1790587946670103800,0.710103759765625,0.8165227770805359,1.0197093486785889,1.002111554145813
1790587946680183800,0.720183837890625,0.8414222598075867,-0.2140166014432907,1.0237153768539429
1790587946690263800,0.730263916015625,0.8385031819343567,-1.3265635967254639,1.0323376655578613
1790587946700343800,0.74034375,0.5340559482574463,-1.9193557500839233,0.9185092449188232
1790587946710423800,0.750423828125,0.15895982086658478,-1.90631103515625,0.6593631505966187
1790587946720503800,0.76050390625,0.014650840312242508,-1.829347014427185,0.4562862515449524
1790587946730583800,0.770583740234375,-0.15157195925712585,-1.546593427658081,0.33691006898880005
1790587946740663800,0.780663818359375,-0.35090532898902893,-1.2149451971054077,0.41908055543899536
1790587946750743800,0.790743896484375,-0.36089321970939636,-0.9210480451583862,0.520810604095459
1790587946760823800,0.80082373046875,-0.3942442536354065,-0.5585185885429382,0.5372918844223022
1790587946770903800,0.81090380859375,-0.4843267500400543,-0.09772513806819916,0.548748791217804
1790587946780983800,0.82098388671875,-0.4591790437698364,-0.053055938333272934,0.5431950092315674
1790587946791063800,0.831063720703125,-0.34789034724235535,-0.01519005000591278,0.43054360151290894
1790587946801143800,0.841143798828125,-0.33681797981262207,-0.03780108317732811,0.547258734703064
1790587946811223800,0.851223876953125,-0.13135217130184174,-0.20004193484783173,0.6179235577583313
1790587946821303800,0.8613037109375,-0.03282612934708595,-0.2700694799423218,0.6583005785942078
1790587946831383800,0.8713837890625,0.0034724881406873465,-0.3400544226169586,0.65410315990448
1790587946841463800,0.8814638671875,-0.016840506345033646,-0.5111212134361267,0.572947084903717
1790587946851543800,0.891543701171875,-0.006143920123577118,-0.5295345783233643,0.4625673294067383
1790587946861623800,0.901623779296875,0.071553535759449,-0.49675190448760986,0.4474954307079315
1790587946871703800,0.911703857421875,0.3757624328136444,-0.6220014095306396,0.4290282726287842
1790587946881783800,0.92178369140625,0.43424463272094727,-0.7267062067985535,0.40154150128364563
1790587946891863800,0.93186376953125,0.4591473340988159,-0.710665225982666,0.3359244167804718
1790587946901941000,0.94194091796875,0.6572598814964294,-0.7010496258735657,0.3398009240627289
1790587946912021000,0.95202099609375,0.8883460760116577,-0.5728487372398376,0.4346214234828949
1790587946922101000,0.96210107421875,1.0276342630386353,-0.28508543968200684,0.5023690462112427
1790587946932181000,0.972180908203125,1.121583104133606,0.029918571934103966,0.5636595487594604
1790587946942261000,0.982260986328125,1.1813342571258545,0.16592487692832947,0.6467674970626831
1790587946952340700,0.9923408203125,1.1942399740219116,0.09734315425157547,0.6210525035858154
1790587946962421000,1.0024208984375,1.1268936395645142,-0.07939353585243225,0.5162675380706787
1790587946972501000,1.0125009765625,1.0287127494812012,-0.20353147387504578,0.3491368889808655
1790587946982581000,1.0225810546875,0.9411312937736511,-0.08454035967588425,0.2978968620300293
1790587946992661000,1.032660888671875,0.7747148871421814,0.2676248550415039,0.36601415276527405
1790587947002740700,1.04274072265625,0.47638410329818726,0.4649626910686493,0.36618006229400635
1790587947012821000,1.052821044921875,0.24473117291927338,0.41100600361824036,0.14759203791618347
1790587947022901000,1.06290087890625,0.07497463375329971,0.2329651564359665,-0.1449817717075348
1790587947032981000,1.07298095703125,-0.11515242606401443,0.16134876012802124,-0.3998965919017792
1790587947043061000,1.08306103515625,-0.17985312640666962,0.16732782125473022,-0.5045791268348694
1790587947053141000,1.09314111328125,-0.16550400853157043,0.2383202463388443,-0.48370975255966187
1790587947063221000,1.103220947265625,-0.16422197222709656,0.30378127098083496,-0.5183894634246826
1790587947073300700,1.11330078125,-0.17910131812095642,-0.05115018039941788,-0.8453143239021301
1790587947083381000,1.123381103515625,-0.08792266994714737,-0.05429564043879509,-0.7721958756446838
1790587947093461000,1.1334609375,-0.07859548181295395,0.15345382690429688,-0.4810601472854614
1790587947103541000,1.143541015625,-0.1474488526582718,0.08507370203733444,-0.5473396182060242
1790587947113621000,1.15362109375,-0.21637758612632751,-0.06465054303407669,-0.6794936656951904
1790587947123700700,1.16370068359375,-0.23144200444221497,0.03449510037899017,-0.5716786980628967
1790587947133781000,1.173781005859375,-0.2571449875831604,0.174696147441864,-0.4735998213291168
1790587947143861000,1.183861083984375,-0.3252342939376831,0.20424364507198334,-0.5307043790817261
1790587947153941000,1.19394091796875,-0.38666781783103943,0.21489229798316956,-0.5762582421302795
1790587947164021000,1.20402099609375,-0.3810078203678131,0.24923083186149597,-0.5712818503379822
1790587947174101000,1.21410107421875,-0.3625422418117523,0.2333916872739792,-0.5638764500617981
1790587947184181000,1.224180908203125,-0.28597477078437805,0.10622041672468185,-0.4955349564552307
1790587947194260700,1.2342607421875,-0.15156954526901245,0.039445117115974426,-0.37369319796562195
1790587947204341000,1.244341064453125,-0.04087686166167259,0.0984615609049797,-0.2561396658420563
1790587947214421000,1.2544208984375,0.02256576158106327,0.10320305079221725,-0.20320560038089752
1790587947224501000,1.2645009765625,0.09314698725938797,0.04771503061056137,-0.16118039190769196
1790587947234581000,1.2745810546875,0.1294248402118683,0.08615908771753311,-0.14494335651397705
1790587947244660700,1.28466064453125,0.12878674268722534,0.1138349249958992,-0.11201230436563492
1790587947254741000,1.294740966796875,0.12360050529241562,0.13542677462100983,-0.0955054983496666
1790587947264821000,1.304821044921875,0.06881874799728394,0.19950029253959656,-0.096623495221138
1790587947274901000,1.31490087890625,-0.02744041383266449,0.2318079024553299,-0.07764128595590591
1790587947284981000,1.32498095703125,-0.07731688767671585,0.24333912134170532,-0.04374324157834053
1790587947295061000,1.33506103515625,-0.16413860023021698,0.25205326080322266,-0.030811196193099022
1790587947305141000,1.34514111328125,-0.2178870588541031,0.26622313261032104,-0.018389146775007248
1790587947315220700,1.355220703125,-0.24689394235610962,0.2506899833679199,-0.00606749951839447
1790587947325301000,1.365301025390625,-0.29582127928733826,0.2441825419664383,0.006261072121560574
1790587947335381000,1.375381103515625,-0.31122687458992004,0.24495460093021393,0.02703399397432804
1790587947345461000,1.3854609375,-0.30937036871910095,0.24239929020404816,0.019893527030944824
1790587947355541000,1.395541015625,-0.29361778497695923,0.19631408154964447,0.016899336129426956
1790587947365620700,1.405620849609375,-0.18693552911281586,0.1181764081120491,0.03254833444952965
1790587947375701000,1.415700927734375,-0.12378399074077606,0.09280048310756683,0.023372946307063103
1790587947385781000,1.425781005859375,-0.10274635255336761,0.0830053761601448,-0.04300261661410332
1790587947395861000,1.435861083984375,-0.0384744256734848,0.06022842600941658,-0.10902290791273117
1790587947405941000,1.44594091796875,0.02900421991944313,0.029082756489515305,-0.11709415167570114
1790587947416021000,1.45602099609375,0.08859165012836456,0.0025049415417015553,-0.07425613701343536
1790587947426101000,1.46610107421875,0.15833158791065216,-0.015847699716687202,0.020555589348077774
1790587947436180700,1.4761806640625,0.18238738179206848,0.000003700610250234604,0.046313680708408356
1790587947446261000,1.486260986328125,0.1371181756258011,0.02381182834506035,0.025248344987630844
1790587947456341000,1.496341064453125,0.08566776663064957,0.0534629300236702,-0.01293046586215496
1790587947466421000,1.5064208984375,0.04144730418920517,0.0716126337647438,0.004159038886427879
1790587947476501000,1.5165009765625,0.01594754122197628,0.1225128322839737,-0.005060025490820408
1790587947486580700,1.526580810546875,-0.00145089125726372,0.11029425263404846,-0.027500620111823082
1790587947496661000,1.536660888671875,-0.04080202803015709,0.10341397672891617,-0.05083657056093216
1790587947506741000,1.546740966796875,0.04306597635149956,0.045323245227336884,0.015374941751360893
1790587947516821000,1.556821044921875,0.15031014382839203,0.011138644069433212,0.07415197044610977
1790587947526901000,1.56690087890625,0.13444861769676208,0.009720243513584137,0.03527487814426422
1790587947536981000,1.57698095703125,0.10166377574205399,0.004239724483340979,-0.02784257009625435
1790587947547061000,1.58706103515625,0.10199028253555298,-0.016414420679211617,-0.06576091796159744
1790587947557141000,1.59714111328125,0.07608997821807861,-0.011119257658720016,-0.10489154607057571
1790587947567221000,1.607220947265625,0.07818881422281265,-0.03258513659238815,-0.10817069560289383
1790587947577301000,1.617301025390625,0.14197684824466705,-0.09772472828626633,-0.08012042194604874
1790587947587381000,1.627381103515625,0.1594437211751938,-0.052694931626319885,-0.06863447278738022
1790587947597461000,1.6374609375,0.16732534766197205,-0.08293858915567398,-0.0390281155705452
1790587947607540700,1.647540771484375,0.24053005874156952,-0.09920810908079147,0.01156342588365078
1790587947617621000,1.65762109375,0.24621403217315674,-0.08717834204435349,-0.002851732773706317
1790587947627701000,1.667700927734375,0.17450043559074402,-0.11792080849409103,-0.0819031372666359
1790587947637781000,1.677781005859375,0.11409434676170349,-0.11494925618171692,-0.12585009634494781
1790587947647861000,1.687861083984375,0.11131161451339722,-0.10665830224752426,-0.162615567445755
1790587947657941000,1.69794091796875,0.12295494973659515,-0.141691654920578,-0.2102818787097931
1790587947668021000,1.70802099609375,0.13798530399799347,-0.14904996752738953,-0.2355470210313797
1790587947678101000,1.71810107421875,0.1254711002111435,-0.1799815148115158,-0.2696882486343384
1790587947688181000,1.728180908203125,0.08575618267059326,-0.21333467960357666,-0.31934818625450134
1790587947698261000,1.738260986328125,0.010719222016632557,-0.2290467917919159,-0.34858039021492004
1790587947708341000,1.748341064453125,-0.0183478482067585,-0.2285865992307663,-0.3453720808029175
1790587947718421000,1.7584208984375,0.016582971438765526,-0.2736198604106903,-0.36149218678474426
1790587947728500700,1.768500732421875,0.11412151157855988,-0.32019907236099243,-0.2678442597389221
1790587947738581000,1.7785810546875,0.1988084316253662,-0.26857131719589233,-0.19729284942150116
1790587947748661000,1.788660888671875,0.24247309565544128,-0.2678525149822235,-0.16244086623191833
1790587947758741000,1.798740966796875,0.23434139788150787,-0.2723868191242218,-0.11058858036994934
1790587947768821000,1.808821044921875,0.17671911418437958,-0.2530764937400818,-0.06447754055261612
1790587947778900700,1.818900634765625,0.12943361699581146,-0.2374943494796753,-0.04860563948750496
1790587947788981000,1.82898095703125,0.10312984883785248,-0.20076961815357208,0.029667595401406288
1790587947799061000,1.83906103515625,0.06382957845926285,-0.13783246278762817,0.09143216162919998
1790587947809141000,1.84914111328125,-0.003036803798750043,-0.11494632065296173,0.07860664278268814
1790587947819221000,1.859220947265625,-0.05466005206108093,-0.08216813951730728,0.035778749734163284
1790587947829301000,1.869301025390625,-0.034574225544929504,-0.08626753836870193,0.04255249723792076
1790587947839381000,1.879381103515625,0.003032274078577757,-0.10219457745552063,0.09909380972385406
1790587947849460700,1.889460693359375,0.03838760033249855,-0.08866278827190399,0.21920210123062134
1790587947859541000,1.899541015625,0.07959575951099396,-0.10796378552913666,0.3909059464931488
1790587947869621000,1.90962109375,0.1690223067998886,-0.19674211740493774,0.5372389554977417
1790587947879701000,1.919700927734375,0.24832618236541748,-0.21656082570552826,0.6254231333732605
1790587947889781000,1.929781005859375,0.12987864017486572,-0.16012072563171387,0.820318877696991
1790587947899861200,1.939861328125,-0.16187945008277893,0.01172001101076603,1.0451545715332031
1790587947909941500,1.94994140625,-0.2969115674495697,0.12534989416599274,1.039696455001831
1790587947920021200,1.960021240234375,-0.36193639039993286,-0.12868130207061768,0.9817245006561279
1790587947930101500,1.9701015625,-0.3929313123226166,-0.059015676379203796,0.739482045173645
1790587947940181200,1.98018115234375,-0.2680109441280365,-0.022854743525385857,0.43418577313423157
1790587947950261200,1.99026123046875,-0.05778713524341583,0.006558006163686514,0.15930815041065216
1790587947960341200,2.00034130859375,0.04825354740023613,-0.013226883485913277,-0.0402425155043602
1790587947970421200,2.010421142578125,-0.0005885597784072161,0.004274345468729734,-0.06769037991762161
1790587947980500200,2.020500244140625,-0.07061025500297546,0.024222753942012787,0.005511125549674034
1790587947990581200,2.030581298828125,-0.06232516095042229,0.024879489094018936,0.05432553589344025
1790587948000661200,2.0406611328125,-0.023800404742360115,0.016888674348592758,0.07184088230133057
1790587948010741200,2.0507412109375,-0.008751947432756424,0.02021336555480957,0.06415659934282303
1790587948020821200,2.0608212890625,0.009008407592773438,0.039372678846120834,0.05510983616113663
1790587948030900200,2.070900146484375,0.02713068574666977,0.04241081327199936,0.028192469850182533
1790587948040980200,2.080980224609375,0.023270966485142708,0.05374069884419441,-0.005323945544660091
1790587948051060500,2.091060546875,0.014673217199742794,0.06459307670593262,-0.022892551496624947
1790587948061140200,2.10114013671875,0.008108525536954403,0.07239853590726852,-0.0017579726409167051
1790587948071220500,2.111220458984375,-0.0026636947877705097,0.0783376544713974,-0.00615538377314806
1790587948081300200,2.12130029296875,-0.006693057715892792,0.07360202074050903,-0.01617632620036602
1790587948091380500,2.13138037109375,-0.00034221739042550325,0.05932348594069481,-0.012964021414518356
1790587948101460200,2.141460205078125,0.014614361338317394,0.03755054250359535,-0.00931788794696331
1790587948111540200,2.151540283203125,0.018520953133702278,0.012407107278704643,-0.012064139358699322
1790587948121620500,2.161620361328125,0.008940762840211391,-0.005601188167929649,-0.016503628343343735
1790587948131700200,2.1717001953125,-0.009914349764585495,-0.009510085918009281,-0.017975518479943275
1790587948141780500,2.181780517578125,-0.033273469656705856,-0.013207618147134781,0.007956746965646744
1790587948151860200,2.191860107421875,-0.061133597046136856,-0.03240581229329109,0.03778734803199768
1790587948161940200,2.201940185546875,-0.054565709084272385,-0.030693935230374336,0.02063845284283161
1790587948172020500,2.2120205078125,-0.017907295376062393,-0.04382225498557091,-0.005554534960538149
1790587948182100200,2.222100341796875,-0.029516013339161873,-0.06821334362030029,0.027772262692451477
1790587948192180500,2.232180419921875,-0.02384774200618267,-0.0712280422449112,0.03290523961186409
1790587948202260200,2.24226025390625,-0.015222828835248947,-0.06629001349210739,-0.024885622784495354
1790587948212340500,2.252340576171875,-0.02884569577872753,-0.0641283243894577,-0.020789681002497673
1790587948222420200,2.262420166015625,-0.051382966339588165,-0.06477493792772293,0.02296925149857998
1790587948232500200,2.272500244140625,-0.07182352244853973,-0.03706954047083855,0.040340252220630646
1790587948242580500,2.28258056640625,-0.08569087088108063,-0.03533635661005974,0.012850837782025337
1790587948252660200,2.29266015625,-0.08277896791696548,-0.02114570327103138,0.00669840257614851
1790587948262740500,2.302740478515625,-0.05290043354034424,-0.00504955742508173,0.0037295110523700714
1790587948272820200,2.3128203125,-0.03827781602740288,0.009729122743010521,-0.022241903468966484
1790587948282900200,2.322900146484375,-0.01021395530551672,0.029173128306865692,-0.04927937686443329
1790587948292980500,2.33298046875,0.022163690999150276,0.03819671645760536,-0.04602552577853203
1790587948303060200,2.343060302734375,-0.0023275366984307766,0.025810886174440384,-0.009293879382312298
1790587948313140500,2.353140380859375,-0.02740572579205036,0.06898978352546692,0.04698670655488968
1790587948323220200,2.36322021484375,-0.03878781199455261,0.09045220166444778,0.06102742254734039
1790587948333300500,2.373300537109375,-0.06289021670818329,0.08907774090766907,0.01442689634859562
1790587948343380200,2.383380126953125,-0.05148443207144737,0.1414107233285904,-0.05012759566307068
1790587948353460200,2.393460205078125,-0.03240741044282913,0.10282790660858154,-0.01769162528216839
1790587948363540500,2.40354052734375,-0.020456738770008087,0.05129946768283844,0.06674496084451675
1790587948373620200,2.4136201171875,0.010772286914288998,0.08356846123933792,0.08578576892614365
1790587948383700500,2.423700439453125,0.04637502133846283,0.09897085279226303,0.07277861982584
1790587948393780200,2.4337802734375,0.06067726016044617,0.12112994492053986,0.06426822394132614
1790587948403860200,2.443860107421875,0.06299660354852676,0.10165318846702576,0.04105424880981445
1790587948413940500,2.4539404296875,0.04089556634426117,0.07945281267166138,0.030303597450256348
1790587948424020200,2.464020263671875,-0.001851895940490067,0.06562461704015732,0.021803319454193115
1790587948434100500,2.4741005859375,-0.05437502637505531,0.024198608472943306,0.020357755944132805
1790587948444180200,2.48418017578125,-0.06992202997207642,-0.0022183507680892944,0.04445723444223404
1790587948454260200,2.49426025390625,-0.03132536634802818,-0.05513722449541092,0.07889856398105621
1790587948464340200,2.50434033203125,0.00285630626603961,-0.05063755065202713,0.08426483720541
1790587948474420200,2.514420166015625,0.005115466192364693,-0.06633661687374115,0.03948457911610603
1790587948484500500,2.52450048828125,-0.04056014493107796,-0.04545237496495247,-0.033848490566015244
1790587948494580200,2.534580322265625,-0.09453868865966797,-0.098084956407547,-0.11504880338907242
1790587948504660500,2.544660400390625,-0.14374485611915588,-0.07600175589323044,-0.13276788592338562
1790587948514740200,2.554740234375,-0.16342242062091827,-0.05832422897219658,-0.14612416923046112
1790587948524820200,2.5648203125,-0.16155527532100677,-0.06857845932245255,-0.12597869336605072
1790587948534900500,2.574900390625,-0.11482904851436615,-0.05862010642886162,-0.036776103079319
1790587948544980200,2.584980224609375,-0.01843060553073883,-0.08896122872829437,0.0401141494512558
1790587948555060500,2.595060546875,0.05183742940425873,-0.07525420933961868,0.026020700111985207
1790587948565140200,2.60514013671875,0.08962874859571457,-0.08902967721223831,0.05841219797730446
1790587948575220200,2.61522021484375,0.04667089879512787,-0.15988413989543915,0.0803542509675026
1790587948585300200,2.62530029296875,-0.02293614111840725,-0.12849558889865875,0.040818292647600174
1790587948595380200,2.635380126953125,-0.09673899412155151,-0.1302037388086319,0.08397854119539261
1790587948605460500,2.64546044921875,-0.17034903168678284,-0.13522326946258545,0.12028062343597412
1790587948615540200,2.655540283203125,-0.21370290219783783,-0.05694923922419548,0.1128099262714386
1790587948625620500,2.665620361328125,-0.18344911932945251,-0.025253362953662872,0.14865154027938843
1790587948635700200,2.6757001953125,-0.10254761576652527,-0.05313932150602341,0.10105020552873611
1790587948645780200,2.6857802734375,0.002140182303264737,-0.1023247092962265,0.05613679438829422
1790587948655860500,2.695860595703125,0.02147579751908779,-0.09649531543254852,-0.09923708438873291
1790587948665940200,2.705940185546875,-0.007942012511193752,-0.14630627632141113,-0.17557846009731293
1790587948676020500,2.7160205078125,-0.01831848733127117,-0.15375567972660065,-0.14243756234645844
1790587948686100200,2.726100341796875,0.008092613890767097,-0.1477784812450409,-0.11831090599298477
1790587948696180200,2.73618017578125,0.07677633315324783,-0.1785784661769867,-0.08493351191282272
1790587948706260500,2.746260498046875,0.15149371325969696,-0.1926458179950714,-0.0501403771340847
1790587948716340200,2.75634033203125,0.176410511136055,-0.18385659158229828,-0.03709115460515022
1790587948726420500,2.76642041015625,0.11609764397144318,-0.21972963213920593,-0.07932355999946594
1790587948736500200,2.776500244140625,0.05351682007312775,-0.16843901574611664,-0.00032488550641573966
1790587948746580500,2.78658056640625,0.004372976720333099,-0.18373674154281616,0.03523017838597298
1790587948756660200,2.79666015625,0.0011662645265460014,-0.17370568215847015,-0.024824103340506554
1790587948766740200,2.806740234375,0.04583732783794403,-0.1592726856470108,-0.04822130501270294
1790587948776820500,2.816820556640625,0.07294830679893494,-0.18090634047985077,-0.07221212238073349
1790587948786900200,2.826900146484375,0.07425884902477264,-0.2508867681026459,-0.06614331156015396
1790587948796980500,2.83698046875,0.07026969641447067,-0.23153622448444366,-0.12098818272352219
1790587948807060200,2.847060302734375,0.06850109249353409,-0.22871273756027222,-0.10694560408592224
1790587948817140200,2.85714013671875,0.06779642403125763,-0.184345543384552,-0.09148568660020828
1790587948827220500,2.867220458984375,0.06530503183603287,-0.11568658798933029,-0.1323244720697403
1790587948837300200,2.87730029296875,0.023244403302669525,-0.09208032488822937,-0.16684488952159882
1790587948847380500,2.88738037109375,-0.04182221740484238,-0.03119940310716629,-0.036318037658929825
1790587948857460200,2.897460205078125,-0.04074976220726967,0.022008690983057022,-0.10159558057785034
1790587948867540500,2.90754052734375,-0.018679345026612282,0.03940392658114433,-0.12238474935293198
1790587948877620200,2.9176201171875,0.01780090108513832,0.05814778804779053,-0.027652114629745483
1790587948887700200,2.9277001953125,0.03814372047781944,0.06275958567857742,-0.0075228773057460785
1790587948897780200,2.9377802734375,0.027993617579340935,0.054819367825984955,0.01937158592045307
1790587948907860000,2.94785986328125,0.02718641422688961,0.06599026918411255,0.05481426790356636
1790587948917940200,2.957940185546875,0.033400632441043854,0.08451654762029648,0.05630777031183243
1790587948928020000,2.96802001953125,0.018664298579096794,0.10263510048389435,0.05269412696361542
1790587948938100200,2.978100341796875,-0.0002542656729929149,0.10293710231781006,0.021911177784204483
1790587948948180000,2.988179931640625,-0.022064756602048874,0.10848313570022583,0.012207950465381145
1790587948958260000,2.998260009765625,-0.0361371673643589,0.1177714392542839,0.02220119535923004
1790587948968340200,3.00834033203125,-0.025498103350400925,0.13787297904491425,0.0426446869969368
1790587948978420000,3.018419921875,0.00508377468213439,0.15738250315189362,0.06762780249118805
1790587948988500200,3.028500244140625,0.027276694774627686,0.16438554227352142,0.1021873727440834
1790587948998580000,3.038580078125,0.028891902416944504,0.17530636489391327,0.13443532586097717
1790587949008659200,3.0486591796875,0.009792775847017765,0.2075071781873703,0.15304948389530182
1790587949018739000,3.058739013671875,0.0016448345268145204,0.23460938036441803,0.1689155250787735
1790587949028819200,3.068819091796875,0.013577660545706749,0.2707098424434662,0.15709908306598663
1790587949038899200,3.078899169921875,0.02803409844636917,0.30056068301200867,0.16508297622203827
1790587949048979000,3.08897900390625,0.013701497577130795,0.3387339115142822,0.17260800302028656
1790587949059059200,3.09905908203125,-0.00793162640184164,0.36641424894332886,0.19759511947631836
1790587949069139000,3.109138916015625,-0.028986044228076935,0.3804935812950134,0.24978508055210114
1790587949079219200,3.11921923828125,-0.03642185777425766,0.32641729712486267,0.3408966362476349
1790587949089299000,3.129298828125,-0.035137683153152466,0.2911844849586487,0.36397719383239746
1790587949099379000,3.13937890625,-0.027974842116236687,0.11900368332862854,0.30820953845977783
1790587949109459200,3.149459228515625,-0.04251197725534439,0.0921931117773056,0.22840602695941925
1790587949119539000,3.1595390625,-0.07986067980527878,0.03825663775205612,0.044130995869636536
1790587949129619200,3.169619140625,-0.09545961022377014,-0.008460268378257751,-0.10656503587961197
1790587949139699000,3.179698974609375,-0.08075595647096634,-0.03969864174723625,-0.18116381764411926
1790587949149779200,3.189779296875,-0.0673765018582344,-0.04095858335494995,-0.1696147471666336
1790587949159859200,3.199859130859375,-0.05987304821610451,-0.08688080310821533,-0.07970909774303436
1790587949169939000,3.20993896484375,-0.058896999806165695,-0.10570774972438812,0.020168229937553406
1790587949180019200,3.220019287109375,-0.062315165996551514,-0.11334862560033798,0.03440761938691139
1790587949190099000,3.230098876953125,-0.07270015776157379,-0.1407293826341629,0.0034433123655617237
1790587949200179200,3.24017919921875,-0.09635116159915924,-0.16315799951553345,-0.020157888531684875
1790587949210259000,3.250259033203125,-0.10233794897794724,-0.18305952847003937,0.0053831590339541435
1790587949220339000,3.2603388671875,-0.09182538837194443,-0.19637107849121094,0.02626100927591324
1790587949230419200,3.270419189453125,-0.08552461117506027,-0.21123284101486206,0.014772400259971619
1790587949240499000,3.2804990234375,-0.08192747831344604,-0.23286117613315582,-0.013766567222774029
1790587949250579200,3.2905791015625,-0.08989059925079346,-0.2560681998729706,-0.013711705803871155
1790587949260659000,3.300658935546875,-0.10401307791471481,-0.2696375548839569,0.001257656142115593
1790587949270739200,3.3107392578125,-0.11197645962238312,-0.2718231976032257,0.006317129824310541
1790587949280819200,3.320819091796875,-0.11399540305137634,-0.27920281887054443,-0.00040575425373390317
1790587949290899000,3.33089892578125,-0.11188405007123947,-0.2864977717399597,-0.0030428164172917604
1790587949300979200,3.340979248046875,-0.10687464475631714,-0.2980726659297943,0.007203962188214064
1790587949311059000,3.351058837890625,-0.10401014238595963,-0.3082813620567322,0.007235654164105654
1790587949321139200,3.36113916015625,-0.10259494185447693,-0.31803464889526367,0.0014882858376950026
1790587949331219000,3.371218994140625,-0.1076943650841713,-0.3233409821987152,-0.004339242819696665
1790587949341299000,3.381298828125,-0.1096818819642067,-0.32619163393974304,-0.005162159912288189
1790587949351379200,3.391379150390625,-0.12057553976774216,-0.328658789396286,0.0000871968804858625
1790587949361459000,3.401458984375,-0.11882797628641129,-0.3322679102420807,0.007433793041855097
1790587949371539200,3.411539306640625,-0.11561140418052673,-0.33413106203079224,0.00558689096942544
1790587949381619000,3.421618896484375,-0.10812605917453766,-0.3351545035839081,0.004272354766726494
1790587949391699200,3.43169921875,-0.10498512536287308,-0.3352554440498352,0.0036747411359101534
1790587949401779200,3.441779296875,-0.10722511261701584,-0.33257922530174255,0.009646347723901272
1790587949411859000,3.45185888671875,-0.11206727474927902,-0.33599206805229187,0.003884598147124052
1790587949421939200,3.461939208984375,-0.10996497422456741,-0.33663761615753174,0.0018416873645037413
1790587949432019000,3.47201904296875,-0.10949279367923737,-0.33654600381851196,0.003200698411092162
1790587949442099200,3.48209912109375,-0.10675080120563507,-0.3472772240638733,0.0026880400255322456
1790587949452179000,3.492178955078125,-0.10743843019008636,-0.3472157120704651,0.004136799834668636
1790587949462259000,3.502259033203125,-0.10295926034450531,-0.34820958971977234,0.004735478200018406
1790587949472339200,3.512339111328125,-0.09853176027536392,-0.3451932966709137,0.004391131456941366
1790587949482419000,3.5224189453125,-0.09461371600627899,-0.3436177670955658,0.008524357341229916
1790587949492499200,3.532499267578125,-0.09092843532562256,-0.34234505891799927,0.00626546423882246
1790587949502579000,3.542578857421875,-0.08999685943126678,-0.34315916895866394,0.002554881852120161
1790587949512659200,3.5526591796875,-0.08950923383235931,-0.3400225043296814,0.004235336557030678
1790587949522739200,3.5627392578125,-0.08656510710716248,-0.34284651279449463,0.0077903904020786285
1790587949532819000,3.57281884765625,-0.0859491229057312,-0.34938350319862366,0.004782882519066334
1790587949542899200,3.582899169921875,-0.08082999289035797,-0.35752931237220764,0.003708829637616873
1790587949552979000,3.59297900390625,-0.07718279212713242,-0.36569589376449585,0.008365366607904434
1790587949563059200,3.60305908203125,-0.08038817346096039,-0.37166059017181396,0.005517914891242981
1790587949573139200,3.61313916015625,-0.10025721788406372,-0.3119855523109436,-0.05286496877670288
1790587949583219000,3.623218994140625,-0.08138126879930496,-0.21725745499134064,0.11326142400503159
1790587949593299200,3.63329931640625,-0.06742630153894424,-0.20450356602668762,0.0035588936880230904
1790587949603379000,3.64337890625,-0.009989642538130283,-0.21466858685016632,0.00014125904999673367
1790587949613459200,3.653459228515625,-0.02088303677737713,-0.27082160115242004,-0.08862296491861343
1790587949623539000,3.6635390625,-0.02521440200507641,-0.2969253659248352,0.015668019652366638
1790587949633619000,3.673618896484375,-0.011016824282705784,-0.29044562578201294,0.047355376183986664
1790587949643699200,3.68369921875,0.03152131289243698,-0.23479063808918,0.06095001474022865
1790587949653779000,3.693779052734375,0.04274706915020943,-0.1799638718366623,-0.007013589143753052
1790587949663859200,3.703859130859375,0.009239179082214832,-0.13238702714443207,-0.015285101719200611
1790587949673939000,3.71393896484375,0.019738690927624702,-0.10082165151834488,0.03065815381705761
1790587949684019200,3.724019287109375,-0.011174483224749565,-0.060724299401044846,0.015660563483834267
1790587949694098000,3.734097900390625,-0.007736608386039734,-0.002310256939381361,-0.002410049317404628
1790587949704178200,3.74417822265625,0.05806557089090347,0.04587351530790329,0.0038390581030398607
1790587949714258000,3.7542578125,0.09386298805475235,0.03121308423578739,-0.038389623165130615
1790587949724338200,3.764338134765625,0.0978795662522316,-0.0023749717511236668,-0.0461367592215538
1790587949734418200,3.774418212890625,0.12679509818553925,-0.007452554535120726,0.02062123268842697
1790587949744498000,3.784497802734375,0.14181558787822723,0.029493214562535286,0.05950578302145004
1790587949754578200,3.794578125,0.15046153962612152,0.08365950733423233,0.0447276346385479
1790587949764658000,3.804657958984375,0.15044556558132172,0.11444112658500671,-0.014470173977315426
1790587949774738200,3.81473828125,0.13206735253334045,0.11522569507360458,-0.04129699617624283
1790587949784818200,3.824818115234375,0.128195658326149,0.10547346621751785,-0.0016675598453730345
1790587949794898000,3.83489794921875,0.15519452095031738,0.11877914518117905,0.04126738756895065
1790587949804978200,3.844978271484375,0.17822234332561493,0.1322142630815506,-0.0024207020178437233
1790587949815058000,3.855057861328125,0.19256025552749634,0.1259976476430893,-0.03873183950781822
1790587949825138200,3.86513818359375,0.1963760405778885,0.10623086243867874,0.0020598003175109625
1790587949835218200,3.87521826171875,0.18444854021072388,0.07454483956098557,0.04546426609158516
1790587949845298200,3.885298095703125,0.1901349276304245,0.05446673929691315,0.024926232174038887
1790587949855378200,3.895378173828125,0.20557460188865662,0.04816782847046852,-0.004877733998000622
1790587949865458000,3.9054580078125,0.21149161458015442,0.05371812358498573,0.00778213469311595
1790587949875538200,3.9155380859375,0.21282798051834106,0.05601057410240173,0.012715640477836132
1790587949885618000,3.925617919921875,0.20483796298503876,0.05741911754012108,0.008921168744564056
1790587949895698200,3.9356982421875,0.20189836621284485,0.06296754628419876,-0.004660952836275101
1790587949905777700,3.945777587890625,0.20850194990634918,0.06235821545124054,-0.0011064319405704737
1790587949915857700,3.955857666015625,0.20109489560127258,0.059325672686100006,0.018294429406523705
1790587949925937700,3.965937744140625,0.19779710471630096,0.05416979640722275,0.01761372573673725
1790587949936017700,3.976017578125,0.19749057292938232,0.040728289633989334,0.0023724553175270557
1790587949946098000,3.986097900390625,0.20063842833042145,0.03041546605527401,0.011430398561060429
1790587949956177700,3.996177734375,0.20697622001171112,0.02145952172577381,0.011101231910288334
1790587949966258000,4.0062578125,0.21249614655971527,0.009904863312840462,0.0005505869048647583
1790587949976337700,4.016337646484375,0.205585777759552,0.014983512461185455,0.0075592282228171825
1790587949986417700,4.026417724609375,0.1984940469264984,0.02861916460096836,0.02079700119793415
1790587949996497700,4.03649755859375,0.18677029013633728,0.05689048022031784,0.011724944226443768
1790587950006577700,4.04657763671875,0.19111895561218262,0.08478203415870667,0.0015149174723774195
1790587950016658000,4.056657958984375,0.19552116096019745,0.10396371781826019,0.005947482772171497
1790587950026737700,4.066737548828125,0.1953243613243103,0.11746194958686829,0.0026432988233864307
1790587950036817700,4.076817626953125,0.19816914200782776,0.1253342479467392,0.0013330236542969942
1790587950046897700,4.086897705078125,0.20582599937915802,0.14853091537952423,0.0056899553164839745
1790587950056977700,4.096977783203125,0.2096090167760849,0.17260776460170746,0.010206942446529865
1790587950067058000,4.107057861328125,0.21226659417152405,0.1908578723669052,0.010939045809209347
1790587950077137700,4.1171376953125,0.21562562882900238,0.19280117750167847,0.00464120227843523
1790587950087218000,4.127218017578125,0.1997438669204712,0.19325818121433258,0.00018839699623640627
1790587950097297700,4.137297607421875,0.20697355270385742,0.2269681990146637,0.012487407773733139
1790587950107377700,4.147377685546875,0.21287672221660614,0.2647973597049713,0.015134057030081749
1790587950117457700,4.157457763671875,0.21705842018127441,0.31026870012283325,0.008307842537760735
1790587950127537700,4.16753759765625,0.23171858489513397,0.3308384120464325,-0.005060693249106407
1790587950137618000,4.177617919921875,0.2092425674200058,0.31557318568229675,-0.004389842972159386
1790587950147697700,4.18769775390625,0.15446560084819794,0.2817837595939636,-0.004592885263264179
1790587950157777700,4.197777587890625,0.12798739969730377,0.25333401560783386,-0.007079479284584522
1790587950167857700,4.207857666015625,0.1281903237104416,0.23668311536312103,-0.010685665532946587
1790587950177937700,4.217937744140625,0.1325587034225464,0.2246948927640915,0.01624981313943863
1790587950188018000,4.228017822265625,0.1545468270778656,0.21686625480651855,0.002610432682558894
1790587950198097700,4.23809765625,0.16263778507709503,0.20103029906749725,-0.016439691185951233
1790587950208178000,4.248177978515625,0.1557585746049881,0.20746690034866333,0.012561599723994732
1790587950218257700,4.258257568359375,0.16038554906845093,0.21513493359088898,0.009951968677341938
1790587950228337700,4.268337646484375,0.14967085421085358,0.21442067623138428,-0.0015156028093770146
1790587950238417700,4.278417724609375,0.13603466749191284,0.19359369575977325,-0.009514407254755497
1790587950248497700,4.28849755859375,0.12626886367797852,0.16716767847537994,-0.0028634287882596254
1790587950258578000,4.298577880859375,0.12012867629528046,0.14426875114440918,-0.006513557396829128
1790587950268657700,4.30865771484375,0.11807963997125626,0.13453276455402374,0.0020450435113161802
1790587950278737700,4.318737548828125,0.12527044117450714,0.13043470680713654,-0.006510627456009388
1790587950288817700,4.328817626953125,0.13565942645072937,0.13313327729701996,-0.005103679373860359
1790587950298897700,4.338897705078125,0.14398181438446045,0.13243260979652405,0.0021544992923736572
1790587950308978000,4.34897802734375,0.1383146047592163,0.12883254885673523,-0.001867939019575715
1790587950319057700,4.3590576171875,0.14172664284706116,0.13636848330497742,-0.006360691972076893
1790587950329137000,4.369136962890625,0.1345616728067398,0.14997218549251556,-0.009999635629355907
1790587950339216600,4.379216552734375,0.13287723064422607,0.18177245557308197,-0.005967343226075172
1790587950349297000,4.389296875,0.14381882548332214,0.218865767121315,0.002790462225675583
1790587950359376600,4.399376708984375,0.14329950511455536,0.24512480199337006,-0.004171040840446949
1790587950369457000,4.409456787109375,0.14910732209682465,0.2633637487888336,-0.012222842313349247
1790587950379536600,4.41953662109375,0.1540381759405136,0.2742379605770111,-0.005231778137385845
1790587950389616600,4.42961669921875,0.16467270255088806,0.2923796772956848,-0.0038458688650280237
1790587950399697000,4.43969677734375,0.17568567395210266,0.3098079264163971,-0.008022504858672619
1790587950409776600,4.449776611328125,0.1759469360113144,0.32667240500450134,-0.006269078701734543
1790587950419857000,4.45985693359375,0.17730088531970978,0.33121708035469055,-0.006939396262168884
1790587950429936600,4.4699365234375,0.17289042472839355,0.34578749537467957,-0.004675976000726223
1790587950440016600,4.4800166015625,0.1652492731809616,0.3644551932811737,-0.014801048673689365
1790587950450097000,4.490096923828125,0.16006676852703094,0.39476677775382996,-0.01732812076807022
1790587950460176600,4.5001767578125,0.14845937490463257,0.4152398109436035,-0.010185790248215199
1790587950470257000,4.5102568359375,0.14651766419410706,0.43401244282722473,0.0003944162745028734
1790587950480336600,4.520336669921875,0.14446677267551422,0.4345964789390564,0.005096226930618286
1790587950490416600,4.530416748046875,0.1300220489501953,0.4089773893356323,0.022116756066679955
1790587950500496600,4.54049658203125,0.11765140295028687,0.3578476309776306,0.039572447538375854
1790587950510576600,4.55057666015625,0.12004638463258743,0.301218181848526,0.010579941794276237
1790587950520657000,4.560656982421875,0.131111279129982,0.2531704902648926,-0.01470624003559351
1790587950530736600,4.570736572265625,0.1435900628566742,0.22843343019485474,-0.02551334723830223
1790587950540817000,4.58081689453125,0.1554051637649536,0.21638555824756622,-0.01786900870501995
1790587950550896600,4.590896728515625,0.14023233950138092,0.19791707396507263,-0.010596715845167637
1790587950560976600,4.6009765625,0.1150505542755127,0.16188903152942657,-0.0026756757870316505
1790587950571057000,4.611056884765625,0.09952512383460999,0.10078732669353485,-0.017415206879377365
1790587950581136600,4.62113671875,0.07586640119552612,0.03008093498647213,-0.01738644391298294
1790587950591217000,4.631216796875,0.06488858908414841,-0.033384326845407486,0.011612449772655964
1790587950601296600,4.641296630859375,0.07075020670890808,-0.07487211376428604,0.009325859136879444
1790587950611376600,4.651376708984375,0.07703845947980881,-0.0973057821393013,-0.024038221687078476
1790587950621456600,4.66145654296875,0.09401930868625641,-0.09587939828634262,-0.040455546230077744
1790587950631536600,4.67153662109375,0.11398769170045853,-0.08719083666801453,-0.027940817177295685
1790587950641617000,4.681616943359375,0.13165749609470367,-0.07165688276290894,-0.01374111045151949
1790587950651696600,4.691696533203125,0.13435208797454834,-0.0582507960498333,-0.004920188337564468
1790587950661777000,4.70177685546875,0.12412501126527786,-0.04567987471818924,-0.0011435592314228415
1790587950671856600,4.711856689453125,0.11819175630807877,-0.03533189743757248,-0.008656869642436504
1790587950681936600,4.7219365234375,0.10531830042600632,-0.008633705787360668,-0.005658149719238281
1790587950692017000,4.732016845703125,0.09435832500457764,0.032099608331918716,-0.012547748163342476
1790587950702096600,4.7420966796875,0.09291010349988937,0.08823611587285995,-0.027111776173114777
1790587950712177000,4.752177001953125,0.09323340654373169,0.14063887298107147,-0.014352305792272091
1790587950722256600,4.762256591796875,0.09185975044965744,0.17888373136520386,0.013905697502195835
1790587950732336600,4.772336669921875,0.09853682667016983,0.19674022495746613,0.0023845965042710304
1790587950742417000,4.7824169921875,0.1154971718788147,0.22205063700675964,-0.0104619599878788
1790587950752496600,4.79249658203125,0.1330157071352005,0.24753601849079132,-0.019863450899720192
1790587950762577000,4.802576904296875,0.12413299828767776,0.27563557028770447,-0.017781658098101616
1790587950772656600,4.81265673828125,0.10918654501438141,0.2843156158924103,-0.016460463404655457
1790587950782737000,4.82273681640625,0.09113803505897522,0.2709398865699768,-0.010923486202955246
1790587950792816600,4.832816650390625,0.07492470741271973,0.25140535831451416,0.005073590204119682
1790587950802896600,4.842896728515625,0.08474937826395035,0.23608335852622986,0.007960989139974117
1790587950812977000,4.852976806640625,0.0982835590839386,0.23692412674427032,0.007639013230800629
1790587950823056600,4.863056640625,0.10538993775844574,0.24672375619411469,0.019111646339297295
1790587950833137000,4.873136962890625,0.09937279671430588,0.24728329479694366,0.013381054624915123
1790587950843216600,4.883216552734375,0.08725008368492126,0.22652527689933777,0.00016245493316091597
1790587950853296600,4.893296630859375,0.07615748792886734,0.1888282299041748,-0.005451754666864872
1790587950863377000,4.903376953125,0.06702630966901779,0.14026255905628204,-0.017057543620467186
1790587950873456600,4.91345654296875,0.06629925966262817,0.0907413512468338,-0.015860186889767647
1790587950883537000,4.923536865234375,0.06265472620725632,0.05773173272609711,-0.0020905793644487858
1790587950893616600,4.93361669921875,0.07131825387477875,0.03258776664733887,0.004088487010449171
1790587950903700000,4.943699951171875,0.08329236507415771,0.014033524319529533,0.001372062717564404
1790587950913779700,4.95377978515625,0.08114451915025711,-0.0004668561741709709,0.004493021406233311
1790587950923859700,4.963859619140625,0.07490154355764389,-0.007160445209592581,-0.0038964690174907446
1790587950933940000,4.97393994140625,0.06365847587585449,-0.0010410335380584002,0.05969103053212166
1790587950944019700,4.984019775390625,0.05353686586022377,-0.002139854012057185,-0.03616172820329666
1790587950954100000,4.994099853515625,0.04036194086074829,-0.005517540965229273,-0.02797676995396614
1790587950964179700,5.0041796875,0.060555361211299896,0.012913132086396217,0.04430807754397392
1790587950974260000,5.014260009765625,0.06360094994306564,-0.029932070523500443,-0.033780332654714584
1790587950984338700,5.024338623046875,0.06681511551141739,-0.051424846053123474,0.03569461777806282
1790587950994419000,5.0344189453125,0.03579435497522354,-0.06158826872706413,0.02256656438112259
1790587951004498700,5.044498779296875,0.06400521844625473,-0.0758950337767601,-0.07783753424882889
1790587951014579000,5.054578857421875,0.04386106878519058,-0.0571674220263958,0.04813317582011223
1790587951024659000,5.064658935546875,0.06339269131422043,-0.07081079483032227,-0.04547107592225075
1790587951034738700,5.07473876953125,0.10893967002630234,-0.05568404123187065,0.010113355703651905
1790587951044819000,5.08481884765625,0.06940557807683945,-0.05063202232122421,0.060518741607666016
1790587951054898700,5.094898681640625,0.08660613000392914,-0.04308462515473366,-0.05545979365706444
1790587951064979000,5.10497900390625,0.07852743566036224,0.00002369796857237816,0.01291446853429079
1790587951075059000,5.115058837890625,0.07313186675310135,0.04614831507205963,0.13558019697666168
1790587951085138700,5.125138671875,0.08061961084604263,0.04269552603363991,-0.05293991044163704
1790587951095219000,5.135218994140625,0.05214536562561989,0.03825204074382782,-0.003757718252018094
1790587951105298700,5.145298583984375,0.034487806260585785,0.03392387181520462,-0.1185506135225296
1790587951115379000,5.15537890625,0.04584778845310211,0.0410185344517231,-0.12962163984775543
1790587951125458700,5.165458740234375,0.04265625402331352,0.07021210342645645,0.006729544140398502
1790587951135539000,5.1755390625,0.06659194827079773,0.06503838300704956,0.027048397809267044
1790587951145619000,5.185618896484375,0.08087634295225143,0.07447289675474167,0.11734021455049515
1790587951155698700,5.19569873046875,0.07740034908056259,0.06071949005126953,0.056462593376636505
1790587951165779000,5.205779052734375,0.09284935146570206,0.06670308113098145,-0.0424988754093647
1790587951175858700,5.215858642578125,0.06273538619279861,0.09472007304430008,-0.02534625120460987
1790587951185939000,5.22593896484375,0.05146781727671623,0.14040154218673706,0.018120266497135162
1790587951196019000,5.23601904296875,0.05043930560350418,0.15594081580638885,0.0061895702965557575
1790587951206098700,5.2460986328125,0.02095971070230007,0.1686267852783203,-0.07283946871757507
1790587951216179000,5.256178955078125,0.034156206995248795,0.1530691236257553,-0.08330675214529037
1790587951226258700,5.2662587890625,0.04616040363907814,0.12975768744945526,0.03667796775698662
1790587951236339000,5.2763388671875,0.05048750713467598,0.11686132848262787,0.06473170965909958
1790587951246418700,5.286418701171875,0.09688030928373337,0.1131637915968895,0.010291637852787971
1790587951256498700,5.296498779296875,0.07913753390312195,0.11821767687797546,0.003226804081350565
1790587951266579000,5.306578857421875,0.09079312533140182,0.12439514696598053,0.02009659819304943
1790587951276658700,5.31665869140625,0.06790938228368759,0.12421831488609314,0.0009383495198562741
1790587951286739000,5.326739013671875,0.047810498625040054,0.12962904572486877,-0.028923142701387405
1790587951296818700,5.336818603515625,0.051359694451093674,0.1417379081249237,-0.029483737424016
1790587951306899000,5.34689892578125,0.06086345016956329,0.16849948465824127,-0.01938077062368393
1790587951316979000,5.35697900390625,0.0844193771481514,0.18408536911010742,0.00355091062374413
1790587951327058700,5.36705859375,0.09481023252010345,0.18751046061515808,0.028663987293839455
1790587951337139000,5.377138916015625,0.10093949735164642,0.18312130868434906,0.02160181663930416
1790587951347218700,5.38721875,0.10191794484853745,0.1871671825647354,0.002574862213805318
1790587951357299000,5.397298828125,0.09973122179508209,0.1924588829278946,-0.0011695424327626824
1790587951367378700,5.407378662109375,0.08738800883293152,0.21060113608837128,0.01634793169796467
1790587951377458700,5.417458740234375,0.08442923426628113,0.22176191210746765,0.004022556357085705
1790587951387539000,5.4275390625,0.08384653180837631,0.2217978686094284,-0.026945212855935097
1790587951397618700,5.43761865234375,0.08817070722579956,0.21524035930633545,-0.015569787472486496
1790587951407699000,5.447698974609375,0.09766887128353119,0.2151961475610733,0.03171011060476303
1790587951417778700,5.45777880859375,0.09862308204174042,0.21986627578735352,0.029199548065662384
1790587951427859000,5.46785888671875,0.09559320658445358,0.2298842817544937,-0.003964530304074287
1790587951437939000,5.47793896484375,0.09213589131832123,0.2520867884159088,0.0017639294965192676
1790587951448018700,5.488018798828125,0.08456984907388687,0.27413350343704224,0.029628850519657135
1790587951458099000,5.498098876953125,0.08558637648820877,0.2913138270378113,0.016989488154649734
1790587951468178700,5.5081787109375,0.08045606315135956,0.2975024878978729,-0.008144094608724117
1790587951478259000,5.518259033203125,0.07564187049865723,0.2992633581161499,0.015364693477749825
1790587951488338700,5.528338623046875,0.08213811367750168,0.30081918835639954,0.0338161364197731
1790587951498418700,5.538418701171875,0.08168245106935501,0.29799649119377136,0.021493958309292793
1790587951508499000,5.5484990234375,0.0760037899017334,0.28744345903396606,0.032995082437992096
1790587951518578700,5.55857861328125,0.07659820467233658,0.27071428298950195,0.04808428883552551
1790587951528659000,5.568658935546875,0.061902083456516266,0.2523302137851715,0.02170381508767605
1790587951538738700,5.57873876953125,0.04265595227479935,0.24142296612262726,-0.014882424846291542
1790587951548819000,5.58881884765625,0.04592178389430046,0.2342049926519394,-0.00037938254536129534
1790587951558899000,5.59889892578125,0.04398034140467644,0.2287774682044983,0.04591727256774902
1790587951568978700,5.608978759765625,0.034812141209840775,0.2109753042459488,0.06021072715520859
1790587951579059000,5.619058837890625,0.030307937413454056,0.16615989804267883,0.03813498467206955
1790587951589138700,5.629138671875,-0.0006113616982474923,0.10802336037158966,0.032451268285512924
1790587951599219000,5.639218994140625,-0.035096634179353714,0.06175173819065094,0.03596317768096924
1790587951609298700,5.649298583984375,-0.03838643804192543,0.022194204851984978,0.006834321655333042
1790587951619378700,5.659378662109375,-0.05335047468543053,-0.0000889957882463932,0.013955880887806416
1790587951629459000,5.669458984375,-0.057492755353450775,-0.020118363201618195,0.015893064439296722
1790587951639538700,5.67953857421875,-0.06141878664493561,-0.06319845467805862,-0.013526076450943947
1790587951649619000,5.689618896484375,-0.08882351219654083,-0.1120016798377037,-0.0032694449182599783
1790587951659698700,5.69969873046875,-0.10774793475866318,-0.18251393735408783,0.058024805039167404
1790587951669779000,5.709779052734375,-0.1346602439880371,-0.23108360171318054,0.07655081897974014
1790587951679859000,5.71985888671875,-0.1299152970314026,-0.2393742799758911,0.00383613514713943
1790587951689938700,5.729938720703125,-0.10008468478918076,-0.19333702325820923,-0.0055104950442910194
1790587951700019000,5.74001904296875,-0.08034533262252808,-0.1253180205821991,0.05129552632570267
1790587951710098700,5.7500986328125,-0.058458149433135986,-0.05709129571914673,0.027120418846607208
1790587951720179000,5.760178955078125,-0.03772703930735588,-0.004128478467464447,-0.040707897394895554
1790587951730259000,5.770259033203125,-0.02677958272397518,0.03964749723672867,0.01548879686743021
1790587951740338700,5.780338623046875,-0.02387167699635029,0.08337633311748505,0.06807557493448257
1790587951750419000,5.7904189453125,-0.02604668028652668,0.11743470281362534,0.015114888548851013
1790587951760498700,5.800498779296875,-0.036120086908340454,0.15182623267173767,0.0492616705596447
1790587951770579000,5.810578857421875,-0.02899639867246151,0.20137754082679749,0.040081754326820374
1790587951780658700,5.82065869140625,0.006602076347917318,0.25253021717071533,0.009915865957736969
1790587951790739000,5.830739013671875,0.03380386903882027,0.3241058588027954,0.036839358508586884
1790587951800819000,5.84081884765625,0.08106326311826706,0.365456759929657,-0.011292217299342155
1790587951810898700,5.850898681640625,0.11251173168420792,0.4067482650279999,-0.011724980548024178
1790587951820979000,5.86097900390625,0.12294333428144455,0.4330238103866577,0.07039172947406769
1790587951831058700,5.87105859375,0.09009005129337311,0.431354820728302,0.10254886746406555
1790587951841139000,5.881138916015625,0.061049338430166245,0.4435976445674896,0.10831461101770401
1790587951851217700,5.8912177734375,0.05988740175962448,0.4492235481739044,0.0500481016933918
1790587951861298700,5.901298583984375,0.05385294556617737,0.46457749605178833,0.003943726886063814
1790587951871377700,5.911377685546875,0.09782839566469193,0.4915989935398102,-0.01866890676319599
1790587951881458000,5.9214580078125,0.12271883338689804,0.5163480043411255,0.011446651071310043
1790587951891538000,5.931537841796875,0.14148105680942535,0.5578041076660156,0.059599798172712326
1790587951901615000,5.941614990234375,0.15163809061050415,0.5930941700935364,0.05668496713042259
1790587951911695400,5.9516953125,0.1607048213481903,0.6167520880699158,0.040944088250398636
1790587951921772300,5.961772216796875,0.1605764627456665,0.6256084442138672,0.044189680367708206
1790587951931852300,5.971852294921875,0.15046364068984985,0.6110242009162903,0.08542793244123459
1790587951941932300,5.981932373046875,0.163810595870018,0.6034756898880005,0.09396203607320786
1790587951952012300,5.99201220703125,0.16492193937301636,0.5709662437438965,0.023350181058049202
1790587951962092300,6.00209228515625,0.17417669296264648,0.5560389757156372,0.017048077657818794
1790587951972172300,6.01217236328125,0.18281039595603943,0.5535430312156677,0.015787336975336075
1790587951982252300,6.022252197265625,0.1882224678993225,0.579825758934021,0.047194793820381165
1790587951992332300,6.032332275390625,0.16282843053340912,0.594468355178833,0.03622043877840042
1790587952002412300,6.042412353515625,0.1543278843164444,0.5951549410820007,0.00440232316032052
1790587952012492300,6.0524921875,0.1450803279876709,0.5818745493888855,0.08588706701993942
1790587952022572300,6.062572265625,0.10739899426698685,0.5230131149291992,0.09330663084983826
1790587952032652000,6.072652099609375,0.1033182367682457,0.4909036159515381,0.07988084107637405
1790587952042732300,6.082732177734375,0.10738860815763474,0.45841333270072937,0.08183559775352478
1790587952052812300,6.092812255859375,0.11366834491491318,0.427920401096344,0.05908500775694847
1790587952062892300,6.102892333984375,0.17442835867404938,0.3709676265716553,0.06394901126623154
1790587952072972300,6.11297216796875,0.2586745321750641,0.2887934148311615,0.13094055652618408
1790587952083052000,6.123052001953125,0.35670390725135803,0.16231882572174072,0.1493893414735794
1790587952093132300,6.13313232421875,0.3426094055175781,0.022495942190289497,0.10562615096569061
1790587952103212300,6.14321240234375,0.16548919677734375,-0.10923092812299728,0.10643308609724045
1790587952113292300,6.153292236328125,-0.09893686324357986,-0.18013599514961243,0.20247013866901398
1790587952123372300,6.163372314453125,-0.3524537980556488,-0.24032343924045563,0.15518251061439514
1790587952133452300,6.173452392578125,-0.3888203501701355,-0.31893062591552734,0.07530632615089417
1790587952143532300,6.1835322265625,-0.3399028778076172,-0.4081342816352844,0.09410637617111206
1790587952153612000,6.193612060546875,-0.3908754885196686,-0.5446670651435852,0.049067527055740356
1790587952163692300,6.2036923828125,-0.4361609220504761,-0.6908891201019287,0.009867335669696331
1790587952173772300,6.213772216796875,-0.47293758392333984,-0.814608633518219,0.039945874363183975
1790587952183852300,6.223852294921875,-0.5535123348236084,-0.918164074420929,0.004450466018170118
1790587952193932300,6.233932373046875,-0.5726308822631836,-0.9545883536338806,-0.056212615221738815
1790587952204012000,6.244011962890625,-0.5639252662658691,-0.9812151789665222,-0.00014455214841291308
1790587952214092300,6.25409228515625,-0.5675266981124878,-1.0164730548858643,0.055167172104120255
1790587952224172300,6.26417236328125,-0.5177828073501587,-1.0774900913238525,0.011824758723378181
1790587952234252300,6.274252197265625,-0.55705326795578,-1.2045036554336548,-0.04395515099167824
1790587952244332300,6.284332275390625,-0.6647272706031799,-1.3438889980316162,-0.10657911002635956
1790587952254412300,6.294412353515625,-0.6834458112716675,-1.375900149345398,-0.05726509541273117
1790587952264492300,6.3044921875,-0.7895421385765076,-1.3538687229156494,-0.02784568816423416
1790587952274572000,6.314572021484375,-0.8206521272659302,-1.2835042476654053,-0.05618545040488243
1790587952284652300,6.32465234375,-0.7110366821289062,-1.1559516191482544,-0.002675620373338461
1790587952294732300,6.334732177734375,-0.5568998456001282,-1.1897825002670288,-0.04266085475683212
1790587952304812300,6.344812255859375,-0.5166267156600952,-1.2894388437271118,-0.015031356364488602
1790587952314892300,6.354892333984375,-0.5525096654891968,-1.4365509748458862,-0.07033082842826843
1790587952324972000,6.364971923828125,-0.5592498183250427,-1.5548856258392334,-0.0164652019739151
1790587952335052300,6.37505224609375,-0.6156888604164124,-1.5251139402389526,0.012472173199057579
1790587952345132300,6.38513232421875,-0.7167553305625916,-1.363494634628296,-0.03673611953854561
1790587952355212300,6.39521240234375,-0.847484827041626,-1.1245741844177246,-0.10998795926570892
1790587952365292300,6.405292236328125,-0.7155433297157288,-0.9420925378799438,0.04525595158338547
1790587952375372300,6.415372314453125,-0.34565579891204834,-0.8957021832466125,0.09286422282457352
1790587952385452300,6.425452392578125,-0.1658809632062912,-0.9019608497619629,0.07557044923305511
1790587952395532000,6.435531982421875,-0.32197684049606323,-0.8956912159919739,0.03335561603307724
1790587952405612300,6.4456123046875,-0.4063255190849304,-0.840607225894928,-0.0883292704820633
1790587952415692300,6.4556923828125,-0.2682872414588928,-0.7059721946716309,-0.029133060947060585
1790587952425772300,6.465772216796875,-0.1365387886762619,-0.601288914680481,0.05253303796052933
1790587952435852300,6.475852294921875,-0.0882735326886177,-0.5363456010818481,0.06578253209590912
1790587952445932000,6.48593212890625,-0.05139460787177086,-0.46379172801971436,0.04332995414733887
1790587952456012300,6.49601220703125,-0.02937878854572773,-0.43079277873039246,-0.029603907838463783
1790587952466092300,6.50609228515625,0.014309302903711796,-0.35020846128463745,-0.030997807160019875
1790587952476172300,6.51617236328125,0.08855316787958145,-0.2397296279668808,0.04094748944044113
1790587952486252300,6.526252197265625,0.07625442743301392,-0.16681893169879913,0.045545436441898346
1790587952496332300,6.536332275390625,-0.021305149421095848,-0.14935871958732605,-0.02856767177581787
1790587952506412300,6.546412353515625,0.020773593336343765,-0.09283285588026047,0.006650769617408514
1790587952516492000,6.556491943359375,0.005717945285141468,-0.07732073962688446,0.03297584876418114
1790587952526572300,6.566572265625,0.03688358888030052,-0.01870349608361721,-0.030207647010684013
1790587952536652300,6.57665234375,0.1424608826637268,0.036151230335235596,-0.008414998650550842
1790587952546732300,6.586732177734375,0.2430463433265686,0.11068165302276611,0.029277784749865532
1790587952556812300,6.596812255859375,0.2864854335784912,0.15012866258621216,-0.005883397534489632
1790587952566892000,6.60689208984375,0.3467674255371094,0.2012307345867157,0.06164557859301567
1790587952576972300,6.61697216796875,0.310636043548584,0.2048579603433609,-0.06848125904798508
1790587952587052300,6.62705224609375,0.23555967211723328,0.22676032781600952,-0.07185309380292892
1790587952597132300,6.63713232421875,0.25727027654647827,0.3181126117706299,0.07354564964771271
1790587952607212300,6.64721240234375,0.35574039816856384,0.39609238505363464,0.13633845746517181
1790587952617292300,6.657292236328125,0.38092485070228577,0.49305567145347595,0.03550638630986214
1790587952627372300,6.667372314453125,0.4333672821521759,0.5451854467391968,-0.2116570621728897
1790587952637452000,6.6774521484375,0.4783685803413391,0.5749204158782959,-0.17222097516059875
1790587952647532300,6.6875322265625,0.437649130821228,0.593376636505127,-0.08263622969388962
1790587952657612300,6.6976123046875,0.31502094864845276,0.6326106190681458,0.034823283553123474
1790587952667692300,6.7076923828125,0.3060191869735718,0.6662231683731079,0.0023273939732462168
1790587952677772300,6.717772216796875,0.3861220180988312,0.6632841229438782,0.006507491692900658
1790587952687852000,6.72785205078125,0.3928539454936981,0.6819121241569519,0.08361373096704483
1790587952697932300,6.737932373046875,0.4500432014465332,0.7128527164459229,-0.13971176743507385
1790587952708012300,6.74801220703125,0.5528697371482849,0.7304679155349731,-0.1338442862033844
1790587952718092300,6.75809228515625,0.49943071603775024,0.8080130815505981,0.02192745916545391
1790587952728172300,6.76817236328125,0.4492138922214508,0.8616811037063599,0.052460335195064545
1790587952738252300,6.778252197265625,0.39049437642097473,0.9016218185424805,0.07664982974529266
1790587952748332300,6.788332275390625,0.3521677851676941,0.9053713083267212,-0.15255139768123627
1790587952758412000,6.798412109375,0.303086519241333,0.8902296423912048,-0.15619726479053497
1790587952768492300,6.8084921875,0.28440791368484497,0.8499565124511719,-0.0019070322159677744
1790587952778572300,6.818572265625,0.351581335067749,0.8199309706687927,0.19316019117832184
1790587952788652300,6.82865234375,0.4432779848575592,0.8102109432220459,0.1407254934310913
1790587952798732300,6.838732177734375,0.4846366047859192,0.7885695695877075,-0.03603038191795349
1790587952808812000,6.84881201171875,0.4651657044887543,0.8265340328216553,-0.16497157514095306
1790587952818892300,6.858892333984375,0.4225386083126068,0.8307819962501526,-0.1406491994857788
1790587952828972300,6.86897216796875,0.40762144327163696,0.9002958536148071,0.14610400795936584
1790587952839052300,6.87905224609375,0.376352995634079,0.9316743016242981,0.2995731830596924
1790587952849132300,6.88913232421875,0.3607993423938751,0.9214735627174377,0.08981143683195114
1790587952859212300,6.89921240234375,0.32080212235450745,0.8388016223907471,-0.22129957377910614
1790587952869292300,6.909292236328125,0.332084596157074,0.7827436327934265,-0.18588697910308838
1790587952879372300,6.919372314453125,0.36466172337532043,0.7815606594085693,0.09198324382305145
1790587952889452300,6.929452392578125,0.41431716084480286,0.7747421860694885,0.13506387174129486
1790587952899532300,6.9395322265625,0.3890155255794525,0.777766227722168,0.02143610641360283
1790587952909611800,6.94961181640625,0.3090410828590393,0.7518672347068787,-0.06786420941352844
1790587952919691800,6.95969189453125,0.24549086391925812,0.7492823600769043,0.01100743468850851
1790587952929771800,6.969771728515625,0.25230029225349426,0.7553679347038269,0.1110011488199234
1790587952939851800,6.979851806640625,0.25577279925346375,0.7362384796142578,0.08068079501390457
1790587952949931500,6.989931640625,0.27098849415779114,0.7530922889709473,0.011348319239914417
1790587952960011800,7.00001171875,0.25636667013168335,0.7499105930328369,-0.06350275129079819
1790587952970091500,7.010091552734375,0.20424409210681915,0.7889853119850159,-0.04751686379313469
1790587952980171800,7.020171875,0.1957579255104065,0.8509339094161987,0.03233243152499199
1790587952990251800,7.030251708984375,0.2135864645242691,0.9033308029174805,0.11777330189943314
1790587953000331500,7.04033154296875,0.23530666530132294,0.8954854011535645,0.15275311470031738
1790587953010411800,7.050411865234375,0.19880032539367676,0.9120523929595947,0.14217877388000488
1790587953020491500,7.060491455078125,0.19787487387657166,0.8901313543319702,0.006586587522178888
1790587953030571800,7.07057177734375,0.20321370661258698,0.8891867399215698,0.08040036261081696
1790587953040651800,7.08065185546875,0.19260500371456146,0.9024801850318909,0.060102809220552444
1790587953050731800,7.090731689453125,0.22197595238685608,0.8904865980148315,0.11946041136980057
1790587953060811800,7.100811767578125,0.18028628826141357,0.8947815299034119,0.11522731930017471
1790587953070891500,7.1108916015625,0.16457657516002655,0.8730937838554382,-0.04451947286725044
1790587953080970800,7.120970703125,0.13332810997962952,0.877147376537323,0.1239481046795845
1790587953091050800,7.13105078125,0.11078310757875443,0.8654212355613708,0.23024125397205353
1790587953101130800,7.141130859375,0.10005509853363037,0.8060258030891418,0.12288656830787659
1790587953111210500,7.15121044921875,0.06299827247858047,0.7138697504997253,0.012523572891950607
1790587953121290800,7.161290771484375,0.07235608994960785,0.6242560148239136,0.08899251371622086
1790587953131370800,7.171370849609375,0.03530699759721756,0.5451816916465759,0.1537289023399353
1790587953141450800,7.18145068359375,0.04331778362393379,0.4502224624156952,0.0221002995967865
1790587953151530800,7.19153076171875,0.001689115073531866,0.3780968487262726,0.13392937183380127
1790587953161610500,7.201610595703125,-0.03486649692058563,0.3393028676509857,0.0863455981016159
1790587953171690800,7.211690673828125,0.03279544785618782,0.2684246897697449,-0.022503720596432686
1790587953181770800,7.221770751953125,-0.004653122276067734,0.24599234759807587,0.18756668269634247
1790587953191850800,7.231850830078125,-0.030946245416998863,0.21192945539951324,0.07601939141750336
1790587953201930800,7.2419306640625,-0.0244864821434021,0.1732020378112793,-0.07119322568178177
1790587953212010500,7.252010498046875,-0.08842604607343674,0.1864515244960785,0.1331108957529068
1790587953222090800,7.2620908203125,-0.10298821330070496,0.1799400895833969,0.19230125844478607
1790587953232170500,7.27217041015625,-0.15739819407463074,0.1521284431219101,0.13975681364536285
1790587953242250800,7.282250732421875,-0.1657480001449585,0.17298418283462524,0.07832755148410797
1790587953252330800,7.292330810546875,-0.15065453946590424,0.13850504159927368,-0.0956498384475708
1790587953262410800,7.30241064453125,-0.1283886581659317,0.11968635022640228,0.011563967913389206
1790587953272490800,7.31249072265625,-0.13137884438037872,0.05787251144647598,0.07581353187561035
1790587953282570500,7.322570556640625,-0.191730335354805,0.08497683703899384,0.28588128089904785
1790587953292650800,7.332650634765625,-0.10622741281986237,0.11388704925775528,0.13547605276107788
1790587953302730800,7.342730712890625,0.028377264738082886,0.03553365170955658,0.04161081463098526
1790587953312810800,7.352810791015625,-0.13238179683685303,0.0858282521367073,0.027029743418097496
1790587953322890800,7.362890869140625,-0.42207780480384827,0.05534357577562332,-0.3787158727645874
1790587953332970500,7.372970458984375,-0.4240328073501587,0.15554474294185638,-0.20288202166557312
1790587953343050800,7.38305078125,-0.17243440449237823,0.22049817442893982,0.3611299693584442
1790587953353130800,7.393130859375,0.05288074165582657,0.1434907466173172,0.554859459400177
1790587953363210800,7.403210693359375,0.012391640804708004,0.08769193291664124,0.1801212877035141
1790587953373290800,7.413290771484375,-0.1432565450668335,0.034183960407972336,-0.497089147567749
1790587953383370800,7.423370849609375,-0.18303458392620087,0.037260446697473526,-0.6391027569770813
1790587953393450800,7.43345068359375,-0.1612374186515808,0.18931256234645844,-0.13268429040908813
1790587953403530500,7.443530517578125,-0.18086624145507812,0.2777380347251892,0.4528750777244568
1790587953413610800,7.45361083984375,-0.1901465505361557,0.31885433197021484,0.439745157957077
1790587953423690800,7.463690673828125,-0.11987105756998062,0.29633569717407227,0.0219337847083807
1790587953433770800,7.473770751953125,-0.025587165728211403,0.28521406650543213,-0.19245894253253937
1790587953443850800,7.483850830078125,0.04993102699518204,0.2597680985927582,0.01743091084063053
1790587953453930500,7.493930419921875,0.0066996668465435505,0.2827509045600891,0.23118287324905396
1790587953464010800,7.5040107421875,-0.030667146667838097,0.2710109055042267,0.08177048712968826
1790587953474090800,7.5140908203125,-0.06807629764080048,0.27684083580970764,0.11137791723012924
1790587953484170800,7.524170654296875,-0.1383720487356186,0.31980666518211365,0.2056966871023178
1790587953494250800,7.534250732421875,-0.18047848343849182,0.2961868345737457,-0.007965524680912495
1790587953504330800,7.544330810546875,-0.10866527259349823,0.25527721643447876,-0.01275575254112482
1790587953514410800,7.55441064453125,-0.10016632825136185,0.2323625534772873,0.11775112897157669
1790587953524490500,7.564490478515625,-0.08793123066425323,0.18937461078166962,0.05001948028802872
1790587953534570800,7.57457080078125,-0.06272627413272858,0.17590060830116272,0.033934518694877625
1790587953544650800,7.584650634765625,-0.09587650746107101,0.20533013343811035,0.09194961935281754
1790587953554730800,7.594730712890625,-0.08963645249605179,0.2139318883419037,0.13779939711093903
1790587953564810800,7.604810791015625,-0.14608456194400787,0.2046491652727127,0.11397556215524673
1790587953574890500,7.614890380859375,-0.1926664412021637,0.1922723948955536,0.07738159596920013
1790587953584970800,7.624970703125,-0.2034493088722229,0.14168937504291534,0.011976758018136024
1790587953595050800,7.63505078125,-0.21401327848434448,0.08344365656375885,-0.013875345699489117
1790587953605130800,7.645130859375,-0.18809592723846436,0.0338505320250988,0.16181577742099762
1790587953615210800,7.655210693359375,-0.18022868037223816,-0.0483308881521225,0.27223578095436096
1790587953625290800,7.665290771484375,-0.1858346313238144,-0.1252235323190689,0.02813149243593216
1790587953635370800,7.675370849609375,-0.24630223214626312,-0.22264543175697327,-0.06969306617975235
1790587953645450500,7.685450439453125,-0.3733949363231659,-0.24792708456516266,-0.008507744409143925
1790587953655530800,7.69553076171875,-0.4637245833873749,-0.24309292435646057,0.036410458385944366
1790587953665610800,7.70561083984375,-0.3521279990673065,-0.1928206980228424,0.09808927029371262
1790587953675690800,7.715690673828125,-0.21220232546329498,-0.24680882692337036,0.009226244874298573
1790587953685770800,7.725770751953125,-0.19806572794914246,-0.32877957820892334,0.010767948813736439
1790587953695850500,7.7358505859375,-0.2283589243888855,-0.39676928520202637,0.07805591076612473
1790587953705930800,7.7459306640625,-0.27010610699653625,-0.4298902153968811,-0.05972779169678688
1790587953716010800,7.7560107421875,-0.3709528148174286,-0.4682472050189972,-0.05531866103410721
1790587953726090800,7.7660908203125,-0.47958794236183167,-0.4293117821216583,0.21607129275798798
1790587953736170800,7.776170654296875,-0.5145848393440247,-0.4779706597328186,0.0744641050696373
1790587953746250800,7.786250732421875,-0.4826638996601105,-0.5358814001083374,-0.0809854045510292
1790587953756330800,7.796330810546875,-0.45450738072395325,-0.5713046193122864,-0.06617343425750732
1790587953766410500,7.806410400390625,-0.3685711622238159,-0.587086021900177,0.05744437128305435
1790587953776490800,7.81649072265625,-0.34368205070495605,-0.5957969427108765,0.10411334037780762
1790587953786570800,7.82657080078125,-0.37902459502220154,-0.5950477719306946,-0.023918392136693
1790587953796650800,7.836650634765625,-0.41740527749061584,-0.6020042300224304,0.0076041133143007755
1790587953806730800,7.846730712890625,-0.477543443441391,-0.5819620490074158,0.049470867961645126
1790587953816810500,7.856810546875,-0.4836428761482239,-0.6098222136497498,0.04177379980683327
1790587953826890800,7.866890869140625,-0.4924246668815613,-0.6233580112457275,0.07867243140935898
1790587953836970800,7.876970703125,-0.5097165703773499,-0.665695309638977,-0.03666694462299347
1790587953847050800,7.88705078125,-0.4347397983074188,-0.7065199613571167,-0.027476375922560692
1790587953857130800,7.897130859375,-0.4447018802165985,-0.7233514189720154,0.09399013966321945
1790587953867210800,7.907210693359375,-0.4713241755962372,-0.7348451018333435,-0.016490036621689796
1790587953877290800,7.917290771484375,-0.387323796749115,-0.7226041555404663,-0.004116458352655172
1790587953887370500,7.92737060546875,-0.43480023741722107,-0.706705629825592,0.1098223626613617
1790587953897450800,7.93745068359375,-0.45208922028541565,-0.7176682353019714,-0.043317392468452454
1790587953907531000,7.947531005859375,-0.4117013216018677,-0.7116753458976746,-0.05153058096766472
1790587953917611000,7.957611083984375,-0.4659650921821594,-0.6811072826385498,0.03883286938071251
1790587953927691300,7.967691162109375,-0.4075816869735718,-0.6348945498466492,0.041091497987508774
1790587953937771000,7.97777099609375,-0.40606579184532166,-0.622505784034729,0.025278981775045395
1790587953947851300,7.987851318359375,-0.4190513789653778,-0.6062024235725403,-0.004047482740134001
1790587953957931000,7.997930908203125,-0.36921563744544983,-0.62467360496521,-0.1330006718635559
1790587953968011300,8.00801123046875,-0.35978299379348755,-0.6423125267028809,-0.08745715022087097
1790587953978091000,8.018091064453126,-0.3592706024646759,-0.5978755354881287,0.141555517911911
1790587953988170200,8.028170166015625,-0.3196880519390106,-0.5782919526100159,0.11291296035051346
1790587953998250000,8.03825,-0.3218427896499634,-0.5823756456375122,0.08096275478601456
1790587954008330000,8.048330078125,-0.3332903981208801,-0.5553688406944275,0.031103581190109253
1790587954018410200,8.05841015625,-0.2888382375240326,-0.6162886023521423,-0.07434241473674774
1790587954028490000,8.068489990234376,-0.2816426455974579,-0.5828946828842163,0.03679555281996727
1790587954038570200,8.0785703125,-0.31402987241744995,-0.5700116753578186,-0.012009268626570702
1790587954048650000,8.08864990234375,-0.2810165286064148,-0.5512848496437073,-0.15408305823802948
1790587954058730200,8.098730224609374,-0.2756763696670532,-0.5459622740745544,-0.06607436388731003
1790587954068810200,8.108810302734375,-0.2742057740688324,-0.5274910926818848,0.12554273009300232
1790587954078890000,8.118889892578125,-0.3035873770713806,-0.5550654530525208,-0.0011414411710575223
1790587954088970200,8.12897021484375,-0.25565817952156067,-0.5582122802734375,-0.05911313369870186
1790587954099050000,8.139050048828125,-0.27215513586997986,-0.5579936504364014,0.05693997070193291
1790587954109130200,8.149130126953125,-0.2893841862678528,-0.5870154500007629,0.09431423991918564
1790587954119210000,8.1592099609375,-0.30082833766937256,-0.5542833209037781,0.07701807469129562
1790587954129290000,8.1692900390625,-0.30261850357055664,-0.5779470801353455,-0.14593671262264252
1790587954139370200,8.179370361328125,-0.26089903712272644,-0.5884223580360413,-0.13363531231880188
1790587954149450000,8.189449951171875,-0.26424503326416016,-0.5653990507125854,0.13609790802001953
1790587954159530200,8.1995302734375,-0.26954683661460876,-0.5408306121826172,0.06482639163732529
1790587954169610000,8.20960986328125,-0.21983841061592102,-0.5463013052940369,-0.11911734193563461
1790587954179690200,8.219690185546876,-0.20602767169475555,-0.503655195236206,0.013932923786342144
1790587954189770200,8.229770263671876,-0.261493057012558,-0.49064990878105164,0.006934669334441423
1790587954199850000,8.23985009765625,-0.2401752471923828,-0.48569321632385254,-0.03273577615618706
1790587954209930200,8.24993017578125,-0.26030129194259644,-0.4536551237106323,0.07017063349485397
1790587954220010000,8.260010009765624,-0.2866505980491638,-0.43349793553352356,0.19730648398399353
1790587954230090200,8.27009033203125,-0.26372265815734863,-0.4440784156322479,0.09073103219270706
1790587954240170000,8.280169921875,-0.24327704310417175,-0.4541776478290558,-0.08796866983175278
1790587954250250000,8.29025,-0.2267633080482483,-0.5002055764198303,-0.1170746237039566
1790587954260330200,8.300330322265625,-0.22218160331249237,-0.5282585024833679,-0.03353792056441307
1790587954270410000,8.310409912109375,-0.18865427374839783,-0.5279876589775085,0.18367747962474823
1790587954280490200,8.320490234375,-0.20502179861068726,-0.5263455510139465,0.11200569570064545
1790587954290570000,8.330570068359375,-0.1989857405424118,-0.5110675096511841,-0.09800399839878082
1790587954300650200,8.340650146484375,-0.19523094594478607,-0.49874138832092285,-0.10006208717823029
1790587954310730200,8.350730224609375,-0.20618532598018646,-0.4562416076660156,0.13977181911468506
1790587954320810000,8.36081005859375,-0.18532346189022064,-0.4509080946445465,0.14882415533065796
1790587954330890200,8.37089013671875,-0.13427704572677612,-0.4701419770717621,-0.027980703860521317
1790587954340970000,8.380969970703125,-0.15420947968959808,-0.510985255241394,-0.0018340544775128365
1790587954351050200,8.39105029296875,-0.17233388125896454,-0.5003664493560791,-0.033639922738075256
1790587954361130000,8.4011298828125,-0.1499904990196228,-0.4857741892337799,-0.022508440539240837
1790587954371210000,8.4112099609375,-0.16945527493953705,-0.43600156903266907,0.09074514359235764
1790587954381290200,8.421290283203126,-0.13085222244262695,-0.42341360449790955,0.11007729917764664
1790587954391370000,8.431369873046876,-0.13965930044651031,-0.4178830087184906,0.08216816931962967
1790587954401450200,8.4414501953125,-0.1534041464328766,-0.44772374629974365,-0.08915138244628906
1790587954411530000,8.451530029296874,-0.12454292923212051,-0.444295197725296,-0.03778912499547005
1790587954421610200,8.4616103515625,-0.13503338396549225,-0.43411606550216675,0.047311387956142426
1790587954431690200,8.471690185546874,-0.11361704766750336,-0.42282000184059143,0.04560456797480583
1790587954441770000,8.48177001953125,-0.12081876397132874,-0.4116363227367401,0.051041942089796066
1790587954451850200,8.491850341796875,-0.13237342238426208,-0.42922383546829224,-0.06278475373983383
1790587954461930000,8.501929931640625,-0.10360249131917953,-0.4476720690727234,-0.0509139820933342
1790587954472010200,8.51201025390625,-0.1081109568476677,-0.424014687538147,0.11007596552371979
1790587954482090200,8.52209033203125,-0.07301822304725647,-0.4151809811592102,0.07448894530534744
1790587954492170000,8.532169921875,-0.04455994442105293,-0.3853892683982849,0.07284018397331238
1790587954502250200,8.542250244140625,-0.07190395146608353,-0.3707171082496643,0.047180358320474625
1790587954512330000,8.552330078125,-0.053833868354558945,-0.3856603801250458,-0.06357172131538391
1790587954522410200,8.56241015625,-0.07715623825788498,-0.3814011812210083,0.04331371560692787
1790587954532490000,8.572489990234375,-0.07765238732099533,-0.3757976293563843,0.14729417860507965
1790587954542570200,8.5825703125,-0.061958108097314835,-0.4068756401538849,0.0038009281270205975
1790587954552650200,8.592650146484376,-0.04414023086428642,-0.43555229902267456,-0.07077876478433609
1790587954562730000,8.60272998046875,-0.06230298802256584,-0.4514833390712738,0.04300985112786293
1790587954572809200,8.612809326171876,-0.05375637114048004,-0.4445982575416565,0.07650655508041382
1790587954582889000,8.622888916015626,-0.020004533231258392,-0.423714816570282,0.019920775666832924
1790587954592969200,8.63296923828125,-0.03131231665611267,-0.3831860423088074,0.09907897561788559
1790587954603049000,8.643049072265624,-0.03679496422410011,-0.39861851930618286,0.041226863861083984
1790587954613129200,8.653129150390624,-0.030118154361844063,-0.42097601294517517,-0.07234656810760498
1790587954623209000,8.663208984375,-0.05265994742512703,-0.4774262309074402,0.019325291737914085
1790587954633289200,8.673289306640624,-0.08195765316486359,-0.5149807929992676,0.16024060547351837
1790587954643369200,8.683369140625,-0.0777815505862236,-0.5438262820243835,0.0882905125617981
1790587954653449000,8.693448974609375,-0.08444184809923172,-0.5514006018638611,-0.015833493322134018
1790587954663529200,8.703529296875,-0.08424317836761475,-0.5520559549331665,0.012165384367108345
1790587954673609000,8.71360888671875,-0.06966796517372131,-0.5381492376327515,0.04925256595015526
1790587954683689200,8.723689208984375,-0.06519544869661331,-0.535422146320343,0.018298111855983734
1790587954693769200,8.733769287109375,-0.06151948496699333,-0.5065681338310242,0.1355469673871994
1790587954703849000,8.743848876953125,-0.08664587885141373,-0.5119349360466003,0.11521214246749878
1790587954713929200,8.75392919921875,-0.09017910063266754,-0.518011748790741,-0.02047218754887581
1790587954724009000,8.764009033203125,-0.10512156039476395,-0.5194926857948303,-0.043904807418584824
1790587954734089200,8.774089111328125,-0.11632521450519562,-0.5331816077232361,0.12651726603507996
1790587954744169000,8.7841689453125,-0.08167801797389984,-0.5019214749336243,0.19029197096824646
1790587954754249200,8.794249267578126,-0.0800018310546875,-0.520023763179779,-0.00029900847584940493
1790587954764329200,8.8043291015625,-0.04870142415165901,-0.5055007338523865,-0.004079099278897047
1790587954774409000,8.814408935546876,-0.04106054827570915,-0.491001695394516,0.09485999494791031
1790587954784489200,8.8244892578125,-0.023980366066098213,-0.483971506357193,0.12174540758132935
1790587954794569000,8.83456884765625,-0.01800583116710186,-0.47143226861953735,0.13649879395961761
1790587954804649200,8.844649169921874,-0.024823788553476334,-0.4849315583705902,0.03607631102204323
1790587954814729200,8.854729248046874,-0.06477627158164978,-0.4927726984024048,0.0006890242802910507
1790587954824809000,8.86480908203125,-0.06341912597417831,-0.47296279668807983,-0.005622401367872953
1790587954834889200,8.87488916015625,-0.03479333221912384,-0.4518737494945526,0.14340755343437195
1790587954844969000,8.884968994140625,-0.017715811729431152,-0.42696306109428406,0.21729722619056702
1790587954855049200,8.89504931640625,-0.0018601507181301713,-0.4290272891521454,0.01977909542620182
1790587954865129200,8.905129150390625,0.0005398900830186903,-0.44315004348754883,-0.1397346705198288
1790587954875209200,8.915209228515625,0.012979782186448574,-0.42964115738868713,0.0537240132689476
1790587954885289200,8.925289306640625,-0.025479992851614952,-0.42509832978248596,0.2037515938282013
1790587954895369000,8.935368896484375,0.007077684160321951,-0.4133159816265106,0.09841611981391907
1790587954905449000,8.945448974609375,-0.030205771327018738,-0.4369720220565796,-0.008990767411887646
1790587954915529000,8.955529052734375,-0.02595589868724346,-0.4267236590385437,0.043644215911626816
1790587954925609000,8.96560888671875,0.010899320244789124,-0.43789589405059814,0.02952519990503788
1790587954935689000,8.97568896484375,0.05992918089032173,-0.40340927243232727,0.1835848093032837
1790587954945769000,8.98576904296875,0.032458141446113586,-0.3802458941936493,0.16163450479507446
1790587954955849000,8.995848876953126,0.04924803972244263,-0.36059150099754333,0.03740043193101883
1790587954965929000,9.005928955078126,0.08100596815347672,-0.31345808506011963,-0.03884373605251312
1790587954976009000,9.016009033203124,0.12492015957832336,-0.2977065443992615,0.07499281316995621
1790587954986089000,9.0260888671875,0.07368414103984833,-0.2656676471233368,0.11767636239528656
1790587954996169000,9.0361689453125,0.07808421552181244,-0.24221770465373993,-0.033272404223680496
1790587955006249000,9.0462490234375,0.1027541384100914,-0.20312224328517914,0.00990595854818821
1790587955016329000,9.056328857421875,0.07973749935626984,-0.1894993633031845,0.05349258333444595
1790587955026409000,9.066408935546875,0.12228842824697495,-0.166446253657341,0.06300486624240875
1790587955036489000,9.076489013671875,0.1412605196237564,-0.15228569507598877,0.025149093940854073
1790587955046569000,9.08656884765625,0.1724434643983841,-0.11879803985357285,0.147474467754364
1790587955056648000,9.09664794921875,0.1788414567708969,-0.07447558641433716,0.1717395931482315
1790587955066728000,9.10672802734375,0.17476814985275269,-0.058083031326532364,-0.027479764074087143
1790587955076808000,9.116807861328125,0.19732990860939026,-0.05395299941301346,-0.11629804968833923
1790587955086888000,9.126887939453125,0.19535250961780548,-0.033298853784799576,0.03457615152001381
1790587955096968000,9.136968017578125,0.16264677047729492,0.005507397931069136,0.1380050778388977
1790587955107048000,9.1470478515625,0.18878330290317535,0.05568268150091171,0.008094475604593754
1790587955117128000,9.1571279296875,0.2436814308166504,0.052461590617895126,-0.02710798569023609
1790587955127208000,9.1672080078125,0.19362545013427734,0.03227616101503372,0.04867545887827873
1790587955137288000,9.177287841796876,0.22259639203548431,0.012390870600938797,0.11846306174993515
1790587955147368000,9.187367919921876,0.23162849247455597,0.017665261402726173,0.13862133026123047
1790587955157448000,9.197447998046876,0.21712172031402588,0.018459150567650795,0.0725640133023262
1790587955167528000,9.20752783203125,0.22564011812210083,0.02089887112379074,0.01593322493135929
1790587955177608000,9.21760791015625,0.20224636793136597,0.00032462039962410927,-0.16535986959934235
1790587955187688000,9.22768798828125,0.21196593344211578,0.014443183317780495,-0.053724389523267746
1790587955197768000,9.237767822265624,0.22882135212421417,0.05245128646492958,0.17085865139961243
1790587955207848000,9.247847900390624,0.21446718275547028,0.05609315633773804,-0.0220831036567688
1790587955217928000,9.257927978515625,0.22983868420124054,0.011688143014907837,-0.1499457210302353
1790587955228008000,9.268008056640625,0.19931592047214508,-0.00215603387914598,0.041475631296634674
1790587955238088000,9.278087890625,0.1354338824748993,-0.052954234182834625,0.09410875290632248
1790587955248168000,9.28816796875,0.18074384331703186,-0.08527222275733948,0.06147943064570427
1790587955258248000,9.298248046875,0.17533016204833984,-0.12971293926239014,0.014633897691965103
1790587955268328000,9.308327880859375,0.1442529410123825,-0.15492534637451172,0.04365995526313782
1790587955278408000,9.318407958984375,0.1648319810628891,-0.1572263240814209,0.02105797454714775
1790587955288488000,9.328488037109375,0.15901590883731842,-0.16931280493736267,0.0729728415608406
1790587955298568000,9.33856787109375,0.1266787350177765,-0.18103817105293274,0.1345571130514145
1790587955308648000,9.34864794921875,0.11923413723707199,-0.22196456789970398,-0.028064830228686333
1790587955318728000,9.35872802734375,0.1203412115573883,-0.26104220747947693,-0.12898825109004974
1790587955328808000,9.368807861328126,0.08276960253715515,-0.2818702459335327,0.011836247518658638
1790587955338888000,9.378887939453126,0.10961693525314331,-0.2997850775718689,0.11402013897895813
1790587955348968000,9.388968017578126,0.09554638713598251,-0.30616945028305054,0.12413109838962555
1790587955359048000,9.3990478515625,0.09270772337913513,-0.32208052277565,0.07026147842407227
1790587955369128000,9.4091279296875,0.10935167968273163,-0.3121301531791687,-0.011494109407067299
1790587955379208000,9.4192080078125,0.08998464047908783,-0.31059402227401733,-0.07201870530843735
1790587955389288000,9.429287841796874,0.13173314929008484,-0.2901577353477478,0.12816712260246277
1790587955399368000,9.439367919921875,0.11788071691989899,-0.2541424632072449,0.14486780762672424
1790587955409448000,9.449447998046875,0.08607831597328186,-0.24236997961997986,-0.1737394779920578
1790587955419528000,9.45952783203125,0.10661981254816055,-0.23404544591903687,-0.15144455432891846
1790587955429607000,9.46960693359375,0.08846797049045563,-0.18471759557724,0.07837000489234924
1790587955439687000,9.47968701171875,0.1465373933315277,-0.14881259202957153,0.19250082969665527
1790587955449767000,9.489766845703125,0.19182951748371124,-0.12994861602783203,0.14830248057842255
1790587955459847000,9.499846923828125,0.1775539070367813,-0.13402724266052246,-0.019484924152493477
1790587955469927000,9.509927001953125,0.19971460103988647,-0.11607754230499268,-0.08917105942964554
1790587955480007000,9.5200068359375,0.2263251692056656,-0.02253720536828041,0.07094191014766693
1790587955490087000,9.5300869140625,0.23351064324378967,0.04533451795578003,0.11157509684562683
1790587955500167000,9.5401669921875,0.23772190511226654,0.0770660862326622,0.008295574225485325
1790587955510247000,9.550246826171875,0.22429610788822174,0.1026337593793869,-0.14951935410499573
1790587955520327000,9.560326904296875,0.26939859986305237,0.10883360356092453,-0.15599936246871948
1790587955530407000,9.570406982421876,0.3117380440235138,0.17833039164543152,0.136407732963562
1790587955540487200,9.580487060546876,0.3459290564060211,0.19270798563957214,0.14467231929302216
1790587955550567000,9.59056689453125,0.3994269073009491,0.23818439245224,0.01630050502717495
1790587955560647000,9.60064697265625,0.40060561895370483,0.27349257469177246,-0.042466942220926285
1790587955570727000,9.610726806640624,0.4107908606529236,0.32354775071144104,-0.02942437306046486
1790587955580807000,9.620806884765624,0.43613457679748535,0.40685462951660156,0.12578599154949188
1790587955590887000,9.630886962890624,0.38727623224258423,0.4743540585041046,0.06016169860959053
1790587955600967000,9.640966796875,0.3978276550769806,0.5322809815406799,-0.2003934532403946
1790587955611047000,9.651046875,0.45594823360443115,0.5927374362945557,-0.12320040166378021
1790587955621127000,9.661126953125,0.477324903011322,0.6717581748962402,0.10427643358707428
1790587955631207000,9.67120703125,0.4956919252872467,0.7313541769981384,-0.028936216607689857
1790587955641287000,9.681286865234375,0.5503336191177368,0.7836482524871826,-0.04188210889697075
1790587955651367000,9.691366943359375,0.5091726183891296,0.8609158992767334,0.06446776539087296
1790587955661447200,9.701447265625,0.5272567868232727,0.9239776730537415,-0.09171144664287567
1790587955671527000,9.71152685546875,0.5849863886833191,1.0089359283447266,-0.029212651774287224
1790587955681607000,9.72160693359375,0.5639466047286987,1.0358586311340332,0.06185680255293846
1790587955691687000,9.73168701171875,0.5577443838119507,1.075751781463623,-0.0022593317553400993
1790587955701767000,9.741766845703125,0.5738471746444702,1.07503080368042,-0.1999252736568451
1790587955711847200,9.75184716796875,0.624359130859375,1.0998989343643188,-0.011975875124335289
1790587955721927000,9.761927001953126,0.5989906191825867,1.1504757404327393,0.09776527434587479
1790587955732007000,9.7720068359375,0.6228448152542114,1.1412380933761597,-0.0987648293375969
1790587955742087000,9.7820869140625,0.636837899684906,1.1453806161880493,-0.029480300843715668
1790587955752167000,9.7921669921875,0.5878639221191406,1.1296179294586182,0.0679573118686676
1790587955762247000,9.802246826171874,0.5795711278915405,1.128744125366211,0.034374043345451355
1790587955772327000,9.812326904296874,0.5290488600730896,1.1118452548980713,-0.002135761082172394
1790587955782407200,9.8224072265625,0.5034992694854736,1.0868505239486694,-0.034709684550762177
1790587955792486000,9.83248583984375,0.4639664888381958,1.0298972129821777,-0.06660556048154831
1790587955802566100,9.842566162109375,0.45290982723236084,0.9709047079086304,-0.006825054995715618
1790587955812646000,9.85264599609375,0.425289124250412,0.9439236521720886,0.05693048611283302
1790587955822726000,9.862725830078125,0.4121815860271454,0.9041440486907959,0.007436438929289579
1790587955832806000,9.872805908203125,0.37374576926231384,0.885686993598938,-0.029524242505431175
1790587955842886000,9.882885986328125,0.3578227162361145,0.8550475835800171,-0.0767117291688919
1790587955852966000,9.8929658203125,0.36936861276626587,0.8472250699996948,0.08254291117191315
1790587955863046000,9.9030458984375,0.3188748061656952,0.8235812783241272,0.1911892294883728
1790587955873126100,9.913126220703125,0.279592901468277,0.78069669008255,0.004416680429130793
1790587955883206000,9.923205810546875,0.25066912174224854,0.728108823299408,-0.07578228414058685
1790587955893286000,9.933285888671875,0.19948236644268036,0.6865981221199036,0.08903516083955765
1790587955903366000,9.943365966796875,0.2198299914598465,0.6643367409706116,0.11498846858739853
1790587955913445400,9.9534453125,0.2260199785232544,0.6281393766403198,0.03688221052289009
1790587955923525400,9.963525390625,0.16106228530406952,0.5787907242774963,-0.0685049295425415
1790587955933605400,9.97360546875,0.18965238332748413,0.5912466049194336,0.028850650414824486
1790587955943685600,9.983685546875,0.1661268174648285,0.5842254161834717,0.10233259201049805
1790587955953765400,9.993765380859376,0.18036992847919464,0.5774543285369873,0.13376161456108093
1790587955963845400,10.003845458984374,0.13100877404212952,0.5548656582832336,-0.020080139860510826
1790587955973925400,10.01392529296875,0.11974546313285828,0.5105557441711426,-0.0940030962228775
1790587955984005400,10.02400537109375,0.08675689250230789,0.49357062578201294,0.12558571994304657
1790587955994085600,10.034085693359375,0.05892019346356392,0.5156250596046448,0.1808127462863922
1790587956004165400,10.044165283203125,0.08710629492998123,0.5130561590194702,0.06797461956739426
1790587956014245600,10.05424560546875,0.08014985173940659,0.5212416648864746,0.0013945252867415547
1790587956024325400,10.064325439453125,0.0593673400580883,0.5050206184387207,-0.023688990622758865
1790587956034405400,10.0744052734375,0.11986210942268372,0.5247458219528198,0.22571390867233276
1790587956044485400,10.0844853515625,0.07827738672494888,0.5203137993812561,0.23559051752090454
1790587956054565400,10.0945654296875,0.05121966451406479,0.4890488386154175,-0.06404279917478561
1790587956064645600,10.104645751953125,0.06783566623926163,0.47364670038223267,-0.015866752713918686
1790587956074725400,10.114725341796875,0.021240459755063057,0.4422198235988617,0.14934563636779785
1790587956084805400,10.124805419921875,0.012511949986219406,0.4114866554737091,0.12279259413480759
1790587956094885400,10.134885498046875,-0.004555983003228903,0.3760237395763397,0.003861677600070834
1790587956104965400,10.14496533203125,0.008996044285595417,0.3406503200531006,-0.04284271225333214
1790587956115044400,10.15504443359375,0.003400477347895503,0.30611762404441833,0.04770849272608757
1790587956125124400,10.165124267578125,0.027493828907608986,0.30555278062820435,0.15642724931240082
1790587956135204600,10.17520458984375,-0.028940685093402863,0.28817859292030334,0.0487804152071476
1790587956145284400,10.185284423828126,-0.014876531437039375,0.2744816839694977,0.048886675387620926
1790587956155364600,10.195364501953126,-0.08026192337274551,0.25540411472320557,0.12326157838106155
1790587956165444400,10.2054443359375,-0.09552929550409317,0.225521057844162,0.037255316972732544
1790587956175524400,10.2155244140625,-0.043509505689144135,0.21308356523513794,0.1381979137659073
1790587956185604400,10.225604248046874,-0.08520901203155518,0.1946161389350891,0.15516145527362823
1790587956195684400,10.235684326171874,-0.0760057121515274,0.1406259685754776,-0.07188715785741806
1790587956205764600,10.2457646484375,-0.10990907996892929,0.06829611212015152,-0.039103638380765915
1790587956215844400,10.25584423828125,-0.16278082132339478,0.07360751926898956,0.17900525033473969
1790587956225924600,10.265924560546875,-0.1812618225812912,0.03615948557853699,0.07243034243583679
1790587956236004400,10.27600439453125,-0.1662975251674652,-0.014607025310397148,-0.0815696120262146
1790587956246084400,10.28608447265625,-0.20715494453907013,-0.04036565124988556,0.09344162046909332
1790587956256164600,10.29616455078125,-0.22572915256023407,-0.060792893171310425,0.15066656470298767
1790587956266244400,10.306244384765625,-0.20381507277488708,-0.10637689381837845,0.11427313089370728
1790587956276324600,10.31632470703125,-0.23843136429786682,-0.11495760083198547,0.0318610817193985
1790587956286404400,10.326404296875,-0.22326387465000153,-0.16189421713352203,-0.1314157247543335
1790587956296484400,10.336484375,-0.18968912959098816,-0.209494486451149,-0.002782649826258421
1790587956306564400,10.346564453125,-0.22191230952739716,-0.16853880882263184,0.1874631941318512
1790587956316644400,10.356644287109376,-0.2384425550699234,-0.1850607842206955,-0.046860095113515854
1790587956326724600,10.366724609375,-0.2183958739042282,-0.1893697828054428,-0.021434897556900978
1790587956336804400,10.376804443359376,-0.22571344673633575,-0.14643830060958862,0.15903393924236298
1790587956346884600,10.386884521484374,-0.21697507798671722,-0.16636060178279877,0.07087665796279907
1790587956356964400,10.39696435546875,-0.16501760482788086,-0.18269802629947662,-0.0369291678071022
1790587956367044400,10.40704443359375,-0.1738997846841812,-0.18085671961307526,0.025748061016201973
1790587956377124600,10.41712451171875,-0.20220571756362915,-0.20462143421173096,0.010324363596737385
1790587956387203300,10.427203369140624,-0.14867964386940002,-0.16617365181446075,0.1218239888548851
1790587956397283600,10.43728369140625,-0.16537393629550934,-0.16779577732086182,0.014033613726496696
1790587956407363300,10.44736328125,-0.16750580072402954,-0.158123180270195,-0.08829089254140854
1790587956417443600,10.457443603515625,-0.1385047733783722,-0.14471229910850525,-0.013673647306859493
1790587956427523300,10.4675234375,-0.1206008717417717,-0.11656508594751358,0.01652713119983673
1790587956437603600,10.477603515625,-0.11259061843156815,-0.07556945085525513,0.07212461531162262
1790587956447683300,10.487683349609375,-0.07995784282684326,-0.057600297033786774,0.01899348571896553
1790587956457763300,10.497763427734375,-0.11817393451929092,-0.034207358956336975,-0.07486376911401749
1790587956467843600,10.507843505859375,-0.1097029522061348,-0.019514432176947594,-0.019901182502508163
1790587956477923300,10.51792333984375,-0.12052364647388458,0.015784703195095062,0.13088619709014893
1790587956488003600,10.528003662109375,-0.1269591748714447,0.014058707281947136,-0.020648200064897537
1790587956498083300,10.538083251953125,-0.08944029361009598,0.01353805884718895,-0.1209457740187645
1790587956508163300,10.548163330078125,-0.09477327018976212,0.06374556571245193,0.04858120530843735
1790587956518243600,10.55824365234375,-0.0615902841091156,0.09032950550317764,0.0221133790910244
1790587956528323300,10.5683232421875,-0.004034049808979034,0.1175728440284729,0.04697958007454872
1790587956538403600,10.578403564453126,-0.03862451761960983,0.17019158601760864,0.0587662011384964
1790587956548483300,10.5884833984375,0.004803117364645004,0.19514620304107666,-0.07051589339971542
1790587956558563600,10.5985634765625,0.032006509602069855,0.2288799285888672,0.0687626376748085
1790587956568643300,10.608643310546874,-0.024809902533888817,0.23898716270923615,0.12451405078172684
1790587956578723300,10.618723388671874,0.0012611134443432093,0.20786812901496887,0.016562817618250847
1790587956588803600,10.628803466796874,-0.046330105513334274,0.16760246455669403,-0.16153500974178314
1790587956598883300,10.63888330078125,-0.06319724023342133,0.18008096516132355,0.005874221678823233
1790587956608963600,10.648963623046875,-0.018488889560103416,0.195607990026474,0.158153235912323
1790587956619043300,10.659043212890625,0.021112048998475075,0.18849362432956696,-0.061121854931116104
1790587956629123300,10.669123291015625,0.01897992193698883,0.1412435621023178,-0.09255647659301758
1790587956639203600,10.67920361328125,0.04454493895173073,0.14900986850261688,0.10796703398227692
1790587956649283300,10.689283447265625,0.03389708697795868,0.16120421886444092,0.1755165159702301
1790587956659363600,10.699363525390625,0.013826440088450909,0.22201509773731232,0.202721506357193
1790587956669442300,10.7094423828125,-0.009587539359927177,0.26599082350730896,0.0016986513510346413
1790587956679522600,10.7195224609375,0.007537118624895811,0.23273113369941711,-0.22902803122997284
1790587956689602300,10.729602294921875,0.027506032958626747,0.2603161633014679,0.09355001151561737
1790587956699682600,10.7396826171875,0.014942038804292679,0.22491635382175446,0.054220184683799744
1790587956709762300,10.74976220703125,0.0169838834553957,0.1718187779188156,-0.17986075580120087
1790587956719842600,10.759842529296876,0.000299445993732661,0.2035149186849594,0.02308117039501667
1790587956729922600,10.769922607421876,-0.012955904938280582,0.23089328408241272,0.11400628089904785
1790587956740002300,10.780002197265626,-0.005813573952764273,0.25527825951576233,0.0986664742231369
1790587956750082600,10.79008251953125,0.029764393344521523,0.27603814005851746,0.18030647933483124
1790587956760162300,10.800162353515624,-0.012754837051033974,0.25594326853752136,0.025693731382489204
1790587956770242600,10.81024267578125,0.004030534531921148,0.2080867737531662,-0.2132275104522705
1790587956780322600,10.820322509765624,0.030442966148257256,0.22116822004318237,0.017812373116612434
1790587956790402300,10.83040234375,-0.04286213964223862,0.25717177987098694,0.17562703788280487
1790587956800482600,10.840482666015625,-0.037311576306819916,0.2368614226579666,-0.07983802258968353
1790587956810562300,10.850562255859375,-0.030681373551487923,0.24470603466033936,0.013255970552563667
1790587956820642600,10.860642578125,-0.06777600944042206,0.2737339735031128,0.15369750559329987
1790587956830722300,10.870722412109375,-0.011533510871231556,0.2318565398454666,-0.07965373247861862
1790587956840802300,10.88080224609375,0.022309938445687294,0.21160560846328735,-0.150616854429245
1790587956850882600,10.890882568359375,-0.009278612211346626,0.17507421970367432,-0.015150902792811394
1790587956860962300,10.90096240234375,-0.04990992695093155,0.20259639620780945,0.18852286040782928
1790587956871042600,10.91104248046875,-0.10436730831861496,0.19258476793766022,0.09904730319976807
1790587956881122300,10.921122314453125,-0.11541356891393661,0.1766606718301773,0.009095581248402596
1790587956891202600,10.93120263671875,-0.17799599468708038,0.12691788375377655,0.016739651560783386
1790587956901282600,10.941282470703126,-0.18059204518795013,0.059057608246803284,-0.008338004350662231
1790587956911362000,10.951362060546876,-0.16058877110481262,0.015973255038261414,0.06800629943609238
1790587956921442300,10.9614423828125,-0.19202765822410583,-0.024519843980669975,0.03149756044149399
1790587956931522000,10.97152197265625,-0.15935173630714417,-0.05895664542913437,0.03216761350631714
1790587956941602300,10.981602294921874,-0.21547839045524597,-0.13685357570648193,0.09614818543195724
1790587956951682300,10.991682373046874,-0.21251028776168823,-0.2371799200773239,-0.03974892199039459
1790587956961762300,11.00176220703125,-0.21541127562522888,-0.35007208585739136,-0.07750961929559708
1790587956971842300,11.01184228515625,-0.24875006079673767,-0.3903462886810303,0.04386235028505325
1790587956981922000,11.021922119140624,-0.24055737257003784,-0.40599820017814636,-0.04810618609189987
1790587956992002300,11.032002197265625,-0.22976863384246826,-0.4129224419593811,0.0028656485956162214
1790587957002082300,11.042082275390625,-0.2797527313232422,-0.420477032661438,0.057536352425813675
1790587957012162300,11.052162353515625,-0.2816978991031647,-0.46367934346199036,-0.07664542645215988
1790587957022242300,11.0622421875,-0.31037136912345886,-0.5183886885643005,-0.0724104642868042
1790587957032322000,11.072322021484375,-0.30731964111328125,-0.5449510812759399,0.14010871946811676
1790587957042402300,11.08240234375,-0.3235340416431427,-0.556679904460907,0.12640969455242157
1790587957052482000,11.09248193359375,-0.31272345781326294,-0.5946448445320129,-0.1706046760082245
1790587957062562300,11.102562255859375,-0.2925249934196472,-0.620930016040802,-0.19195736944675446
1790587957072642300,11.112642333984375,-0.2758661210536957,-0.5886330604553223,0.009531806223094463
1790587957082722300,11.122722412109376,-0.24444904923439026,-0.5858367085456848,0.11031780391931534
1790587957092802300,11.13280224609375,-0.22303509712219238,-0.5402175784111023,0.11815895140171051
1790587957102882000,11.142882080078126,-0.32652050256729126,-0.5332251787185669,-0.11689350754022598
1790587957112962300,11.15296240234375,-0.3302966058254242,-0.49593502283096313,-0.07627896964550018
1790587957123042300,11.163042236328126,-0.18339236080646515,-0.4003368616104126,0.21270516514778137
1790587957133122300,11.173122314453124,-0.07700067013502121,-0.44866976141929626,0.12287114560604095
1790587957143201300,11.183201171875,-0.09652483463287354,-0.5131840705871582,-0.2565382122993469
1790587957153281300,11.19328125,-0.16639205813407898,-0.5329806804656982,-0.13908164203166962
1790587957163361300,11.203361328125,-0.17259642481803894,-0.3952912390232086,0.31547096371650696
1790587957173441300,11.213441162109374,-0.15881644189357758,-0.30511581897735596,0.2915286123752594
1790587957183521300,11.223521240234374,-0.12285097688436508,-0.27648550271987915,-0.09184541553258896
1790587957193601000,11.23360107421875,-0.10077311098575592,-0.26649731397628784,-0.17128431797027588
1790587957203681300,11.243681396484375,-0.06887293606996536,-0.24080640077590942,0.02521822787821293
1790587957213761300,11.25376123046875,0.014434208162128925,-0.23334182798862457,0.045660920441150665
1790587957223841300,11.26384130859375,0.0628531351685524,-0.2330627292394638,-0.036968447268009186
1790587957233921300,11.27392138671875,0.028462141752243042,-0.21718895435333252,0.055811557918787
1790587957244001000,11.2840009765625,-0.07232598960399628,-0.17263799905776978,-0.10511580854654312
1790587957254081300,11.294081298828125,-0.06530670076608658,-0.07510877400636673,-0.012123018503189087
1790587957264161300,11.304161376953125,-0.019528286531567574,0.024794118478894234,0.09561090171337128
1790587957274241300,11.3142412109375,0.056764621287584305,0.041531555354595184,-0.03944065794348717
1790587957284321300,11.3243212890625,0.11774168163537979,0.026531031355261803,-0.010146153159439564
1790587957294401300,11.3344013671875,0.08945119380950928,0.012223465368151665,0.02059178426861763
1790587957304481300,11.344481201171876,0.07755059003829956,0.028296707198023796,-0.18844053149223328
1790587957314561000,11.35456103515625,0.0892554447054863,0.06950859725475311,-0.03316039219498634
1790587957324641300,11.364641357421876,0.06068852171301842,0.1687489002943039,0.2301306277513504
1790587957334721300,11.37472119140625,0.06382545828819275,0.15538622438907623,-0.11850778013467789
1790587957344801300,11.38480126953125,0.1380552053451538,0.12249937653541565,-0.2149280607700348
1790587957354881300,11.39488134765625,0.09461106359958649,0.16978193819522858,0.08481816947460175
1790587957364960300,11.404960205078124,0.09903670847415924,0.20005647838115692,0.10318945348262787
1790587957375040300,11.415040283203124,0.16181699931621552,0.24221272766590118,-0.003827005624771118
1790587957385120300,11.425120361328124,0.1289312243461609,0.250686377286911,-0.11518016457557678
1790587957395200300,11.4352001953125,0.13490283489227295,0.2637347877025604,0.023928191512823105
1790587957405280300,11.4452802734375,0.11846952885389328,0.26302826404571533,0.07414741814136505
1790587957415360300,11.4553603515625,0.08740881085395813,0.2603384554386139,0.018871914595365524
1790587957425440300,11.465440185546875,0.0713249146938324,0.24061056971549988,-0.008024146780371666
1790587957435520300,11.475520263671875,0.06238921731710434,0.22844791412353516,-0.07564154267311096
1790587957445600300,11.485600341796875,0.07165275514125824,0.22028931975364685,-0.038877665996551514
1790587957455680300,11.49568017578125,0.09058117121458054,0.21283432841300964,-0.004008633084595203
1790587957465760300,11.50576025390625,0.06395088881254196,0.2013252079486847,0.05964731052517891
1790587957475840300,11.51584033203125,0.053451381623744965,0.1835685819387436,-0.07266146689653397
1790587957485920300,11.525920166015625,0.08766341209411621,0.16301751136779785,0.007056801114231348
1790587957496000300,11.536000244140626,0.04017099738121033,0.16122573614120483,0.18450774252414703
1790587957506080300,11.546080322265626,-0.0013186567230150104,0.10293632745742798,-0.05298895761370659
1790587957516160300,11.55616015625,-0.03180199861526489,0.0648733600974083,-0.05439990013837814
1790587957526240300,11.566240234375,-0.057695113122463226,0.06443820148706436,0.045481689274311066
1790587957536320300,11.5763203125,-0.016334623098373413,0.028155559673905373,-0.09957616776227951
1790587957546400300,11.586400146484374,-0.0384865328669548,-0.0006864736787974834,-0.0782351940870285
1790587957556480300,11.596480224609374,-0.05115518718957901,-0.038434915244579315,0.012692582793533802
1790587957566559200,11.606559326171874,-0.0527765192091465,-0.05352358892560005,0.04767453670501709
1790587957576639200,11.61663916015625,-0.08525536954402924,-0.07609733939170837,0.09615578502416611
1790587957586719200,11.62671923828125,-0.09457191079854965,-0.0991685688495636,0.008535921573638916
1790587957596799200,11.63679931640625,-0.12998902797698975,-0.14710387587547302,-0.12601150572299957
1790587957606879200,11.646879150390625,-0.1518905907869339,-0.16273289918899536,0.00985764805227518
1790587957616959200,11.656959228515625,-0.1360945850610733,-0.18324217200279236,0.09204918891191483
1790587957627039200,11.667039306640625,-0.13847757875919342,-0.2040470540523529,-0.11968516558408737
1790587957637119200,11.677119140625,-0.11751184612512589,-0.24674418568611145,-0.12321705371141434
1790587957647199200,11.68719921875,-0.1248810812830925,-0.23505157232284546,0.10213777422904968
1790587957657279200,11.697279296875,-0.1343451589345932,-0.2455042153596878,0.08232785016298294
1790587957667359200,11.707359130859375,-0.12997864186763763,-0.24637506902217865,-0.023250771686434746
1790587957677439200,11.717439208984375,-0.14891743659973145,-0.2424413114786148,-0.046111878007650375
1790587957687519200,11.727519287109375,-0.12210074067115784,-0.22676648199558258,0.06400903314352036
1790587957697599200,11.73759912109375,-0.1293352097272873,-0.22295495867729187,0.016451900824904442
1790587957707679200,11.74767919921875,-0.12816369533538818,-0.22790151834487915,-0.09062448889017105
1790587957717759200,11.75775927734375,-0.12166717648506165,-0.21747496724128723,0.058712005615234375
1790587957727839200,11.767839111328126,-0.12622570991516113,-0.20096443593502045,0.0582270473241806
1790587957737919200,11.777919189453126,-0.07846484333276749,-0.20847481489181519,-0.04638272151350975
1790587957747999200,11.787999267578124,-0.0797295793890953,-0.18989847600460052,0.01114448718726635
1790587957758078500,11.798078369140624,-0.08224200457334518,-0.1732582449913025,0.07387524098157883
1790587957768158200,11.808158203125,-0.061241645365953445,-0.15117691457271576,0.051866352558135986
1790587957778238200,11.81823828125,-0.07355770468711853,-0.12521615624427795,-0.08352024108171463
1790587957788318200,11.828318115234374,-0.06466300785541534,-0.12158919125795364,-0.05340947210788727
1790587957798398200,11.838398193359374,-0.06227361783385277,-0.11080658435821533,0.06212351843714714
1790587957808478500,11.848478515625,-0.09364353120326996,-0.09860238432884216,0.05027884244918823
1790587957818558200,11.85855810546875,-0.03653230518102646,-0.11979714781045914,0.0027653833385556936
1790587957828638200,11.86863818359375,-0.048064857721328735,-0.11082016676664352,-0.032804593443870544
1790587957838718200,11.87871826171875,-0.048255804926157,-0.08498776704072952,0.0014620325528085232
1790587957848798200,11.888798095703125,0.0035043281968683004,-0.06367769092321396,0.021645596250891685
1790587957858878200,11.898878173828125,-0.030434463173151016,-0.024708453565835953,0.025325819849967957
1790587957868958200,11.908958251953125,-0.05731721222400665,-0.02024046890437603,-0.0695977658033371
1790587957879038200,11.9190380859375,-0.03135911375284195,-0.032596468925476074,-0.15441571176052094
1790587957889118200,11.9291181640625,-0.05472808703780174,0.004640647675842047,0.06870844215154648
1790587957899198200,11.9391982421875,-0.03413146361708641,0.005064622964709997,0.08839346468448639
1790587957909278000,11.94927783203125,0.01654103398323059,-0.02107909694314003,-0.1050628125667572
1790587957919357700,11.959357666015626,-0.03498101234436035,-0.01343981921672821,-0.025593820959329605
1790587957929437000,11.96943701171875,-0.006156289018690586,0.0027077249251306057,0.07787904143333435
1790587957939516700,11.9795166015625,0.008165393024682999,0.03723055124282837,0.06083827465772629
1790587957949597000,11.989596923828126,-0.03564333915710449,0.04004710912704468,0.006916452664881945
1790587957959677000,11.999677001953126,-0.02348308078944683,0.03189544007182121,-0.06561261415481567
1790587957969757000,12.0097568359375,-0.01612796261906624,0.025691337883472443,-0.014656483195722103
1790587957979837000,12.0198369140625,-0.027847468852996826,0.017591865733265877,0.03529190272092819
1790587957989917000,12.0299169921875,0.02201276458799839,0.016246169805526733,0.023287169635295868
1790587957999997000,12.039996826171874,0.023669252172112465,-0.006724126171320677,-0.15176907181739807
1790587958010076700,12.05007666015625,0.0031860803719609976,-0.013282958418130875,0.026985501870512962
1790587958020157000,12.060156982421875,0.008331574499607086,0.02085317298769951,0.25032538175582886
1790587958030237000,12.07023681640625,0.02917640283703804,0.017902391031384468,-0.012266295962035656
1790587958040317000,12.08031689453125,0.015493879094719887,-0.013882437720894814,-0.1580168455839157
1790587958050397000,12.09039697265625,0.0032931393943727016,0.002727432642132044,0.0002710668486543
1790587958060476700,12.1004765625,-0.008335020393133163,-0.016129879280924797,0.0706765204668045
1790587958070557000,12.110556884765625,-0.016873115673661232,-0.0023741188924759626,0.03317601978778839
1790587958080637000,12.120636962890625,-0.03308510780334473,-0.034773871302604675,-0.12441840022802353
1790587958090717000,12.130717041015625,-0.024154996499419212,-0.03435575217008591,-0.0008786197286099195
1790587958100797000,12.140796875,-0.03429897502064705,-0.030435314401984215,0.10820019245147705
1790587958110876000,12.1508759765625,-0.009498288854956627,-0.04038115590810776,0.02250553108751774
1790587958120956000,12.160955810546875,-0.05222391337156296,-0.06299591809511185,-0.05924072861671448
1790587958131036000,12.171035888671875,-0.042943064123392105,-0.08506020903587341,-0.04181353375315666
1790587958141116000,12.181115966796876,-0.05638670176267624,-0.08143990486860275,0.1099267229437828
1790587958151195600,12.191195556640626,-0.09396364539861679,-0.11712013930082321,-0.04945973679423332
1790587958161276000,12.20127587890625,-0.05974681302905083,-0.13461311161518097,-0.031849317252635956
1790587958171356000,12.21135595703125,-0.11898776888847351,-0.1347619891166687,0.10955733805894852
1790587958181436000,12.221435791015624,-0.08997928351163864,-0.15184803307056427,-0.01659712940454483
1790587958191516000,12.231515869140624,-0.05404924601316452,-0.1350536048412323,0.053348932415246964
1790587958201596000,12.241595947265624,-0.09978744387626648,-0.16252143681049347,-0.03964811936020851
1790587958211676000,12.251676025390625,-0.06288059800863266,-0.18575125932693481,-0.06640806049108505
1790587958221756000,12.261755859375,-0.11033786833286285,-0.1691824048757553,0.10682018101215363
1790587958231836000,12.2718359375,-0.11461729556322098,-0.20242798328399658,-0.04064197838306427
1790587958241916000,12.281916015625,-0.08930981159210205,-0.22566725313663483,-0.023995622992515564
1790587958251996000,12.291995849609375,-0.13635481894016266,-0.23264473676681519,0.006032049655914307
1790587958262076000,12.302075927734375,-0.09120092540979385,-0.2519334852695465,0.037669867277145386
1790587958272155600,12.31215576171875,-0.08905201405286789,-0.24068349599838257,0.13675756752490997
1790587958282235000,12.32223486328125,-0.13021303713321686,-0.28421178460121155,-0.07846792042255402
1790587958292315000,12.33231494140625,-0.061299216002225876,-0.27702364325523376,-0.0843372642993927
1790587958302395000,12.342394775390625,-0.10475961118936539,-0.2673715651035309,0.0015771137550473213
