time,seconds_elapsed,acc_x,acc_y,acc_z,grav_x,grav_y,grav_z,gyro_x,gyro_y,gyro_z
1789309746931676700,0.0,1.3954128867663442,-1.941456138846278,0.1530618060547858,-1.3666823207139969,9.689241764193772,-0.648960094262287,0.5436426997184753,0.8886192440986633,-0.7731256484985352
1789309746941688800,0.010011962890625004,1.165555644996464,-1.5324427917569874,0.6570424245614558,-1.4363995616711676,9.674523503011464,-0.7146529020089656,0.5504273772239685,0.8834953308105469,-0.779620349407196
1789309746951700700,0.020023925781250007,-0.0011574994720518,-2.011360280677676,0.7405354582190513,-1.5000069414459167,9.660085812336206,-0.7765973900727927,0.446736067533493,0.832122266292572,-0.6469720602035522
1789309746961712600,0.03003588867187501,-1.0482229586444791,-2.519928811496496,-0.459502009832859,-1.5476901913799344,9.64881389221549,-0.8218450103577226,0.2305414527654647,0.7711542844772339,-0.4864620268344879
1789309746971725800,0.04004907226562504,-1.1509943279415369,-2.747819867759943,-1.4861480735719204,-1.584530560260266,9.640576809746026,-0.8478996351990848,0.0669797956943512,0.8557847738265991,-0.4363126456737518
1789309746981737700,0.050061035156250044,-0.6022295419432222,-1.9204659577876328,-1.2785703220188618,-1.631410969378799,9.630991235277056,-0.8676821209684014,0.0473605580627918,0.8726481795310974,-0.879252016544342
1789309746991750000,0.060073242187499876,-0.3881535144120454,0.6700432873666287,-0.2449906596243381,-1.706024604075402,9.61619523268342,-0.8880654952403157,0.0811147317290306,0.9575892686843872,-0.886756956577301
1789309747001761800,0.07008496093750005,-0.0567636513598263,1.0550351228773591,-0.1200291588943451,-1.78422778769657,9.599460955503584,-0.91501421937719,0.1159864291548729,1.0401184558868408,-0.964852511882782
1789309747011773700,0.08009692382812506,1.1650512026056647,0.9756307467728852,-0.1459631530307233,-1.8762785871453584,9.578756605648994,-0.947288741646707,0.1893875896930694,0.9024194478988647,-1.1600937843322754
1789309747021785900,0.09010913085937489,1.6968524327129124,1.8229840732008216,0.6100641810916364,-1.991040107835084,9.551420270434022,-0.9881981865968554,0.3928882479667663,0.4556762874126434,-1.364702582359314
1789309747031798500,0.10012182617187504,1.3773163813225924,2.423056583240628,2.1618938103638587,-2.1259534590631723,9.51652898979485,-1.0423056243594735,0.5564207434654236,0.2746405899524688,-1.5329324007034302
1789309747041810700,0.11013403320312487,0.8981208061128855,1.6872154203176497,0.8049593420084565,-2.2714944411590694,9.476645892217755,-1.0972014360208064,0.5111182332038879,0.0063537489622831,-1.5213934183120728
1789309747051822600,0.12014575195312505,-0.9694276543490588,0.2821989850342273,-1.0502829599142074,-2.4043017600186167,9.439157580822704,-1.1366708382304758,0.3675788640975952,-0.1795810759067535,-1.2333390712738037
1789309747061834500,0.13015771484375005,-3.3952927191391584,0.0155342537403106,-1.2762895176053046,-2.5058155304700134,9.409838547357916,-1.160260315067321,0.2746294736862182,-0.2384632974863052,-0.8588767647743225
1789309747071846700,0.14016992187499988,-3.804662916842103,1.4203694872379302,-1.6069510663829742,-2.572442550326884,9.38915056411624,-1.1818445164963602,0.2819340527057647,-0.0624515786767005,-0.5400391817092896
1789309747081858600,0.15018188476562488,-2.8810423432916403,2.0660113237977025,-0.6090762660328298,-2.614099087317288,9.374230642881988,-1.2085708300542086,0.2703394293785095,-0.0133697856217622,-0.3579064011573791
1789309747091871700,0.16019506835937491,-1.1044085178554055,1.0627759462624788,-0.4887384795807302,-2.646557003329694,9.361876188221574,-1.2334404098294676,0.2798194885253906,0.0231240056455135,-0.3576566874980926
1789309747101883600,0.17020678710937487,0.6779238114833831,1.7432237232655283,-0.2882591618560254,-2.680673207943141,9.34821357357204,-1.2630335840605198,0.323458582162857,0.0206858813762664,-0.3607233166694641
1789309747111895600,0.18021874999999987,0.4312131961986422,1.0482470701724291,0.27362434117347,-2.708996216107905,9.336301601982116,-1.2904115664601326,0.2439749985933303,0.0328295342624187,-0.2496355324983596
1789309747121907700,0.19023095703124993,-0.513152643738687,-0.1251110652685165,-0.789463593647629,-2.7290456091850994,9.32782486553788,-1.309354313469678,0.1605464220046997,-0.047912448644638,-0.1852046251296997
1789309747131919600,0.20024291992187493,0.1084831710726022,0.5875351000279188,-1.1261118156194687,-2.745845937338472,9.3220655713588,-1.3152259819820522,0.0124757289886474,-0.114815816283226,-0.1444262117147445
1789309747141931800,0.21025512695312498,-0.1841074441164731,1.4996651422709226,-1.7305333146490156,-2.757767845800519,9.31958369141519,-1.3078582296930252,-0.0744189545512199,-0.1624342054128646,-0.059625044465065
1789309747151943700,0.22026684570312494,-0.7545359265208244,0.5478945790350437,-1.6470938378095623,-2.757458633720874,9.321603214544057,-1.294033702480048,-0.1467432975769043,-0.1148034334182739,0.1098933219909668
1789309747161956600,0.23027978515624992,-0.9660606621339916,0.7216922260612249,-1.0318426094688475,-2.742258726501465,9.328568961903452,-1.27601829944849,-0.1324298679828643,-0.1822197586297989,0.2518288791179657
1789309747171968800,0.24029199218749997,-1.112280274143815,0.4598422015726566,-0.582221211528778,-2.7129060830280185,9.339325918239355,-1.259967182227224,-0.1384405046701431,-0.057795014232397,0.4054459929466247
1789309747181980700,0.250303955078125,-1.2026011810600756,0.2881330512583255,-0.0762567257285118,-2.6710674674689767,9.353017758983372,-1.2477372307293115,-0.108470894396305,0.0151492357254028,0.4849677085876465
1789309747191992800,0.260316162109375,-0.9418526880726218,-0.239929284581542,0.250268892288208,-2.6216172078624367,9.367673476323484,-1.2426657726839183,-0.0674444884061813,0.2328501343727111,0.5384734869003296
1789309747202004700,0.270327880859375,-0.1437555599838495,-0.9846323838740588,1.1038264801837503,-2.5655826014295218,9.382892088243365,-1.2447856874473393,-0.0177626833319664,0.2010242938995361,0.6035259366035461
1789309747212016600,0.28033984375,-0.3109732440978288,-1.2204255915641784,1.358333156172186,-2.5010163134947416,9.399915703758596,-1.247751551515609,0.0120291551575064,0.044332418590784,0.7333876490592957
1789309747222029600,0.29035278320312496,-0.455886595814675,-0.746278385785222,0.5423289077319204,-2.429275896146893,9.41867418024242,-1.2480195548020303,-0.0010128775611519,-0.0678292736411094,0.7846223711967468
1789309747232041500,0.30036474609374997,-0.3787636086456477,-0.0428752651304006,-0.0773240626990795,-2.3548161368377505,9.438021854791044,-1.2445746750451625,-0.0204295553267002,-0.1015082076191902,0.8219324350357056
1789309747242053600,0.310376953125,-0.8232710245728492,-0.0111450788706541,-0.023775866254419,-2.2763221535764635,9.457616782099008,-1.2418585479542612,-0.0104999598115682,0.0136689832434058,0.8441756963729858
1789309747252065500,0.320388671875,-0.6676452863141894,0.0546048658907413,0.2391794891275465,-2.194772289875895,9.4767113586694,-1.2430989034041762,-0.0003421059809625,0.1290823966264724,0.8602441549301147
1789309747262077700,0.33040087890625003,-0.4375196028664708,0.2535696873992681,0.1719654631629586,-2.1103594379596413,9.495318443983791,-1.2472612837806345,0.0079251453280448,0.2252739071846008,0.8655443787574768
1789309747272089600,0.34041284179687503,-0.1279272917330265,0.1385094760239124,-0.1858731386147439,-2.027302969088405,9.51281610675156,-1.2516950284443795,-0.0209663249552249,0.2042906433343887,0.8141322731971741
1789309747282101500,0.35042480468750004,0.5233914214193821,0.1367798757523298,-0.4797169687353074,-1.9515324194416404,9.52876069485843,-1.2508422110073267,-0.0442101284861564,0.0317092724144458,0.7500517964363098
1789309747292114700,0.36043798828125007,0.7986708363234997,0.1714414392888545,-0.1932182406805455,-1.8817476662062107,9.54348012508452,-1.2455467349477112,-0.0532434843480587,-0.0713908746838569,0.7197371125221252
1789309747302126600,0.37044995117187507,0.6190137957446277,-0.0089174659490585,-0.0775508571922779,-1.814019699370116,9.557442599463462,-1.2389606345556676,-0.0676165670156478,-0.0214925576001405,0.7268190383911133
1789309747312138500,0.380461669921875,0.7268924250528216,0.0131096569418907,-0.1937760206937789,-1.7447274058267472,9.571178863871095,-1.2324204191319643,-0.0931884497404098,0.0788056403398513,0.6832086443901062
1789309747322150700,0.3904738769531251,1.2093401339262724,0.0614244827777147,-0.4893338151253759,-1.6836914839752015,9.583468436601756,-1.2217724030632524,-0.1575424075126648,0.0521788261830806,0.5736214518547058
1789309747332162600,0.40048583984374986,0.8475393505193293,-0.0969113912224769,-0.4420714209519326,-1.6310416976749895,9.59470820801854,-1.20484019215852,-0.2014058083295822,-0.0067945402115583,0.5222393274307251
1789309747342174700,0.4104980468749999,0.2924402469329535,-0.3915045784056186,0.0767360336780548,-1.5835134921722114,9.605290392309426,-1.1837558300103992,-0.2201827019453048,-0.0909360498189926,0.4795927405357361
1789309747352187600,0.4205109863281249,0.3652545771226286,-0.5235159245818853,0.2276746370337903,-1.5393112162217495,9.615198622861504,-1.1614135767556726,-0.2072553038597107,-0.0791598483920097,0.4660064578056335
1789309747362199600,0.43052270507812507,0.2444292263492941,-0.5397358224987984,0.2029074216544628,-1.4959981441959738,9.624085109150409,-1.144277513841912,-0.1439719349145889,0.0781426876783371,0.4284113943576813
1789309747372211700,0.4405349121093749,0.2719843188814819,-0.5300257448673248,0.4171054681301117,-1.455917039828747,9.63128408074379,-1.1353654547203331,-0.0852133259177208,0.1950030624866485,0.3683913052082062
1789309747382223600,0.4505468749999999,0.117548374929279,-0.671111208859086,0.4500478066585958,-1.4255306693933902,9.63724795758426,-1.1232673859737812,-0.1299232691526413,-0.2237936705350875,0.2810129821300506
1789309747392235800,0.46055908203124996,-0.2189256595194339,-0.5160118325620889,0.5323965656518936,-1.403295602840185,9.641960373058916,-1.1107458311181515,-0.1068249568343162,-0.1008553653955459,0.2160426676273346
1789309747402247700,0.4705708007812499,-0.0688863430909812,-0.2550742467433214,0.1443194774769246,-1.3861897158689795,9.645882514938712,-1.0981094177111983,-0.1222736909985542,-0.1257351487874984,0.1591287851333618
1789309747412259600,0.4805827636718749,0.3112668202169239,-0.3648281684041023,-0.3937982423007488,-1.3753396744221449,9.648943656075,-1.0847711396452038,-0.1149010062217712,-0.116307184100151,0.1010078936815261
1789309747422272800,0.49059594726562517,0.4412691646583378,-0.5784440310776233,0.0014905308187007,-1.3667777439124882,9.651420859843492,-1.073494470284134,-0.0853907838463783,-0.1374505460262298,0.1114911586046218
1789309747432284700,0.5006079101562502,-0.1581830215260386,-0.4038192855775356,0.3189561326105147,-1.3573464832223952,9.653966452673076,-1.0625048011709004,-0.0954930633306503,-0.2451582103967666,0.1162001118063926
1789309747442296800,0.5106201171874998,-0.30582842855528,-0.20446049631536,-0.0797581579782068,-1.3511087578766048,9.656470544448494,-1.0476108180955053,-0.1288864314556121,-0.3170092403888702,0.0738156363368034
1789309747452308700,0.5206320800781248,-0.0295084185570478,-0.1315712011933326,-0.3924865751802921,-1.34940195395872,9.65839888216257,-1.031913848074153,-0.1082421839237213,-0.2452054768800735,0.0250286348164081
1789309747462320600,0.5306437988281252,0.061245765209943,-0.1483908185690641,-0.0164835172891616,-1.3503735754698514,9.659506551143526,-1.0202068975370375,-0.0792488828301429,-0.1698880940675735,0.0014010681770741
1789309747472332800,0.5406560058593748,0.0038543373405933,-0.1703045442134141,0.0204617732703685,-1.3516402344048022,9.66032137465775,-1.0107632157567887,-0.0743439793586731,-0.1607449799776077,0.0096190795302391
1789309747482345500,0.5506687011718749,-0.0159366970613598,-0.0887701703429222,-0.1734415270648896,-1.363721863473207,9.659290862566232,-1.0043556137368082,-0.0590513087809085,-0.082505315542221,-0.1416149139404297
1789309747492357600,0.560680908203125,-1.3260003278441723,0.4903723643928765,-0.31481296839118,-1.3767539251342416,9.658199560198188,-0.9970589539226145,-0.0787814036011695,-0.078368566930294,-0.1185841113328933
1789309747502369500,0.57069287109375,-0.6103409522064029,0.0665583385348319,-0.2458488838888704,-1.3915110570222138,9.657193598026035,-0.9862680222518742,-0.108875922858715,-0.1942357867956161,-0.1558736860752105
1789309747512381400,0.58070458984375,0.1925299661554396,-0.4811760815024375,-0.3911446590520441,-1.4090839769832788,9.656356562680006,-0.9693605073969812,-0.1687307655811309,-0.3174108862876892,-0.1498257517814636
1789309747522393600,0.590716796875,-0.2975846240840852,-0.3978068934202194,-0.549292755395174,-1.4251931080020963,9.656334350848198,-0.9457366168338804,-0.200575515627861,-0.4112865030765533,-0.1051962375640869
1789309747532405500,0.600728759765625,-0.5631986772812902,-0.4418897807747125,-0.0401133992016315,-1.4359597089491785,9.65717197071612,-0.9205597246751188,-0.2034004181623459,-0.3756407797336578,-0.0413212031126022
1789309747542417700,0.6107409667968751,-0.722072457550466,-0.5605161601990462,-0.0867897371154278,-1.4410885962702331,9.658631521874666,-0.8969277969360351,-0.1931837350130081,-0.1880026757717132,-0.0176227986812591
1789309747552430600,0.6207539062499998,-0.3779633981786668,-0.6159019473344087,-0.2729693113308399,-1.4428268182396888,9.660297409260272,-0.8759472604885696,-0.2061018645763397,-0.1161834597587585,0.0094062881544232
1789309747562442800,0.6307661132812499,-0.4290336602024733,-0.8414379649043082,-0.1683996604401618,-1.4411372577175496,9.66257587558627,-0.8533267017491162,-0.2165704816579818,-0.1608260124921798,0.0493366606533527
1789309747572454700,0.6407778320312498,-0.4622190137065947,-1.1334756223857403,0.2786602164488285,-1.4357843523822724,9.665513682603835,-0.8287289246525615,-0.2336014211177826,-0.2962969541549682,0.1023645773530006
1789309747582466600,0.6507897949218748,-0.6122536539599299,-1.3655185376316308,0.3677191406052559,-1.4259601468518377,9.669508889719843,-0.7985260210253298,-0.2661590874195099,-0.4491802453994751,0.1608396023511886
1789309747592478700,0.6608020019531249,-0.5367135520681738,-1.4095236835747955,0.3163655315954238,-1.4114182651497422,9.67400795470476,-0.7693188504371792,-0.2061624675989151,-0.3157730400562286,0.2076919972896576
1789309747602490600,0.6708139648437499,-0.4553536579817533,-1.7495985189944503,1.0169653583325444,-1.3892287913039325,9.678594113451242,-0.751807232209295,-0.0959582105278968,-0.0804755687713623,0.2870238423347473
1789309747612503800,0.6808271484375001,-0.7955575266085565,-1.7525205439209937,1.417988145059347,-1.354734693288803,9.683761286956072,-0.7482101575654,0.0156966857612133,0.0973173305392265,0.4346622824668884
1789309747622515700,0.6908388671875001,-1.298588735435903,-1.1612035872668027,1.3045266010522842,-1.303010643531382,9.690397363969684,-0.7541586176410316,0.0556042268872261,0.1909934282302856,0.5988069772720337
1789309747632527600,0.7008508300781251,-1.3164976093530654,-0.2800841848373412,0.2763385685682296,-1.2408088927708565,9.69797569026947,-0.7616131714306771,0.0361223667860031,0.2426964044570922,0.6373864412307739
1789309747642539800,0.7108630371093752,0.0349698988333344,-0.4431973562419414,-0.368659051803872,-1.17655510485135,9.705465169242023,-0.7681384815461934,0.0277389995753765,0.4016391932964325,0.6387729048728943
1789309747652551700,0.7208750000000002,0.2524615800268948,-1.3551596407026052,-0.0436439114153385,-1.1094361367590724,9.712569448289274,-0.7781654431071132,0.0567749068140983,0.6488598585128784,0.6568194627761841
1789309747662563600,0.7308867187500001,0.040270927850902,-1.8463345536500213,0.5019359609365462,-1.0398501209661364,9.719068162658813,-0.7929813925102353,0.0800080597400665,0.8236332535743713,0.6532250046730042
1789309747672575700,0.7408989257812502,0.4002494642667472,-2.0002660552114246,0.6908265476763248,-0.971565762356296,9.724858436498046,-0.8084415581010281,0.061716292053461,0.717214822769165,0.6196933388710022
1789309747682588700,0.7509118652343749,0.7289194739010184,-1.441744868221879,0.4214660014271736,-0.9107291624691336,9.730321378079056,-0.8135159387558698,-0.0628027319908142,0.2625306844711303,0.5513787269592285
1789309747692600800,0.760924072265625,0.9812737941611558,-0.7268219901651144,-0.4858393240731209,-0.8596183492392301,9.736052615207432,-0.8004465407591312,-0.2025974243879318,-0.1916377693414688,0.4927805960178375
1789309747702612700,0.77093603515625,0.85892379110381,-0.2373784310549497,-0.8412041561484337,-0.8162770009670406,9.741910109063982,-0.774133703373,-0.2785041630268097,-0.3086685240268707,0.4386132359504699
1789309747712624600,0.780947998046875,0.8542614983811974,0.2840408135086298,-0.928862565857172,-0.7774974076524377,9.747215229734778,-0.7467796133056283,-0.2509228885173797,0.0135047584772109,0.3875013589859009
1789309747722636800,0.7909599609375,0.3475828729622066,0.2375257305711507,-0.4186684796631336,-0.739184408936277,9.751682146015762,-0.7271067984558641,-0.1810479462146759,0.4239690005779266,0.3782399296760559
1789309747732648700,0.800971923828125,-0.0745724989686161,0.6273977393388748,-0.0292388809006661,-0.6971086236204952,9.755505503696202,-0.7173037818439304,-0.1194980964064598,0.685297429561615,0.4151425063610077
1789309747742661600,0.8109848632812497,-0.3553188740417361,1.5121154585212468,-0.3527062803905457,-0.650245896289125,9.75918682255745,-0.711217155406624,-0.1044677421450614,0.6910753846168518,0.4357865154743194
1789309747752673500,0.8209968261718747,0.0511304677784442,1.390427353438735,-0.4252327335495501,-0.6050889864949509,9.762662974235417,-0.7033341470718384,-0.1392735838890075,0.4278585612773895,0.3993751406669616
1789309747762685700,0.8310090332031248,0.4618928870247676,1.031436220625043,-0.3935749549388885,-0.5681355491615832,9.765964353868364,-0.6881552826404571,-0.1974135935306549,0.0914408713579177,0.3274918794631958
1789309747772697600,0.8410207519531248,0.4174388648029417,0.2899836475610733,-0.1697732868809253,-0.5361014845844357,9.76895652142167,-0.6711904846403748,-0.1452162265777588,0.081878513097763,0.3294258117675781
1789309747782709500,0.8510327148437498,-0.3590296381931752,1.0728659631222486,0.2598749250233173,-0.5007880330104381,9.771520818951725,-0.6610526100508868,-0.0888304561376571,0.2273289114236831,0.3684560358524322
1789309747792721700,0.8610449218749998,-0.5385721124816686,1.9210802902936932,-0.3708523240644484,-0.4638501951050013,9.773847800594568,-0.6535657614268362,-0.0860048085451126,0.2232809215784073,0.3492451012134552
1789309747802733600,0.8710568847656248,0.0711307244842872,1.7371207302153109,-0.7690262241661548,-0.4314580378051847,9.775846865457297,-0.6457963695343584,-0.0876615568995475,0.1062163561582565,0.2926811575889587
1789309747812746800,0.8810700683593751,0.3506521608723327,1.4645932443678378,-0.4602793508809059,-0.4034741984669119,9.777529703977704,-0.6383609588366002,-0.0710326954722404,0.0353886149823665,0.2743013501167297
1789309747822758700,0.891081787109375,-0.0766278971284627,1.1728951941043138,-0.2137830359339713,-0.3770732078732922,9.778931387469171,-0.633016090677306,-0.0418085008859634,0.0247998870909214,0.2597735524177551
1789309747832770600,0.90109375,-0.1372379947833716,0.791571817973256,-0.1014005924005061,-0.3523762447185814,9.780026781490443,-0.6303271438542754,-0.0168067086488008,0.0863582193851471,0.238848939538002
1789309747842782700,0.9111059570312501,-0.0444462042415514,0.2474982585310935,0.0207926857251673,-0.3290492547428235,9.78076386359334,-0.6314633813425898,0.0306263212114572,0.1751469522714615,0.214043453335762
1789309747852794600,0.9211179199218751,0.0993501992093399,0.1177624560713768,0.3094027799107134,-0.3101896194394677,9.78106255427897,-0.6363602865386754,0.05233746021986,0.2033498883247375,0.1418527364730835
1789309747862806500,0.9311298828125001,0.5879891274057328,-0.2464887892276048,0.1902151133418083,-0.3018819742181338,9.78094798798859,-0.642121553479135,0.0492066480219364,0.2215227633714676,0.0034802071750164
1789309747872818700,0.9411418457031251,1.0390867353782056,-0.8115291488528251,0.2096879486400634,-0.3061617521628737,9.780506089439989,-0.6467798276137561,0.025076936930418,0.2070440053939819,-0.114912025630474
1789309747882831600,0.9511547851562498,0.7806156858034431,-0.5369219341218471,-0.2198748500030487,-0.3204800542421638,9.77988649623692,-0.6492202065031976,0.0147020602598786,0.1992918103933334,-0.1950529366731643
1789309747892843800,0.9611669921874999,0.518702277222462,0.0658539896577596,-0.3256500042259693,-0.3389875151069834,9.77910323690474,-0.651633551255241,0.0157150011509656,0.2047587037086486,-0.1997352242469787
1789309747902855700,0.9711789550781249,-0.1549730465035885,0.096170801988244,-0.2208826388061046,-0.3563386090109124,9.77841467011869,-0.6527019842043519,-0.0125842802226543,0.2557153701782226,-0.1946278214454651
1789309747912867600,0.9811909179687499,-0.1781884658636525,-0.2473971362441778,-0.422771677198261,-0.3781641083825379,9.77781436613798,-0.6493816076099872,-0.0820762515068054,0.2562577128410339,-0.3013590276241302
1789309747922879700,0.9912028808593749,0.9055174191702156,-1.1459428897708654,-0.4491968889176845,-0.4147060057729482,9.777039874634148,-0.6386691480029374,-0.150963693857193,0.1586336642503738,-0.4701482951641083
1789309747932891600,1.00121484375,1.2467518729537723,-1.692037725907564,-0.0490623562674969,-0.466840682157874,9.775759771695732,-0.6220621504645795,-0.1984785497188568,-0.0082885567098855,-0.5958681702613831
1789309747942904800,1.0112280273437502,0.7687464573767036,-1.1455711338490246,0.1590460680961608,-0.5288773785497993,9.77412427944839,-0.5976335559224709,-0.2859721481800079,-0.2827962934970855,-0.6439377069473267
1789309747952916700,1.0212399902343752,0.3071156553542241,-0.2415811434417963,-0.711973380601406,-0.5936716300215572,9.772299402108787,-0.565781606446579,-0.3198889493942261,-0.3109723031520843,-0.6308820247650146
1789309747962928600,1.0312519531250002,-0.151386200992763,0.7014081474453211,-0.6460287169855088,-0.6538136717732995,9.770230194619298,-0.5343124092105775,-0.2894192039966583,-0.1303644776344299,-0.5685411095619202
1789309747972940800,1.0412641601562498,-0.6193244691289961,0.8768681747257709,-0.1736123170545324,-0.7067639023248106,9.767901459410789,-0.5088852686177939,-0.2253929823637008,0.0257801972329616,-0.5123514533042908
1789309747982952700,1.0512758789062502,-0.4573496541045606,0.9107575848460197,0.1835655923247337,-0.7547148632843047,9.765286892998216,-0.4898743152102455,-0.1742062270641327,0.0886201485991478,-0.4732916355133056
1789309747992964600,1.0612878417968752,-0.2127965091146528,1.1252660124450922,0.084070614349842,-0.7972573162637651,9.762665312322971,-0.4744754513526335,-0.1600571572780609,0.0625966414809227,-0.4017102122306824
1789309748002977500,1.07130078125,-0.5995219634849578,1.7952461714476349,-0.3665150620451197,-0.8317616434119641,9.760517194378377,-0.4591858930883928,-0.156723141670227,-0.015308279544115,-0.3076476454734802
1789309748012989400,1.081312744140625,-0.7837783876180648,2.0740835710942744,-0.4896984106540679,-0.8584943136453628,9.75895885902047,-0.4428434282377362,-0.1724067777395248,-0.0828982815146446,-0.2412929236888885
1789309748023001600,1.091324951171875,-0.3700598585125059,1.7740993385225534,-0.6446434731721877,-0.8809104358538985,9.757722010701894,-0.4257139411952346,-0.1569806784391403,-0.0954598784446716,-0.2089962363243103
1789309748033013500,1.101336669921875,0.007390987034142,1.0672112983614206,-0.1755365265827626,-0.8990813947733491,9.756673378431795,-0.4114914276406168,-0.1168335080146789,-0.0831338912248611,-0.1481255441904068
1789309748043025700,1.111348876953125,-0.396563615360856,0.2902016742259264,0.3839689222037792,-0.9093238257158548,9.756167766997216,-0.4008787386136129,-0.0913779512047767,-0.0481229126453399,-0.0569690093398094
1789309748053037600,1.12136083984375,-0.7390643627531827,0.0134071785837411,0.1929682845074683,-0.9106902186982332,9.756430217325686,-0.3912376345651224,-0.104143887758255,-0.022636292502284,0.0297823846340179
1789309748063049500,1.131372802734375,-0.6123623019661754,-0.120742348664999,-0.1519429215600714,-0.905262129234895,9.757402861750125,-0.3794195152711123,-0.1358581483364105,-0.0124382507055997,0.0834666490554809
1789309748073062700,1.1413859863281248,-0.3629606209665537,-0.4152303219079971,-0.2933715729663148,-0.8930973519276827,9.75905238252282,-0.3656329454483464,-0.1442051529884338,0.0128416903316974,0.1756063550710678
1789309748083074600,1.1513977050781248,-0.8328403054941446,-0.3749848207592964,-0.0337912104427814,-0.8710830885183065,9.761602651527523,-0.3503287376042455,-0.1774520576000213,0.0376692786812782,0.2650174796581268
1789309748093086700,1.1614099121093748,-0.6541452418152243,-0.699931060630083,-0.2827601260483264,-0.84342789661251,9.764677821189164,-0.3318017683213576,-0.209457442164421,0.0595869272947311,0.2936982810497284
1789309748103098600,1.1714218749999998,-0.038431656659767,-0.768837423595786,-0.3469324096968397,-0.8137544236868619,9.76789269158244,-0.3105752577561885,-0.2345129996538162,0.0995268896222114,0.3065381646156311
1789309748113110500,1.1814338378906248,-0.1266911740668118,-0.8135667921602725,-0.1004874778772704,-0.7835543696038425,9.771023390823602,-0.28901938737249,-0.2225593328475952,0.1567123234272003,0.2987402975559234
1789309748123122700,1.191446044921875,0.037135479369387,-0.5839572415411471,0.2430021161556243,-0.7550967752739787,9.773801038843391,-0.2702358495126478,-0.19120754301548,0.1796953976154327,0.2728149592876434
1789309748133135600,1.201458740234375,0.2233263786964118,-0.3103594961136579,0.3801929107964039,-0.7301488695655017,9.776135034748911,-0.2538989376199431,-0.1723620593547821,0.1870906203985214,0.2292061895132064
1789309748143147800,1.211470947265625,0.4020436542071401,-0.158404263061285,0.1201870528697967,-0.7077532056231052,9.778156895965337,-0.238999456385523,-0.1619568169116974,0.1935692876577377,0.2233776003122329
1789309748153159700,1.22148291015625,0.0386959336191415,0.2108212635189294,-0.0879717134416103,-0.6861777720224111,9.78003262670934,-0.2247703669596463,-0.1573498398065567,0.2097880989313125,0.2004067301750183
1789309748163171600,1.231494873046875,0.2385146685432642,0.0426426254183053,-0.1649041464745998,-0.6690219814948737,9.781514974221588,-0.211584612574242,-0.1444239169359207,0.2540993392467499,0.1407737582921981
1789309748173183700,1.2415070800781252,0.5423420594744384,-0.3206505885034799,0.030043237819802,-0.6574133037004619,9.782536718484758,-0.2004798657139763,-0.1212223842740058,0.3137097656726837,0.0859783664345741
1789309748183195600,1.2515187988281251,0.47556247940436,-0.2912935611158609,0.1579027250136248,-0.651685865964368,9.783107211849092,-0.1911220173199661,-0.1178723946213722,0.3306732773780823,0.0169180762022733
1789309748193207600,1.2615307617187501,0.662091378514096,-0.0352151057660579,-0.1962941409945487,-0.6531131222885102,9.783207165092229,-0.1807923464854247,-0.1360980719327926,0.3335837423801422,-0.0561269000172615
1789309748203220500,1.2715437011718749,0.6203983819708228,0.1980015294343233,-0.4088251310408115,-0.659752998694405,9.782976278945805,-0.1687755810804665,-0.1555458009243011,0.2850372493267059,-0.0837721079587936
1789309748213232600,1.281555908203125,0.10099230386056,0.6132704297870397,-0.4625239880025386,-0.6682684597138315,9.782653038340806,-0.1533836401539854,-0.1925270855426788,0.23630291223526,-0.1049623191356659
1789309748223244500,1.29156787109375,0.0730621674709022,0.6645347530782222,-0.6456710626542568,-0.679842723781988,9.782116447246072,-0.1357360292552039,-0.1925087124109268,0.1982356905937194,-0.1389767378568649
1789309748233256700,1.301579833984375,0.2693518514860421,0.4593365901380777,-0.0598901128172874,-0.6950707611173391,9.781262460765245,-0.1190762877494562,-0.1780519485473632,0.1608351767063141,-0.176843374967575
1789309748243268600,1.311591796875,0.2821149600125849,0.1714969688683748,0.057940147793293,-0.7151661122281104,9.780002231571078,-0.1023830458329059,-0.1844882816076278,0.1192331463098526,-0.241099864244461
1789309748253280500,1.321603759765625,0.6095134153410792,0.0628349340975284,-0.2218190428733825,-0.7431397224333137,9.778081492641569,-0.0850877555031329,-0.1818640083074569,0.0657583177089691,-0.3366160690784454
1789309748263293400,1.3316166992187501,0.9260133139058948,-0.2505202367007732,0.0262345205860678,-0.7811641865316779,9.775251822173594,-0.0678331533767748,-0.1795851439237594,0.031946025788784,-0.4363021552562713
1789309748273305600,1.3416289062499998,0.8796787021018564,-0.5432026218265295,0.0888695390641689,-0.8280536557395011,9.771502698773146,-0.0493651751389727,-0.2034867405891418,0.0255495328456163,-0.5208284854888916
1789309748283317500,1.3516406250000002,0.7218003626108169,-0.5969412262767553,-0.1678489677548408,-0.880116947388649,9.767032859882711,-0.0292242404539603,-0.2125750482082367,0.0451434701681137,-0.5303817391395569
1789309748293329700,1.3616528320312498,0.0250257201850414,-0.4333884944111108,-0.0147428099600307,-0.9289863383673131,9.762543731769918,-0.0094979532677331,-0.1980847716331482,0.0893972590565681,-0.4652349054813385
1789309748303341600,1.3716647949218748,-0.6172326114162803,-0.5418424393892288,0.3509171319514513,-0.9693748281832784,9.758621005368232,0.0050706851521914,-0.1174786165356636,0.1035120114684104,-0.3578328192234039
1789309748313353500,1.3816767578124998,-0.8127749111302196,-0.3130851216852665,0.9781763396024704,-0.9985882093165068,9.755666831737756,0.0136219412874954,-0.0866997390985488,0.1320289224386215,-0.233629822731018
1789309748323366700,1.39168994140625,-0.9487160710360856,-0.3355459598183631,0.3706389005094766,-1.0157263180568814,9.75388579353988,0.0197654478695476,-0.070605456829071,0.1478425115346908,-0.1251563429832458
1789309748333378600,1.401701904296875,-0.6383201884347945,0.0525385810106992,0.2083931595891714,-1.024901704289764,9.752914318159222,0.0250418105200282,-0.0709533020853996,0.1275147199630737,-0.062022753059864
1789309748343390700,1.4117138671875,-0.1461721196062863,0.2761906845301389,0.0049900633722543,-1.0284830699078735,9.752521519449353,0.0306235196424997,-0.0648911520838737,0.0801067128777504,-0.0140717383474111
1789309748353402600,1.421725830078125,-0.1199103548202663,0.161252053707838,0.0705336764731677,-1.028109487355128,9.752539639627932,0.037055765196681,-0.0801116675138473,0.0412389785051345,0.0187709406018257
1789309748363414500,1.43173779296875,0.105493560802564,0.070374097430706,-0.1347726275831461,-1.025914388463646,9.752736038982867,0.0451397440302418,-0.0925568863749504,0.0192298162728548,0.0264965072274208
1789309748373426700,1.44175,0.3550461945801973,0.0342927302241325,-0.1277425828158855,-1.022429834283516,9.753053434368969,0.0544202117725275,-0.1008829846978187,0.0156926438212394,0.0438326895236969
1789309748383438600,1.45176171875,0.1060652232106775,0.3308674466133117,-0.0407289007514715,-1.017507940776646,9.753509945964812,0.064071951379464,-0.1009245291352272,0.0183483492583036,0.0564864352345466
1789309748393451800,1.4617749023437498,0.0862432091485708,0.5066659120678901,-0.0570510899990797,-1.0108538897149264,9.754134215342996,0.0736608320503728,-0.09951201826334,0.0207348000258207,0.0778343081474304
1789309748403463700,1.4717868652343749,-0.0054537353612482,0.6684960579246282,-0.0884071913825813,-1.0035525537256151,9.754809338125586,0.0833195128547493,-0.1022167280316352,0.0013017130549997,0.0666559562087059
1789309748413475600,1.4817988281249999,0.3300922244571149,0.7542804904550313,-0.1786743131518363,-0.9986729649905116,9.755216165360808,0.0936802090152166,-0.105334848165512,-0.0442769862711429,0.0324749164283275
1789309748423487700,1.49181103515625,0.5242405855946243,0.8672171338051557,-0.23118600615561,-0.9972449780140072,9.755255912849307,0.1041434979004785,-0.0949168279767036,-0.0830805674195289,-0.0049600740894675
1789309748433499600,1.501822998046875,0.4239155865363776,1.0390841050297022,-0.0649877373503986,-0.9985237657781688,9.755023273137212,0.1133206285658758,-0.0697922781109809,-0.097264863550663,-0.0202735625207424
1789309748443511800,1.5118349609375,0.2211567795723676,0.9644307228446006,0.1320616150587797,-1.0022651442635804,9.75455974727869,0.1200779938715975,-0.0452142320573329,-0.1138683408498764,-0.0542994365096092
1789309748453524500,1.52184765625,0.3266908915810287,0.6547048484593629,0.2235755494181998,-1.007841336960718,9.753938400509952,0.1238832587729208,-0.0121374614536762,-0.1088800355792045,-0.0612980499863624
1789309748463536600,1.5318598632812501,0.0997219916637986,0.3026525749981403,0.3785591721147298,-1.013858186097443,9.753294841909408,0.1254201403508428,0.0023179105482995,-0.1129115298390388,-0.0664557889103889
1789309748473548500,1.5418718261718751,0.1171769112683832,0.0315016382008791,0.178106157875061,-1.0208383273083717,9.752553083631396,0.1264058817188721,7.23474659025e-05,-0.1310562491416931,-0.0787639766931533
1789309748483560400,1.5518837890625001,0.2327897150252014,-0.130005851572752,-0.1193190378636121,-1.0287121294233947,9.751703773325682,0.1281478117490652,-0.0071333674713969,-0.1393490731716156,-0.0856799408793449
1789309748493572600,1.5618957519531251,0.1567591992679983,-0.1967868929475545,-0.1781727751041762,-1.0366283824406564,9.75084978684485,0.1293906331507023,0.0126181151717901,-0.1082590594887733,-0.0813007578253746
1789309748503584500,1.5719077148437501,0.080904332338646,0.0829465787559747,0.135388129132986,-1.044420862947777,9.750039639505744,0.1276750614044722,0.0454117469489574,-0.0722608491778373,-0.0808855667710304
1789309748513596400,1.5819196777343751,0.14850100094527,0.2049140853017568,0.4323790251076221,-1.0535091554190965,9.74912895440161,0.1224773192314431,0.0730791017413139,-0.0745605528354644,-0.109772965312004
1789309748523609600,1.591932861328125,0.4096199346803128,0.2532400170534849,0.3038935149699449,-1.0653319143556057,9.74793886783421,0.1146430088765919,0.1026958525180816,-0.0698049440979957,-0.1319610923528671
1789309748533621500,1.60194482421875,0.3113301677767187,0.2972743890911341,0.303906374451518,-1.0789710750643162,9.746552381911874,0.1046042381468694,0.1141417101025581,-0.0692552700638771,-0.1400724351406097
1789309748543633700,1.611956787109375,0.0228987911589443,0.0920960998952388,0.0735112264126539,-1.090563093984872,9.745379246479272,0.0930359928275458,0.1403213739395141,-0.014959274791181,-0.1015087887644767
1789309748553645600,1.62196875,-0.3519551697622984,-0.2151250981926918,0.1617868912369012,-1.0996792243111877,9.744496618425844,0.0767354674224741,0.1805562973022461,0.0286751799285411,-0.0830235704779625
1789309748563657500,1.631980712890625,-0.2674792625471949,-0.2609083597242832,0.3853255975097417,-1.1061940130326895,9.74389339183569,0.0574520035167457,0.1973477900028228,0.0819269493222236,-0.057068932801485
1789309748573669600,1.641992919921875,-0.3072425331369042,-0.1271703358858823,-0.0573415973782539,-1.111920500920713,9.7433316662997,0.0389359940192895,0.1572834849357605,0.0823698788881301,-0.0532208569347858
1789309748583682600,1.6520058593749998,-0.1701886627487838,-0.3063613663882017,-0.4487608355879783,-1.1156473394241184,9.74295874133408,0.022144166549493,0.1681569069623947,0.1327728629112243,-0.0268270671367645
1789309748593694700,1.6620180664062498,-0.396876553767547,-0.1765057369410991,0.1467524037122726,-1.1182041843000798,9.742687523177263,0.0054288098409015,0.130681112408638,0.1990499496459961,-0.0224029347300529
1789309748603706600,1.6720297851562498,-0.2993871434614062,-0.1774041470855474,-0.560357754766941,-1.1194766153886913,9.742539054617286,-0.010360109355289,0.1558376103639602,0.2261129915714264,-0.0024342872202396
1789309748613718500,1.6820417480468748,-0.5690218304768204,-0.2109329071998596,0.2992553337752819,-1.119040123667568,9.74255016053319,-0.0294591383385122,0.152589350938797,0.3125392496585846,0.0054244352504611
1789309748623730700,1.6920539550781248,-0.4036483129248023,-0.1661222900927066,-0.3901999255478381,-1.1205603920374063,9.742331549346446,-0.0415048535600304,0.023092608898878,0.2757372856140136,-0.040459431707859
1789309748633742600,1.7020659179687498,0.091126451145485,0.0060129766792058,-1.7167255924403666,-1.1248231640484183,9.741830614086984,-0.0439106314935488,0.0032335864380002,0.1310186684131622,-0.0406577363610267
1789309748643755800,1.7120791015625,-0.5075016322396695,0.1938485014081001,0.2364554709911346,-1.1275885371085257,9.7414898378253,-0.0480616456591989,0.0394357964396476,0.1574979573488235,-0.0190682895481586
1789309748653767700,1.7220908203125,-0.6913394656345248,-0.0049240123987197,0.3860182559490203,-1.1294508969143031,9.74124433863163,-0.0536730603667674,0.0244881846010684,0.1556889861822128,-0.0263206958770751
1789309748663779800,1.73210302734375,-0.3071578505281359,0.1488712955623865,-0.4928349551141261,-1.1331040856596082,9.740827574524284,-0.0522946572861867,-0.0976087003946304,0.1085638254880905,-0.0492025762796402
1789309748673791700,1.742114990234375,-0.1795629325546324,0.0206330381840467,-1.6476549788236616,-1.139043631776422,9.740227855065465,-0.030530267851497,-0.3983006179332733,0.1491253674030304,-0.077018491923809
1789309748683803600,1.752126953125,-0.1538216845113784,-0.3311912717401981,-3.8461528650939454,-1.1492224228981882,9.739055888676642,0.0209670992938685,-0.645464301109314,0.022667558863759,-0.1354072391986847
1789309748693815800,1.7621391601562502,0.2719707287475466,0.0932253961861133,-2.604908357384801,-1.164409324505553,9.736917707604167,0.0835142499755602,-0.6110677123069763,-0.0081852255389094,-0.1675380915403366
1789309748703827700,1.7721508789062501,-0.044587110549584,-0.1128057104468345,0.9983698173254728,-1.1795980527438223,9.734503632199765,0.1355841631617397,-0.4561193883419037,0.0404017493128776,-0.1421925276517868
1789309748713840600,1.7821638183593749,-0.6287703428663313,-0.2624094119369983,1.7923907820165157,-1.1924687863633037,9.732373634433744,0.1711539823832921,-0.2981727123260498,0.0867235660552978,-0.1222287565469741
1789309748723852500,1.7921757812499999,-0.494041992816329,-0.036264907079935,1.57863463408947,-1.2037461133114993,9.73053648213446,0.1950199198076501,-0.2287356108427047,0.1162369847297668,-0.105649784207344
1789309748733864400,1.8021877441406249,-0.4236622693624347,-0.1077390747070312,0.5170569577008486,-1.2138220285806804,9.728838446044922,0.2161675199177116,-0.2466348558664322,0.1145616546273231,-0.0977886915206909
1789309748743876600,1.812199951171875,-0.2828823641885072,-0.1399637664854526,-0.5198322676330804,-1.2238186680685728,9.726945764166116,0.2433018662871792,-0.3406071662902832,0.1043748036026954,-0.1071214750409126
1789309748753888500,1.8222116699218749,-0.1411048993445932,-0.114080552688241,-1.1271586943238974,-1.2360099680565295,9.724406016555427,0.2803596773104742,-0.4460087716579437,0.0857941284775734,-0.1400229334831237
1789309748763900400,1.8322236328125,0.1694957120485603,-0.2026239285379648,-1.295071374964714,-1.2527220334045588,9.720772043967246,0.3281134717300534,-0.5576005578041077,0.0710239708423614,-0.2008636444807052
1789309748773913600,1.8422368164062501,0.46358913301602,-0.2440221068531274,-1.3370558287352323,-1.276570234242827,9.71548504347503,0.3874553030148148,-0.6762118339538574,0.0512736104428768,-0.2867632210254669
1789309748783925500,1.8522487792968751,0.6721103028990328,-0.2470247958004474,-1.3450737154960632,-1.3055262796141207,9.708761288177966,0.4538321475028991,-0.5252318978309631,-0.6691415905952454,-0.2716543078422546
1789309748793937700,1.8622609863281248,-0.7549493296273052,-0.2177104385107755,2.755017085787654,-1.3170827157646416,9.706381699565052,0.4710201963322237,0.0874544009566307,0.2475032359361648,-0.0128553817048668
1789309748803949600,1.8722727050781252,-2.9307535919219254,0.4279068481296301,6.942007587367296,-1.3149141395539043,9.707197692123056,0.460115465556085,0.0335813164710998,0.2379400879144668,0.0592014975845813
1789309748813961500,1.8822846679687502,-0.4118213902473449,-0.0143079268157482,-2.0632553030878302,-1.309609749535471,9.707982705020903,0.4586914606349542,-0.0442047417163848,0.1153620705008506,0.067001111805439
1789309748823973600,1.8922968749999998,0.0254215876348316,0.148301386719942,-0.8365327302712947,-1.3031770861394705,9.70877531670332,0.4601939741523936,-0.0099453059956431,0.1185932829976081,0.0711607038974762
1789309748833986600,1.902309814453125,-0.2038550777681171,0.3578863864421844,0.9048416388005016,-1.2977582759611308,9.709581372389197,0.458506678652577,0.0007321867160499,0.1317573934793472,0.054598793387413
1789309748843998700,1.912322021484375,0.2496072135090827,-0.0566828412085771,-0.2503794034579769,-1.293628628810495,9.710102765914796,0.4591240798985585,-0.033618863672018,0.0824004933238029,0.0436071269214153
1789309748854010600,1.922333984375,0.1725796495385468,0.070952189579606,-0.4138847525179386,-1.2900732744164765,9.710558692988752,0.4595242581972852,-0.0038433908484876,0.100318506360054,0.0379021018743515
1789309748864022800,1.932345947265625,0.100647801271826,0.1429430745571851,0.5195627665093169,-1.2871243614830077,9.71099182370901,0.458618249268271,-0.0017349659465253,0.1005629822611808,0.0325230509042739
1789309748874034700,1.94235791015625,0.3055770841427147,-0.0590139145046472,-0.1571627020349726,-1.284057375127822,9.711388714072108,0.4588325496060773,-0.020791657269001,0.0722643733024597,0.0373072363436222
1789309748884046600,1.952369873046875,0.0441093369700014,0.0402723891556262,-0.1732522881031036,-1.2811634072519835,9.71175988547206,0.4590603670125827,-0.0065139159560203,0.0803369507193565,0.03000458329916
1789309748894058800,1.962382080078125,0.2135965734511613,0.0973866075187921,0.2362444585889577,-1.278567399409413,9.712106506952642,0.4589718850115314,-0.0096169859170913,0.0669675469398498,0.0326431542634964
1789309748904071700,1.9723950195312498,0.3445541727907955,0.0617132365912199,-0.0577244592159986,-1.275748980987817,9.71246540339291,0.4592025154296308,-0.0113602913916111,0.0493121221661567,0.0301435086876153
1789309748914082800,1.982406005859375,0.5228416785821318,0.0538081625550985,0.0373334130942821,-1.273573536644876,9.712738959637283,0.4594635044533759,-0.0042537278495728,0.0383704267442226,0.0178900230675935
1789309748924095000,1.9924182128906252,0.631623248079419,0.0487210685491561,0.0854535566082224,-1.2725211049824952,9.712887428197265,0.4592272480120882,-0.0022800588048994,0.0345376022160053,0.0065936939790844
1789309748934107000,2.0024301757812504,0.4584790965259075,0.0305576353490352,-0.0323672785868868,-1.2720587481677532,9.712946464908123,0.4592833621134981,-0.0062255691736936,0.023742850869894,0.0055496306158602
1789309748944119000,2.0124423828125,0.4193643529728055,0.0866103619605302,-0.0326215456089004,-1.2715507986456156,9.71300783970654,0.4593878454012796,0.0002365908585488,0.011882197111845,0.0065840021707117
1789309748954131000,2.0224541015625004,0.4838805181555449,0.1457552093684673,0.1775187499085441,-1.2708248224586247,9.71311948338747,0.4590392511593177,0.0030499543063342,0.0012404720764607,0.0066013126634061
1789309748964143900,2.032467041015625,0.4215653701484203,0.1001852983266115,0.0679535557528957,-1.2703097125433385,9.713197224798796,0.4587709921445697,0.0033213302958756,-0.0117341820150613,0.0019455747678875
1789309748974155800,2.0424790039062497,0.464846147339791,0.0138543378293514,-0.0465191745907068,-1.2704950059823692,9.713188456970451,0.4584712420130148,0.0046630352735519,-0.0164544805884361,-0.0060153338126838
1789309748984168000,2.0524912109375,0.4976704124465584,0.021747721427679,0.0104454061686992,-1.2714464614883063,9.713076228767632,0.4582195322742685,0.0058915517292916,-0.0235941484570503,-0.0131443496793508
1789309748994179800,2.0625031738281248,0.4434184516467154,0.0383545728355646,0.0003629880934953,-1.2727100516833365,9.712929513773322,0.4578273180862888,0.0078115016222,-0.0315778292715549,-0.0151276690885424
1789309749004192000,2.07251513671875,0.3317600115388631,0.0628746815860271,0.0653875777224078,-1.27387851094082,9.71280150347948,0.4572965356778353,0.0088703744113445,-0.0390522591769695,-0.0145457694306969
1789309749014204000,2.0825270996093748,0.2200257297158241,0.025806056907773,-0.0400701080491766,-1.274372431937605,9.712760002425313,0.4568108345201239,0.0113648455590009,-0.0391967073082923,-0.0116693302989006
1789309749024216800,2.0925400390624995,0.0506827240109443,-0.0231008896023035,-0.0736065034806728,-1.2747183227658272,9.712734283462169,0.4563795304307714,0.0058374544605612,-0.0358861349523067,-0.0115103395655751
1789309749034228700,2.102552001953125,0.0696682872489094,-0.0603092150121927,-0.1102665108254179,-1.274999331664294,9.712684014579652,0.4566775635292753,0.0048740617930889,-0.0429376848042011,-0.0111219752579927
1789309749044241000,2.1125642089843746,0.1736421642035245,-0.0401736049562692,-0.1258668520718812,-1.2755734782904389,9.71259867438376,0.4568647201318293,0.0054876543581485,-0.0433328971266746,-0.0166664123535156
1789309749054252800,2.122575927734375,0.1811183453030884,0.0268044202953577,-0.0356237230995669,-1.2763158210903405,9.712508073490858,0.4567039400795474,0.008671011775732,-0.0415495485067367,-0.0186893325299024
1789309749064264700,2.1325878906249995,0.0481074666954576,0.046945875570178,-0.0309223770081996,-1.2770812525048851,9.712418641641737,0.4564917221009731,0.0062475358135998,-0.041097342967987,-0.0186224859207868
1789309749074276900,2.14260009765625,-0.0620867460787296,0.0205576348602771,-0.0942342444350942,-1.277918141720444,9.712322195529936,0.4562074252668768,0.0073595996946096,-0.0377607271075248,-0.0163640715181827
1789309749084289800,2.152613037109375,-0.1095809031814336,-0.0125748194128274,-0.0976210007965564,-1.278607146897912,9.712233932724594,0.4561531743289903,0.0053076343610882,-0.0377639234066009,-0.0125155374407768
1789309749094302000,2.1626252441406253,-0.1156150687791407,-0.0422854825437068,-0.1649947839001193,-1.2791570358656346,9.712166128185393,0.4560400693433359,0.0054405257105827,-0.0370549894869327,-0.0106696998700499
1789309749104313900,2.17263720703125,-0.0361368967860937,-0.0153892923116683,-0.1341039710739627,-1.2800753197543322,9.71205506902635,0.4558247826248407,0.0059638367965817,-0.0358975790441036,-0.0144181000068783
1789309749114325800,2.1826489257812502,0.0119388595968484,0.0045078328132629,-0.1420949332952499,-1.2813146522909402,9.7119106921196,0.4554361851660534,0.0051379813812673,-0.0322477556765079,-0.0173047706484794
1789309749124338000,2.1926611328125,-0.0137089380092918,0.0234995335310697,-0.157535079011321,-1.2824518396273257,9.711773329475522,0.4551646382156759,0.0032050588633865,-0.0322221890091896,-0.0168975740671157
1789309749134349800,2.2026730957031253,-0.0668063219465315,0.0282832606762647,-0.1646264620443805,-1.2835235605120658,9.711629537090658,0.455223236535117,0.0037270330358296,-0.0308239199221134,-0.0149633968248963
1789309749144362000,2.212685302734375,-0.1405950501263141,0.0210784438639879,-0.1313894148856401,-1.2845534880816936,9.711500942274927,0.4550554422201588,0.0055515645071864,-0.0299445427954196,-0.0118823861703276
1789309749154375000,2.2226982421874997,-0.1801150134794414,0.002631517547369,-0.1509521934896707,-1.285435677743703,9.711392805725335,0.4548659109974279,0.0034703193232417,-0.0299275703728199,-0.0082970894873142
1789309749164387000,2.232710205078125,-0.1461389479890465,-0.0197013102918863,-0.1802583309402689,-1.2863418328031897,9.711281746566296,0.4546936597030609,0.0039872387424111,-0.0281792059540748,-0.007173235528171
1789309749174399000,2.2427221679687497,-0.0927905119001865,-0.0082324062943458,-0.1422702533295378,-1.2871676161028445,9.711184715932609,0.4544145139681175,0.0016770726069808,-0.0280912853777408,-0.0083200680091977
1789309749184411000,2.252734130859375,-0.0555503300473093,-0.0138081606000661,-0.1785094414463266,-1.2880457141116262,9.711074241295456,0.4542911433167755,0.0028552550356835,-0.0252020228654146,-0.0105185071006417
1789309749194423000,2.2627463378906247,-0.0650227995306253,-0.0255231483131647,-0.1773211449772119,-1.2888980931572616,9.710966689267757,0.4541507484653964,0.0038668639026582,-0.0221199821680784,-0.0082699256017804
1789309749204435000,2.27275830078125,-0.1388807935543358,0.0107581253796815,-0.1247024844676256,-1.2895596258059143,9.71089713116288,0.4537557212658226,0.0044410414993762,-0.0181923527270555,-0.0055082277394831
1789309749214447900,2.28277099609375,-0.204539845161885,0.0553922168761491,-0.1007453068295493,-1.2900403950601815,9.710854461064937,0.4532919762115925,0.004740891046822,-0.0159462094306945,-0.0043052332475781
1789309749224459800,2.2927829589843753,-0.1691376923911273,0.0201081375271081,-0.1384370318422094,-1.2904273485511542,9.71082465044856,0.4528261487981304,0.0041486043483018,-0.0111727602779865,-0.0025177192874252
1789309749234471700,2.302794921875,-0.1226928982108831,-0.033564415949583,-0.1543091392347589,-1.2907837607733903,9.710777304175496,0.4528359395397827,-0.0023869420401751,-0.0137552311643958,-0.0010504631791263
1789309749244483800,2.3128071289062504,-0.0228654734112322,-0.0837789379268884,-0.1724444423189386,-1.2912519628070294,9.710715344855188,0.4528656040256842,-0.0021850750781595,-0.0102172214537858,-0.0040885973721742
1789309749254495700,2.322819091796875,0.0252510533735156,-0.0860953981757163,-0.1040583769002929,-1.2917835854656994,9.71063584987819,0.4530130862049758,-0.0039059091359376,-0.0105309914797544,-0.0030095148831605
1789309749264507600,2.3328308105468754,-0.0613787439398467,-0.0499620085209608,-0.1410708874771371,-1.2922428735405207,9.71056512272954,0.4532149654526263,-0.0038864677771925,-0.0087655810639262,-0.0042010131292045
1789309749274520800,2.342843994140625,-0.0954983095541596,0.0593266337156295,-0.031255554485321,-1.292689740525186,9.710512515759468,0.4530843613428995,0.000442327465862,0.0008502833079546,-0.0025708058383315
1789309749284532700,2.3528559570312497,-0.1817556202933192,0.0831435626327991,0.0573193855464458,-1.292922964759171,9.7104879658401,0.4529447702091187,0.0006015845574438,0.0035776267759501,0.0015357885276898
1789309749294545000,2.3628681640625,-0.1410864869050681,0.0500707295924425,0.0084908015022054,-1.293040453658998,9.710492057493328,0.4525429844751953,0.0022434601560235,0.0109246522188186,0.0013049972476437
1789309749304556800,2.372880126953125,-0.0994300960451364,0.0301928936898708,0.0974228478759527,-1.293396719750762,9.710466923052072,0.4520468715213239,0.0010535600595176,0.0139880860224366,-0.0027153107803314
1789309749314568700,2.382891845703125,-0.0376411638692021,-0.0538157613396644,0.0129541375866159,-1.2941333634622394,9.710378660246729,0.4518205884847789,-0.0042780069634318,0.0178242027759552,-0.0074179056100547
1789309749324580900,2.392904052734375,-0.0350531932026147,-0.0802075091809034,0.0757394238561391,-1.294925829014182,9.71028513674438,0.4515838571194559,-0.004316889680922,0.0165022108703851,-0.0060381218791007
1789309749334592800,2.4029160156250002,-0.0489918483145535,-0.0675841744512319,0.1498843085298314,-1.2953525299936532,9.710232529774308,0.4515091113828122,0.0016034501604735,0.0172793939709663,-0.0029603082221001
1789309749344606000,2.41292919921875,-0.0708181879363954,0.0424251832753419,0.3115385132977739,-1.295822047201544,9.710206810811162,0.4507155133197084,0.0023603204172104,0.0210741348564624,-0.0024332685861736
1789309749354617900,2.4229411621093746,-0.1382685068748891,0.0079109192550182,0.2064624837875366,-1.2963072003699838,9.7101536193192,0.4504466332504525,-0.0009829965420067,0.0181291382759809,-0.0033764119725674
1789309749364630000,2.432953369140625,-0.0469667722277343,0.0609755699664354,0.1996586489915847,-1.2970781847424804,9.71006068033874,0.4502176468001678,-0.0008311960846185,0.018050841987133,-0.0056845741346478
1789309749374642000,2.4429650878906246,0.1491319923251867,0.0382043507099151,0.2574070370724424,-1.2980493678621947,9.709936177176235,0.450079772699438,6.95129856467e-05,0.0106014553457498,-0.0094427969306707
1789309749384653800,2.45297705078125,0.2652887667655945,-0.0265858091086149,0.1779413227021694,-1.2991349711418152,9.709785370528698,0.4502375570770353,-0.0021928423084318,0.0003008808707818,-0.0106587959453463
1789309749394666000,2.4629892578124997,0.2257433767102658,-0.0723451052427291,0.176337942626141,-1.30044050078243,9.709604753264784,0.450344195789285,0.002048953436315,0.0027678946498781,-0.0148959746584296
1789309749404679000,2.4730021972656244,0.1741695490784943,-0.0866623844087123,0.1961772000839933,-1.3018383848816155,9.70940718486607,0.4505561215069145,-0.0012072934769093,-0.0081539954990148,-0.013181697577238
1789309749414691000,2.483014404296875,0.2234131801970303,-0.014636428117752,0.1700403403192758,-1.303198128927499,9.709207862901687,0.4509554230228066,0.0028954909648746,-0.0212784186005592,-0.0119478702545166
1789309749424703000,2.4930261230468744,0.3874677241049706,0.0860983207851648,0.3312941110601649,-1.304446813814342,9.709028999203444,0.4511606998039409,0.0077624176628887,-0.0329465232789516,-0.0168153308331966
1789309749434715000,2.5030380859375,0.5720126828558743,0.1267909811794757,0.3111708124965429,-1.3065836797125636,9.70873907634616,0.4512328882573172,0.0096300765872001,-0.0499709770083427,-0.0246627479791641
1789309749444727000,2.5130502929687495,0.6768886232167483,0.0211801506727933,0.2272299985388294,-1.30925728283599,9.708407652434706,0.4506283099602907,0.0210893917828798,-0.0460958108305931,-0.0310684479773044
1789309749454739000,2.523062255859375,0.5504124070748686,-0.0888169320940971,0.2530857032746076,-1.3114692597970363,9.70812065218687,0.45036048933696,0.0106941293925046,-0.0752097591757774,-0.0249161627143621
1789309749464750800,2.5330739746093744,0.3390665351599454,-0.1120604450374841,-0.0436719319334253,-1.313207481766492,9.707872230383751,0.4506864333556964,0.0137112233787775,-0.0796828046441078,-0.0274898409843444
1789309749474763800,2.5430869140625,0.2865804149888455,-0.0601747749775648,0.1951607530504465,-1.3151893032334745,9.707610364577173,0.450525470640324,0.0164060555398464,-0.0872099325060844,-0.0283856857568025
1789309749484775700,2.5530988769531247,0.2590598092481493,-0.0073515318065881,0.1180687820741906,-1.317446726771444,9.707311089369654,0.4504046207396313,0.0180907696485519,-0.0894973203539848,-0.0331024080514907
1789309749494787800,2.563111083984375,0.2270645423114299,-0.1109691426694393,0.0151677585154771,-1.320316729249805,9.706929396575688,0.4502049699816852,0.0182396844029426,-0.0887772664427757,-0.0438933596014976
1789309749504799700,2.5731230468749997,0.2275409276515245,-0.1864198127120733,-0.0091524437487125,-1.3245343469448387,9.70636416390836,0.4499849705554544,0.0194908380508422,-0.0769978314638137,-0.0656596422195434
1789309749514811600,2.583135009765625,0.1712972085125744,-0.2102127762317657,-0.1043447926262393,-1.3312877667278051,9.705465753763914,0.4494089242331683,0.0109043596312403,-0.0793263614177703,-0.0786845386028289
1789309749524823800,2.5931469726562497,0.1385493696428835,-0.3218938665628433,-0.3187012810666114,-1.33954063128829,9.70431950633824,0.4496338555628433,0.0068105487152934,-0.0793588608503341,-0.0986073836684227
1789309749534835700,2.603158935546875,-0.1190251694835722,-0.3697486736714839,-0.3732312550902366,-1.3477227687001228,9.703094932979344,0.4516414690582081,-0.0257201325148344,-0.1299753934144973,-0.081749141216278
1789309749544849000,2.613172119140625,-0.3423953873217105,-0.4139619094073772,-0.5309422386577353,-1.3556922862745822,9.701669868612289,0.4583681469647213,-0.0604059360921382,-0.1824966669082641,-0.0979041457176208
1789309749554860800,2.6231840820312495,-0.405977194263786,-0.5135621013224124,-0.7526501858394593,-1.3633378325916825,9.700115040385722,0.468488595495373,-0.0846944227814674,-0.211686685681343,-0.0740984007716178
1789309749564873000,2.6331962890625,-0.9044394877403974,-0.1020084221005439,-0.5376267944555729,-1.3691544099159538,9.69871803306937,0.4803154826177284,-0.0956693068146705,-0.2250576168298721,-0.0735665634274482
1789309749574884900,2.6432080078124995,-0.4774501928471028,0.0491676432728767,-0.4883369861077517,-1.3759613134518265,9.697179571455717,0.4917789432551711,-0.0880299285054206,-0.2095168977975845,-0.0858271792531013
1789309749584896800,2.653219970703125,-0.4645363507382571,0.357189636349678,-0.5255430830279365,-1.384086459979415,9.695463999709489,0.5026481643265113,-0.075925588607788,-0.1711351573467254,-0.0995187535881996
1789309749594909000,2.6632321777343746,-0.6378406612895429,0.2847492540389299,-0.4464373610764741,-1.3934898097492754,9.69368471507728,0.5109306568402797,-0.0598846971988678,-0.1255730241537094,-0.1043659076094627
1789309749604921900,2.6732451171874994,-0.7468263750568032,0.27693478089571,-0.3689472941607236,-1.4019694688029587,9.692072019183636,0.5182856227129697,-0.0609936341643333,-0.1129123568534851,-0.0812027975916862
1789309749614934000,2.68325732421875,-0.8372277998633683,0.3331207784980535,-0.4810936639159917,-1.408084444551915,9.690803022161123,0.5253866138245911,-0.058917086571455,-0.0976507440209388,-0.0585374124348163
1789309749624946000,2.6932690429687494,-0.6326859088748693,0.2024807206749916,-0.3759919519752264,-1.4125608593136072,9.689761988675594,0.5325126663122326,-0.060911264270544,-0.0892367511987686,-0.0441875047981739
1789309749634957800,2.703281005859375,-0.3600463409550488,0.076722589674592,-0.3843015151590108,-1.41570310286209,9.688926706895232,0.5393258169258013,-0.0576877258718013,-0.071782998740673,-0.0319591574370861
1789309749644970000,2.7132932128906244,-0.2739237625114619,-0.0180763394385576,-0.2723755101561546,-1.4178789855964482,9.68825684480965,0.5456140303498134,-0.0542543828487396,-0.0596568249166011,-0.0218995977193117
1789309749654982000,2.72330517578125,-0.2623623579248786,-0.012993337085843,-0.2537362030725926,-1.4194148168615996,9.687664139613508,0.5521135849695652,-0.0622102543711662,-0.0668871775269508,-0.0141100594773888
1789309749664993800,2.7333171386718744,-0.2829188237413764,-0.0162017777383327,-0.2715086641937494,-1.4202563822522758,9.687130471128224,0.5592617031585425,-0.0628406181931495,-0.0724595710635185,-0.0128344045951962
1789309749675007000,2.743330322265625,-0.3032138621427118,0.124686702376604,-0.1411906779319048,-1.4210602459810673,9.686602063339947,0.5663114024743438,-0.0625803247094154,-0.0706869065761566,-0.0124693140387535
1789309749685019000,2.7533420410156246,-0.1223832477398216,0.1246522155851125,-0.1072398930132389,-1.4223255897417664,9.6860379997164,0.5727625148424879,-0.0560153648257255,-0.0538014024496078,-0.0201935470104217
1789309749695031000,2.763354248046875,0.0430228569075465,0.0061813189834356,-0.153834397862479,-1.4241779396101832,9.685398532769083,0.5789545744156465,-0.0551813691854476,-0.051734585314989,-0.0231674704700708
1789309749705043000,2.7733662109374997,0.0147628309763967,-0.0401356110334396,-0.1749689558278769,-1.4261448557689784,9.684729255205392,0.5852753749350086,-0.0582107156515121,-0.0603829361498355,-0.0225560087710618
1789309749715055000,2.78337841796875,-0.0252305951073765,-0.0582189647346734,-0.1842073973596096,-1.4276007536657154,9.684106739392876,0.5919700137354433,-0.0617828778922557,-0.0610883124172687,-0.0139799658209085
1789309749725067000,2.7933901367187497,-0.0504610440842807,-0.0937684170216321,-0.1357516286831349,-1.4282577562697232,9.68359469821751,0.598730447781086,-0.0635307058691978,-0.0679872334003448,-0.0063228448852896
1789309749735079000,2.803402099609375,0.0987222400367259,-0.0009480945050716,-0.068835672349669,-1.4284018409155308,9.683099023655055,0.6063337258590384,-0.0703617334365844,-0.0850367248058319,-0.0038590340409427
1789309749745091800,2.8134150390625,0.2041157745309174,0.0080985507816076,-0.1410685859221965,-1.4281512271553276,9.682581721782684,0.6151202954374253,-0.082007996737957,-0.1105362176895141,-0.0025402368046343
1789309749755103700,2.8234270019531245,0.2109462050728499,0.0143657944828271,-0.12864800722301,-1.4277993449777364,9.682001291546223,0.6249959388941526,-0.0868821591138839,-0.131441131234169,-0.0058876653201878
1789309749765116000,2.833439208984375,0.1309451782494783,-0.0754968472719192,-0.1268652154594659,-1.4277046524316073,9.681333183026313,0.6354832114432006,-0.0863833501935005,-0.1313114315271377,-0.0097990501672029
1789309749775127800,2.8434511718749995,0.0998864615105092,-0.0980319196850061,-0.0470305581789463,-1.4285187452934682,9.680525958296656,0.6458801753602922,-0.091551586985588,-0.1480971425771713,-0.0280019920319318
1789309749785139700,2.853462890625,0.2501945118777454,-0.0233083948731422,0.0042085576057434,-1.4300870175234972,9.679572603094575,0.6565914659235627,-0.0887504741549491,-0.1451066732406616,-0.0233345367014408
1789309749795152000,2.8634750976562495,0.2670008313804864,-0.0480769254267215,0.0119516460131853,-1.4317797929160296,9.678602881279588,0.6671037267833948,-0.0854273363947868,-0.1640125215053558,-0.0282153990119695
1789309749805163800,2.873487060546875,0.1501191036663949,0.1227314766556024,0.1105547166496515,-1.4317651798687874,9.677783381590247,0.6789335730478168,-0.1044420376420021,-0.2040345072746276,-0.0096624866127967
1789309749815177000,2.883500244140625,0.2500008890017867,-0.1898562169015407,-0.2968009263604879,-1.4316890458926557,9.67688029527068,0.6918445656124502,-0.1059399247169494,-0.2277188748121261,-0.0169715397059917
1789309749825188900,2.8935122070312493,-0.1318875736661255,0.0311637845486402,-0.0144242466717958,-1.431376472812146,9.675977208951116,0.7050017880231142,-0.0982034504413604,-0.1884769201278686,-0.0046189981512725
1789309749835200800,2.9035239257812497,0.0953249988138675,-0.1310585754960775,-0.2668365076642483,-1.4306911208964883,9.675245387545228,0.7163480154890567,-0.0808027610182762,-0.1873429119586944,-0.0104948040097951
1789309749845213000,2.9135361328124993,0.4092255285352468,0.3285258519232273,0.1638386361349374,-1.4311007246106862,9.674449853253364,0.7262056118324398,-0.0690675377845764,-0.1692243665456771,-0.0277699306607246
1789309749855224800,2.923548095703125,0.4084555670760572,0.1989461168080568,-0.0450403342097997,-1.4330242400191724,9.67354442884624,0.7344209208615123,-0.0544753856956958,-0.150236889719963,-0.0348717533051967
1789309749865236700,2.9335600585937494,0.4097143349654972,0.3091208942294121,-0.2041922738332301,-1.4360783668927848,9.672604517647624,0.7407927939809859,-0.0331940650939941,-0.1229365617036819,-0.0453984327614307
1789309749875250000,2.9435732421875,0.3794742411330342,0.3806260415166616,-0.02014203979671,-1.4398064475052057,9.671728903856874,0.7449865193437785,-0.0217939708381891,-0.110613614320755,-0.0500612519681453
1789309749885261800,2.9535849609374996,0.5483269791029394,0.3026069822907448,-0.3045535132486373,-1.443608762397617,9.670887776857612,0.7485280644081532,-0.01918007992208,-0.1166099905967712,-0.0446054972708225
1789309749895274000,2.96359716796875,0.7164518411897123,0.1997936735481023,-0.3513818268537521,-1.446982622744888,9.670153032842276,0.7515122678507119,-0.0079956036061048,-0.127262681722641,-0.0424489490687847
1789309749905286000,2.9736091308593746,0.7701381309308111,0.237357388266921,-0.1829927608728408,-1.4497921272076666,9.66954980625212,0.7538599269554018,-0.0003834906965494,-0.1404192298650741,-0.0357076898217201
1789309749915298600,2.9836218261718743,0.6630272711247205,0.2378922257959842,-0.1344371120184659,-1.4516172968082128,9.669164606326818,0.7552837492134422,0.0140062272548675,-0.1348752379417419,-0.0242475681006908
1789309749925310700,2.993634033203125,0.4875184362664818,0.3287672594636678,0.0901484729588031,-1.4529802557244895,9.668969960537552,0.7551545698758214,0.0263731479644775,-0.1358816474676132,-0.0261679738759994
1789309749935322600,3.0036457519531243,0.4882302377976477,0.3000526216328144,0.1634188763529062,-1.4544402452744545,9.668804540842771,0.7544577467180789,0.029776893556118,-0.1494940668344497,-0.0288752578198909
1789309749945335300,3.013658447265625,0.3181900436088443,0.218878897768259,0.1342068103939294,-1.4563336578056216,9.668575408262011,0.7537430225774645,0.0311028808355331,-0.1567748934030532,-0.0339067690074443
1789309749955347500,3.0236706542968745,0.091857030442357,0.0983113211482763,0.2290196949671953,-1.4589460322611032,9.668234632000326,0.7530518985081464,0.0308054033666849,-0.1541346609592437,-0.0438665375113487
1789309749965359400,3.0336826171875,-0.0374776438705623,-0.038141222345829,0.2736087782781571,-1.4624895500868558,9.667768768054248,0.7521572146907448,0.0289113633334636,-0.1484837085008621,-0.0527598969638347
1789309749975371500,3.0436948242187496,-0.0724741384498774,-0.1245218672037124,0.300972659087181,-1.466398978615552,9.667211134171485,0.7517276641670614,0.0263860542327165,-0.1539762318134308,-0.0525528639554977
1789309749985383400,3.053706787109375,-0.1550524684153497,-0.080010525304079,0.5216309145528822,-1.4701615460194646,9.666694416821002,0.7510368323586881,0.0351438596844673,-0.1501170396804809,-0.0478145666420459
1789309749995395300,3.0637185058593746,-0.2570468619905412,0.0176057993173599,0.8105284473776817,-1.4732127502836283,9.666341365599632,0.7495932094216347,0.0377016216516494,-0.154341459274292,-0.0384638048708438
1789309750005407500,3.073730712890625,-0.576334345447272,-0.0046048634469509,0.7545412602830678,-1.475197348229587,9.666107556843755,0.7487181801527738,0.0308317318558692,-0.162329614162445,-0.0274793300777673
1789309750015420400,3.08374365234375,-0.7518836584463715,-0.0713695382088422,0.6345161199767142,-1.4763700452707706,9.665984222725031,0.7479857011597603,0.0312959589064121,-0.1392036229372024,-0.0195054579526186
1789309750025432600,3.0937558593749994,-0.7692967116706073,-0.253320096552372,0.629199308868125,-1.476165316478908,9.666125092500447,0.7465691123601049,0.0295952651649713,-0.1002341136336326,0.0074715642258524
1789309750035444500,3.103767822265625,-0.8385662088602781,-0.3714274205386638,0.3999561073433607,-1.4745317239277065,9.666465868762137,0.745369673442468,0.0251968502998352,-0.0802107006311416,0.0091652050614357
1789309750045456400,3.1137795410156244,-0.6369054262660443,-0.3344254313558339,0.3323054435271769,-1.4734338456884026,9.666725396481157,0.7441874779205769,0.0185045935213565,-0.0537234283983707,0.0031078453175723
1789309750055468500,3.123791748046875,-0.8789930579252541,-0.2307704110920429,0.3386128731083124,-1.4728610142365095,9.666917119660972,0.7428179431330412,0.0181810390204191,-0.0239040851593017,0.0048931059427559
1789309750065480400,3.1338037109374994,-1.124684705425799,-0.2304366490930318,0.2366167990326881,-1.471976632617414,9.66718249259889,0.7411152308683842,0.0178561322391033,0.0094421524554491,0.0148911448195576
1789309750075492400,3.143815673828125,-1.235867636976391,-0.1732370905339717,0.1839350101590156,-1.4703282808884977,9.66759341148734,0.7390298759616911,0.0179706886410713,0.0425768308341503,0.0193552374839782
1789309750085504500,3.1538276367187494,-0.9800485632151364,-0.1876297730237245,0.1038614295560866,-1.4693695188589393,9.667921328267454,0.7366529907625168,0.0124853756278753,0.0598319843411445,0.0105425706133246
1789309750095517400,3.163840576171875,-0.6584601093396544,-0.200547706785798,-0.0480639928799122,-1.4689378494434058,9.668120065709948,0.7349008133329451,0.0032953408081084,0.0689728334546089,0.0100686876103281
1789309750105529600,3.1738527832031247,-0.5684888926438987,-0.1745212851256132,-0.2116816797405481,-1.468228532130271,9.668279055663945,0.734215972873941,-0.0084358835592865,0.068292923271656,0.0154179129749536
1789309750115541500,3.18386474609375,-0.5147561334125698,-0.1660223368495702,-0.2556675364613532,-1.4668946531780065,9.668459088405966,0.7345076492968946,-0.018509741872549,0.0686541125178337,0.02331811375916
1789309750125553700,3.1938769531249998,-0.4912437403999268,-0.1362052907347679,-0.2782318349689245,-1.464669524474442,9.668718616124988,0.7355239136673509,-0.0218866281211376,0.0698336288332939,0.0336394608020782
1789309750135565600,3.2038889160156243,-0.4131684209421277,-0.0613151771843433,-0.2267681897133588,-1.4616411165639758,9.669096801787614,0.7365834326576441,-0.0210492722690105,0.0788028240203857,0.0397564284503459
1789309750145577500,3.2139006347656247,-0.3114674573555588,0.0387561393737792,-0.1064163016706705,-1.4581469908379017,9.669581954956056,0.7371386553876101,-0.0166215002536773,0.0951277390122413,0.0476905182003974
1789309750155589600,3.2239128417968743,-0.2401661620773374,0.0217319393366575,-0.1375350780338048,-1.4543300628982485,9.6701460185796,0.7372826669681817,-0.0172852799296379,0.103598915040493,0.0479376502335071
1789309750165602600,3.23392578125,-0.156636084344983,0.0621633184462785,-0.2808271121591329,-1.4495741005428135,9.670864980503916,0.7372218036264181,-0.0200520381331443,0.1068724766373634,0.0586635321378707
1789309750175614700,3.2439379882812496,-0.0410898430183529,0.0306160875380039,-0.3231026578307152,-1.4457093879386782,9.67143722743392,0.737299764233455,-0.0167374666780233,0.1234277486801147,0.0406469814479351
1789309750185626600,3.253949951171875,0.2777856986366212,-0.0197509946525096,-0.3506828117389232,-1.4430135729834437,9.671824765446782,0.7374957251969725,-0.0244258511811494,0.1166033670306205,0.0357279665768146
1789309750195638500,3.2639616699218745,0.1209245733641087,-0.0285948108434677,-0.4807558833289891,-1.4405784547910094,9.672139238223432,0.7381324156653135,-0.0209494866430759,0.1158763319253921,0.0329816006124019
1789309750205650700,3.273973876953125,0.1097230881310999,0.0961544353753328,-0.2485738518733531,-1.4380559505760668,9.672487028747796,0.7384871473871171,-0.0210807807743549,0.1053437963128089,0.0356495566666126
1789309750215662600,3.2839858398437496,0.1055662607125937,0.0945592751383781,-0.2022891436256468,-1.4352457154609262,9.672883919110893,0.7387402453653514,-0.0144172394648194,0.0986242294311523,0.036723356693983
1789309750225674500,3.293997802734375,0.2206884314082562,0.0755862791210413,-0.1841384237766265,-1.4324537466548382,9.673303605827687,0.7386958217017352,-0.0140393385663628,0.0869076550006866,0.0363348014652729
1789309750235687400,3.3040107421875,0.2795079923845827,0.0065478142082691,-0.2489643124956637,-1.4290239183366298,9.673807463696598,0.7387278973404318,-0.0144158881157636,0.074503369629383,0.0446048602461814
1789309750245699300,3.3140224609374993,0.3022863720342517,-0.0199245976537466,-0.336201281921938,-1.4257653549320994,9.674242347982526,0.7393249133855104,-0.0142124239355325,0.0582250729203224,0.0328696407377719
1789309750255711500,3.32403466796875,0.4486348711207509,0.0265957459807395,-0.2209948670089244,-1.4233743681423363,9.674559743368626,0.7397884392440318,-0.012217060662806,0.049820739775896,0.0256330426782369
1789309750265723400,3.3340466308593744,0.2914335541084408,0.0806429779887199,-0.1834925270885229,-1.4213469539679586,9.67483096152544,0.7401443400096148,-0.0103347385302186,0.0421577617526054,0.0242599174380302
1789309750275735300,3.34405859375,0.2595676126398146,0.1134323179125785,-0.1178343522638082,-1.4192588956475256,9.675111532032489,0.7404763484429567,-0.0067907255142927,0.0305604599416255,0.0250703878700733
1789309750285747500,3.3540708007812494,0.2760067062653601,0.0848275701969862,-0.0772475633967667,-1.4169934349335729,9.675434188115595,0.7405909147333354,-0.0037147747352719,0.0178459957242012,0.0256853122264146
1789309750295759400,3.36408251953125,0.3211037390984594,0.0366080214291811,-0.0791179603785276,-1.4145057097710667,9.675770288202166,0.7409650087427347,-0.0076322848908603,0.0031754008959978,0.0266682039946317
1789309750305772500,3.3740957031249996,0.3674231533333659,0.0006961655706167,-0.1344043787926435,-1.4121930489145218,9.676068978887796,0.7414840641807764,-0.0033331443555653,-0.0050351247191429,0.0215874258428812
1789309750315784400,3.384107666015625,0.3542584052033722,0.0529646974682807,-0.0222562554717063,-1.4102511210665103,9.67632266138792,0.741863053561002,-0.002165141981095,-0.0203044507652521,0.0191844776272773
1789309750325796600,3.3941198730468747,0.3131508803978562,0.0250420867979526,-0.0450514401257038,-1.4084981399193406,9.676562315362691,0.7420633984386921,0.002373683033511,-0.0218693241477012,0.0146581698209047
1789309750335808500,3.4041318359375,0.353695510623604,0.0379892466545105,-0.0140373662460595,-1.4068449658848343,9.676782095593213,0.7423237298753113,0.004532849881798,-0.036413986235857,0.0138621432706713
1789309750345820400,3.4141435546874996,0.2695711202599108,0.0942979938536882,0.1307919604491442,-1.405320240535587,9.677036947137116,0.7418944716125726,0.0112927518784999,-0.0407424196600914,0.0151748154312372
1789309750355832600,3.42415576171875,0.2139220060132443,0.0928653307020664,0.120560050900653,-1.40413950631842,9.67727426302433,0.7410535638090222,0.0114586055278778,-0.0286571290343999,0.0071226898580789
1789309750365844500,3.4341677246093747,0.2000682527057826,-0.0136363111644983,-0.0849812994539737,-1.4027055279925464,9.67753203717768,0.7403940769869833,0.0137787517160177,-0.0334042124450206,0.0134623451158404
1789309750375857700,3.4441809082031245,-0.0014721183791756,0.0300701440930366,0.0608726210486143,-1.4021286048874255,9.67766823077798,0.7396885590661316,0.0118558686226606,-0.0308526996523141,-0.0060015683993697
1789309750385869600,3.45419287109375,0.3552439091093838,0.0420183560401201,0.0537749178726226,-1.4024078602202237,9.677693365219234,0.7388554692428558,0.0087367733940482,-0.0268654152750968,-0.0143750784918665
1789309750395881500,3.4642048339843745,0.2685787482216954,-0.0330120427638292,-0.0576806200742721,-1.4022332343056798,9.677754155495762,0.7383818603817373,0.0080841947346925,-0.0340988561511039,-0.002650667913258
1789309750405893600,3.474216796875,0.2208313470102846,0.0447124174296855,0.1131803889781236,-1.401621678278595,9.677841249257323,0.738407433214411,0.0008137645199894,-0.0456234216690063,-0.0026876861229538
1789309750415905500,3.4842287597656245,0.1782429359972477,0.0246615630477666,0.0248871884971857,-1.4013807091295718,9.677840664735436,0.7388632872231304,0.0011148680932819,-0.0330970808863639,-0.0081972870975732
1789309750425917400,3.49424072265625,-0.0185227680318057,-0.0144867905139923,0.0795217919390648,-1.4013883079141378,9.677783381590247,0.7395940857157111,-0.0049629984423518,-0.0245667081326246,-0.0055042989552021
1789309750435929600,3.5042529296874996,-0.0776022951185703,-0.1403039582252502,-0.0386615198928862,-1.4009667215012014,9.67775532453954,0.740761302864179,-0.0042407903820276,-0.0325140133500099,-0.0003013809910044
1789309750445942500,3.5142658691406243,0.0217412916868925,-0.1095750579625368,0.1003437768239527,-1.4000532599180937,9.677853524217008,0.7412185451123863,-0.0003025075420737,-0.0311126559972763,0.0065232357010245
1789309750455954400,3.5242775878906247,-0.0561092791043221,-0.0392804555088281,0.1935287679344415,-1.3997149678744374,9.677887426486611,0.7414074187479913,0.0055136047303676,-0.0189851801842451,-0.0037760064005851
1789309750465966300,3.53428955078125,-0.1137555585175752,0.0261018249839544,0.1848813510984182,-1.399828803512454,9.677896778836846,0.7410757025755942,0.0040848185308277,0.0065215118229389,-0.0127050522714853
1789309750475978500,3.5443017578125,-0.3422496952407062,0.00794482152462,0.0530224920701235,-1.4007289672225711,9.677797410115598,0.7406554313369095,-0.0008221101015806,0.0168999079614877,-0.0122847640886902
1789309750485990400,3.5543137207031243,-0.4603454749196767,-0.0277039994835853,0.0430183999281376,-1.401295807325095,9.677682259303332,0.741082936033979,-0.0102297253906726,0.0190733149647712,-0.0057674767449498
1789309750496002600,3.56432568359375,-0.4250774699226021,-0.1133405479758977,-0.110347284444049,-1.4013989754386245,9.677577045363186,0.7422666659258306,-0.0154866641387343,0.0142838507890701,-0.0043428805656731
1789309750506014500,3.5743376464843744,-0.2383529751755297,-0.0825906049251556,-0.0469745171427726,-1.4022737124465403,9.677353758001328,0.7435372703835368,-0.0116517124697566,0.0332338400185108,-0.0086934203281998
1789309750516026600,3.584349853515625,-0.2087317438937723,0.0052805707514286,0.1758510724246501,-1.40346365288347,9.677170218127966,0.7436715642876922,-0.0046200240030884,0.0374996922910213,-0.0052111847326159
1789309750526039600,3.5943627929687496,-0.299824804226309,0.121096568930149,0.2367033082723617,-1.4036496769748628,9.677173725259305,0.7432735048808157,0.004423804115504,0.0341813936829566,0.008481990545988
1789309750536051500,3.604374755859375,-0.3182747992828488,0.1158060613065957,0.2245499291419982,-1.4025576439544558,9.677376554355025,0.742707322365418,0.0046054301783442,0.0237289424985647,0.0190902668982744
1789309750546063400,3.6143867187499996,-0.2078741041511297,0.0144049574494361,0.0092657679300755,-1.400879627739638,9.677622053548694,0.7426631178975105,-0.0058629238046705,0.0189288612455129,0.0193121079355478
1789309750556075500,3.624398681640625,-0.0361323667414486,-0.0433861372619867,-0.2197493239272385,-1.400388483221829,9.677653033208848,0.7431817349441349,-0.0078866984695196,0.0277930311858654,0.0009303365368396
1789309750566087400,3.6344106445312496,0.2348699553653597,-0.0394423680722713,-0.0939590442229062,-1.402791306579858,9.677300566509366,0.7432366800017655,-0.003499673679471,0.0475925654172897,-0.026709547266364
1789309750576099300,3.644422607421875,0.5733123672775924,-0.082328739118576,-0.0050480041045695,-1.4069434578232467,9.67679144794345,0.7420132026214152,0.0113209811970591,0.0532346740365028,-0.0354204513132572
1789309750586111500,3.6544348144531247,0.6272147839874028,-0.0081768767148256,0.2163753905147314,-1.4107171311430633,9.676412093237042,0.7398088244449347,0.0147205060347914,0.0518959015607833,-0.0169247984886169
1789309750596124400,3.6644477539062494,0.1822811054721474,-0.0371913742750883,0.062479544788599,-1.4112548912815748,9.67639689566791,0.7389797532096505,-0.0002017179504036,0.018977366387844,0.0171061400324106
1789309750606136600,3.674459716796875,-0.2117341405801475,-0.0424327820599079,-0.2062409499913454,-1.409589296156913,9.676550624924898,0.7401477740757166,-0.0202358812093734,-0.009783174842596,0.0259006954729557
1789309750616148500,3.6844716796874994,-0.2201036172576248,0.0970154361188411,-0.3091021164637059,-1.4078038740448653,9.67656582249403,0.7433506617702543,-0.0309152137488126,-0.0048662731423974,0.01137450709939
1789309750626160400,3.694483642578125,-0.0500812509864568,-0.0757522833377122,-0.4677017559666186,-1.4075385011069477,9.676350133916737,0.7466264685705304,-0.0336244516074657,-0.0389107912778854,0.0016430497635155
1789309750636172500,3.7044958496093745,0.5457588821806013,0.3800374279737472,0.1416781691879034,-1.408868434536457,9.67605845749378,0.7479176043596119,0.000760112889111,0.0004638024838641,-0.0316611044108867
1789309750646184400,3.714507568359375,0.9746732999175788,-0.0035036242067813,0.274461668780446,-1.411914378103614,9.675629418426752,0.7477128025025129,0.000195256434381,-0.0218034200370311,-0.0328422151505947
1789309750656196600,3.7245197753906245,0.4226053807206452,-0.1122422313451766,-0.2125263138711452,-1.4126077671952544,9.675582072153686,0.7470321267619728,0.0158942025154829,-0.0047573214396834,-0.0060067228041589
1789309750666209500,3.73453271484375,-0.2261838139541447,-0.3413175289571285,-0.1011210448067635,-1.41159975919649,9.675712420535088,0.747256071710959,-0.0029423357918858,-0.0187458414584398,-0.0055433330126106
1789309750676221700,3.7445449218749998,-0.1482581321001052,-0.2819417954027652,-0.819413253166154,-1.4121626537762582,9.675591424503924,0.7477369870956987,-0.002701565157622,-0.0050819925963878,-0.0085447579622268
1789309750686233600,3.7545568847656243,0.2831397730156779,0.1217272680491209,-0.2594669287443161,-1.4129036814019085,9.675495562914014,0.7475847922086716,0.004038362763822,-0.0310909561812877,-0.0038674492388963
1789309750696245500,3.7645688476562498,1.171401594545692,0.4667559264838695,-0.099056002035737,-1.4132159622214733,9.675531218749285,0.7465384249608963,0.0180763155221939,-0.0589612685143947,-0.005848279222846
1789309750706257700,3.7745808105468743,1.2993698028109968,0.5497480979472399,0.0253214882612228,-1.4148898867830633,9.675438279768825,0.744564275343716,0.024005576968193,-0.0646324753761291,-0.0390336625277996
1789309750716269600,3.7845927734375,0.843964706902951,0.2390548398345708,-0.1521457871884107,-1.4182738301329314,9.67503495966494,0.743364032708481,0.0154164116829633,-0.0526688881218433,-0.0576917119324207
1789309750726281500,3.7946047363281243,0.2513749538339674,-0.1310118137449026,-0.5310211856454611,-1.4210921024240553,9.674598906335234,0.7436562936533242,0.0136427460238337,-0.0718183442950248,-0.0512199662625789
1789309750736294400,3.80461767578125,0.4014253761783242,0.0553244123369455,-0.1478617531936615,-1.4240487602725624,9.674263390770554,0.7423720990616828,0.0175080578774213,-0.0754130780696868,-0.0394035205245018
1789309750746306300,3.8146296386718745,0.2346265019983053,0.2173632325083017,-0.1343827514827251,-1.4260411031335591,9.673832013615966,0.7441559137385338,-0.0103789661079645,-0.1484686434268951,-0.008490078151226
1789309750756318500,3.8246416015625,-0.3834036895364522,-0.0082937810927629,-0.4155582386881112,-1.4260142151266335,9.673685883143545,0.74610719393678,0.0037972037680447,-0.1126182675361633,-0.0199135988950729
1789309750766330400,3.8346535644531246,-0.3735692548729479,-0.1033154130458831,0.0475431838762015,-1.4294140866979956,9.673087917250394,0.7473315480999648,0.0008525466546416,-0.0856292620301246,-0.0627516135573387
1789309750776342300,3.84466552734375,-0.1602744408473372,-0.2009054341822862,-0.2509510293334722,-1.4351616904392837,9.67221756415665,0.7475982362121343,0.0149925593286752,-0.0790000259876251,-0.0597268901765346
1789309750786354400,3.8546777343749996,-0.35245822391361,0.0601683452367782,0.2345148583173751,-1.4391528059020635,9.67166285288334,0.7471076762162149,0.0203692149370908,-0.0943880379199981,-0.0334518775343894
1789309750796366300,3.864689697265625,-0.5872760107003152,0.1133025540530681,0.2435989130049943,-1.4407622869253158,9.671500355798006,0.7461047097187489,0.0254361052066087,-0.0870735943317413,-0.0168579015880823
1789309750806379500,3.874702880859375,-1.0451695624232291,0.0933282720386981,0.0815085818421095,-1.4418074120640754,9.671422029864788,0.7450896143920719,0.0145280640572309,-0.0555444322526454,-0.0140338856726884
1789309750816391400,3.8847145996093744,-1.294048607788235,-0.2052764888733625,-0.3060457245677709,-1.4425237436398863,9.671351302716136,0.7446336873181164,0.0112165249884128,-0.0421292595565319,-0.0068194912746548
1789309750826403300,3.8947265625,-0.8424335518129169,-0.2307446921288967,-0.1806827303647994,-1.4423830199949443,9.67138111333251,0.7445173674620688,0.0021995934657752,-0.053938515484333,0.0045202486217021
1789309750836415500,3.9047387695312494,-0.3153701638825237,-0.1787362724721431,-0.1376614078272134,-1.4416744333341718,9.671445995262264,0.7450408068142831,0.0043342197313904,-0.0536191388964653,-0.0003134174039587
1789309750846427400,3.914750732421875,-0.0162033851735293,-0.0701636695504188,-0.0095786332715302,-1.442164554938674,9.67136065506637,0.745197093354538,0.0054383659735322,-0.0223395098000764,-0.0164875946938991
1789309750856439600,3.9247626953124994,-0.1253046881444752,-0.1389694947510957,-0.1311667851109057,-1.4445434128992258,9.671033907330036,0.7448307442601769,0.0063318363390862,0.0075931195169687,-0.0290147922933101
1789309750866451500,3.934774658203125,-0.6235315654300153,-0.0415735348820686,-0.1207564502555876,-1.4468541740596297,9.670752167779206,0.7439970699150115,0.00452621281147,0.0281228963285684,-0.0136163970455527
1789309750876464600,3.9447878417968747,-0.660923722974211,0.0501776970982551,-0.0730085375875234,-1.4471706926628949,9.6707299559474,0.7436842045735568,-0.008753577247262,0.0140754245221614,0.0119458250701427
1789309750886476500,3.9547998046875,-0.3404724564351141,0.0222556709498167,-0.1805144611258059,-1.4451529230996965,9.67096844087839,0.7444982974354177,-0.0106878299266099,0.0064598489552736,0.0287290662527084
1789309750896488400,3.9648117675781247,-0.1270965399973094,0.0462052863359451,-0.0351783539522439,-1.4426017773121595,9.671260117301344,0.7456579157993197,-0.0187363345175981,0.0089941415935754,0.0239429920911788
1789309750906500600,3.97482373046875,0.0282753696307539,-0.1812234131127595,-0.2972849104851484,-1.4413032619342208,9.671389881160854,0.7464972892329096,-0.0086022093892097,0.0437563844025135,0.0080292727798223
1789309750916512000,3.9848352050781246,0.028288229112327,-0.1748147151142358,-0.0248561357717961,-1.4410171384692192,9.67141676916778,0.7467080093741416,-0.0053389556705951,0.044937863945961,0.0057152672670781
1789309750926524200,3.994847412109375,-0.1333969553157687,0.0074012161672115,0.1037800348829477,-1.440940127710253,9.67145768570006,0.7463112651415169,-0.0035144239664077,0.0466263070702552,0.006612486205995
1789309750936536000,4.004859375,-0.0556105358019471,0.0723942050814628,-0.0629851562231779,-1.440466372718662,9.671557638943195,0.7459312528479843,-0.0041251294314861,0.0467837639153003,0.0106541868299245
1789309750946549200,4.0148725585937495,-0.1328939742296934,0.1723205602109432,-0.0052612084638327,-1.4405455754347145,9.671590372169018,0.7453687966596335,-0.0049488451331853,0.0560473017394542,0.0115074636414647
1789309750956561200,4.02488427734375,-0.160348528996855,0.058801733058691,-0.0998351697146892,-1.4409234688363968,9.671533089023828,0.7453719384647906,-0.0161995720118284,0.062144249677658,0.0115954829379916
1789309750966573300,4.0348964843749995,-0.0568748566493391,-0.0370849912911653,-0.290886733880639,-1.4409974108554422,9.671502109363674,0.7456354117065668,-0.015344163402915,0.0714067220687866,0.0089720031246542
1789309750976585200,4.044908447265625,0.1022821244753897,-0.0617325258135795,-0.0626033903639763,-1.441089765314013,9.671460608309507,0.7459980344738811,-0.0145625062286853,0.0693680420517921,0.0051404703408479
1789309750986597000,4.0549204101562495,0.2036208306208252,-0.0429910004645586,-0.0655330140750855,-1.4406749009028077,9.671573421034216,0.7453367940861731,-0.0081291077658534,0.0775625854730606,0.0124937240034341
1789309750996609300,4.0649326171875,0.1182739127248525,0.0146545482963323,-0.0215413852006196,-1.441070329961181,9.671537180677056,0.7450391993790865,-0.0053599728271365,0.0772087201476097,-0.0035226698964834
1789309751006621200,4.0749443359374995,0.2168443232007324,0.0722381377369165,-0.0050087680727243,-1.4419273851819336,9.67141443108022,0.7449670109257102,-0.0102559281513094,0.0633991658687591,0.0003194728633388
1789309751016634000,4.084957275390625,0.0649364364214241,0.0743786568969488,-0.0798953744918107,-1.4422009414263068,9.671368838372826,0.7450344501387327,-0.0082984445616602,0.0501793250441551,0.0038641181308776
1789309751026646000,4.09496923828125,0.1650733655616641,0.0960650035262107,0.0205722479075193,-1.4420806760475038,9.67137994428873,0.7451234435964376,-0.0061186468228697,0.0361695028841495,0.0050468277186155
1789309751036658200,4.104981445312499,0.3198062466338277,0.0461111783117055,0.0681429773777723,-1.442238058566302,9.671354809847474,0.7451373259913175,-0.004148974083364,0.0299974381923675,-0.0041078934445977
1789309751046670000,4.114993408203125,0.4093544156119227,-0.0245300456225872,0.033799393749237,-1.4432006199881433,9.671217447203396,0.7450648452769965,-0.0033380417153239,0.0241131819784641,-0.0093199666589498
1789309751056682000,4.125005126953125,0.3510261452838778,-0.0401817882627248,0.0403426048476249,-1.4445778996907177,9.67100877288878,0.7451050311569124,-0.0035344581119716,0.0180078838020563,-0.0144584216177463
1789309751066694100,4.135017333984375,0.2379303658492863,0.0008949030131101,0.1388269444752484,-1.4461043786056338,9.67078314743936,0.7450823078684509,-0.0020438865758478,0.0144586889073252,-0.0128227081149816
1789309751076706000,4.145029296874999,0.1501167655788362,0.0589554623156785,0.22125256809704,-1.4471753688380122,9.670630587226151,0.7449575855102389,-0.0009994162246584,0.0087688388302922,-0.0082809906452894
1789309751086719000,4.155042236328125,0.1233376258552074,0.0535994882404804,0.2488250501554459,-1.447480635394901,9.670599023044108,0.7447690772008151,0.0038057251367717,-0.0017908617155626,-0.0050851972773671
1789309751096731100,4.165054443359375,0.1310758188918233,0.0599368745684623,0.32717794444561,-1.4481861533157527,9.670547585117816,0.7440773686096072,0.0083129415288567,-0.0060584391467273,-0.014142514206469
1789309751106743000,4.175066162109375,0.1882804920174181,0.0684311466693878,0.4026251804221421,-1.4494262165047227,9.670434187871216,0.7431501707620918,0.0097997840493917,-0.0076936199329793,-0.0157787594944238
1789309751116755000,4.1850781249999995,0.2277536936193704,-0.0643131899565458,0.2405055500995367,-1.450442553940415,9.67029799427092,0.7429132202010601,0.0068708728067576,-0.0104813324287533,-0.0184028260409832
1789309751126767000,4.19509033203125,0.2470788640752434,0.0050789106994867,0.2941425208061933,-1.451362299133837,9.67018927319944,0.7425466519109905,0.0091864913702011,-0.0222144201397895,-0.0159409996122121
1789309751136779000,4.205102294921875,0.1276101886078715,-0.1337707570642232,0.3577325841199606,-1.451454069070518,9.670174660152195,0.7425527893908321,0.0051477919332683,-0.0477993376553058,-0.0080667119473218
1789309751146791200,4.215114501953125,0.0087784958697855,-0.0336252062261104,0.3580938917130231,-1.4515842713214455,9.670137250751257,0.7427900322128087,0.0077614178881049,-0.0454781278967857,-0.0099538275972008
1789309751156804000,4.22512744140625,-0.1932369453810155,0.0109130236804485,0.4032984765738248,-1.4530759711839258,9.669891751557588,0.7430752788949757,0.000854349695146,-0.018530786037445,-0.0327996239066123
1789309751166816300,4.235139404296874,-0.0250384335361421,0.0497562568157911,0.1458048937290907,-1.4575709445156155,9.669206107380983,0.7431919640772044,0.0079647237434983,0.0004676725948229,-0.0483626052737236
1789309751176828200,4.2451513671875,0.2152310427851974,-0.1125929444789886,0.2303518203537911,-1.4603653975397348,9.66874901126325,0.7436393425185233,0.013047938235104,-0.030751908197999,-0.0126120457425713
1789309751186840000,4.255163330078124,-0.1174716564312577,-0.0202437466055154,0.4035259286541491,-1.460008108534664,9.668727968475222,0.7446428935378789,0.0051266318187117,-0.0580743439495563,-0.0040310742333531
1789309751196852200,4.265175537109375,-0.2601345988728106,0.0929389804601669,0.1366062727510929,-1.4602489315532148,9.668670100808145,0.7449089971281587,0.0058199968189001,-0.0254894979298114,-0.0141607895493507
1789309751206864100,4.275187255859374,-0.4932243928231298,-0.0819219118833541,-0.004101005578041,-1.4616412626944482,9.668454996752738,0.7449568548578769,0.00762535398826,-0.0087155774235725,-0.0217707734555006
1789309751216876000,4.28519921875,-0.2593940096385776,-0.0658317778259515,0.0203011028159409,-1.4630844472400844,9.668227617737651,0.7450952404152602,0.0072011742740869,-0.0238453969359397,-0.0123351346701383
1789309751226889200,4.29521240234375,0.1308006552122533,-0.0824801302880048,-0.0137391139518469,-1.4634733004271985,9.66811655857861,0.7457663446098566,0.003598716109991,-0.0380312576889991,-0.0040814662352204
1789309751236901000,4.305224365234375,0.1993687261343002,0.0057388359129428,-0.1301497170228511,-1.4644048821888864,9.667882749822736,0.7469554813291877,0.0041242782026529,-0.0318860150873661,-0.0145907159894704
1789309751246913300,4.315236572265625,-0.0161224288918077,0.0479974304497241,-0.0226899707138538,-1.4667862243674694,9.667523268860576,0.746936192106828,0.0008661672472953,-0.0066903820261359,-0.0365988127887249
1789309751256925200,4.32524853515625,-0.0713034872353076,-0.0422924968063831,-0.3384212960589677,-1.4699636853598057,9.666982586112615,0.7476798500809818,-0.0016789948567748,1.30286207422e-05,-0.0333095863461494
1789309751266937000,4.33526025390625,-0.0417665732361376,-0.0166816702097654,-0.18991350004673,-1.4725659768126904,9.66651146146953,0.7486603855509311,-0.0010198624804615,-0.0191928911954164,-0.0170166343450546
1789309751276949200,4.345272460937499,0.1183884790152311,0.0808563284784555,-0.1354997728139162,-1.4741051690787077,9.666237905225158,0.7491635127674788,0.0031086094677448,-0.0241517983376979,-0.0091900331899523
1789309751286961200,4.355284423828125,0.1101304998882114,0.0565957474470138,-0.106464305530861,-1.4761721846111118,9.665957334718108,0.7487090469982475,0.0128997210413217,-0.0132331047207117,-0.0170615389943122
1789309751296974000,4.3652973632812495,0.033455256486684,0.0708674339056015,-0.0852098475128412,-1.4791041464097796,9.665602529931068,0.7475060278840363,0.014334020204842,0.0004363079788163,-0.0357435531914234
1789309751306986000,4.375309326171875,0.210430510635674,0.0437181456953287,-0.2274029804855585,-1.4823499964632092,9.665218499049544,0.7460467689864337,0.0180304870009422,-0.0028369831852614,-0.0354764387011528
1789309751316998000,4.3853210449218745,0.2032875070132315,0.0067290159940719,-0.1754921759843826,-1.4850832208193838,9.664948449936508,0.7441152164019644,0.0180456675589084,-0.0143245290964841,-0.0289144068956375
1789309751327010000,4.395333251953125,0.0549789599001407,0.0260299287915229,-0.1151899752348661,-1.486711552673578,9.664800565898418,0.7427704507295042,0.0098900040611624,-0.0279007907956838,-0.0085841016843914
1789309751337022000,4.4053452148437495,-0.3517490527309477,-0.0300911868810653,-0.3377829250901937,-1.4872970974765718,9.664807580161094,0.74150539922975,0.0116611905395984,-0.0213993154466152,-0.0086432388052344
1789309751347034000,4.415357421875,-0.3819850549101829,-0.051162616482377,-0.1455680892985314,-1.4880362254060804,9.664781276676058,0.7403772719826549,0.0096939131617546,-0.0110721094533801,-0.0089798616245388
1789309751357046000,4.4253691406249995,-0.366719681239128,-0.0499590859115123,-0.1906786392003297,-1.4886371139086785,9.664773677891493,0.7392498753879219,0.0093011185526847,-0.0062899030745029,-0.0095903016626834
1789309751367059200,4.435382324218749,-0.0239272574238479,-0.0825321527361869,-0.2217337757427245,-1.4893578293986618,9.66472457805276,0.7384324945904314,0.011129111982882,-0.0158173609524965,-0.0113724889233708
1789309751377071000,4.445394287109375,0.0839114782653749,-0.0207990424007177,-0.0832815828640013,-1.4903551698729396,9.664642160466313,0.7374972595669329,0.0122903529554605,-0.0197539795190095,-0.0176890026777982
1789309751387083000,4.455406249999999,-0.0508605647958815,0.0710170715093612,-0.1158791265428066,-1.4917534923635425,9.66455506670475,0.7358280111804604,0.0136179383844137,-0.0052980743348598,-0.0218230262398719
1789309751397095200,4.46541845703125,-0.2825622653886676,-0.0184849202394485,-0.1496978095144033,-1.493336816032231,9.66442413380146,0.7343319274038076,0.0080207511782646,0.0019021185580641,-0.0170001853257417
1789309751407107000,4.475430419921874,-0.2146590881161391,-0.0216401693999767,-0.2816992918837815,-1.494501475897431,9.664286771157384,0.7337548581682145,0.0025665976572781,-0.0144318472594022,-0.0096352137625217
1789309751417119000,4.485442138671875,0.1686678829222917,-0.0334147783458232,-0.2214700833052396,-1.4961029197447,9.66409095632434,0.7330809774946421,0.0026839808560907,-0.0284745600074529,-0.0112443519756197
1789309751427131100,4.495454345703124,0.3252240338988602,0.0638157618284225,-0.0503407787054777,-1.498083572167903,9.66382558338642,0.7325386873114854,0.0092880874872207,-0.0321763567626476,-0.01840266212821
1789309751437144000,4.50546728515625,0.2995088701449334,0.0752168612867593,-0.0613801321793347,-1.5006497693940997,9.663497082084415,0.7316068863540888,0.0117147602140903,-0.0341719388961792,-0.0241688322275877
1789309751447156200,4.5154794921875,0.2827567650474608,-0.0089186349928379,-0.2475431936513632,-1.5027522946313023,9.663238723409176,0.7307232353873551,0.0112867895513772,-0.0446781106293201,-0.0249547306448221
1789309751457168100,4.525491455078125,0.3477541378758848,-0.0517547371566295,-0.210064892193675,-1.5046023064121603,9.662978026646377,0.7303547674011439,0.0073586083017289,-0.0600455440580844,-0.0252190623432397
1789309751467180000,4.535503173828125,0.5500093792319297,-0.0104360538184642,-0.2703682619869709,-1.5066425800681114,9.662660046738386,0.7303542559444904,0.0101932771503925,-0.069553293287754,-0.0264829993247985
1789309751477192200,4.545515380859375,0.5342667434379458,0.0526239212065935,-0.1858796414207667,-1.509006094329059,9.662299396732449,0.730261243898794,0.0109473206102848,-0.0795470103621482,-0.0238188002258539
1789309751487204000,4.55552734375,0.370916986798495,0.1422936707377433,-0.1073088665962219,-1.5114548026554286,9.6619621276021,0.7296514414373785,0.0157559253275394,-0.0794348865747451,-0.0344520062208175
1789309751497216300,4.56553955078125,0.2919406268477439,0.2062234143346548,-0.0577390722632408,-1.5141805743575096,9.66162836560309,0.7284145200535654,0.0252969209104776,-0.0772662460803985,-0.0386824272572994
1789309751507228200,4.575551513671875,0.1908278384126722,0.1074684410721063,-0.0589829348444938,-1.5158688197053969,9.661472882780432,0.726964978832379,0.0243991687893867,-0.0801810771226883,-0.0196544080972671
1789309751517241000,4.5855642089843744,0.0010940788470208,-0.1168137770444154,-0.2814893754601478,-1.516025179310888,9.661448332861063,0.7269609602443874,0.0030518057756125,-0.1113623529672622,-0.0147329941391944
1789309751527253200,4.595576416015625,0.0966957026451826,-0.1466466052502393,-0.6183499250084161,-1.5178040255516767,9.661054365107416,0.728483347506076,0.0058148354291915,-0.1066158041357994,-0.0408181250095367
1789309751537265200,4.6055883789062495,-0.0942518166244029,0.116477092435956,-0.0772498284190893,-1.5227321296036245,9.66024538681209,0.728921738923341,0.0155298616737127,-0.0925593078136444,-0.0747718960046768
1789309751547277300,4.6156005859375,-0.2597904616102576,0.1242155777335166,-0.0097171649593859,-1.5285283947922288,9.65938964676559,0.7281271544795483,0.0220735147595405,-0.0585424900054931,-0.0555561259388923
1789309751557289200,4.625612548828125,-0.5091469152286648,-0.0854185218274593,-0.2254150215387344,-1.5331072470150886,9.658783497565985,0.726551210399717,0.0210588499903678,-0.044922549277544,-0.0474622435867786
1789309751567301000,4.635624267578125,-0.3063670654766261,-0.0437789359718561,-0.2342546730112284,-1.5376171256549656,9.658145784184336,0.7255149261545389,0.0155634181573987,-0.0481945089995861,-0.0512537881731987
1789309751577313300,4.645636474609375,-0.4596778047911822,0.0442506451368331,-0.1600906087130308,-1.542174058306962,9.65750281010568,0.7243742316868156,0.0186545886099338,-0.0257108770310878,-0.0464232414960861
1789309751587326000,4.655649169921875,-0.712775344634056,-0.0486222843497991,-0.0882751533675938,-1.5460041379891336,9.65700187484622,0.7228883770432323,0.0145900715142488,-0.0117356739938259,-0.0333876013755798
1789309751597338000,4.665661376953125,-0.6486874878659844,-0.094703067523241,-0.1622715329486876,-1.548441448138654,9.656694416332243,0.7217663872759789,0.0133898071944713,-0.0217121727764606,-0.018239852041006
1789309751607350000,4.675673339843749,-0.4195011310949921,-0.109445878624916,-0.0387000983376055,-1.5494304591760035,9.656623689183592,0.7205985856056213,0.0151083441451191,-0.020275929942727,-0.0053224558942019
1789309751617362000,4.68568505859375,-0.3207093329533934,-0.1177852524250745,0.0788058987546712,-1.5494614388361572,9.656734748342632,0.7190618044923991,0.0226982310414314,-0.0165419075638055,0.0020770216360688
1789309751627374000,4.695697265624999,-0.2962031065978109,-0.0774696086496114,0.1462065333325415,-1.549127969098091,9.656970895186069,0.7166037438157945,0.0317657627165317,-0.0001275152899324,0.0045950403437018
1789309751637386000,4.705709228515625,-0.3585018879920244,0.0500648843735456,0.2428858693648129,-1.5483300967186688,9.657376553377508,0.7128500173054635,0.0405407361686229,0.0149851208552718,0.0138491075485944
1789309751647398100,4.715721435546874,-0.4531212227545678,0.0351315191358327,0.2321200721353292,-1.546785497625172,9.657943539610503,0.7085020512290299,0.0417591296136379,0.0162288174033164,0.0219480469822883
1789309751657411000,4.725734375,-0.3135919021636247,-0.0040823008775711,0.0977202964525669,-1.544757352798432,9.658550273332,0.7046365349072963,0.032701414078474,0.0119950659573078,0.0235768165439367
1789309751667423000,4.735746337890625,-0.2281745493799447,-0.1199076514065265,-0.0372456617455929,-1.542337578305602,9.659156422531604,0.7016366955041885,0.0203480739146471,0.0182835888117551,0.0292328372597694
1789309751677435100,4.74575830078125,-0.2368690202280879,-0.1890647742629051,-0.2271464484412223,-1.5391795526660978,9.65977776930034,0.7000017147134989,0.007341113872826,0.0200424678623676,0.0397213362157344
1789309751687447000,4.755770263671875,-0.3417683414645492,-0.0968716437339782,-0.1351222447384149,-1.5349863387599587,9.660509590706228,0.6991063733089715,0.0013737687841057,0.0322304256260395,0.049422699958086
1789309751697459200,4.765782470703125,-0.3340937151834368,0.0060153147667646,-0.0026151509344577,-1.5309893780782815,9.661172438529134,0.6987292105596512,-0.0027633709833025,0.0235617067664861,0.0381360501050949
1789309751707471000,4.77579443359375,-0.1765732492193579,-0.0015688567519187,-0.0358260042060166,-1.5282478242851794,9.66157342054546,0.6991695747382939,-0.0051319859921932,0.0273338090628385,0.0331351682543754
1789309751717484300,4.7858076171874995,-0.2632834182925522,0.0580249034672975,-0.0205868609547615,-1.5256342807859182,9.661984923955798,0.6991933209400624,0.000997504685074,0.0517587885260582,0.0385704971849918
1789309751727496200,4.7958193359375,-0.3968262118197977,0.1082972931116819,0.1157101997166872,-1.5222760563991964,9.662589319589731,0.6981685810022056,0.0079941609874367,0.0701614916324615,0.0504687018692493
1789309751737508000,4.805831298828124,-0.358069926315546,0.0428910472214221,0.0582260520625859,-1.5182361333586274,9.663353289699554,0.6963963106326758,0.007783873938024,0.0780814960598945,0.0534500032663345
1789309751747520300,4.815843505859375,-0.3050106824316084,-0.0117868839055299,-0.0397685312867164,-1.5139840288721025,9.664160514429213,0.6944331938661634,0.0067550945095717,0.0909730643033981,0.0519192181527614
1789309751757532200,4.8258554687499995,-0.263501006565988,-0.0435369439095258,-0.0683423724073916,-1.509854089460522,9.664935005933046,0.6926303091626614,-0.0006248941645026,0.0946220606565475,0.0481311678886413
1789309751767544000,4.8358671875,-0.230623842228204,-0.0669967299520969,-0.0850433318395167,-1.505920549403876,9.665649291682245,0.6912252646703273,-0.0038566403090953,0.0986160039901733,0.0487170629203319
1789309751777556200,4.8458793945312495,-0.2779552099846303,-0.0018809914410114,0.0020902502775192,-1.5018343030035497,9.666375267869231,0.6899836671113968,-0.0035602916032075,0.1059352979063987,0.0520387627184391
1789309751787569200,4.855892333984375,-0.2986800181053579,0.0091419223546981,0.0506540093731135,-1.497270502219349,9.667173140248655,0.688705244673416,-0.0041120983660221,0.118367999792099,0.0587920062243938
1789309751797581300,4.865904541015625,-0.209064336849004,-0.0201163208335638,0.0404857396453618,-1.4926144931070506,9.668000823244451,0.6872017813079059,-0.0027986518107354,0.1196532398462295,0.0512062273919582
1789309751807593200,4.875916503906249,0.0756134593889117,-0.0751490567475557,0.1080850386004894,-1.4887906970351934,9.66871452447176,0.68544332026802,5.59906475245e-05,0.1216258406639099,0.0494890213012695
1789309751817605000,4.885928466796875,0.1572527549386024,-0.086027009114623,0.0343207142096012,-1.4849870669685303,9.669417119783162,0.6837902923639864,-0.0031545269303023,0.1133633628487587,0.0458856411278247
1789309751827617300,4.895940429687499,0.2274292839705944,-0.0684171181440353,-0.0099725279599428,-1.4813924034774302,9.670063600993156,0.6824442115172743,-0.0039103324525058,0.1036074087023735,0.0473953858017921
1789309751837629200,4.905952392578125,0.2349870058737695,-0.0121136316418647,-0.0199304428726434,-1.4772783922873436,9.670772041523456,0.6813287245560437,-0.0043667168356478,0.0930690690875053,0.0516979247331619
1789309751847641300,4.915964599609374,0.2384159574091434,0.0578980622172355,0.0392781174212694,-1.47277655082345,9.671538934242724,0.6801799929123371,-0.0007717162370681,0.0854817256331443,0.0548074319958686
1789309751857654000,4.925977294921875,0.4027794211357832,0.1092734446674585,0.0811661250799894,-1.4677502470940351,9.67238707550466,0.678992609758675,-0.0009795855730772,0.0687683001160621,0.058381587266922
1789309751867666000,4.9359892578124995,0.4909872814208268,0.1246089609652757,0.0454623590141534,-1.4628833717100322,9.673212420412897,0.6777359607610851,0.0071108313277363,0.0600291304290294,0.0520994588732719
1789309751877678000,4.946001220703125,0.5390627455428242,0.1852420011043548,0.1325437725525349,-1.4588848035931583,9.673930213293431,0.6760977651000023,0.0047713662497699,0.0625724494457244,0.0407944545149803
1789309751887690000,4.9560131835937495,0.5009517722047865,0.1745376517385244,-0.0493786556750536,-1.4560885970033703,9.67445979012549,0.6745646372485905,0.0089741004630923,0.0518670715391635,0.0259124431759119
1789309751897702100,4.966025390625,0.4995353295356035,0.1164379294693469,0.0101204119980335,-1.453774328711629,9.674949034947156,0.6725263363540173,0.018450491130352,0.0482477396726608,0.0312412995845079
1789309751907714000,4.976037353515625,0.3333868820883333,0.1221656594663858,0.1049556545335799,-1.450431740285456,9.675656890955567,0.6695686555922031,0.0249422118067741,0.044143009930849,0.0449568443000316
1789309751917726700,4.986050048828124,0.227116564759612,0.1324883160382509,-0.0544563973307609,-1.445914847382903,9.676555885621903,0.666324339908734,0.029452558606863,0.0392059721052646,0.0539454258978366
1789309751927740000,4.996063232421875,0.1323750649221241,0.1835422114491462,-0.0655150400269776,-1.4408061260670422,9.677575876319407,0.662568567571789,0.0355863496661186,0.0401178374886512,0.0579673312604427
1789309751937751800,5.0060749511718745,0.0428464774273335,0.227056943526864,-0.1085398696959018,-1.4353740180157124,9.6786531501621,0.658607628051564,0.0339300893247127,0.0356581732630729,0.057821474969387
1789309751947763700,5.0160869140625,0.0494965829662978,0.237730313232541,-0.2177553736310452,-1.430352390461415,9.679652682593463,0.6548465219523757,0.0336994603276252,0.0289193093776702,0.0497499667108058
1789309751957776000,5.02609912109375,0.0829915869414806,0.2212871279537677,-0.0922252792328596,-1.4262883558928965,9.680532388037443,0.6506726703338325,0.0449722334742546,0.0394558422267437,0.0390495359897613
1789309751967787800,5.036111083984375,0.012351824311912,0.2657014392197132,-0.0053531245309859,-1.4234342816360297,9.681308048585056,0.6453534480724483,0.0521819442510604,0.0477681010961532,0.0261734183877706
1789309751977800000,5.046123291015625,-0.0336133696578443,0.2555629070430993,-0.0948871919184923,-1.4223603687942028,9.681870358642936,0.6392690135922282,0.055953674018383,0.0501875169575214,0.0039253998547792
1789309751987811800,5.056135009765625,-0.1590795319743454,0.2288923422604799,-0.0788975956261158,-1.422889068843424,9.682204705163835,0.6330054231528193,0.0583558455109596,0.0626372620463371,-0.0048755481839179
1789309751997823700,5.06614697265625,-0.4588052597403526,0.0720090051561593,-0.0371393518269062,-1.4233365203499793,9.68256710873544,0.6264120162371546,0.055580161511898,0.0580870173871517,0.0077498932369053
1789309752007837000,5.076160156249999,-0.7040880341790616,0.0635293461024761,-0.0648924511492252,-1.4222623152472078,9.683115974789857,0.6203473093707114,0.0542970448732376,0.0505766384303569,0.0193548835813999
1789309752017848800,5.086172119140625,-0.7477810454331338,0.2005231568664312,-0.047199558070302,-1.4206174706496295,9.683788759484887,0.6135782536271959,0.0673661828041076,0.0851442962884903,0.023815544322133
1789309752027861000,5.0961843261718744,-0.6900969182275235,0.5229086063385009,-0.0097439799010753,-1.4187458315588533,9.684620534133913,0.6047029828520492,0.0882679969072341,0.107810191810131,0.0254837479442358
1789309752037873000,5.106196044921875,-0.5290244588702917,0.8001753956675529,0.1099561662346124,-1.4174614908367396,9.685530050194265,0.5930413692940026,0.1157043129205703,0.1351903975009918,0.0178522989153862
1789309752047884800,5.116208007812499,-0.3854723125040531,0.956028220680356,0.1361515877861529,-1.4175111751973628,9.686348965361711,0.5794152141973375,0.1273050457239151,0.1432099640369415,0.0003856912371702
1789309752057897000,5.12622021484375,-0.4833727147638798,0.5042068284779787,0.1343453420817852,-1.4182219538152216,9.68716145078838,0.563863315202482,0.1536772549152374,0.1506979465484619,0.0033686207607388
1789309752067909600,5.13623291015625,-0.8583030288569629,0.4243623073905706,0.3753436806669458,-1.41603861842677,9.68844564538002,0.5470228742344304,0.1318973898887634,0.1796646118164062,0.0620929189026355
1789309752077921800,5.1462451171875,-0.6255217163339257,-0.218752056518197,-0.433546936375834,-1.409998315349221,9.690063601970673,0.5338038751665503,0.1028676107525825,0.1473120301961898,0.072175458073616
1789309752087933700,5.1562568359375,0.244416366867721,-0.6110276192963123,-0.1328962392520159,-1.404706492551416,9.691487497293949,0.5218043348910286,0.1018212586641311,0.1354343295097351,0.0555661208927631
1789309752097945600,5.166268798828125,0.3942866103395819,-0.1745920122742652,0.2079647050440311,-1.4000009452089666,9.692740712225437,0.5110442002173513,0.0881662815809249,0.0955974012613296,0.0538731925189495
1789309752107957800,5.176281005859375,-0.0338973011657595,0.2838672105073929,-0.2121100612204521,-1.3949921771362424,9.693969961759448,0.5013595492880791,0.068642646074295,0.0782314613461494,0.064618781208992
1789309752117969700,5.18629296875,-0.3717025842182338,-0.4937146605581045,-0.2166981196630746,-1.389831287241727,9.695079384306071,0.4941263466315344,0.0654044523835182,0.0934528931975364,0.0522821582853794
1789309752127981800,5.19630517578125,-0.0585422053396701,-1.1264444085747003,0.3077156670739874,-1.3848619743965564,9.696189391374588,0.4862613488774746,0.0648907274007797,0.0953439995646476,0.0592737570405006
1789309752137994800,5.2063181152343745,0.2624520820349454,-0.471102431255579,0.012991583520174,-1.380544257327914,9.697158528667687,0.4791660933868959,0.0535293743014335,0.0929813086986541,0.0348571874201297
1789309752148006700,5.216329833984375,0.6752022775650024,0.0474842202305793,0.0009463409394025,-1.3807435792922973,9.697515087020395,0.471310046124272,0.0758868753910064,0.1221333369612693,-0.026187527924776
1789309752158018800,5.2263420410156245,0.7762488688960671,0.2556926709026098,0.2405582301348447,-1.3852739161983132,9.69730290557444,0.4622901061814278,0.0767858028411865,0.1225132122635841,-0.0500776320695877
1789309752168030700,5.23635400390625,0.4072381541103124,0.319617153802514,-0.0793038383394479,-1.3905068484157324,9.696974404272437,0.453398176532425,0.0741583257913589,0.1124496534466743,-0.0402726717293262
1789309752178043000,5.2463662109374996,0.2337348138555884,0.3007218991965055,-0.0378191507846117,-1.394024793408811,9.696865683200954,0.4448336156742647,0.069940760731697,0.100567802786827,-0.0251371152698993
1789309752188054800,5.2563779296875,0.2722968919619917,0.1367488960921764,-0.1004168055275455,-1.3966738466128703,9.69683528806269,0.4371012313239276,0.0607022531330585,0.0930164083838462,-0.0208009555935859
1789309752198066700,5.2663898925781245,0.3094843207143247,0.0281114112406969,-0.1461965599277987,-1.3998933931812645,9.69668623498082,0.4300590211948379,0.0658872798085212,0.075264036655426,-0.0386352278292179
1789309752208080000,5.276403076171874,0.5612267926864326,-0.1701829636603593,0.25815409258008,-1.4053325154952705,9.696262456610798,0.4217994346326217,0.0803716853260994,0.0736626759171485,-0.0633546933531761
1789309752218091800,5.2864150390625,0.7167213057808578,-0.2865332148462534,0.3504015471121296,-1.4126855086065828,9.695595517134668,0.4124508472573012,0.0907495319843292,0.0732657983899116,-0.081886388361454
1789309752228104000,5.296427246093749,0.785100283871591,-0.3048421939969062,0.2252519399315118,-1.4212097374543546,9.694751467525958,0.4029262822605669,0.0858277454972267,0.0491578020155429,-0.0884058028459549
1789309752238115800,5.30643896484375,0.5710400384314358,-0.457888729417324,0.076110558723472,-1.4298101002782582,9.693819739633796,0.3947990899063646,0.070427693426609,0.0283336546272039,-0.0820245817303657
1789309752248127700,5.316450927734374,0.1601540293380618,-0.6085007311671972,-0.0143657944828271,-1.4359642389938234,9.693149293026329,0.388909228150174,0.046645663678646,-0.0010468704858794,-0.0425887629389762
1789309752258140000,5.326463134765625,-0.2991730623193085,-0.5019505739837885,-0.2028501019766554,-1.4379698797278104,9.692992641159892,0.3854080881614238,0.0287266410887241,-0.0215826798230409,-0.0040355287492275
1789309752268151800,5.336475097656249,-0.2455352878950536,-0.3384054409027099,-0.1402513147225603,-1.4374389877215028,9.693151046591996,0.3834124938974156,0.021248485893011,-0.0317628793418407,0.0076717273332178
1789309752278164700,5.346488037109375,0.218085263172537,-0.1490145034253597,-0.1077273477366194,-1.437631733814627,9.693201315474507,0.381414634611085,0.0286059584468603,-0.0345362275838851,-0.0164673440158367
1789309752288177000,5.356500244140625,0.6357281991802156,-0.0697813922345638,0.1008154129236936,-1.4409281450115143,9.692826052421331,0.3784738319188356,0.0429345667362213,-0.0423321016132831,-0.0516652762889862
1789309752298188800,5.366511962890625,0.6085258656084537,0.1750567071765661,0.1464332912931218,-1.4473944184161722,9.692048053786158,0.3737071289736777,0.0637807920575141,-0.0347354933619499,-0.0845958516001701
1789309752308201000,5.376524169921875,0.3819406312465667,0.4938058459728956,0.0795136816978454,-1.4570868142604827,9.690828741124273,0.3676031130101531,0.0700059309601783,-0.03725191578269,-0.1169071868062019
1789309752318212900,5.3865361328125,0.3635264381557703,0.3775298290669918,-0.2802174923608079,-1.4694978214137255,9.6891891572237,0.3613208178702741,0.0660244151949882,-0.0412612110376358,-0.137746050953865
1789309752328225000,5.39654833984375,0.3316284941136836,0.264758020889759,-0.485571101590991,-1.4829402174413204,9.687339729964732,0.3559850098002702,0.05775823071599,-0.0507082417607307,-0.1420939266681671
1789309752338237700,5.406561035156249,0.2330709431193768,0.0894470466911792,-0.4323977298080921,-1.4960123188517986,9.68547978131175,0.3518927355179563,0.0454403944313526,-0.0582922585308551,-0.1295269131660461
1789309752348249600,5.41657275390625,0.0107606095977127,-0.124919926610589,-0.214953285289742,-1.507734905349463,9.683769470262527,0.3488789771873504,0.0339001193642616,-0.059819046407938,-0.1163277626037597
1789309752358261800,5.426584960937499,-0.0523939118430018,-0.3112871323525905,-0.1588263243982568,-1.518352014823258,9.682191845682263,0.3466215901819989,0.0306434258818626,-0.0547783449292182,-0.1065088585019111
1789309752368273700,5.436596923828125,-0.0614331044755876,-0.348621714490652,-0.1916431368509307,-1.5277181013226508,9.680770288446546,0.345171574036777,0.0129203535616397,-0.0596745647490024,-0.0877399668097496
1789309752378285800,5.4466091308593745,-0.2339196689032018,-0.4536176279693841,-0.3786293147414922,-1.534497386199236,9.679673725381493,0.3458586064528673,-0.0066261021420359,-0.0718442723155021,-0.0550748668611049
1789309752388297700,5.456620849609375,-0.5008402746543288,-0.2734539530426264,-0.3580652866730466,-1.538720118460804,9.678924952840804,0.3480396768189966,-0.0130216823890805,-0.0650215223431587,-0.0396098904311656
1789309752398309600,5.466632812499999,-0.4929362235315144,0.0014279869765043,-0.2036632084578275,-1.5419855499975383,9.678329325035214,0.3501582033429294,-0.0126543752849102,-0.0495279990136623,-0.0329025536775589
1789309752408322800,5.47664599609375,-0.3178600810021161,-0.0421755924284458,-0.1032978408565744,-1.5440806225806474,9.677940617978573,0.3516963361630216,-0.0082023683935403,-0.0400988087058067,-0.0099876495078206
1789309752418334700,5.486657958984375,-0.2135349063917994,-0.3094131551742553,-0.1664391009569168,-1.5447069377854463,9.6777746137619,0.3534863248523324,-0.0176516082137823,-0.0552186965942382,-0.0096459034830331
1789309752428347000,5.496670166015624,0.191341048631817,-0.3644926528394222,-0.3611608415355906,-1.5460102754689753,9.677489367079737,0.3556239944681525,-0.0123378038406372,-0.0382485017180442,-0.0226999204605817
1789309752438358800,5.50668212890625,0.0782427849791944,-0.1897317137390375,0.0293616670301184,-1.5484322419188916,9.677054482793809,0.3568533536000177,-0.0026038708165287,-0.0238830856978893,-0.0223543047904968
1789309752448370700,5.51669384765625,-0.4053383118383586,0.2061766525834798,0.1270043682018294,-1.5499762564904986,9.67678969437778,0.3573724455706775,-0.000845918431878,-0.0253741890192031,-0.0170096065849065
1789309752458382800,5.5267060546875,-0.253140940593183,0.338837987101078,0.124716512992978,-1.5514885607495903,9.676556470143794,0.3571162057872861,0.0024537821300327,-0.0144608467817306,-0.0131672071292996
1789309752468395800,5.5367189941406245,-0.1371520700655877,-0.0350181218892335,-0.008056428672932,-1.5528551729276776,9.67631973877847,0.3576093961317092,-0.0112415235489606,-0.0134959835559129,-0.0122936898842453
1789309752478408000,5.546731201171875,-0.1351698102071881,-0.2599965055763721,-0.3240477931937202,-1.5537899695597588,9.676093528807163,0.3596615063559263,-0.0251864101737737,-0.0145308636128902,-0.0068765454925596
1789309752488419800,5.5567431640625,-0.2867299064621329,-0.3270078485757112,-0.1784872661471366,-1.5541118949905035,9.675916418674587,0.3629901027893647,-0.040929690003395,-0.0138427028432488,-0.0003901501186192
1789309752498431700,5.5667548828125,-0.4660552308686077,-0.0681090751081705,-0.0176619499513879,-1.5543515489652753,9.675740477585792,0.3666166227234527,-0.0287556611001491,0.0031899772584438,-0.0070816231891512
1789309752508444000,5.57676708984375,-0.4092579695001244,0.1458534090459346,0.4108902103444561,-1.5556332593388855,9.675460491600631,0.3685716657813638,-0.0162230916321277,0.0216568689793348,-0.017034389078617
1789309752518455800,5.586779052734375,-0.2855472725488245,0.1210708499670028,0.4597516006797552,-1.5576887305639684,9.675104517769814,0.3692410164102911,-0.0077486862428486,0.0348784998059272,-0.0216066054999828
1789309752528468000,5.596791259765625,-0.00247106628865,-0.1134966153204441,0.2804290527522564,-1.5607929801896214,9.674591307550669,0.3695964787844568,-0.0073891603387892,0.0314475521445274,-0.0275020450353622
1789309752538480600,5.606803955078124,0.1600998149327933,-0.1953273417890071,0.1511106354543939,-1.5635510467261076,9.67412252099514,0.3702268856424838,-0.0110433865338563,0.0240841098129749,-0.020578596740961
1789309752548492500,5.616815673828125,-0.0468193265810608,-0.1010223336726427,0.1065881876388564,-1.5653763624571262,9.673789928039907,0.3712042427746579,-0.016477033495903,0.0118026752024889,-0.0099091753363609
1789309752558504700,5.626827880859374,-0.2313559558950364,0.0641588761776685,0.0570797315716743,-1.5659413028635083,9.67365782609284,0.3722307362781837,-0.0205443762242794,0.0021668940316885,0.0044303210452198
1789309752568516600,5.63683984375,-0.2738914676770568,0.1258703592032194,0.0632592604568228,-1.5659028705492617,9.673595866772532,0.3739817811965942,-0.0214799456298351,-0.0087368860840797,0.0096104349941015
1789309752578528800,5.646852050781249,-0.0462330511257052,0.1057908632487058,0.1139700415184721,-1.5661118371248244,9.673474870741368,0.3762427118659019,-0.0199564527720212,-0.0192865338176488,0.0035115592181682
1789309752588540700,5.656864013671875,0.12182678290084,-0.0069610711842775,0.1214262758085504,-1.566877268539369,9.673252167901396,0.378812233560346,-0.0131243802607059,-0.0172548070549964,-0.0120916357263922
1789309752598552600,5.666875732421874,0.1047379931949079,-0.0772398915469646,0.1301187008300796,-1.5686428169071671,9.672902039289474,0.3804443282742053,-0.0054161245934665,-0.0033783686812967,-0.0198341645300388
1789309752608565800,5.676888916015625,-0.0773608875781297,-0.1226601649850606,0.1015957496464252,-1.570747680231929,9.672532036933305,0.3811349774194881,-0.0009055291302502,0.012981429696083,-0.0204986240714788
