time,seconds_elapsed,acc_x,acc_y,acc_z,grav_x,grav_y,grav_z,gyro_x,gyro_y,gyro_z
1790592437490172700,0.0,1.2882101108931003,-0.3798381060093641,1.462295196558535,-1.1987268238447606,8.993875819522142,3.7207021926075217,1.0356440544128418,0.0295817572623491,-1.116603136062622
1790592437500185600,0.01001293945312498,0.6455697942368686,-0.0528968929290771,1.6719956393539903,-1.286617142613232,9.021726534000038,3.622631402216852,1.1715511083602903,-0.3495613038539886,-0.9645100235939026
1790592437510198500,0.02002587890624996,0.0785053814381361,0.2819903107196092,1.652232954263687,-1.3484797245472668,9.053151599833368,3.520290094900131,1.246327519416809,-0.7642381191253662,-0.8477639555931091
1790592437520211700,0.03003906249999999,-0.1194692599892616,0.4457996476948261,1.3826394760414955,-1.3893265525899827,9.085366939261554,3.419979416628182,1.2055132389068604,-0.971747100353241,-0.7497681975364685
1790592437530224600,0.04005200195312497,-0.1829974370479583,0.0402297190576791,-0.1491121185809373,-1.4323404955387116,9.10891265002191,3.3386379349812865,0.7406337857246399,-0.0676425322890281,-0.5499624013900757
1790592437540237600,0.05006494140624995,-2.022897281475365,-1.0273054044306278,-4.5516982584744685,-1.4747320688053964,9.12120397631824,3.286212751217186,0.3357728123664856,0.4484208226203918,-0.2330440729856491
1790592437550249500,0.060076904296874956,-2.750777548521757,-0.5160141706496477,-4.042789243654907,-1.4947406914807857,9.126161306464672,3.2633269656702875,0.0004222579300403,0.6431367993354797,0.2369876056909561
1790592437560262700,0.07009008789062499,-3.881863645422458,-0.3368359996289015,-3.911162220621109,-1.4633413446106016,9.132085435816643,3.260986832284927,-0.0648270547389984,0.182741492986679,0.7631092071533203
1790592437570275600,0.08010302734374997,-3.841937293225527,0.2084206321179866,-2.457714055123925,-1.366947547521442,9.14632322000563,3.262914000955224,0.1197590380907058,-0.6689805388450623,1.142463207244873
1790592437580288800,0.0901162109375,-2.408471446918696,-0.5189800347179174,-0.8369517594009638,-1.2142548670399933,9.17491686180532,3.242974790254235,0.6355675458908081,-1.58741557598114,1.3171452283859253
1790592437590301400,0.10012890624999993,-0.7791426906414329,-3.069932345509529,0.7106932776629924,-1.0408995569538324,9.215099819111824,3.1888626763165,1.006404995918274,-2.114814519882202,1.097939372062683
1790592437600314600,0.11014208984374996,1.4661457345068454,-3.176108993205428,-0.0725686848655343,-0.8934826249182224,9.261719531467556,3.097193569661677,1.3795175552368164,-1.8354706764221191,0.6723505258560181
1790592437610327600,0.12015502929687494,2.2280064509578046,-2.523462246319652,0.9153595256835222,-0.8060003024287521,9.3114728656739,2.969382305523753,1.6067140102386477,-0.8991695642471313,0.3318235576152801
1790592437620340500,0.13016796874999992,1.1447819562327115,-1.7961679624676703,0.4427180482923984,-0.7651513554941862,9.3615459333539,2.8189328008592125,1.7099764347076416,-0.4103333055973053,0.1658577620983123
1790592437630352400,0.1401796875000001,-0.2244901617787778,-0.4999538472086191,-0.7558098919793963,-0.7478549874521792,9.410275769731404,2.656656664800644,1.779194951057434,-0.2410923391580581,0.0110146570950746
1790592437640365600,0.1501928710937499,-0.0127747258991003,-0.1556102484285831,-0.6148372407123446,-0.7535193698894233,9.455736375179889,2.488299747523665,1.8166406154632568,-0.0828654244542121,-0.2247070521116256
1790592437650378800,0.16020605468749993,0.4746601968023926,-0.5915209547936916,-0.0066810851991176,-0.7836618485663086,9.49765185536742,2.313195109552145,1.8689674139022827,0.0945956408977508,-0.3890070617198944
1790592437660391700,0.1702189941406249,0.3635364480931312,-0.9774819275975228,0.9641676879942416,-0.8248691804844885,9.536153727719189,2.1334800551757214,1.86228609085083,0.2685352265834808,-0.3664468824863434
1790592437670404600,0.1802319335937499,0.1577157693404704,-0.8779916257977485,1.532571240442246,-0.8592167827010154,9.571187631699445,1.9556306485407051,1.7700520753860474,0.5054334998130798,-0.1732414662837982
1790592437680417500,0.1902448730468751,0.0533794888142496,-0.4410772953480482,1.4795178417772057,-0.8759373966816812,9.60174175991714,1.7915598841503262,1.5070475339889526,0.7733059525489807,0.0714172795414924
1790592437690430700,0.2002580566406249,-0.0903528364244848,-0.0298141235053539,0.3662039868019521,-0.8736126069959252,9.625922845971584,1.6579435869954526,1.1135064363479614,0.7311177849769592,0.2494810223579406
1790592437700443400,0.21027075195312506,0.0005238046783953,0.2070388223707676,-0.841772311425209,-0.8503158294953406,9.642706807512043,1.5702083126582205,0.6137024760246277,0.0303370282053947,0.3697046339511871
1790592437710455600,0.2202829589843749,0.0895683349832892,-0.1025543655455112,-1.6901931209541856,-0.802741081437096,9.651229136663677,1.5426500052556396,0.0273257754743099,-0.8402737379074097,0.4845563769340515
1790592437720468500,0.2302958984375001,-0.0115600894123315,-0.370668126603961,-1.9367343710213896,-0.7319890906047075,9.651790862199665,1.5740126733772457,-0.4788780212402344,-1.3169848918914795,0.6226338148117065
1790592437730481700,0.2403090820312499,-0.2028852828878909,-0.0996399394035339,-0.8689367972046136,-0.644213118930906,9.64637000619471,1.6440594385497271,-0.7450902462005615,-1.276828408241272,0.7434098124504089
1790592437740494600,0.2503220214843749,0.0235002276508137,0.3709001817941665,0.8194178562760353,-0.551870569993928,9.638059858489036,1.7244214076399802,-0.7576255202293396,-0.8839618563652039,0.7716020345687866
1790592437750507500,0.2603349609375001,0.109344683272764,0.7771142535537481,2.3149736635319886,-0.469971235268563,9.629432315397262,1.7954215280145405,-0.6442840099334717,-0.2982144951820373,0.6930329203605652
1790592437760520700,0.2703481445312499,0.0081521075997501,1.300265436476469,2.721349793985486,-0.4106773347787559,9.621333180093764,1.85247320253551,-0.5447430610656738,0.2539277970790863,0.5220888257026672
1790592437770533600,0.2803610839843751,-0.1192613893922418,1.8752572812736032,1.9719358866535128,-0.3796303084775805,9.61346843806803,1.8993381218239664,-0.4598428010940552,0.6596382856369019,0.3004587292671203
1790592437780546600,0.2903740234375001,-0.1192617912510409,2.425762919589877,0.6185773040235042,-0.3781336036464199,9.606596214210986,1.9340908707752824,-0.309036523103714,0.8411430716514587,0.0324323326349258
1790592437790558500,0.3003857421875,-0.1867913859708234,2.647028420233726,-0.1336037299342453,-0.4044267499513924,9.602904373955726,1.9470619960293167,-0.0151891922578215,0.8810111284255981,-0.2216026037931442
1790592437800571600,0.31039892578125006,-0.1988202619386836,2.3066660000443457,0.367161872048676,-0.450606901846081,9.604338790673015,1.9297753456637263,0.2822198569774627,0.7328680157661438,-0.3968005180358886
1790592437810584600,0.32041186523437504,0.0384206603417173,1.5605945350080728,0.7724671584002674,-0.5031950576195493,9.608654900306462,1.8949727662213145,0.3372141420841217,0.5137985348701477,-0.4287323653697967
1790592437820597800,0.33042504882812507,0.0583250554576516,1.1079869608640671,0.1725914861068129,-0.5479392949596047,9.611603228718042,1.867418112080544,0.1689715981483459,0.3937993943691253,-0.3115106523036957
1790592437830610400,0.340437744140625,-0.2042665811784565,1.044032082825899,-0.3236173293545842,-0.5744475453199819,9.61211176276207,1.856804509738088,0.022710520774126,0.4717410802841186,-0.0643916800618171
1790592437840623600,0.35045092773437503,-0.4072960948426276,1.0119698881328103,-0.1056073233753442,-0.5771696637602522,9.613646717244386,1.8479874354235828,0.1310985088348388,0.5890074968338013,0.2077487558126449
1790592437850636500,0.3604638671875,-0.3914502178698777,1.0893915659874678,0.4817646950453519,-0.5597961022961885,9.620471010306478,1.8175668704576788,0.4325931072235107,0.699531614780426,0.3840510845184326
1790592437860648700,0.37047607421875006,-0.5200066743519157,1.1305769783347843,0.6161123752146959,-0.5317960059428587,9.633305357438326,1.756990382811427,0.734876275062561,0.6970519423484802,0.4466481506824493
1790592437870661400,0.38048876953125,-0.6343875982262194,1.5893044966638088,0.1751420473724603,-0.5003142780188471,9.649975921732189,1.67273301371783,0.9218573570251464,0.543302059173584,0.4206634163856506
1790592437880674600,0.390501953125,-0.708746089117974,1.5468413194656372,-0.1486680280752479,-0.4715953293390572,9.666700846561788,1.5820466344900428,0.8729321360588074,0.2830691635608673,0.2988855838775635
1790592437890687700,0.40051513671875005,-0.4504537936436012,1.268789517238736,-0.3107148854225873,-0.4544047962917015,9.679146486636997,1.509311799277365,0.5964419841766357,0.0904879868030548,0.1102895811200141
1790592437900700700,0.41052807617187503,-0.3640941550411283,1.2598229514509438,-0.2171516355842351,-0.4530767625583335,9.68601812597215,1.464979759467393,0.3147700726985931,0.1944426149129867,-0.0371645875275135
1790592437910713600,0.420541015625,-0.2067301582803949,1.3350100021213291,0.5693192059881985,-0.4678361594686284,9.688793435904383,1.4418101885430514,0.1569048166275024,0.4916231632232666,-0.1638247966766357
1790592437920726500,0.430553955078125,0.3531902279825881,1.368808226826787,0.594429535716772,-0.4965431254496797,9.69060779184997,1.419842248493433,0.2630349695682525,0.7374758124351501,-0.2351844608783722
1790592437930739700,0.440567138671875,0.3154295293869451,1.0565513726592064,0.2832598922640085,-0.5309077153336257,9.694461544668671,1.3805603316798805,0.4614894688129425,0.7816400527954102,-0.2357597053050995
1790592437940751600,0.45057910156250003,0.0987691844509914,0.5983411562025547,-0.5083906900338828,-0.5583063021298498,9.701066642022132,1.3221199792794882,0.6649986505508423,0.6987268328666687,-0.1003960222005844
1790592437950764500,0.4605920410156248,0.1116917213229462,0.3439320953696966,-0.6990585155792534,-0.5658419217990711,9.710816467142104,1.245086131698638,0.8230804204940796,0.6121506690979004,0.1193917319178581
1790592437960777500,0.47060498046875,-0.1247872401416301,0.0172223529577255,-0.0793517691344022,-0.5535200907666236,9.7216418125391,1.163476500634849,0.7664368748664856,0.4384997487068176,0.2567368149757385
1790592437970790700,0.4806181640624998,-0.1907629930155351,-0.1304074181109666,-0.0292588277101516,-0.527796634108387,9.730857384651898,1.0964741446595638,0.5614592432975769,0.2458086013793945,0.3467527031898498
1790592437980803600,0.49063085937499995,-0.5976286970842629,0.0012175590962171,0.3590507540464401,-0.4944264255566522,9.73749696879685,1.0521814139466732,0.3339253962039947,0.1306623071432113,0.3658558428287506
1790592437990815700,0.50064306640625,-0.3991436219166964,0.3125269032806158,0.5132423678487539,-0.4641156776407733,9.741773330941797,1.0260798081584277,0.2069165706634521,0.1644330620765686,0.2718473076820373
1790592438000828400,0.5106557617187502,0.2410319120611995,0.2661339854180812,-0.1035317592103034,-0.4448383283820003,9.744920981317758,1.004499917578325,0.2354422211647033,0.2587672770023346,0.1830460727214813
1790592438010841600,0.5206689453125,0.5409905352676287,-0.3475380109071731,-0.6289976488161831,-0.4274156305465847,9.748819157800078,0.973762614813447,0.3565729260444641,0.2990965843200683,0.2428532093763351
1790592438020853500,0.530680908203125,0.2224041127523407,-0.8932587530344724,-0.5083787073351442,-0.4022685490041971,9.753149880480766,0.9405318877976389,0.2729432582855224,0.1577842086553573,0.3123180568218231
1790592438030866700,0.5406940917968748,0.4964183665588498,-1.2380962728112934,-1.184398000371456,-0.3702738665893674,9.756067229232192,0.9232805279411376,0.0796158835291862,-0.0282527804374694,0.3492774069309234
1790592438040879400,0.5507067871093749,0.6598987638406455,-1.2761036396443843,-1.3013029628306627,-0.3350354530129582,9.7575630207479,0.9209241740733384,-0.0084676397964358,-0.1084173917770385,0.3561254441738128
1790592438050892500,0.5607199707031252,0.3206857694147154,-0.8564426418125629,-0.4727558975510298,-0.3004846198419109,9.758534496128558,0.9225663883224128,-0.0167588591575622,-0.1096751987934112,0.3127683699131012
1790592438060905700,0.570733154296875,0.1152409930360503,-0.4308645288914441,0.0405835009314119,-0.2762510546815581,9.758974641111491,0.925477234267816,-0.0447566695511341,-0.0704180747270584,0.1574986428022384
1790592438070918700,0.5807460937500002,0.3383999610099941,-0.7219716275244951,0.3649012336403131,-0.2691176956702955,9.758436296451093,0.9332051981713624,-0.1089090257883071,-0.1109460592269897,-0.024862116202712
1790592438080931600,0.590759033203125,0.6849710996463895,-1.1531623196303844,0.3784194713830948,-0.2749640470783226,9.757025260609389,0.946172377902642,-0.1425170600414276,-0.2448617815971374,-0.1080092042684555
1790592438090944500,0.6007719726562502,0.8346115529503673,-1.3150912496864795,0.0595211333744227,-0.2811020749093033,9.75539853619039,0.9610070320062338,-0.1311440169811248,-0.6305548548698425,-0.0983965173363685
1790592438100956700,0.6107841796875002,0.6855559137970209,-1.4386831425637006,-0.3593611351698637,-0.282133007125929,9.754044198971986,0.9743717596877366,-0.0965900421142578,-1.0411416292190552,-0.0906840041279792
1790592438110969600,0.6207968749999999,0.4205762129805981,-1.6503572235196828,-0.4216425270378589,-0.2788694204864092,9.75308324498534,0.9848785406548528,-0.0451020821928978,-1.101392388343811,-0.0575244538486003
1790592438120982500,0.6308098144531251,-0.107477007971052,-2.117483736881613,0.2197229473769664,-0.272303212104924,9.752892106327414,0.9886006299179046,0.0205898433923721,-0.9416182041168212,-0.0204247571527957
1790592438130995500,0.6408227539062499,0.2834164893315173,-1.551171457624435,0.6907733561843633,-0.268901605234202,9.75310779490471,0.987412369981408,0.0497519895434379,-0.7785837650299072,-0.0986087769269943
1790592438141008600,0.6508359375000001,0.9676294458206742,-0.6898182474166155,0.4372871823500842,-0.2800446382782421,9.75336732262373,0.9817262871690092,0.1110686138272285,-0.7024402618408203,-0.2858114242553711
1790592438151021600,0.6608488769531249,0.7491665084421634,-0.2200087785810232,0.2325309910237789,-0.3102793435495347,9.75371978932321,0.9690587479714304,0.1959475427865982,-0.8595095276832581,-0.4805563986301422
1790592438161034500,0.6708618164062501,0.1223070406984537,-0.238853179782629,-0.0739245564538985,-0.3528985515596345,9.754008543136717,0.951399099574983,0.2082963585853576,-0.8757877945899963,-0.5558740496635437
1790592438171047700,0.6808749999999999,-0.1227688860565423,-0.9131523710280656,-0.5240811572492122,-0.404853268267773,9.753592363551258,0.9348365987654776,0.2079144567251205,-0.7639965415000916,-0.6834977865219116
1790592438181059600,0.6908869628906249,1.0150644931472836,-1.5256184986948966,-0.4114794449418782,-0.4705332530654966,9.75269395340681,0.9132141842179,0.297216385602951,-0.7029739618301392,-0.7841032147407532
1790592438191072800,0.7009001464843752,0.5184081165814772,-0.6349474240660667,-0.3972878379821777,-0.5387587941601872,9.751917123815415,0.8833105557981878,0.3728437721729278,-0.3366484344005584,-0.682937741279602
1790592438201085400,0.7109128417968749,-1.8175379366241395,0.2916770074754953,-0.5200924529392272,-0.5863902043091133,9.753045835584402,0.839419099362567,0.5472224950790405,-0.0891933664679527,-0.2823887169361114
1790592438211098600,0.7209260253906251,-3.5796430321007966,2.0934248159021136,0.7311667413711548,-0.5790851419927552,9.758172677078845,0.7830160980086773,0.5884612798690796,-0.0890721902251243,0.4417359530925751
1790592438221111600,0.7309389648437499,-5.183326767250895,3.2313463117808103,1.2584119156092404,-0.5020042769324035,9.76677391668558,0.7269799572058021,0.5686353445053101,0.0626017600297927,1.081578254699707
1790592438231124700,0.7409521484375001,-4.7370942810967565,3.001962386611104,1.549954483050108,-0.3833548454260453,9.776340201932191,0.6682736473456025,0.6239718794822693,0.1561841815710067,1.3158642053604126
1790592438241137400,0.7509648437499998,-1.8852697028525167,5.254362543460727,0.8292909424494952,-0.2536502783548087,9.784664378163216,0.6052849109258502,0.6351209282875061,0.1106446534395217,1.34155011177063
1790592438251150600,0.7609780273437501,-0.3680639354549348,4.8298617043823,-0.8120236543714999,-0.1251415791377891,9.79033014883995,0.5515048419540748,0.4223640859127044,0.065557986497879,1.2793762683868408
1790592438261163800,0.7709912109374999,0.7982921392042189,3.2105157051980493,-2.42885328682065,-0.008055918928745,9.792543148714303,0.5257622422039508,0.1155367791652679,0.0551365055143833,1.0983524322509766
1790592438271175700,0.7810031738281249,2.223080684993416,1.9682640662729736,-2.777731021898985,0.0888202656954992,9.792203541496397,0.5246375490229577,-0.083873264491558,0.0882752835750579,0.8946047425270081
1790592438281188600,0.7910161132812501,2.062717542949319,1.1723229471743106,-1.9431822319865224,0.1670323541423305,9.79042717947364,0.5385337532326578,-0.186005488038063,0.150906965136528,0.7228803634643555
1790592438291201500,0.8010288085937498,1.2104274177063257,0.4915232879936694,-0.9348207436092196,0.2290862208647653,9.78812942392528,0.5571351394586265,-0.166898638010025,0.1416671276092529,0.5515741109848022
1790592438301214700,0.8110419921875001,1.618123763912916,0.2404880875080823,0.152372545148991,0.2710509104888886,9.786278827622532,0.5706760274246334,-0.1014751642942428,0.2109548598527908,0.3222543597221374
1790592438311227600,0.8210549316406248,2.3279745994023977,0.5685621040105819,0.7513456791121512,0.2923296261653303,9.7851641443789,0.5792317473892122,-0.0688184201717376,0.1040177568793296,0.1465270072221756
1790592438321240600,0.83106787109375,1.5506977026328443,0.957404769730568,0.1397422326892614,0.3024144371270202,9.784479669246076,0.5855511962017044,-0.0507818907499313,0.0020543774589896,0.0703491419553756
1790592438331253500,0.8410808105468748,0.4109945109691471,-0.080001172953844,0.4371983715554699,0.3053206068973056,9.784298467460276,0.5870708069844172,0.0204400904476642,-0.0368964821100235,-0.0209144502878189
1790592438341266700,0.851093994140625,0.8758063907131552,-0.1463216110795736,0.6946510744005441,0.2983999225223436,9.784928582057356,0.5801115258984267,0.1252730339765548,-0.0536807887256145,-0.1236496195197105
1790592438351279600,0.8611069335937498,1.0159716711200772,-0.0971475380659103,0.9107593384116888,0.283182096053753,9.786482241240144,0.5612254775121808,0.2564952373504638,-0.0903474614024162,-0.191935196518898
1790592438361291500,0.8711188964843748,0.6427378587465733,-0.24677754304111,1.2737030082434415,0.2622704235914163,9.788868259593844,0.5288317127771676,0.4005496203899383,-0.170259341597557,-0.2492989003658294
1790592438371304400,0.8811318359375,0.8131658101439475,-0.1619967345952987,1.3040467085808516,0.236541907165572,9.791924724555017,0.4823267493749037,0.5357804298400879,-0.2286475449800491,-0.2918378412723541
1790592438381317600,0.8911450195312498,0.7098918250869959,0.3277098593652248,1.2043319503754375,0.2090326630691066,9.79527403498292,0.4234260859863832,0.6539211869239807,-0.3034775853157043,-0.2859322726726532
1790592438391330600,0.901157958984375,-0.0078593351982533,0.2558130824118853,0.9130489106535912,0.1853295149910263,9.798486567288636,0.354531449991092,0.7314742803573608,-0.3244560956954956,-0.2086742371320724
1790592438401343500,0.9111708984375002,-0.7815143151436,0.1049883146941661,0.7320283266365528,0.1702447403175756,9.801170691806078,0.2801205165260471,0.7704429626464844,-0.3695636391639709,-0.1260949373245239
1790592438411356700,0.92118408203125,-0.6503050791304558,-0.1413882463306188,0.2326508180111646,0.1626361650099977,9.803189045891164,0.2035426142854615,0.7653486132621765,-0.4104908406734466,-0.0484664514660835
1790592438421369600,0.9311970214843748,-0.5102215952554717,-0.4336579590022563,-0.289819963165652,0.1632120469355024,9.80441478829384,0.1312039479166735,0.6875076293945312,-0.3891136646270752,0.0478009618818759
1790592438431382800,0.941210205078125,-0.8714039179705083,-0.4442541718184947,-0.9053700465887784,0.1754394411501474,9.804834475010631,0.0694945655166637,0.5437563061714172,-0.3288279473781585,0.1950519233942031
1790592438441395500,0.9512229003906252,-1.5783173848338423,-0.4899421562820673,-1.549767436045408,0.199556503791362,9.804582546076178,0.0264564927736762,0.3168818950653076,-0.1991402506828308,0.2840747535228729
1790592438451407600,0.9612351074218748,-0.8945445550613105,0.0361912573218345,-2.388975449940562,0.2288068924667313,9.803977565920352,0.0082412494712159,0.0438814982771873,-0.1160962283611297,0.307866096496582
1790592438461420500,0.971248046875,-0.1341918320205062,0.1964724201709032,-2.9696482629835605,0.2591392128936015,9.803210088679194,0.0174477261037507,-0.2286208570003509,-0.0103516923263669,0.3094685077667236
1790592438471433700,0.9812612304687498,-0.026465251468867,-0.0960246715158224,-2.728698987704515,0.288929626729805,9.80226783939302,0.0495873482559807,-0.4127691388130188,0.0461930744349956,0.2961625754833221
1790592438481446400,0.9912736816406249,0.1413276387171819,-0.1604004053145647,-1.8139672385305168,0.3158151311710476,9.801101133701204,0.0950800110768526,-0.497636079788208,0.0579725056886673,0.2491433918476104
1790592438491459600,1.0012868652343752,0.3982516780456527,-0.0727577776968479,-0.7852075436383485,0.3369178692260757,9.799800572496652,0.1441601221967488,-0.4885997176170349,0.0691255554556846,0.1805422306060791
1790592438501472800,1.011300048828125,0.6564939238332211,0.0721387690156698,0.1784633007496595,0.3507167505411431,9.798556125393509,0.1888972174099646,-0.4113216996192932,0.0606407262384891,0.1022479534149169
1790592438511485700,1.0213129882812502,0.7295342447984963,-0.0081651862770318,0.8738280763775109,0.3571340337049216,9.797606861844658,0.2230157235783524,-0.2751595973968506,0.032020267099142,0.0333186946809291
1790592438521498600,1.031325927734375,0.6188079709742218,-0.0314712430626153,1.3491110081881283,0.3580263063695281,9.79712053963244,0.2421353432584553,-0.1131342127919197,0.0019862006884068,-0.0112873902544379
1790592438531511600,1.0413388671875001,0.3071871131552383,0.1045680434554815,1.5934113474607468,0.3561563112465664,9.79710125041008,0.2456350036761723,0.0405083410441875,-0.0210717152804136,-0.0227291285991668
1790592438541524700,1.05135205078125,-0.143476048922725,0.0873690713733434,1.541288946035504,0.3549139830352738,9.797391757789253,0.2356576168780215,0.1509539037942886,-0.03591750562191,-0.0025631408207118
1790592438551536600,1.061364013671875,-0.53825102730114,-0.0323871888637542,0.9212515063315628,0.3561419904602691,9.797736625704168,0.2188375063119456,0.1809815764427185,-0.0423413179814815,0.0235747192054986
1790592438561549600,1.0713769531250001,-0.4894954354278742,-0.0296358443289995,0.0626899726688861,0.3590115180145949,9.797979202288388,0.2027669902704656,0.1385640799999237,-0.0266931150108575,0.0301042571663856
1790592438571562500,1.081389892578125,-0.1157405583223327,-0.0312602306604385,-0.5874234563469887,0.3611462650209665,9.79810662806034,0.1925299478891305,0.0647684037685394,0.0030530628282576,0.011485300026834
1790592438581575700,1.0914030761718752,0.1519613705322146,-0.073650927144289,-0.8789473190873861,0.3612956834290176,9.798150467202069,0.1900157000458799,-0.0125982873141765,0.0214480496942996,-0.0064524211920797
1790592438591588600,1.101416015625,0.040630993334949,0.0802507638007402,-0.8806172981262207,0.3609962986236438,9.798075063878295,0.194379064620845,-0.0716261863708496,0.0374624356627464,0.0026023262180387
1790592438601601500,1.1114289550781251,-0.2733503465376794,0.119511345565319,-0.6065151103079318,0.361935917561315,9.797871650260689,0.2027930380271747,-0.0896078497171402,0.0558289252221584,0.0169730093330144
1790592438611614700,1.121442138671875,-0.2292166788440197,0.0603255816251039,-0.0596644691015593,0.3635913566181436,9.797651285508277,0.2103495908865705,-0.0546711720526218,0.0454567112028598,0.0184398796409368
1790592438621627600,1.1314550781250001,-0.0190673597699031,0.0477162754207849,0.4444143308162689,0.3650295361950993,9.797540810871125,0.2129438268971629,0.0052499515004456,0.0236265137791633,0.010789948515594
1790592438631640600,1.1414680175781249,0.085620474140346,-0.0901321063458919,0.600572860777378,0.3656866118643432,9.797573544096949,0.2103135149261914,0.0453643463551998,0.0202456321567296,0.0039906320162117
1790592438641652500,1.1514799804687499,0.1035495140627026,-0.008375614157319,0.3954056774973869,0.3660133230680599,9.797667652121186,0.2052394630649127,0.0548183023929595,0.0138886664062738,0.0068993368186056
1790592438651665700,1.1614931640625001,-0.1116818940486758,0.0907873553842306,-0.0081394855801947,0.3671132106013596,9.79771324482858,0.2010223568265326,0.0310131050646305,0.0215338021516799,0.0133228814229369
1790592438661678600,1.171506103515625,-0.0689206472193822,0.0319873758912086,-0.3009831804811954,0.3680462171351537,9.797706815087794,0.1996783400727435,-0.0040700468234717,0.0267554633319377,0.0066644460894167
1790592438671691800,1.1815192871093751,0.0640143166078254,0.0685679247915744,-0.3908037366598844,0.3688872345365583,9.797637256982922,0.2015121131048537,-0.0301426611840724,0.0223426055163145,0.0115340361371636
1790592438681704400,1.1915317382812498,-0.0571865164143964,0.0597170943379402,-0.2709212196946144,0.3703780210835859,9.79751041573286,0.204930780708231,-0.0334060974419117,0.0239508878439664,0.0177535824477672
1790592438691717600,1.201544921875,-0.0498104712210595,-0.0829354728400707,0.0231441259558312,0.3718304849142208,9.797407539880275,0.2071483288935385,-0.0073137772269546,0.0110598560422658,0.0107851549983024
1790592438701730600,1.2115578613281248,0.1053466631451621,0.0061228667944669,0.2777186247497797,0.3728951184710487,9.797384743526578,0.2063591147446073,0.0199713725596666,-0.0043436004780232,0.0130046335980296
1790592438711743500,1.22157080078125,-0.0611768646921962,0.0146580554276704,0.2530073590750806,0.3745178973672911,9.797377144742011,0.203686589333415,0.0311918035149574,-0.006854694802314,0.0184494666755199
1790592438721756700,1.2315839843749998,-0.0648967985307797,0.020505612412095,0.0026800145979039,0.3762926154222339,9.797366623347996,0.2009765631897375,0.0205543395131826,-0.0143128782510757,0.0154613992199301
1790592438731768600,1.2415959472656248,0.0784982575776055,0.0547965890705585,-0.2203145017956383,0.3774474845457822,9.79734265795052,0.1999639155484736,-0.0061691501177847,-0.0124049894511699,0.0083281220868229
1790592438741781800,1.251609130859375,0.1153759627936407,-0.0433493123829364,-0.3589180675774812,0.3773806298546492,9.7973268758595,0.2009006849419325,-0.0160891599953174,-0.011391656473279,-0.0043442631140351
1790592438751794700,1.2616220703124998,0.0532452679753303,-0.1228723464310169,-0.1695896739423275,0.3784592188715934,9.797242120185494,0.2029589874449185,-0.0272904150187969,-0.0017595354001969,0.0241907089948654
1790592438761807600,1.271635009765625,-0.354291248027049,0.4900467857003212,-0.2210807917267084,0.3806274662887677,9.797090144494176,0.206266815084964,-0.032880924642086,0.0010905796661973,0.0121228611096739
1790592438771820500,1.2816479492187498,0.1491716667484492,-0.521748330387473,0.0202975043530575,0.381143964443542,9.797034614914654,0.2078997500490397,-0.0036364845000207,-0.0264941770583391,0.0037573392037302
1790592438781833700,1.2916611328125,0.1440847919382155,0.4868570497483014,0.2280085086306557,0.3827890647694468,9.79698551507592,0.2071377892332151,0.017252018675208,-0.0252355672419071,0.0267063304781913
1790592438791846400,1.3016738281250002,-0.3097332539740949,-0.1457610545873641,0.1960468699689023,0.3854498084113001,9.796936415237187,0.2045331414264626,0.0352153070271015,-0.0240350142121315,0.0225725714117288
1790592438801859600,1.31168701171875,0.1504444996958598,0.0512689994663,0.0779360571175813,0.3863055849904194,9.796980254378914,0.2008386160237714,0.035215575248003,-0.0250723157078027,-0.0036795381456613
1790592438811872500,1.3216999511718748,0.2925813724366948,0.0471726700633764,-0.1452063615803606,0.3860250875486061,9.797035199436545,0.1986272053183056,0.0041364841163158,-0.0020988220348954,0.0031458775047212
1790592438821884700,1.3317121582031248,-0.181406916453503,-0.0485042109280824,-0.4439046277284622,0.3886550341933965,9.796796129983663,0.2052325584000907,-0.1519740223884582,0.0358589477837085,0.047802560031414
1790592438831897600,1.34172509765625,-0.5027699275426566,0.254095757099986,-1.8587685032874344,0.3930855639867484,9.796163677299022,0.2259228979956358,-0.2472986578941345,0.0817926153540611,0.0345836952328681
1790592438841910500,1.3517380371093748,0.2794415760848671,-0.2074585090875625,-0.8841542400807142,0.3949750675277784,9.795487385472654,0.2505886257618666,-0.2425015121698379,0.1119012460112571,0.0142794884741306
1790592438851923700,1.361751220703125,0.2397250672463327,0.1478542274743318,0.2708516250571235,0.3968332260824739,9.794815185299516,0.2729316279352642,-0.2016345113515854,0.0834339186549186,0.0310281086713075
1790592438861936600,1.3717639160156252,-0.3455314568577334,-0.1337257488787174,0.358723933244869,0.400448347839713,9.794178640961649,0.28995478679277,-0.1389628797769546,0.0745861008763313,0.0425854288041591
1790592438871949600,1.38177685546875,-0.0491061954092234,-0.0036959319084882,0.588377359538339,0.4037472067220136,9.793734988847374,0.3001707681197673,-0.0670423582196235,0.0822970196604728,0.0298336800187826
1790592438881962500,1.3917897949218752,0.1765770120790228,0.0945662894010543,0.6317202787131071,0.4068600415129214,9.793485982522368,0.3041130212058313,-0.0156241711229085,0.0284729357808828,0.0461529977619648
1790592438891975700,1.401802978515625,-0.3340413639416918,-0.0306575885921716,0.3841975067952647,0.4139479539472609,9.79316624904871,0.304883695051074,0.0019313865341246,0.0119924955070018,0.0970979332923889
1790592438901988600,1.4118159179687502,-0.6615767069902271,0.0328074601024389,0.0187584764838218,0.4245508156999945,9.792696877971292,0.3053562992651946,-0.0149871427565813,-0.0105879148468375,0.111746922135353
1790592438912001500,1.421828857421875,-0.0773133586419746,0.1086176111072301,-0.3151309482991695,0.4349472316278144,9.792153857135771,0.3080979078572243,-0.0415196828544139,-0.0028074893634766,0.0972436070442199
1790592438922013400,1.4318408203125,0.2437589989375322,0.0052712184011936,-0.3972913451135158,0.4433768775273114,9.79165233735442,0.3119978744378313,-0.0300329402089118,0.0096997804939746,0.0759758725762367
1790592438932026600,1.4418540039062502,0.1704418703248724,-0.0238642751902341,0.1626911100676283,0.4504044380765408,9.791308053961396,0.3127077762728557,0.022036388516426,0.0116023421287536,0.0683784037828445
1790592438942039600,1.451866943359375,0.1380576771358028,-0.0099947397917509,0.579744628814794,0.4560036828557029,9.79120751619637,0.3077557798886671,0.077130801975727,0.0096321357414126,0.0455218292772769
1790592438952052500,1.4618798828125001,0.2660690304230898,0.0138064070343971,0.5235697005957365,0.4589251963255926,9.791347216928004,0.2988383870048448,0.0989159867167472,0.0185987334698438,0.0146954748779535
1790592438962065700,1.47189306640625,0.3758850210020318,0.0375455945402383,0.0602174450755119,0.4595417573213577,9.791550046023726,0.2911314841556363,0.0539261437952518,0.0365172810852527,0.0003439657157287
1790592438972078600,1.4819060058593752,0.1928422469750046,0.0571311694979667,-0.6382575715273618,0.4595778515480458,9.791568166202309,0.2904997255907394,-0.0439897663891315,0.0484852604568004,0.0040252530016005
1790592438982091800,1.491919189453125,0.0387493443068116,0.0142927292466163,-1.219492110106349,0.4572992756241932,9.791309807527064,0.3025130569295957,-0.1865373253822326,0.097290351986885,-0.0508486479520797
1790592438992104400,1.5019318847656251,0.8332133035250008,-0.1158814646303653,-1.6142887157946824,0.4518742914333939,9.790849204277992,0.3247116639299318,-0.2438104748725891,0.1094380915164947,-0.0381530933082103
1790592439002117400,1.5119448242187499,-0.1443818386560305,0.2655038708209991,-0.4701379701375961,0.4494929127221926,9.79014310183525,0.3484826348135247,-0.231901079416275,0.1008038595318794,-0.0104652727022767
1790592439012129500,1.52195703125,-0.1496220773970708,-0.0243868377596139,0.300623626453802,0.4472511251447722,9.78943583034873,0.370500734147802,-0.2054952979087829,0.1253547370433807,-0.0301881097257137
1790592439022142500,1.5319699707031251,0.5276304472286254,-0.0151467157274484,0.1315513274490833,0.4424702110111713,9.7888764429003,0.3905340894056484,-0.1983755975961685,0.1573241204023361,-0.0532803796231746
1790592439032155400,1.5419826660156248,0.4911348366653546,0.0629687896102666,-0.0612175620287656,0.4364687055740505,9.788273216310143,0.4118186868336051,-0.222304105758667,0.1484725773334503,-0.0514678321778774
1790592439042168300,1.55199560546875,0.1335810066457837,-0.1526075594812631,-0.4936340330699458,0.4316001862222328,9.787473590365051,0.4352754406688734,-0.2446197867393493,0.1385866552591323,-0.0354225523769855
1790592439052181500,1.5620087890624998,-0.0048436406388878,-0.0912953049063682,-0.3645774450460449,0.4287669355576857,9.786464705583452,0.4600464189078658,-0.2465042471885681,0.1328414231538772,-0.0098372986540198
1790592439062194700,1.57202197265625,-0.0923525954069569,-0.0148012632906436,-0.1025859662601724,0.4281393417112529,9.78538801626265,0.4829646454196423,-0.2043088525533676,0.0975105911493301,0.006572300568223
1790592439072207400,1.5820346679687498,0.0227246036358177,-0.0283370366901159,0.3423785092521458,0.4281335695575922,9.784559748744964,0.4994825764350593,-0.1185910329222679,0.0909043550491333,-0.0007063850644044
1790592439082220500,1.5920478515625,0.3771515338065102,-0.0500642998516559,0.8712538419753313,0.4261031597085297,9.784289699631929,0.5064597585039213,-0.0180993136018514,0.0705151930451393,-0.0343623496592044
1790592439092232400,1.602059814453125,0.6330998965032398,-0.0749853906184434,0.9584989216428248,0.420348797432892,9.784669054338336,0.5039093433687463,0.0720958262681961,0.0619936101138591,-0.0783234164118766
1790592439102245600,1.6120729980468749,0.7393110309906303,-0.0857166279911994,0.7216887189298867,0.4094568165404721,9.785525378906726,0.4962117746034636,0.0830320939421653,0.1371916979551315,-0.1340287625789642
1790592439112258600,1.6220859375,0.6819860924862324,-0.1503717632532119,0.0086152681320905,0.3933097281314432,9.786583948048948,0.4883312504867091,0.0874971523880958,0.1747404038906097,-0.1755106896162033
1790592439122271500,1.6320988769531248,0.4529823622731491,-0.1042997479081153,-0.3182528797119855,0.3748128617258742,9.787648362410067,0.4815073227507993,0.0640099421143531,0.1856777369976043,-0.1783312410116195
1790592439132284400,1.64211181640625,0.1181014057021588,-0.0280798470586538,-0.2375918180773034,0.3577461011886596,9.788491242974995,0.4773111862352117,0.0287861693650484,0.160706341266632,-0.1536969989538192
1790592439142297600,1.6521249999999998,-0.1093707675620913,0.1322667822420597,-0.6307949805617332,0.3429551035637035,9.78885598463416,0.4807083178602159,-0.0942300334572792,0.1325785666704177,-0.1392762511968612
1790592439152310300,1.6621376953125,-0.1169694790627807,0.1322340490162372,-1.3366566002845763,0.3273599864816293,9.788589442652464,0.4967409130441024,-0.222190648317337,0.2114350348711013,-0.171513557434082
1790592439162323500,1.6721508789062498,0.4015374947832897,-0.0229664495676755,-1.4622270997583866,0.3040038434766233,9.78801719572246,0.5222034902764484,-0.2602946162223816,0.3241956532001495,-0.284826248884201
1790592439172336600,1.6821640625,1.297443364793062,-0.2886135282516479,-0.391474219799973,0.2695616035128943,9.78775766800344,0.5454512775361537,-0.1820032894611358,0.2859806418418884,-0.3749969005584717
1790592439182348500,1.692176025390625,1.134913180908188,-0.147547938004136,0.9353203636944294,0.2306795910034328,9.788100197830795,0.5570155316669494,-0.0406855829060077,0.2524285316467285,-0.3771183788776397
1790592439192361500,1.7021889648437498,0.1405941550771705,0.1307914489924907,1.4250672896653414,0.1948934073511511,9.788834941846131,0.5577804516248405,0.0215796567499637,0.2180508524179458,-0.3205304741859436
1790592439202374400,1.712201904296875,-0.5591321584947407,0.2130243265211582,0.5195884854724631,0.1663334486253559,9.789351659196615,0.5579516434732824,-0.0329248644411563,0.1889768540859222,-0.2442785650491714
1790592439212387600,1.7222150878906248,-0.7232404784165323,-0.0081032269567251,-0.995713749858737,0.1424969747574999,9.789164612191914,0.567750458834134,-0.1654184460639953,0.1894634217023849,-0.2262566834688186
1790592439222400500,1.732227783203125,-0.0581531968889292,-0.3105880441725254,-1.6802987727969885,0.1177089083863887,9.78818378446102,0.5898895907321945,-0.2658888697624206,0.2453272193670272,-0.2632666528224945
1790592439232413400,1.7422407226562502,0.7931742847338318,-0.500498621609807,-1.2114719583231954,0.0866947249088902,9.78685750429332,0.6166624833781272,-0.2692958414554596,0.2998482584953308,-0.3343299031257629
1790592439242426400,1.752253662109375,1.133937540809065,-0.5444727878928184,-0.2400404898710548,0.0513418455068022,9.785341254511476,0.6440619469571858,-0.2885749936103821,0.2534346878528595,-0.3367858529090881
1790592439252439600,1.7622668457031252,0.3236829784693196,-0.044286300972104,-0.2284152993332594,0.0192864641469903,9.783450910720228,0.6738864457260817,-0.319192498922348,0.22801074385643,-0.2843993306159973
1790592439262452500,1.77227978515625,-0.5302656545704231,0.2993283990114927,-0.3621323534488678,-0.0087289604937453,9.781308637994528,0.7045030447207391,-0.2827053070068359,0.2570349276065826,-0.2627629935741424
1790592439272464600,1.7822919921875,-0.2736337665889412,0.2530816116213798,0.3880693432599306,-0.037013887399889,9.779970082867145,0.7219421822343021,-0.0561714954674243,0.2825346887111664,-0.2790732681751251
1790592439282477300,1.7923046875000002,0.0789064182533882,-0.3384475264787673,2.389092938840389,-0.065439011082123,9.780430686116215,0.7136429212488233,0.2236897200345993,0.210025355219841,-0.2529258131980896
1790592439292490500,1.80231787109375,-0.1931824021821841,-0.3959755863398313,3.026069238385558,-0.0873880774679128,9.78259341710806,0.6809028272941708,0.4289642870426178,0.0747141391038894,-0.1929506361484527
1790592439302503700,1.8123310546874998,-0.1971009638654068,-0.3710755383610725,2.0952327421069143,-0.1083094128077384,9.785524794384836,0.6341571504712105,0.4925898611545563,0.1120921373367309,-0.2272705286741256
1790592439312516400,1.82234375,0.3426487044956535,-0.2074117473363876,0.0544295093238353,-0.1334553161731921,9.787809690451622,0.5927530538719147,0.3190199434757232,0.1316674202680587,-0.2723666131496429
1790592439322529500,1.8323569335937502,0.4517632322743535,-0.2063742209821939,-2.333582648542523,-0.1646086889256723,9.788417593216897,0.5745925067486242,0.0580743849277496,0.1889323145151138,-0.3585284054279327
1790592439332542500,1.842369873046875,0.6164664493493736,-0.3430138114809989,-2.759667541942,-0.2031673877649009,9.787690447986126,0.5746590326461941,-0.0534739792346954,0.2305042594671249,-0.3903675675392151
1790592439342555600,1.8523830566406252,0.2468102945332415,-0.3693424309581518,-0.9371194490056484,-0.2438175424580462,9.78648691741526,0.5793361576117575,-0.0356670208275318,0.2561715245246887,-0.4152995347976684
1790592439352568300,1.862395751953125,-0.0113449305579997,-0.2276952414304018,0.5815180316954851,-0.2870324330726638,9.78549790637791,0.5762281085938215,0.0928755030035972,0.1882697194814682,-0.4383971393108368
1790592439362580500,1.872407958984375,0.0366921560486778,0.2225169620096683,1.486380128762126,-0.3320767493378371,9.785096924361586,0.5585676199471578,0.254403680562973,0.1366776376962661,-0.4620356261730194
1790592439372593400,1.8824208984375002,-0.0521717204596847,0.4007107981681823,1.7307804212778806,-0.3795327663872391,9.784971252155303,0.529795004851371,0.3053246438503265,0.1717016547918319,-0.4941810369491577
1790592439382606600,1.89243408203125,0.1132756660461425,0.1516518661916255,0.4340075030922889,-0.4299087625365704,9.784285023456812,0.5033221911305561,0.1959808617830276,0.2061477899551391,-0.5064315795898438
1790592439392619300,1.9024467773437501,0.2997985372738913,-0.032381928166747,-1.5017220748007296,-0.4810096023617312,9.782468329423663,0.4922668363699689,0.0121239367872476,0.231373518705368,-0.5150519609451294
1790592439402632400,1.9124599609375,0.3018019495181739,-0.051944122248888,-2.091397109466791,-0.5320942217044532,9.77973568958938,0.4940157258639112,-0.0464304536581039,0.2016236037015915,-0.5022032856941223
1790592439412645600,1.9224731445312502,-0.0205331945387646,0.0753022014826536,-0.5736357540130614,-0.580411385627836,9.777136905267836,0.4910355775419622,0.1058014258742332,0.1541964411735534,-0.4676703512668609
1790592439422658600,1.9324858398437499,-0.497181240690127,0.1513537600278854,1.926038204962015,-0.6254000627156346,9.775455235791206,0.4687622978702187,0.3376295864582062,0.1391626298427581,-0.4420997500419616
1790592439432671500,1.942498779296875,-0.5075256707023829,0.036216391763091,2.548453479713201,-0.6687756055183708,9.774622876620292,0.4240972267135977,0.5398245453834534,0.1121533885598182,-0.4275357127189636
1790592439442684400,1.9525117187499998,-0.0917911255992948,-0.0338771351605653,1.939546505832672,-0.7114635313831269,9.77393898600936,0.3665188979700207,0.6067412495613098,0.0673667415976524,-0.4395841062068939
1790592439452696600,1.96252392578125,0.1992101015064865,-0.0475251367628574,0.3670242171436548,-0.7546648135975003,9.772622642713785,0.3109839481549337,0.4973635971546173,0.0833110883831977,-0.4387572109699249
1790592439462709500,1.972536865234375,-0.0443152348056435,-0.0441512764155864,-1.445923030689359,-0.7975458508815616,9.770444129630922,0.2696215900718234,0.3446558117866516,0.0770577192306518,-0.4346378147602081
1790592439472722400,1.9825498046874999,-0.3317973478745669,0.1579933441728353,-1.7001982360094785,-0.8394161036878823,9.76776701937616,0.2376400776658207,0.3078280091285705,0.0660753771662712,-0.4095377922058105
1790592439482735400,1.992562744140625,-0.7381807848516851,0.4962415486872196,-0.2951420715038664,-0.8753613503593951,9.765306766742468,0.2071551604931242,0.3043616414070129,0.0187020003795623,-0.3255094885826111
1790592439492748500,2.002575927734375,-1.1363935556590556,0.6384989790678024,0.087690558412671,-0.9037655340015888,9.763259771084783,0.1798614953760988,0.2406420707702636,0.0093271397054195,-0.2585006058216095
1790592439502761500,2.0125888671875,-0.7772637450270354,0.2937795327126979,-0.7515893516749144,-0.9266596489854156,9.761418527132273,0.1624662152705714,0.1061218008399009,0.0298009905964136,-0.2091735452413559
1790592439512774400,2.022601806640625,-0.5581669667243957,-0.3160369572281837,-1.554585065460205,-0.9440450104851276,9.75981693715453,0.1586159878495149,-0.0218276400119066,0.0322532281279563,-0.153485506772995
1790592439522787600,2.032614990234375,-0.5456662354610861,-0.4472697202473878,-1.2830746477007866,-0.9572937105715276,9.758469614198804,0.1619895742021501,-0.0562825463712215,0.0782598704099655,-0.1147543638944625
1790592439532800500,2.0426279296875,-0.4099637066166848,-0.1942465608149766,-0.4107780186742544,-0.9665525373041628,9.757436179497835,0.1691132520696148,-0.1118203774094581,0.1207024008035659,-0.0739824324846267
1790592439542812700,2.05264013671875,-0.4114558448705822,-0.2668056010693311,-0.5704226371854544,-0.9734401048608124,9.756523156306146,0.1818135062267072,-0.1706735640764236,0.1560920774936676,-0.0684734210371971
1790592439552825300,2.06265283203125,-0.1158764231290668,-0.1009095209479331,-0.7192699673503636,-0.980518372683972,9.755527715528013,0.1965858539501205,-0.149198904633522,0.1264532208442688,-0.0782943591475486
1790592439562838500,2.072666015625,0.2425153555519878,0.1527805779606103,0.2045130850191228,-0.9899551132667808,9.754425891765951,0.203848100038059,-0.0072004930116236,0.0417135767638683,-0.1096227169036865
1790592439572851500,2.082678955078125,0.5076338803172111,0.4046282638728618,1.5089146166533232,-1.001587610328197,9.753370245233178,0.1974027598235756,0.117660216987133,0.0174788106232881,-0.1275814771652221
1790592439582864600,2.092692138671875,0.2721355639204382,0.3440969305425882,1.1217384228408336,-1.0144876431073993,9.752250885814428,0.1865430189666338,0.0827738717198371,0.0221414733678102,-0.1328185796737671
1790592439592877300,2.10270458984375,0.0593118745379149,0.1211456687688827,-0.8133025882661342,-1.0265693452410398,9.751045601677896,0.1834781332369893,-0.0248101148754358,0.0159783866256475,-0.1144241318106651
1790592439602890500,2.1127177734375,-0.1282862612385302,0.0434533572793006,-1.3573264633476734,-1.0364929925579578,9.74987948050797,0.1895543661444448,-0.1004422903060913,0.0264225043356418,-0.083306960761547
1790592439612903400,2.122730712890625,-0.2618976630225777,0.3492173422962427,-0.8464315354079007,-1.041894705471024,9.74907634743154,0.2008948214567266,-0.1292718052864074,0.0296598430722951,-0.0223932787775993
1790592439622916400,2.13274365234375,-0.6197744048535824,0.3192822227597236,-0.3812105634063482,-1.0409036486070602,9.748934308612348,0.2125688561049289,-0.1112105175852775,0.0368636921048164,0.0392967164516449
1790592439632929500,2.1427568359375,-0.6188344205897301,0.1863783116579055,0.209048390361201,-1.0348106654942035,9.74940835586488,0.220411422831472,-0.0530284345149993,0.0244640167802572,0.0839193165302276
1790592439642941400,2.152768798828125,-0.4296546416450291,0.1008154129236936,0.5836825162529945,-1.024972431438416,9.750425423952937,0.2213680111702531,0.0308787152171134,0.0178135707974433,0.1144383400678634
1790592439652954600,2.162781982421875,-0.4078810551237314,0.0642599984645843,0.7704109565228223,-1.0132271947175264,9.75181658605039,0.2140550395420752,0.1097998917102813,0.0093140909448266,0.1275967508554458
1790592439662967600,2.172794921875,-0.2623028828226029,-0.0706634357661008,0.7486088745594024,-1.000638565975055,9.753413499853014,0.2000933688807301,0.159375712275505,0.0087953070178627,0.1344344168901443
1790592439672980500,2.182807861328125,-0.299244300924614,0.0082008421123027,0.1274772098779678,-0.9871901055328548,9.755054837319255,0.18646268373942,0.110364481806755,0.0294859390705823,0.1386802941560745
1790592439682993400,2.19282080078125,-0.220836680772528,0.0868242969721555,-0.7808774054795503,-0.9743187143262476,9.756486331427096,0.1790349996903911,0.035920612514019,0.0391420274972915,0.1241237297654151
1790592439693006600,2.2028339843749998,0.0100651016142219,0.3047942632019519,-0.9150456374287604,-0.9637055503752082,9.757585817101598,0.1765842638037167,0.0144406203180551,0.0572597794234752,0.0923775136470794
1790592439703019300,2.2128466796875,0.1829322628572583,0.3361842577219009,-0.184258835285902,-0.9562593990877272,9.758368491911888,0.173784075158555,0.0314571559429168,0.0564483143389225,0.063192993402481
1790592439713032400,2.22285986328125,0.1672424532290548,0.3046083852410316,0.1723509553492069,-0.9508945110537113,9.758969380414486,0.1694214595022611,0.0457705818116664,0.0449232198297977,0.0487863607704639
1790592439723045600,2.232873046875,0.0400779625620692,0.298436418607831,0.0168079452042467,-0.9467322768077254,9.759456287148597,0.1647023037595674,0.0405726246535778,0.0435181334614753,0.0377294458448886
1790592439733057500,2.242885009765625,0.0533219864733517,0.3050163815200328,-0.236212309885025,-0.9426182656176388,9.75990812256932,0.1613936176029965,0.0185104627162218,0.0351941585540771,0.0496076792478561
1790592439743070500,2.25289794921875,-0.1758328791808336,0.2412970658034086,-0.4467401434153318,-0.9365731402345,9.760481538543104,0.1619800574551336,-0.044609647244215,0.0258184988051652,0.07648216933012
1790592439753083400,2.262910888671875,-0.3235076584350317,0.3592237725257873,-0.9822972189247609,-0.927013650054857,9.761215698036551,0.1723088515068404,-0.1801525652408599,-0.0036874613724648,0.1196546778082847
1790592439763096600,2.272924072265625,-0.4664845621965825,0.5000140529632568,-1.788355827412009,-0.91332370900698,9.76198317527771,0.1998029345667921,-0.3862378299236297,-0.0224598161876201,0.1557572931051254
1790592439773109500,2.28293701171875,-0.3150860131788999,0.59294134298563,-2.520359604129195,-0.8963800268601626,9.76242858095765,0.2487109770554117,-0.6040337681770325,-0.0280484613031148,0.1884936690330505
1790592439783122400,2.29294970703125,-0.1504379603572189,0.5082616568267345,-2.525211135813594,-0.8766745518498122,9.762265499350429,0.316260609916225,-0.7631317973136902,-0.0427914522588253,0.2147649526596069
1790592439793135400,2.302962646484375,-0.1560998585764318,0.4320113608390092,-1.6736013209849594,-0.8535049809254706,9.761451844879984,0.3949481429882347,-0.8257017135620117,-0.0729008838534355,0.2577153444290161
1790592439803148500,2.312975830078125,-0.2980997339993715,0.382995693257451,-0.5827401939015835,-0.8253794680941849,9.7603400842458,0.4742532599693164,-0.7621448636054993,-0.1313085407018661,0.3095708191394806
1790592439813161500,2.32298876953125,-0.3216368961270898,0.4443593857586383,0.7042816570550203,-0.7922654262606054,9.759578452223538,0.5416008126530796,-0.5755137205123901,-0.1747516244649887,0.3527398705482483
1790592439823173600,2.3330009765625,-0.2515725952979177,0.2552729841858148,1.9755700053721663,-0.753992028902471,9.760120888537168,0.5847294314900413,-0.2494861036539077,-0.2990232408046722,0.4068656861782074
1790592439833186300,2.343013671875,-0.3350287310112267,0.3132423580735922,3.327332404851913,-0.706897830902785,9.763353294587136,0.5895816572941839,0.2227275222539901,-0.4778119027614593,0.5215626955032349
1790592439843199500,2.35302685546875,-1.01611122572124,0.6027315001159906,4.884366617029905,-0.6480084926258772,9.769846748259663,0.5482262952074408,0.6764915585517883,-0.5084217190742493,0.6080533862113953
1790592439853212400,2.363039794921875,-1.1655825330033898,-0.2226531556099653,4.586449253860116,-0.5866738070234656,9.777761759167907,0.4707030932070687,0.9419378638267516,-0.4350428581237793,0.5774565935134888
1790592439863225300,2.373052734375,0.3543261001447215,-1.274120941394567,2.262286175569892,-0.535986151109077,9.784759655231236,0.3762735453955829,1.0107672214508057,-0.4147312045097351,0.4041732251644134
1790592439873238500,2.38306591796875,2.025576583687216,-1.4651613996446131,0.3188397396892309,-0.5006197637714446,9.789800572007891,0.2821048039447516,0.9365338087081908,-0.2884704768657684,0.3507171869277954
1790592439883251500,2.393078857421875,0.9596328210435808,-2.754738853368163,-0.9242880975484848,-0.4716645586503669,9.79324282141626,0.2007900276416912,0.7329596281051636,-0.2045121788978576,0.2282184362411499
1790592439893264600,2.403092041015625,0.7039863273702561,-1.566657196047902,-2.1555174071997403,-0.454390767766349,9.795080558237434,0.142592114828201,0.4557996392250061,-0.1648475974798202,0.1087405085563659
1790592439903277300,2.413104736328125,1.7761625546626745,0.8305985909819602,-3.3385540560901164,-0.4503733488185331,9.795616564810276,0.1159588315823581,0.0987014397978782,-0.0384094901382923,-0.0215088427066802
1790592439913289500,2.423116943359375,1.3061264374643564,0.2562508893072605,-3.640284840068221,-0.4543890872659161,9.795354114481809,0.1221553938006982,-0.2109083384275436,0.0517550259828567,-0.0444652922451496
1790592439923302400,2.4331298828125,0.0606179521678015,-0.2195534360289573,-2.939220391494036,-0.4565589786509051,9.794863116094469,0.1502748422173783,-0.348224937915802,0.0518860518932342,0.0057427524589002
1790592439933315600,2.44314306640625,-0.4787701894044875,0.2543926942199468,-1.1670172419816256,-0.4545195817777887,9.794369195097683,0.1846466290270909,-0.3414746224880218,0.0322870500385761,0.0330425500869751
1790592439943328300,2.45315576171875,-0.0645119273990392,-0.1159767416983842,0.3196931416481733,-0.4511393282223492,9.793937817943096,0.2136153877494856,-0.243229791522026,0.0135075040161609,0.0359355434775352
1790592439953341400,2.4631689453125003,0.1481719881866127,-0.1291904435366392,1.129574523293972,-0.4481953837249428,9.793684719964862,0.2307807680892758,-0.1039784401655197,0.0047281277365982,0.0219994857907295
1790592439963354600,2.47318212890625,0.2914257726607844,-0.034884850898385,1.5135036980092524,-0.4473481557784601,9.79365081769526,0.2338144732293672,0.0388831123709678,-0.0076646259985864,-0.0064904778264462
1790592439973367600,2.48319482421875,0.4449802210707217,0.0214005154252052,1.4381588264286518,-0.4488707987684756,9.79377999703288,0.2253625972317531,0.1235537901520729,-0.0219322443008422,-0.0216454621404409
1790592439983380500,2.4932077636718746,0.2159766004554927,0.0876408740520477,0.743840929505229,-0.450608290085569,9.793977565431597,0.212941781070549,0.1209063380956649,-0.0218664649873971,-0.0153327053412795
1790592439993394200,2.5032216796875004,-0.024397249555774,0.0701432112842798,-0.2202507706433534,-0.4517495325425639,9.79411726616323,0.2039400709041394,0.057374507188797,-0.0157047100365161,-0.0093648275360465
1790592440003406300,2.513233642578125,0.0491838637553155,0.0391916081815958,-0.8421867374449968,-0.452906082166545,9.794094469809531,0.2024858717741444,-0.0275345277041196,-0.0029460373334586,-0.0131257427856326
1790592440013419300,2.5232465820312497,0.1043786948958411,-0.0776554866105318,-0.9721411510914564,-0.4540818114150315,9.793923789417745,0.2079421826849691,-0.0757891461253166,-0.0011249678209424,-0.0108785675838589
1790592440023432200,2.5332595214843754,0.0930684155261144,-0.0719283411353826,-0.4541507119327783,-0.4548921414172276,9.793734988847374,0.2150299672551453,-0.0598977915942668,-0.0136423576623201,-0.0062673049978911
1790592440033445000,2.5432724609375,0.1445105065369978,-0.0495300468444824,0.2446428690999746,-0.4554574836824089,9.7936315284729,0.2184857154658995,-0.0076212720014154,-0.0247453413903713,-0.0077887685038149
1790592440043458300,2.55328564453125,0.2605363115414977,0.0212549694746732,0.5646574977874755,-0.4564118617977947,9.793626267775892,0.2167497950513847,0.0410610474646091,-0.0410449542105197,-0.0134045761078596
1790592440053471000,2.5632983398437497,0.3816814323211088,0.1090752917468547,0.3937427127212285,-0.4581461382444948,9.793642049866914,0.2122893085111863,0.0476755388081073,-0.0521865524351596,-0.0205274671316146
1790592440063484200,2.5733115234375004,0.3450368052085861,0.1017880573481321,-0.1118967789083719,-0.4604073977073654,9.793597041681409,0.2094606426902115,0.0115114096552133,-0.0566675886511802,-0.0252950582653284
1790592440073497300,2.58332470703125,0.230657123443298,0.0156096570640802,-0.4911556237250566,-0.4633435607571154,9.793433960074186,0.2105849157460965,-0.0285396035760641,-0.0523412823677063,-0.0366888605058193
1790592440083510300,2.593337646484375,-0.0007495762582868,0.0037286651343107,-0.4261585431575775,-0.466568623750843,9.793195475143191,0.2145711175717413,-0.0433457121253013,-0.0477052517235279,-0.0300623830407857
1790592440093523200,2.6033505859374997,-0.4155877935761585,-0.063281508821249,-0.0363502472758293,-0.4686207705076783,9.79301836501062,0.2181601550396531,-0.0223165955394506,-0.0450202524662017,-0.0138386711478233
1790592440103535000,2.613362548828125,-0.6253916602134704,-0.0288093303769826,0.3477934469729661,-0.4693570123603567,9.79296225090921,0.2190337960690259,0.0084061631932854,-0.0477510578930377,-0.0036366342101246
1790592440113548300,2.623375732421875,-0.541950320210494,0.0150134447365999,0.4400847771793603,-0.4695998812055215,9.792983293697237,0.2175726374752819,0.0212495233863592,-0.044674839824438,-0.0047200084663927
1790592440123561200,2.6333886718749997,-0.493644152605161,0.0628776041954755,0.2015559887791983,-0.4698723780039697,9.793002582919597,0.2160826546458527,0.0096783554181456,-0.0333801098167896,-0.0012810681946575
1790592440133574100,2.6434016113281253,-0.6638754123866558,0.0444493825793266,-0.0296475347667932,-0.4693301608860492,9.793026548317076,0.2162455718562938,-0.0101800374686717,-0.0229975096881389,0.0147109478712081
1790592440143587000,2.65341455078125,-0.7620671988084912,-0.0114461076438426,-0.0175461598183028,-0.4672057891432196,9.79310779685974,0.2171625771033577,-0.0064545418135821,-0.0244689062237739,0.025364389643073
1790592440153600300,2.663427734375,-0.456425853790529,-0.0795002376943826,0.1087602344483137,-0.4645936338834464,9.793224701237678,0.2174497965469025,0.0029866308905184,-0.0360230281949043,0.0249087233096361
1790592440163613200,2.6734406738281247,-0.151449986943975,-0.0419242480158805,0.1635334609095938,-0.4620641884710639,9.793359141272306,0.2168453826466575,0.0111809112131595,-0.0468455851078033,0.0248083230108022
1790592440173626000,2.6834536132812503,-0.1932365435222163,0.015994272467494,0.0877934342652559,-0.4594826475452631,9.793498842003942,0.2159708465681411,0.009614972397685,-0.0522488728165626,0.0253848973661661
1790592440183639300,2.693466796875,-0.3412647027913481,0.0514613071680068,0.0052875850141048,-0.4566030004557221,9.793645556998252,0.2154277892000042,0.0060234335251152,-0.0468114949762821,0.0297098699957132
1790592440193651200,2.7034785156249996,-0.5382264408491552,0.0556336244165897,-0.0372416431576013,-0.453122684059292,9.793812730258702,0.2151610097562894,0.0030132625252008,-0.0356089100241661,0.0387957766652107
1790592440203664100,2.7134914550781253,-0.6425455510448664,0.0301397021979093,-0.0370323660547845,-0.4487614566424861,9.794019651007652,0.2149513490609824,0.0044258031994104,-0.0293475501239299,0.0478089787065982
1790592440213677000,2.72350439453125,-0.5965509483175352,0.0255675719767808,6.02240209467e-05,-0.4438792375588789,9.794251706197857,0.2145203554988838,0.0067440848797559,-0.0238539818674325,0.0504412464797496
1790592440223690200,2.733517578125,-0.5759880527602508,-0.0445686250448226,-0.0004366378515958,-0.4385548641983419,9.794505973219872,0.2138199704108759,0.0073520843870937,-0.0132956141605973,0.0572943612933158
1790592440233703200,2.7435305175781246,-0.7227240533269942,-0.0292868847608566,-0.0621937135845422,-0.4324782476983964,9.79478654372692,0.2133276568492874,0.0026430832222104,-0.0098582720384001,0.0685547441244125
1790592440243716400,2.7535437011718753,-0.73160454826653,-0.0343985286861658,-0.0783393772214651,-0.4252438394654542,9.795109784331917,0.2130130562084727,0.0037333811633288,-0.011670553125441,0.0793213695287704
1790592440253729000,2.763556396484375,-0.5715188349243253,-0.0142512281924486,-0.0455588051259517,-0.4174360152587294,9.795462835553288,0.2122550409154035,0.0119149973616003,-0.021203014999628,0.0796759650111198
1790592440263742200,2.773569580078125,-0.4316104884205385,0.0111181908637285,-0.0296416895478963,-0.4093528081767261,9.7958304998219,0.211002355706878,0.0156657937914133,-0.0277868825942277,0.0843181163072586
1790592440273755100,2.7835825195312496,-0.44877044366654,0.0357213017225265,-0.0868956086426973,-0.4007222328776493,9.796217453312874,0.2095984619920141,0.0144873447716236,-0.0258504971861839,0.0905531123280525
1790592440283767300,2.7935947265625,-0.5581138848302886,0.0424929878145456,-0.1481266512075439,-0.3913367110254243,9.796627203157543,0.2081310015216469,0.0157749839127063,-0.0174530185759067,0.100152738392353
1790592440293780000,2.803607421875,-0.5957143513629213,-0.0022281974434852,-0.1780448013429529,-0.3812696366498246,9.797055657702684,0.2066253827316686,0.0138641651719808,-0.0110390605404973,0.1033072546124458
1790592440303793200,2.8136206054687496,-0.4394606173990294,-0.001743628796935,-0.230654694024194,-0.3711262456350028,9.797469499200584,0.2055157775219529,0.0076781744137406,-0.0044615850783884,0.1018957793712616
1790592440313806300,2.8236337890625003,-0.326207528510876,-0.0311591083735227,-0.2701186894063838,-0.3610780220903456,9.797855283647776,0.2050262769719585,0.0024043163284659,0.0003238491190131,0.1041333675384521
1790592440323819300,2.833646728515625,-0.3746030183674767,-0.0299140767484903,-0.2389531695583835,-0.3503911353159695,9.79825509662032,0.2043869561551138,0.0096928551793098,0.0020027060527354,0.1139300689101219
1790592440333832200,2.84365966796875,-0.4695798613307997,-0.020171850413084,-0.1420715706859715,-0.3389120752505958,9.798689396384358,0.2029741850140504,0.018154252320528,9.74804570432e-05,0.1193818300962448
1790592440343845000,2.8536726074218746,-0.3623330271201208,0.0199427178323268,-0.1536380898390896,-0.3271970875374972,9.799126034235954,0.2010733380950987,0.0184666402637958,-0.0032037738710641,0.1197195202112197
1790592440353858300,2.8636857910156253,-0.2243720883570611,0.0877642081707715,-0.2786228983794339,-0.3155204225407913,9.799539291211962,0.1996145175889134,0.0106686381623148,-0.0103343874216079,0.1198635920882225
1790592440363871000,2.873698486328125,-0.2089703018900006,0.0801940651774406,-0.3364233271747827,-0.3036881651235744,9.799929167312383,0.1989064789174124,0.0033268355764448,-0.0182807277888059,0.1211696118116378
1790592440373883100,2.8837104492187504,-0.2467122409862466,0.008138882791996,-0.2887128969728946,-0.2915341832050122,9.80030676845312,0.1984816776340827,0.007345279213041,-0.0215750597417354,0.1270402669906616
1790592440383896000,2.893723388671875,-0.3783092890068888,-0.0603396101504564,-0.2009013607953675,-0.2785997549658641,9.8006989826411,0.1976094979094341,0.0115104634314775,-0.0219079535454511,0.1358763724565506
1790592440393909200,2.903736572265625,-0.4212541122421622,-0.0644885465234518,-0.142076246861089,-0.2649839020675048,9.8011069789201,0.1960951112911105,0.0179923307150602,-0.0152013143524527,0.1377419233322143
1790592440403922200,2.9137495117187497,-0.3776866270639002,0.0192155726015567,-0.1581546904806978,-0.2513898956747725,9.80149977762997,0.1943667713948525,0.0155685879290103,-0.0064927777275443,0.1369429677724838
1790592440413935000,2.9237624511718754,-0.3914098127942532,0.0508797078877687,-0.2268757600073702,-0.2379660216845572,9.80185692050457,0.1932072626288049,0.0073849605396389,0.0059766750782728,0.1357858330011367
1790592440423948300,2.933775634765625,-0.4942905972825363,0.0502513468563556,-0.2510924836307764,-0.2244187953093089,9.802188344416022,0.1927340373601764,0.0027657076716423,0.018873831257224,0.1419102996587753
1790592440433961200,2.94378857421875,-0.5764546838913113,-0.0427075073480606,-0.154120302131772,-0.2100405980026349,9.802520937371254,0.1919788350787013,0.0125328507274389,0.026369297876954,0.1528345942497253
1790592440443974100,2.9538015136718747,-0.5616884188488126,-0.1094984855949878,-0.0658054743409156,-0.1945799574878066,9.802872819548844,0.190303741473332,0.021241120994091,0.0280223209410905,0.1631530076265335
1790592440453987000,2.9638144531250004,-0.410323187578842,-0.0724362906575202,-0.0913426511794328,-0.1785007832158356,9.80322002555132,0.1881581442793831,0.0190951451659202,0.0263996571302413,0.1665216386318206
1790592440464000300,2.97382763671875,-0.2284843642477877,0.0046200610160827,-0.2098743380576372,-0.1625186761101707,9.803526315021514,0.186680345078092,0.0106121785938739,0.0251442436128854,0.1602123379707336
1790592440474012200,2.9838395996093747,-0.1195374298546463,0.0607780015677213,-0.2537438749223947,-0.1472664085158612,9.803781166565418,0.1859578212235123,0.0047148750163614,0.0262832771986722,0.1541957259178161
1790592440484025300,2.9938527832031254,-0.2210222664725035,0.0152045833945274,-0.1655161408931016,-0.1319727951310109,9.80401555984318,0.1851188313824124,0.0101514523848891,0.0283229928463697,0.1588820964097976
1790592440494038000,3.003865478515625,-0.4121043719071894,-0.0076215809196233,-0.0510024757509119,-0.1159667591604869,9.80424527694583,0.1835813561494462,0.0186155103147029,0.0283424332737922,0.1677951663732528
1790592440504051200,3.013878662109375,-0.4249281611124053,-0.0530342555731534,-0.0577028501723893,-0.0991027272542938,9.80446681074202,0.1816029687485657,0.0176365338265895,0.0292668156325817,0.1758858412504196
1790592440514064100,3.0238916015624997,-0.4119685436330735,-0.0393055899500846,-0.1636474061454646,-0.081685856371466,9.804656780356169,0.1801074146948754,0.0103344116359949,0.0313443467020988,0.1788091957569122
1790592440524077000,3.0339045410156253,-0.3625337007913738,-0.0075730656027793,-0.1864227170552126,-0.0642326446667779,9.804797065609693,0.1795391863528639,0.0020463876426219,0.03223118185997,0.1774267554283142
1790592440534090200,3.043917724609375,-0.4105801945472136,-0.0021405191600322,-0.1111491754114627,-0.0468619555798126,9.804899941462278,0.1792345225841738,0.0051183439791202,0.0334775410592556,0.1792283803224563
1790592440544103200,3.0539306640625,-0.5329191282212734,-0.004921674311161,0.0246445936466567,-0.0288204454260412,9.80498703522384,0.1782639239863492,0.015463126823306,0.0284758582711219,0.1906442791223526
1790592440554116400,3.0639438476562497,-0.6085683165106922,-0.0283399592995643,0.1060176394755952,-0.0095846817031153,9.805061854025722,0.1761988081500865,0.0254577044397592,0.0169590171426534,0.2013616412878036
1790592440564128300,3.07395556640625,-0.5257737865112722,-0.0426011243641376,0.0554717118531465,0.0105715612905274,9.805108031255006,0.1736236969650723,0.0246267970651388,0.0029510576277971,0.2074059545993805
1790592440574141200,3.083968505859375,-0.4586174455506727,-0.0621527970522642,-0.0786433468704111,0.0321502748353406,9.805056008806824,0.1738130455247126,-0.0412813797593116,-0.0420483760535717,0.2384128719568252
1790592440584154000,3.0939814453124996,-0.3456059103334322,-0.0927589477181434,-0.2112023717910051,0.0594988073781831,9.80483798214197,0.1788804667158052,-0.0425194799900054,-0.1229634657502174,0.3156650364398956
1790592440594167300,3.1039946289062503,0.4713922445150092,0.4487678498506546,0.3815472480148076,0.0927415216593071,9.804550397372246,0.1804917378373444,0.0164508931338787,-0.2398037910461425,0.3462980687618255
1790592440604180200,3.114007568359375,1.5438896300531924,-0.1549415553867816,0.7251753920018672,0.1229236382268369,9.804322433835267,0.1747449926125817,0.0923696309328079,-0.2571130096912384,0.241285353899002
1790592440614193200,3.1240205078125,1.8118518538117407,-0.2560439685583114,0.4899573538511991,0.1391233518722467,9.804270995908976,0.1653059870074503,0.0788330435752868,-0.2406134009361267,0.0903531089425087
1790592440624206000,3.1340334472656246,0.1775213802570477,-0.0207756615251302,-0.1437351017177104,0.1470425548984203,9.804231832942364,0.1606443336056545,0.0114824995398521,-0.1351833790540695,0.0960919559001922
1790592440634219300,3.1440466308593753,-2.625658299946785,0.1667372071206569,-0.2963818241655826,0.1660651713442988,9.803915022078156,0.1614084133133292,-0.0254131983965635,-0.1026051938533783,0.2986045777797699
1790592440644232200,3.1540595703125,-3.3748610487461086,-0.1138788926362991,-0.07780631152438,0.2014963310138322,9.803211842244863,0.1636981864846311,-0.017262328416109,-0.1649905443191528,0.3911214470863342
1790592440654245000,3.164072509765625,-0.1627430959831923,-0.2180447850316763,0.2184691479235887,0.2359158842217177,9.802482943448425,0.1614604540278203,0.0552009493112564,-0.2493373751640319,0.2890307605266571
1790592440664257300,3.1740847167968753,1.97523770467788,0.042124739024043,0.3717722884535789,0.2570560316776856,9.802083714997767,0.1531567177966237,0.0887293517589569,-0.27556312084198,0.147404670715332
1790592440674270200,3.18409765625,0.560202125813812,-0.5963730709999799,0.0274713506383355,0.2729800153879448,9.80177917909324,0.1449113058902323,0.0603669509291648,-0.2356005311012268,0.1941756308078766
1790592440684283100,3.194110595703125,-2.397914835460484,0.0786123489439487,-0.2779722889835946,0.299995667281188,9.801061970734596,0.140006701444881,0.031165923923254,-0.1918716877698898,0.3480759859085083
1790592440694296000,3.2041235351562496,-2.8752921092018484,0.2408610124737024,-0.1709650356824509,0.3356428077889606,9.79997242193222,0.1352016209844034,0.0639398470520973,-0.1509402394294738,0.3483518958091736
1790592440704309200,3.2141367187500003,-0.5819080173937603,0.1627460916578769,0.0545376367402728,0.3640355932543054,9.799077518919107,0.1262244424710515,0.1019301116466522,-0.1022496670484542,0.2246760129928589
1790592440714322200,3.224149658203125,-0.0272204537503421,-0.0284007495760917,-0.2301221763163805,0.3850039643399417,9.798389536654948,0.1171458402766846,0.0741602629423141,-0.0098829818889498,0.2257008105516433
1790592440724335000,3.23416259765625,-2.237325191184133,-0.0487123007208108,-0.7194616905301809,0.4130931272162124,9.797302325940132,0.1122322853398974,0.0296521820127964,0.0845700204372406,0.3555831611156463
1790592440734348300,3.2441757812499996,-2.961115412437916,-0.3411971174478531,-0.8096259455800056,0.4518423984577879,9.795600198197365,0.1115665788396261,-0.0024964325129985,0.1231911778450012,0.4207326173782348
1790592440744361200,3.2541887207031253,-0.6564271422073245,-0.4584019396364688,-0.7375432906657456,0.4912271911239251,9.793692903271316,0.1125069649622775,0.0040347035974264,0.1308163404464721,0.3754327893257141
1790592440754373000,3.2642004394531248,1.235703386325389,0.0181377142369747,-0.3286275587320327,0.5223888202480972,9.79210300373137,0.1104558593850582,0.0525633543729782,0.1434266716241836,0.2632529735565185
1790592440764386300,3.2742136230468746,1.257476388324797,-0.0358802916765213,-0.0504354712516069,0.5456567369803786,9.7909053183794,0.1040058977943845,0.0936303660273552,0.1893105506896972,0.2342500835657119
1790592440774399200,3.2842265625000002,-0.5533353453168646,0.0614712445288896,-0.187682964515686,0.5721895372601226,9.78947090166211,0.0961046414168551,0.0855327621102333,0.2518474161624908,0.3178589642047882
1790592440784412200,3.294239501953125,-1.5933438351824878,0.065551207318902,-0.7076946803689003,0.6058851053087041,9.787485280802846,0.0916364464942365,0.0373401939868927,0.2932326793670654,0.3623129725456238
1790592440794425300,3.304252685546875,0.0010400105722248,-0.0002238718837499,-1.1378799948245286,0.6398576271351426,9.785324303376674,0.0914642499987967,0.0116987489163875,0.3226267993450165,0.3325958251953125
1790592440804438000,3.3142653808593754,1.4093147169992326,0.0450333199471235,-0.9297674057424068,0.669750222704187,9.783314132598042,0.0926948877722956,0.0150428796187043,0.3420699834823608,0.2785022258758545
1790592440814451200,3.324278564453125,1.588168186110258,-0.2781915029585361,-0.5913514434456825,0.6933564314801246,9.78167630226314,0.0920108236314263,0.0485233440995216,0.3775968253612518,0.2154798656702041
1790592440824464100,3.33429150390625,1.3610802629232406,-0.2673036137193441,-0.4698907173782586,0.7139442422829568,9.780214997538923,0.0898114230241626,0.0463057309389114,0.4137322008609772,0.2212815582752227
1790592440834477300,3.3443046874999998,0.7959449184909463,0.1190998421549797,-0.8113660672456026,0.7366434192165732,9.778529820930958,0.0899634443812537,0.0108233671635389,0.4297676384449005,0.245507001876831
1790592440844489200,3.354316650390625,1.2271595759943128,0.3047872489392757,-1.0207295331716535,0.759579108319804,9.776748198211193,0.0929762528637889,-0.0054200505837798,0.4324318468570709,0.2265918999910354
1790592440854502100,3.36432958984375,1.8901801251173016,0.1429758077830076,-0.8551023331195116,0.7793547259569168,9.775154207018018,0.0967390303302556,-0.0031068287789821,0.4276421666145324,0.1793072074651718
1790592440864515000,3.3743425292968747,1.9708130201034249,-0.1841898617029189,-0.6558955195486545,0.7931430858779698,9.774014973855015,0.0996922541126608,0.0119480211287736,0.4342838227748871,0.1126128733158111
1790592440874528300,3.3843557128906254,1.8419129378154877,-0.4170207124561071,-0.5632990689158439,0.8021835936848074,9.773262694182993,0.1012179475762881,0.0252278726547956,0.4206079542636871,0.0912695005536079
1790592440884541200,3.39436865234375,1.3180360709667205,-0.1580488737523555,-0.6618377690792083,0.8123543476305901,9.772413968399167,0.1018936092149931,0.0234182551503181,0.3829162418842315,0.1256522387266159
1790592440894554000,3.404381591796875,1.2064870095174758,0.0457809234440326,-0.8633627964645624,0.8249928068641573,9.77134137073159,0.1030542687585111,0.0117959538474679,0.3224510252475738,0.1356681138277053
1790592440904567300,3.4143947753906247,1.894313717790693,0.2865513350248336,-0.9383879345715044,0.83717088204436,9.770290984895825,0.104457313090004,0.0074933511205017,0.2522889673709869,0.115777775645256
1790592440914580200,3.4244077148437504,2.187236487543583,0.3245025877565145,-0.8573106568187475,0.8468153470937162,9.769449857896566,0.1053815152628347,0.0138753503561019,0.2042756527662277,0.085931196808815
1790592440924593200,3.434420654296875,2.102730404385924,0.0574321982711553,-0.793506000906229,0.8541084267113357,9.768819158777594,0.1050234134070109,0.0227759014815092,0.1628986448049545,0.0673607066273689
1790592440934606000,3.44443359375,1.960286803783476,-0.1568517729222774,-0.840384656459093,0.8593345638617873,9.768374337619544,0.1038683981529902,0.0229748394340276,0.1160770803689956,0.0403642393648624
1790592440944618200,3.4544455566406254,2.0445245913937686,-0.1249304480046033,-0.9587731354743242,0.8617369488283991,9.768175600177049,0.1026965687614865,0.0154625941067934,0.0643201395869255,0.0120894582942128
1790592440954631200,3.46445849609375,2.0040221928745505,-0.0602571925640106,-1.0327122319102289,0.8621366156704723,9.768146374082566,0.1021157823320012,0.0003249202854931,0.0080454181879758,0.0030056817922741
1790592440964644000,3.474471435546875,1.601916287086159,0.0956143371492624,-1.1074094532370566,0.8632135972522199,9.768047589883208,0.1024435347153339,-0.0125216357409954,-0.0544192902743816,0.0182743836194276
1790592440974657300,3.4844846191406247,1.357725984059274,0.134838094034791,-1.086767062702775,0.8649906899273395,9.767877494013309,0.1034982861989643,-0.0245447438210248,-0.1206702142953872,0.0092894099652767
1790592440984670200,3.4944975585937503,1.5447513614490629,0.0930365956157445,-0.9645423665255308,0.864264421479404,9.76793127002716,0.1045749481203034,-0.0226120874285697,-0.1674867272377014,-0.0281913857907056
1790592440994683100,3.504510498046875,1.2751058607786894,0.0826677618145942,-0.7388076115131378,0.8603723824769258,9.768274384376406,0.1046433371813967,-0.0103548876941204,-0.1912144273519516,-0.051354493945837
1790592441004696000,3.5145234375,0.2857075046118348,0.0448509491175413,-0.5592880797088146,0.8558777014061808,9.768681796133516,0.1034920482544228,-0.001664194278419,-0.1924309581518173,-0.0400400571525096
1790592441014709000,3.5245363769531246,-0.622366978630051,0.0790846426308155,-0.5162970792442559,0.8540058431196957,9.7688641669631,0.1016511970275547,0.0037705181166529,-0.1925151050090789,-0.0018575165886431
1790592441024722200,3.5345495605468753,-0.9267566065538674,0.0548193854242563,-0.5285018963009118,0.8556785255722701,9.768737910234927,0.0996404143275693,0.0012775328941643,-0.1935550719499588,0.0273733399808406
1790592441034734800,3.544562255859375,-0.6780507988639175,-0.0352870019584894,-0.6633306379854679,0.8589625887442379,9.768464353990554,0.0982990096559748,-0.0105205364525318,-0.1994553059339523,0.0332565270364284
1790592441044747000,3.5545744628906246,-0.4473550604432821,-0.018099720314145,-0.7459966462343931,0.8621504980653524,9.768186121571064,0.098066032017162,-0.016960060223937,-0.1920938044786453,0.0273989047855138
1790592441054760000,3.5645874023437503,-0.5695766148153693,0.022381927677989,-0.5716460415005683,0.8648115339681506,9.767956988990306,0.0974441829249262,-0.0008130483329296,-0.1713163554668426,0.0237559676170349
1790592441064773000,3.5746005859375,-0.8262836503922939,0.0212415254712104,-0.30666297968328,0.8674339914262295,9.767751237285136,0.0947759409632068,0.0258875377476215,-0.1429001539945602,0.0278756115585565
1790592441074786000,3.584613525390625,-1.0262996614541855,-0.0208434660643339,-0.293984699895978,0.8708261180825531,9.767488202434778,0.0906274429816287,0.0315558090806007,-0.1144461408257484,0.0391234718263149
1790592441084799000,3.5946264648437496,-1.094979376057163,0.0488140075296163,-0.5827805989772081,0.8753113737378269,9.767113523903488,0.0877795975361485,0.0040690582245588,-0.0824719667434692,0.0506144799292087
1790592441094812200,3.6046396484375003,-1.0935646869536488,0.0737321756869554,-0.9038052814900874,0.8810795818757265,9.76658803872466,0.0887295095389708,-0.0350375995039939,-0.0457954443991184,0.0665851905941963
1790592441104825000,3.614652587890625,-1.1834398228637872,0.0705342564284801,-0.8539876498758793,0.888354614380002,9.765894795763492,0.0923321371408179,-0.0388115644454956,-0.0155168995261192,0.0803702473640441
1790592441114838000,3.62466552734375,-1.086544286797568,-0.043484336939454,-0.3908820625931024,0.8963549654841423,9.765140762525796,0.0947493634835351,-0.008573499508202,-0.000829565920867,0.0826680213212966
1790592441124851000,3.6346782226562504,-0.7236533700663595,-0.1312140583187341,-0.0611275547909084,0.9041161740701644,9.764433491039275,0.0937485158779192,0.0273815710097551,0.0054815933108329,0.0749826729297638
1790592441134863000,3.6446904296875,-0.4728087237168103,-0.074318451142311,-0.0852285522133111,0.9112468296676872,9.763802207398411,0.0904659140106756,0.0370672196149826,0.0118153896182775,0.0707048401236534
1790592441144876000,3.6547033691406248,-0.4631757299095392,-0.0587146392971277,-0.3886246390551328,0.91837324748151,9.763161571407318,0.0874041426867246,0.0246539618819952,0.0255277380347251,0.0779531598091125
1790592441154889200,3.6647165527343746,-0.753835011709854,0.2190630221635103,-0.6285241130203009,0.9269655731294304,9.762362529984117,0.0859380521895363,0.0129709411412477,0.0428025983273983,0.0984019786119461
1790592441164902000,3.674729248046875,-0.9525321952581404,0.1602121892660856,-0.6070540394902229,0.9375682887516916,9.761358321377635,0.0849682755756191,0.0161965601146221,0.0497486554086208,0.1173807308077812
1790592441174915000,3.684742431640625,-0.7830782034594566,0.027402386188507,-0.572327594023943,0.9491757244370878,9.760242469090224,0.0842097762253601,0.0050038280896842,0.0596430972218513,0.1212524324655532
1790592441184928000,3.6947553710937497,-0.4928917998678982,-0.0875426743745803,-0.7267980247676372,0.961107935097441,9.759069918179511,0.0850024061740841,-0.0090560652315616,0.0715567469596862,0.1230439394712448
1790592441194941000,3.7047683105468754,-0.2028907627806067,0.003847323077917,-0.7219827334403991,0.9726266695860772,9.757911980316042,0.0869209348801989,-0.0143562871962785,0.0687495097517967,0.1118200495839119
1790592441204954000,3.714781494140625,0.1766569089148193,-0.1146761804938316,-0.5039437936276198,0.9828845903586596,9.75687211587429,0.0879514926374889,0.0082896361127495,0.0563514307141304,0.0983721539378166
1790592441214967000,3.72479443359375,0.380897917260602,-0.0356751244932413,-0.2505921511595137,0.9918773135010152,9.755983058080076,0.0856914935499429,0.0450441911816597,0.0302359405905008,0.0888497531414032
1790592441224980200,3.7348076171874998,0.3623018647968768,-0.1093032552838325,-0.2792161698311567,1.0010463430583476,9.755092831242084,0.0803480136301368,0.0608785450458526,0.0055582923814654,0.1007532849907875
1790592441234992000,3.744819580078125,0.0580776565678417,0.0811953511744737,-0.68794485476017,1.0116814996454864,9.754035431143642,0.0753287058970891,0.0334442555904388,-0.0077407350763678,0.1162696629762649
1790592441245005000,3.75483251953125,-0.1616034244287759,0.3264683348715305,-1.0900216805845495,1.0233663844812662,9.75282196370065,0.0747307080378988,-0.0245790984481573,-0.0063572227954864,0.1228029280900955
1790592441255018000,3.7648454589843747,-0.2466483637034892,0.4560094915419816,-1.1272662463515997,1.035387880860269,9.751517895364762,0.0789050300139002,-0.0574139952659606,-0.0037653583567589,0.121853232383728
1790592441265031200,3.7748586425781254,-0.2088020326510071,0.1427425835490226,-0.6808961052924394,1.0469222513094545,9.750247729298472,0.0836922551572788,-0.0366469249129295,-0.0061504854820668,0.1125827655196189
1790592441275043800,3.784871337890625,-0.0138620096791535,-0.2885673510223627,-0.1291717479693237,1.0574345852345228,9.749104989004136,0.0845798242473043,0.01707648858428,-0.0186993014067411,0.102165013551712
1790592441285057000,3.794884521484375,0.1408482211697846,-0.623159955638647,0.0651584086090326,1.0673257915865628,9.748061032909154,0.0807383646545931,0.0503465607762336,-0.0335301794111728,0.102749578654766
1790592441295070200,3.8048977050781247,0.0876071179129183,-0.4783487491220236,-0.229970200625062,1.0782194529794156,9.746901926001906,0.0756937900495482,0.0390622168779373,-0.0429609641432762,0.1211038157343864
1790592441305083100,3.8149106445312504,-0.1471232828512787,0.0286509249448776,-0.6179279002040624,1.0907380121603607,9.745528299561142,0.0732472371476469,-0.0018865503370761,-0.0471471883356571,0.1344800889492035
1790592441315096000,3.82492333984375,-0.2972038811381906,0.2929582794576883,-0.7633855879306792,1.1043491888836026,9.743983992728593,0.0747532303969608,-0.0348879098892211,-0.0342252627015113,0.1434530764818191
1790592441325109000,3.834936279296875,-0.4296897129584103,0.813500741186738,-0.4921364514559507,1.118172327857092,9.742384740838409,0.0776400333130732,-0.0240163542330265,-0.0147016290575265,0.1361458897590637
1790592441335121200,3.8449484863281254,-0.3556173455316573,0.3858914146989584,0.0195937582641839,1.1302912201959638,9.74098305734694,0.0779700507187284,0.0173409394919872,-0.0009533264674246,0.1130030155181884
1790592441345134000,3.85496142578125,-0.2535899264696985,-0.1503892989099025,0.1909533462221734,1.1409406245041638,9.739763744685051,0.074952588893962,0.034448817372322,0.0145776970311999,0.1080314293503761
1790592441355147000,3.864974365234375,-0.444450425042957,-0.540225067320466,-0.2227449255466461,1.1522362177614125,9.73844798591137,0.0732568954585585,0.0056435372680425,0.0330749489367008,0.1248908340930938
1790592441365160000,3.8749873046874996,-0.4531869814671576,-0.2005360163480043,-0.5352776740461588,1.1648635710790751,9.736941088479757,0.0739450329863466,-0.0077516306191682,0.0354851074516773,0.1321692615747451
1790592441375173000,3.8850004882812503,-0.2066504075750708,-0.1577858389019966,-0.3626122459203004,1.1780977311834693,9.735340083023903,0.0750087303948355,-0.0061886208131909,0.0349261090159416,0.1429934054613113
1790592441385186000,3.895013427734375,-0.3468760398671031,0.0068126026242971,-0.0921393545150756,1.1927774869862944,9.733547938910126,0.0756793276993557,0.0011883350089192,0.0438399761915206,0.1561872512102127
1790592441395199000,3.9050263671875,-0.4993828423876315,0.1922480804741382,0.060617267181212,1.2076178401783109,9.731718969917296,0.0757028501388384,0.0100662484765052,0.060028001666069,0.1478094756603241
1790592441405212200,3.9150395507812497,-0.3239480226136744,0.1927805799156427,0.0418915239232126,1.2214745891604573,9.729989369645716,0.0755739950282033,0.0057950709015131,0.0878383293747901,0.1396016031503677
1790592441415225000,3.9250524902343753,-0.4035417838104069,0.3728554075151681,-0.056787470626831,1.2349283102996649,9.72828139668405,0.0766894728562794,-0.0017816219478845,0.1115047708153724,0.139352336525917
1790592441425237000,3.935064453125,-0.4292049251161515,0.3424175991535186,0.0137421096265316,1.2484708057008682,9.726547120237347,0.0773871910631656,0.0207620374858379,0.1247579902410507,0.140008807182312
1790592441435250000,3.9450773925781246,-0.2102171601459384,-0.262048177409172,0.149935125401616,1.2618700932390987,9.72483037944734,0.0757181892718654,0.0422103330492973,0.1247742474079132,0.1380748152732849
1790592441445263000,3.9550905761718753,-0.032802637796849,-0.7084796932667493,-0.1050385927098337,1.275243369553238,9.72309668752253,0.0742132920010946,0.0112918354570865,0.1238272190093994,0.1410881876945495
1790592441455276000,3.965103515625,-0.1257750821352005,-0.3127040134131908,-0.5651999341011047,1.2896560719177126,9.721168349808456,0.0778302677887026,-0.050618939101696,0.139713242650032,0.1586746424436569
1790592441465289200,3.97511669921875,-0.2784497155033051,-0.0100444241523742,-0.5214595765739679,1.305562081579864,9.718979899853467,0.0854153708891477,-0.0617099404335022,0.1396871507167816,0.1675493568181991
1790592441475302000,3.9851293945312496,-0.0904189604632556,0.2411994506478309,0.1688397323578596,1.3217868018023669,9.716733582231402,0.0913800788466818,-0.0218301657587289,0.1308302730321884,0.1660705059766769
1790592441485315000,3.9951425781250003,0.1730653872288763,0.1997761378914117,0.6462690285474062,1.337226947518438,9.714613521337508,0.0921926921375095,0.0391098856925964,0.1205637827515602,0.1507778316736221
1790592441495328000,4.0051552734375,0.4447307032890618,0.2503086397767067,0.6580845540255308,1.3501723538093269,9.712862293756007,0.0878591929778456,0.0722214952111244,0.1123918741941452,0.1196340173482894
1790592441505341000,4.015168212890625,0.4635549384854733,0.0787123021870851,0.1816430998295545,1.3614251308381558,9.71132733927369,0.0838138357103336,0.0330629125237464,0.1249678581953048,0.117984727025032
1790592441515353000,4.025180419921876,-0.0784483905538916,0.1017483098596334,-0.4511667276859283,1.3740107639059425,9.70954045585692,0.0854526615590788,-0.0280036386102437,0.1425479054450988,0.1409158855676651
1790592441525366000,4.0351933593750005,-0.2791960038259625,-0.0080073653668165,-0.5528770436227322,1.3878608639515937,9.707515672031043,0.0913948471575509,-0.0464249923825264,0.1455144137144088,0.1441665291786193
1790592441535379200,4.045206542968749,0.0837799608401954,-0.1542570802539587,-0.0137198977947235,1.401672531682998,9.70547569063604,0.0972177811573725,-0.0305589418858289,0.1407915502786636,0.1436085999011993
1790592441545392000,4.055219482421874,0.1979554983355105,-0.1354705467194318,0.4446352800905704,1.41543699927181,9.703447984200716,0.100045816790685,0.0124417878687381,0.1329208463430404,0.1422605067491531
1790592441555405000,4.065232421875001,0.1486691971190273,-0.1417494808584451,0.5858604448139667,1.4288102755859493,9.701496265611052,0.0991804595324676,0.0404422655701637,0.1297871023416519,0.1365458965301513
1790592441565418000,4.075245361328125,0.1220326807364821,0.1360311032116413,0.444115640130639,1.4415304948188363,9.699647422873973,0.0959265631699003,0.0632495731115341,0.1347291320562362,0.1270757019519806
1790592441575431200,4.085258544921874,0.1420407188899815,0.0741197136998176,0.1962660839438438,1.45309613718912,9.697963999831677,0.0916364008284639,0.0560989901423454,0.1250991523265838,0.1165958866477012
1790592441585444000,4.095271484374999,0.1501322554089129,-0.1370493403434753,-0.3100222269833088,1.464906255839765,9.696198743724825,0.090354452992836,0.0029609350021928,0.129400685429573,0.132372185587883
1790592441595457000,4.105284423828126,-0.081219024311006,-0.1998971339225768,-0.7483323957055806,1.4783848922245204,9.694102063706517,0.095463612700114,-0.070025123655796,0.1324939429759979,0.1449809223413467
1790592441605470000,4.11529736328125,0.0884203339919447,-0.0096229838699102,-0.6639391252726317,1.4919022531844677,9.691923550623654,0.1059407383144833,-0.0946077033877372,0.1451610028743744,0.1343365460634231
1790592441615482000,4.125309570312499,0.3492471529126167,0.2689250774413347,0.1175637186288833,1.5043138448596,9.689906365582347,0.1146740250693634,-0.0320204868912696,0.1500540375709533,0.1241238415241241
1790592441625495000,4.135322509765626,0.1828255876123905,0.1989268275856971,0.9366378760337828,1.516009981741756,9.688078565633296,0.1150152945213951,0.0752987787127494,0.1528831124305725,0.1186899319291114
1790592441635508000,4.14533544921875,0.1048123736053705,-0.0745318016320467,0.9993751949757336,1.526686420187354,9.68650386366248,0.1061472846040967,0.145421952009201,0.1541726142168045,0.1050343066453933
1790592441645521200,4.155348632812499,0.2480230130575597,-0.2387082183539867,0.195939336207509,1.5367046869851648,9.685030868500473,0.095405206176918,0.1130703911185264,0.1639053970575332,0.1075347438454628
1790592441655534000,4.165361572265626,0.1055541318833827,-0.1699327882915735,-0.9812263748228548,1.5477917520582676,9.683293084922433,0.0925288926887791,-0.0065313698723912,0.1853025704622268,0.1238359585404396
1790592441665547000,4.175374511718751,-0.0033671383455395,0.181933022686839,-1.5644950495779513,1.5597481473118069,9.68128116057813,0.1019372017615474,-0.1154855489730835,0.2093000411987304,0.1237360835075378
1790592441675560000,4.1853872070312494,0.276653041344881,0.371785147935152,-1.0622504610836505,1.570473685596138,9.679372696608304,0.1172889385418035,-0.1189415380358696,0.2186266928911209,0.1018667370080947
1790592441685573000,4.195400390625,0.5163919179208576,0.1866033525854349,0.1585544851869344,1.5792827227346595,9.677806762465837,0.1277020498760976,-0.0162409897893667,0.2188317626714706,0.08628511428833
1790592441695586000,4.205413330078125,0.3746136493593454,-0.0827010795623063,0.942361514377594,1.5869858444578944,9.67656640701592,0.1262007054024375,0.1123294979333877,0.2118619978427887,0.0778482258319854
1790592441705599000,4.21542626953125,0.331877792699635,-0.4106359798550605,0.7273661800444126,1.5936588924810289,9.675597854244709,0.1159912816803902,0.1529011726379394,0.217232808470726,0.067205436527729
1790592441715611000,4.225438232421874,0.3181944275230169,-0.1866688190370798,-0.4412573280900717,1.6003091441504655,9.674589553985,0.1081638577240519,0.066054418683052,0.2327033728361129,0.0790740773081779
1790592441725624000,4.235451416015625,0.094829908773303,0.2567699447453022,-1.5262877762585878,1.6084947886936365,9.673181440752744,0.1126614431379362,-0.0761005952954292,0.2595666646957397,0.0949427857995033
1790592441735637000,4.24546435546875,0.1118149458438158,0.4444166689038276,-1.653779014661908,1.6172475656002758,9.671534258067608,0.1277747954519,-0.1313217729330063,0.2720814049243927,0.0883514657616615
1790592441745650200,4.2554775390625,0.5489287443883717,0.0452414097398519,-0.6516542287170887,1.6244075203575192,9.67012848292291,0.1424374722557607,-0.0721950680017471,0.2598226070404053,0.0681196972727775
1790592441755663000,4.265490478515625,0.7340311908915639,-0.3316197262853383,0.4252893591076135,1.6296442519672214,9.669155838498472,0.1485707234469242,0.0246894005686044,0.2394608706235885,0.0458173193037509
1790592441765676000,4.27550341796875,0.6623224838562309,-0.4030523928582668,0.7518769364446402,1.6325198074035343,9.668762455266714,0.1425072404231876,0.1378457844257354,0.2096640914678573,0.0138719044625759
1790592441775689200,4.285516601562501,0.5980566401727497,-0.2631950093567371,0.1910018798053264,1.6330398857548831,9.668815646758675,0.1325147017216775,0.1138738691806793,0.190200388431549,0.0077101485803723
1790592441785702000,4.295529296874999,0.0943976548358798,0.8851391594648361,-0.9710282214134932,1.63436543527022,9.668650227063894,0.1281196268341969,0.0541538149118423,0.2235990911722183,0.0325545109808445
1790592441795715000,4.30554248046875,-0.6236024387091398,0.9032458940416574,-1.3637047662079331,1.6394918383732435,9.667752401441335,0.1303917638841085,-0.0158391185104846,0.2364717423915863,0.084103986620903
1790592441805728000,4.315555419921875,-0.7677066660001873,-0.0628331805318593,-1.4329723637014626,1.6502691068448123,9.665825232771038,0.1371105964108835,-0.037348672747612,0.2466234415769577,0.1386335492134094
1790592441815740200,4.325567626953125,-0.1542062268495559,-0.4354138627588749,-1.232164544674754,1.662852547955513,9.66356488662362,0.144299338871194,-0.0278081614524126,0.2197215259075164,0.1207839697599411
1790592441825753000,4.33558056640625,1.0390689074605703,-0.7931652246445416,-0.8960995294183492,1.6711673718363045,9.66203636188209,0.1504555782123003,0.016218151897192,0.2343763709068298,0.0529505982995033
1790592441835766000,4.345593505859375,1.2822051713898777,-0.640980274489522,-0.5535346307486295,1.672987719131261,9.661732995021342,0.14966287519834,0.1173266544938087,0.1576032936573028,-0.0092307515442371
1790592441845779000,4.3556064453125,1.1262981319718062,-0.0377829104274511,-0.5687058963954449,1.6668372336775064,9.662772274941206,0.1512168449083808,-0.0793097019195556,0.2083040177822113,-0.0972900390625
1790592441855792000,4.36561962890625,0.3769958683207631,1.1731681658267974,-1.0965782626211642,1.659871047926694,9.663885204619168,0.1565550367317162,0.1043746396899223,0.276806116104126,-0.0154303237795829
1790592441865805000,4.375632568359375,-1.26943482940495,2.661770646813512,0.4439852917492389,1.6647776707991957,9.663281393507122,0.1410979581471532,0.2507275938987732,0.1686919033527374,0.1155628487467765
1790592441875818000,4.385645263671876,-0.8815484414964914,-1.582239380583167,-0.3353665115982294,1.6809126669116317,9.660724694761631,0.1237791042787022,0.2055068612098693,0.1453892439603805,0.1898176372051239
1790592441885831200,4.395658447265625,0.5411329759456217,0.1246247430562973,-1.9669839633345605,1.6980439805850385,9.65793360273838,0.106539681455167,0.1717433035373687,0.111452043056488,0.1588623970746994
1790592441895844000,4.405671386718749,1.3319343940682709,-0.0973269862860441,-2.3733500107854604,1.7081034561760722,9.65617769898176,0.1049935845243278,-0.1090087443590164,0.1031914502382278,0.0273693371564149
1790592441905856300,4.41568359375,1.371140323036164,-0.5786036055535078,-2.609357738009095,1.7028648248702287,9.65696680353284,0.1166944615136831,-0.0425586104393005,0.226404458284378,-0.1121629923582077
1790592441915869000,4.4256962890625005,0.9377787166319786,-0.0778735132753849,-0.8330436460465193,1.6925513745181262,9.658721538245675,0.1215166666388977,0.0148130673915147,0.1813035607337951,-0.0721410065889358
1790592441925882000,4.435709472656249,-0.5827447970114648,-0.282080327090621,-0.4222323096245527,1.6930559630393982,9.658673022928834,0.1183185007852502,0.0997740253806114,0.1306140273809433,0.0836672335863113
1790592441935895000,4.445722412109374,-0.4625473688781261,1.1614163532346486,-0.813875419718027,1.7033423792541027,9.656933485785126,0.1125242174911778,0.0330602452158927,0.0573469959199428,0.1074228957295417
1790592441945908000,4.455735351562501,1.1602135533161462,0.0554424857586622,-1.929203390994668,1.7089380073040723,9.655888360646369,0.11724147353773,-0.0883956104516983,0.0904058814048767,0.0067583345808088
1790592441955921000,4.465748291015625,1.4565718504756688,0.2725461905479431,-1.9818547847300767,1.707066075952351,9.656056702950597,0.129789962066058,-0.1269451230764389,0.1251931488513946,-0.0303645320236682
1790592441965934000,4.475761474609374,0.1105241753809154,-0.9306178850919008,-0.8707143282711506,1.7054779299780725,9.656137366971372,0.1440739326174836,-0.1266748160123825,0.1135207861661911,0.0049862670712172
1790592441975947300,4.485774658203125,-0.0448844129957258,-0.0521972202271223,-0.0604810827140696,1.7072084070324898,9.65563818527758,0.1563986953925341,-0.0795786827802658,0.1158662363886833,0.0315054953098297
1790592441985960000,4.495787353515626,0.953306248370558,0.2068336551874876,0.3453396240800619,1.7090458515927194,9.655181673681737,0.1643259081952273,-0.0497363656759262,0.0907235965132713,0.005578021518886
1790592441995972600,4.5058000488281245,1.752512360614538,0.0982131214708089,0.2911655508220195,1.7072586759150028,9.655465166798232,0.1662768778662197,0.0471864566206932,0.0727909356355667,-0.0418851003050804
1790592442005984800,4.515812255859375,1.920318366010487,0.4414759392768144,0.53749476557374,1.7010612825796008,9.656668112847209,0.1598165775446221,0.1014845743775367,0.0605454519391059,-0.0827837958931922
1790592442015997700,4.5258251953125,1.5347399627834557,-0.6689180827289819,0.2971329347938299,1.6929431503146886,9.658247490993142,0.1502833086516242,0.1036438643932342,0.0683591663837432,-0.075817234814167
1790592442026010600,4.5358381347656245,1.1478164285577832,0.0281739550828933,-0.3955284270942211,1.6870682669319212,9.659365681368111,0.1444362357243895,0.0248225573450326,0.0623137950897216,-0.046560812741518
1790592442036023600,4.545850830078125,1.3697070753626523,0.6799380739152431,-1.1066115808576344,1.6812540276952086,9.66031962109208,0.1483323389806319,-0.0636846721172332,0.0818984135985374,-0.0787815973162651
1790592442046036700,4.555864013671876,2.121348449485749,0.8946756340950727,-0.8865086942523718,1.6692713289566337,9.662257311156392,0.1571748673968017,-0.081642635166645,0.0882529839873313,-0.1683351844549179
1790592442056050000,4.565877197265625,2.1559004151679573,-0.2121528043836355,-0.0664613444337621,1.6487848596364258,9.665656890466808,0.1641747362215072,-0.0069513507187366,0.0838600993156433,-0.2493554651737213
1790592442066062600,4.575889892578125,1.4452658819548785,-1.318348790177703,0.5783996074140072,1.6239507165007292,9.66992156217396,0.1605106424896977,0.1052984893321991,0.0768088474869728,-0.2464329153299331
1790592442076075800,4.585903076171874,0.5888147645749151,-0.6695750853329897,0.4553992506891489,1.6024783048830926,9.673719200891256,0.1470418881781399,0.1752738505601883,0.0551048815250396,-0.1905195713043213
1790592442086088700,4.595916015625001,0.3947670873329043,1.1125386328190563,-0.3966004402399062,1.5861355112388729,9.676631873467564,0.1317421007808298,0.123135007917881,-0.0112549653276801,-0.1560225784778595
1790592442096102000,4.60592919921875,0.6708779846251011,1.1190788482427596,-1.5068834030866622,1.5717407829225063,9.679069914269446,0.1249798766369,-0.0012545827776193,-0.051089197397232,-0.1494395136833191
1790592442106113800,4.615941162109374,0.6635837359637021,-0.1809077712923288,-2.0868401768147944,1.5585345337383447,9.681099374270438,0.1328726391807198,-0.1602953672409057,-0.0163069833070039,-0.108741894364357
1790592442116126700,4.625954101562501,0.1462242881849408,-1.550653571230173,-1.836288960453868,1.5511149051316082,9.681960375013947,0.155110445680283,-0.1429744213819503,-0.0077510452829301,-0.0565529949963092
1790592442126139600,4.6359670410156255,0.5646488760896027,-2.177612334629893,-0.2819429644465446,1.5464384377531706,9.682685766679048,0.1565466342295519,0.0723677054047584,-0.0411068722605705,-0.044620968401432
1790592442136152800,4.645980224609374,1.9988592571534216,-0.8397329145520925,0.6913432650268078,1.5382742743894458,9.68436217545867,0.1312144053786061,0.4407840967178345,-0.1250491738319397,-0.1517442166805267
1790592442146165500,4.655992919921875,2.759247855225205,3.6398774283111095,0.8846960918724537,1.5075186322502792,9.689839730086922,0.069093711364502,0.7851033806800842,-0.1159685924649238,-0.4919151067733764
1790592442156178700,4.666006103515626,2.6578879601612684,3.4126761078774925,-0.1917921534001827,1.4478683195382356,9.69916753040254,-0.0133606828356918,0.872024655342102,-0.1127136796712875,-0.7140669226646423
1790592442166191900,4.676019287109375,-0.1509483940973877,1.0245832859903574,-2.358514260703325,1.3781262364007532,9.70877180957198,-0.1043712422417476,0.9188486337661744,-0.206708088517189,-0.6819146275520325
1790592442176204800,4.686032226562499,-2.64444775609076,-0.0150537767469882,-3.5725112805247305,1.328534230235964,9.714561498889326,-0.1806993527060374,0.549688458442688,-0.2296477556228637,-0.2839608490467071
1790592442186217700,4.696045166015624,-3.744263685458898,-1.2099924603551626,-4.84603250246048,1.3271677641883493,9.714047704148292,-0.2151600416419096,0.1299468427896499,-0.1066813543438911,0.2464694678783416
1790592442196229600,4.7060571289062505,-2.975161765708029,-2.2541011155486106,-5.0883144876480095,1.364761727914959,9.708746675130724,-0.2191819906343705,-0.0391905158758163,-0.0685547441244125,0.4760230481624603
1790592442206242800,4.716070312499999,0.1296194826036691,-2.675988557258248,-3.996114293980598,1.4050636354260146,9.703119482898712,-0.2136408509843051,-0.1116713732481002,-0.0895239412784576,0.3186611235141754
1790592442216255700,4.726083251953124,2.128045316775888,-2.729717224836349,-2.749132703924179,1.4185153838038445,9.70148165256381,-0.198578123745881,-0.2125926464796066,-0.0211640559136867,-0.0369513295590877
1790592442226268700,4.736095947265625,2.9769322825118896,0.5323001195400953,-2.096234612625837,1.4010152368180453,9.70455799126923,-0.1706251362035982,-0.3521856963634491,0.0921886041760444,-0.3155587017536163
1790592442236281600,4.7461088867187495,2.890009785862267,4.827050154092908,-1.406943019431829,1.3649356231771408,9.710244220212102,-0.136120270199282,-0.3029387891292572,0.0651527196168899,-0.4017513990402221
1790592442246294800,4.7561220703125,1.744077417485416,2.3406577014952896,-0.2799508955801837,1.3279822954416274,9.715642279863356,-0.1144935996016953,-0.1136130839586258,0.0180030539631843,-0.3440191149711609
1790592442256307700,4.766135009765625,0.5413029256850481,-2.9571172827124594,0.395017554962635,1.2989401792220772,9.719539287301895,-0.1169912799026351,0.1524354964494705,-0.0698792934417724,-0.2682714462280273
1790592442266320600,4.77614794921875,0.3095169078096747,-3.692646310946345,0.0478641594588756,1.2715541596464812,9.722892689383029,-0.1374970201788935,0.2177873402833938,-0.048511691391468,-0.3002198040485382
1790592442276333800,4.7861611328125,0.351396001509577,-1.4652496624499558,-1.198372749710083,1.2411965769141913,9.726590374857189,-0.1524064748180564,0.0476172119379043,-0.0316613391041755,-0.3164623975753784
1790592442286346800,4.796174072265625,-0.2010720229208469,1.6746844400465488,-2.121300080299377,1.2130709910176694,9.730244221189617,-0.1455598968589212,-0.1775205731391906,0.0129908202216029,-0.2538003623485565
1790592442296359000,4.806186279296876,-0.6862429462131112,2.6666742009460926,-1.4483774381041523,1.1912696397066116,9.733194887688756,-0.1271567640182562,-0.1754070818424224,-0.0402111485600471,-0.2102395594120025
1790592442306371600,4.8161989746093745,0.1417440740309655,1.136287172675133,0.1577624397601001,1.1684830036852507,9.736082425823808,-0.1172111057989299,-0.0530699789524078,-0.1456507593393325,-0.2642748355865478
1790592442316384800,4.826212158203125,1.2222558757312596,-1.9277771575838327,0.4808300445437431,1.1375289163645357,9.739757314944269,-0.1163130792469717,-0.0235821306705474,-0.2557386457920074,-0.3621614575386047
1790592442326397700,4.83622509765625,1.413904675137997,-1.672563794630766,-0.1832487814605236,1.1019522838097064,9.743865919306874,-0.1146800072855781,-0.0896612852811813,-0.3233807981014251,-0.3492083847522735
1790592442336411000,4.846238281250001,0.0875904590390622,0.2669400411039591,-0.4730290154039859,1.071203217541799,9.747407537436484,-0.1047220375739503,-0.1818801611661911,-0.3960731029510498,-0.2748401463031769
1790592442346423600,4.8562509765624995,-1.0349128837596624,0.2685726107418537,-0.0739747522711753,1.0461357040416448,9.750263511389493,-0.0913749003480654,-0.1635906398296356,-0.4050700664520263,-0.235591784119606
1790592442356436700,4.86626416015625,-1.3548574428856373,0.2321902147620916,0.7250538114488124,1.0226619625389577,9.752827808919548,-0.0831085461183451,-0.081566073000431,-0.3736554086208343,-0.24412402510643
1790592442366450000,4.876277343749999,-1.6820073302805425,0.9648375500798224,1.1505249568641185,0.9983131187021732,9.755350020873546,-0.0831594360553659,-0.0020049335435032,-0.3126613199710846,-0.2441746145486831
1790592442376462600,4.8862900390625,-2.511029465726018,-0.0787508806318044,0.9687246206462384,0.9755983058080075,9.757611536064744,-0.0873593445637729,0.0314041562378406,-0.2226709723472595,-0.2112110704183578
1790592442386475800,4.89630322265625,-3.1269162154912946,-0.0019815292060375,0.501731378275156,0.9568715396367012,9.759400757569074,-0.0942683567672502,0.0731390863656997,-0.1307495683431625,-0.1683837175369262
1790592442396487700,4.906315185546875,-3.083537384752929,-0.5367091681540012,0.0754968381387647,0.9414753061275928,9.760821145761012,-0.1019822099470533,0.0711859241127967,-0.0473199263215065,-0.153586134314537
1790592442406500900,4.916328369140626,-2.4463185086235404,-1.0332283647388218,-0.4620061016082763,0.9264494403008372,9.76218834246099,-0.1084121973287779,0.059033915400505,0.0197949297726154,-0.1533512324094772
1790592442416513800,4.9263410644531245,-2.2549356666766105,-0.6717834090322256,-0.7266951489150524,0.9122375942707062,9.763466107311844,-0.1138188786779064,0.0501972809433937,0.0795357599854469,-0.133677139878273
1790592442426526700,4.936354003906249,-2.8296228294387458,-0.341851781964302,-0.8182628410220145,0.9019912908706812,9.764381468591091,-0.116822289144434,0.0277202054858207,0.1737671941518783,-0.0782658085227012
1790592442436539600,4.946366943359376,-3.4130738750234246,1.29032330365479,-0.8221370521068573,0.8981148878287524,9.764754393556714,-0.1156418928539846,-0.0022321017459034,0.2704753577709198,-0.0111259203404188
1790592442446552800,4.956380126953125,-3.4050627102643247,2.455978609633445,-0.4512368703126907,0.8978845862042159,9.764773098257184,-0.115590920718573,0.0553891137242317,0.3546608090400696,-0.007820937782526
1790592442456565500,4.966392822265625,-2.7702880124166605,0.3860603415250778,-0.1276256784379482,0.8960771714560687,9.764906369248031,-0.1185280792821664,0.0827541574835777,0.4110907912254333,-0.0357955805957317
1790592442466578700,4.976406005859374,-2.349754177273065,-1.5264800839602946,-0.7127998945534229,0.8936306550867855,9.76507704963982,-0.1227761286480817,0.0764001235365867,0.4654182195663452,-0.0212493948638439
1790592442476591900,4.986419189453125,-2.287892910513281,-1.5675696347177028,-1.2135866854548454,0.8938688477568328,9.765016259363293,-0.1258193870678078,0.0629128143191337,0.4637119174003601,0.0151669364422559
1790592442486603800,4.9964311523437495,-1.9459270006500184,-0.6242898364514112,-1.4469558808684349,0.8969673982940614,9.764753224512932,-0.1242387759460136,-0.0095214396715164,0.4561770558357239,0.0404403358697891
1790592442496616700,5.006444091796874,-1.860069356752932,1.0869260526567697,-1.343908178848028,0.9040347063317894,9.764195006108285,-0.1167041609237901,-0.0487615168094635,0.4779260158538818,0.0929133966565132
1790592442506629600,5.016457031250001,-2.058128753854334,2.084494490471482,-0.4613713108360767,0.9151968824677168,9.76321300933361,-0.1117409124932251,0.0418400168418884,0.464652806520462,0.1148972585797309
1790592442516642800,5.02647021484375,-1.3481139599747956,0.4494780439466238,0.2629401578128337,0.925088454145938,9.762240364909172,-0.1150982052981853,0.0970494747161865,0.4660906493663788,0.0750648900866508
1790592442526655700,5.036483154296874,-0.6070655837975442,-0.7862392247736454,-0.3674631930828094,0.9323779535669832,9.761503282806276,-0.1188594027289189,0.0577388256788253,0.5034236311912537,0.0631749406456947
1790592442536668700,5.046496093749999,-0.6522347320187837,-0.6129086107373237,-1.2855378229439258,0.9395391504332424,9.760855048030614,-0.1156692101191729,-0.0362670347094535,0.511163055896759,0.0719351470470428
1790592442546681600,5.056509033203126,-0.2651155290905386,-0.5411135405927896,-1.3370809631764888,0.9483607547923922,9.760136670628189,-0.1036296757599804,-0.1150063201785087,0.5135292410850525,0.1044259741902351
1790592442556694800,5.066522216796875,0.1788862023368477,0.0996025300025939,-0.5220715709924697,0.9621005993966012,9.758971718502044,-0.0850081417951267,-0.167728915810585,0.4595262408256531,0.164109006524086
1790592442566707700,5.076535156249999,0.7155153640571982,-0.0438753820836544,0.3729261346638202,0.9786818049065767,9.75745196158886,-0.0687130962827708,-0.0777428373694419,0.4083977937698364,0.1610599607229232
1790592442576720000,5.08654736328125,1.6863631874024867,-0.9395406117379664,1.0009271005928515,0.9931975292541086,9.756039756703377,-0.0604552632862236,-0.0193916466087102,0.3751929700374603,0.1334456354379654
1790592442586732500,5.0965600585937505,2.126743878788501,0.9105997639358044,0.9963058705329896,1.0051711679033934,9.75482044404149,-0.0591252978906733,0.0499333664774894,0.3272044062614441,0.0924952775239944
1790592442596745700,5.106573242187499,2.304993390657008,2.503970194864273,1.019837552767992,1.0081326480574906,9.754490773695707,-0.0627556628828169,0.0828265994787216,0.3202825784683227,-0.0433317944407463
1790592442606759000,5.11658642578125,2.7889368910461663,0.7872475250333547,0.649894817829132,0.9983908601135016,9.755468678817152,-0.066457490242552,0.0469455644488334,0.3424108028411865,-0.138868436217308
1790592442616771600,5.126598876953125,1.7161336178965865,-1.4112906932473182,-0.1851262657701969,0.98751838763915,9.756578685885668,-0.0659657886023167,0.0160861853510141,0.3517912626266479,-0.0760415345430374
1790592442626784800,5.1366120605468755,0.5693365955144166,-1.3427823896884918,-0.4604629638195037,0.9830039058893918,9.757055071225762,-0.063118628143426,-0.0022603310644626,0.3261141180992126,-0.0411911457777023
1790592442636797700,5.146625,1.535694194768369,-1.657410649162531,-0.2614332603812218,0.9747758835092186,9.757892691093682,-0.0610353327630786,0.0115271201357245,0.2579281330108642,-0.1417814046144485
1790592442646811000,5.156638183593749,2.510663847284019,-0.9786474642455576,-0.0706967443806584,0.9582347908139228,9.759530521428584,-0.0609837943720864,0.0226215831935405,0.2149313986301422,-0.1802387833595276
1790592442656823600,5.16665087890625,1.181811491009593,1.3420821324646472,0.0923439371764659,0.9443892208129168,9.7608784289062,-0.0613692454591393,0.0370924025774002,0.15496127307415,-0.0954202935099601
1790592442666836700,5.1766640625,0.2305146097000688,3.765453188481927,0.5262368739783764,0.9390529743514956,9.761337278589606,-0.0698427122340537,0.1577807366847992,0.0540900528430938,-0.0360304713249206
1790592442676848600,5.186676025390625,1.1286636189941317,0.806193633043766,0.4568938731610775,0.9340906757690012,9.76166227276027,-0.0883360715082846,0.2025868147611618,-0.0774011239409446,-0.0663713291287422
1790592442686861800,5.196689208984376,2.2169068186640737,-1.7813029862910508,-0.8925660945951938,0.926231048309803,9.76222516734004,-0.1070127514601685,0.1522586643695831,-0.1046670973300933,-0.0927251726388931
1790592442696874500,5.2067019042968745,2.1463763616278766,-2.1142519153535364,-1.8305390186250208,0.9150594467584044,9.763127669137717,-0.1199866988589521,0.0909423157572746,-0.124043196439743,-0.1399595290422439
1790592442706887700,5.216715087890625,2.5140812545120714,-1.5307991162031889,-2.1025416038155558,0.8985540829636156,9.764608263084291,-0.1242152580731082,-0.0436213538050651,-0.1661938428878784,-0.1914948970079422
1790592442716900900,5.226728271484374,2.431439796182513,0.0586626168489456,-2.113432415664196,0.8801900856900959,9.766392808413505,-0.1149713640481233,-0.1810279488563537,-0.1607617884874344,-0.1717158704996109
1790592442726913800,5.236741210937501,1.6119067890942096,1.6703215686619282,-1.3266191903948783,0.8662414206407963,9.767826056087015,-0.0977816621178295,-0.16563381254673,-0.1921186596155166,-0.108226902782917
1790592442736926700,5.246754150390625,1.7918036297783255,3.187587249553204,0.1508884897368494,0.8558840580817312,9.768783502942323,-0.0932779026914853,0.0262112580239772,-0.3310475051403045,-0.1075536534190177
1790592442746939600,5.25676708984375,2.771097867494821,0.0403758495301008,0.7416869663417339,0.843697872660309,9.769715815356372,-0.1058766418360173,0.1428590416908264,-0.4703992903232574,-0.1337722092866897
1790592442756952800,5.266780273437499,3.151945735068619,-2.6283739886462687,-0.5064473008811473,0.829761190309748,9.770725284659862,-0.1215813111066352,0.0658026114106178,-0.5839980244636536,-0.143092468380928
1790592442766964700,5.276792236328125,3.5973186817839737,-1.9791829351723196,-1.885161420172453,0.8119028044708073,9.772159701377152,-0.1268659552449826,-0.0676691681146621,-0.6727023720741272,-0.211888313293457
1790592442776977700,5.28680517578125,4.421317143848539,-0.3514595682650804,-1.931767688524723,0.7848742200307548,9.77443875222504,-0.1212603720565792,-0.1564291268587112,-0.7628445029258728,-0.3244899809360504
1790592442786990600,5.296817871093751,4.15800201524347,-0.0062935471862554,-1.065845270705223,0.7493631269928067,9.777329797491433,-0.1125512516285758,-0.1451570391654968,-0.8174824118614197,-0.3660190403461456
1790592442797003800,5.3068310546875,2.3412582977369425,0.6198743580967188,-0.0362134691536426,0.7155387449327856,9.779939103206992,-0.1057929638742469,-0.1174569651484489,-0.8114362359046936,-0.2945086359977722
1790592442807016700,5.3168439941406245,0.6037189767833798,0.6283002411365509,0.3704091834068298,0.6895988325122744,9.781837630304691,-0.1024083720704074,-0.0648792386054992,-0.8343096375465393,-0.2284603714942932
1790592442817029600,5.326856933593749,0.9405221701212226,0.1051385368198156,0.4766764319956302,0.6650892451558261,9.783511700996756,-0.1045281863691285,-0.0212002005428075,-0.8578304052352905,-0.2663473188877105
1790592442827042800,5.3368701171875,2.401468728549778,-1.030102341672778,0.2005927149713039,0.6339300637170672,9.785548175260423,-0.1075185364246834,-0.0398300737142562,-0.8553195595741272,-0.3519453108310699
1790592442837055700,5.346883056640625,2.78285990922004,-1.2479454666525125,-0.2902864298999309,0.5961068212792276,9.787913150826096,-0.1086471020631957,-0.0594426617026329,-0.8844074010848999,-0.3940168619155884
1790592442847068700,5.3568959960937494,2.040292360651493,-0.6340419996589421,-0.3313841639637946,0.5572668395468965,9.79021733611524,-0.1072033786614425,-0.0695064812898635,-0.9469456076622008,-0.3766826093196869
1790592442857080600,5.366907958984376,1.119466093994677,0.9730150113165378,-0.0548550321263726,0.5216093968408182,9.79221289384663,-0.1042095032082404,-0.1099622920155525,-0.9729058146476746,-0.3279366493225097
1790592442867093800,5.376921142578125,0.4037579473117366,0.4025532111644744,0.1011012441277503,0.4903268082180991,9.793903331151604,-0.097210520299524,-0.1243478953838348,-1.0035873651504517,-0.2970815300941467
1790592442877106700,5.3869340820312495,0.4386305597830564,-0.2186462580561637,0.3637421267330646,0.4594944110482931,9.795454067724943,-0.0914015143603552,-0.0943697541952133,-1.0101935863494873,-0.3170413970947265
1790592442887120000,5.396947265625,0.5273361404571681,-0.5286076947629451,0.7158183655917644,0.4258553954925387,9.797010649517178,-0.0871907465312164,-0.0923662558197975,-0.970093548297882,-0.3526473045349121
1790592442897132500,5.406959960937501,-0.0798052850555628,-0.0468126045793294,0.5855015483736992,0.3871608501128852,9.798694072559476,-0.0779307142221834,-0.1092411130666732,-0.8896713852882385,-0.4242413341999054
1790592442907145700,5.41697314453125,-0.9088291010014712,0.4855366147994995,0.7379647309482097,0.3434981243992224,9.80040204552114,-0.0671393167605623,-0.1139357313513755,-0.7710299491882324,-0.4433375298976898
1790592442917158700,5.426986083984374,-2.1162384129956364,0.0322498262196779,1.0501672245800495,0.303229151043389,9.801783855268358,-0.0589679838705342,-0.0793913379311561,-0.7344580888748169,-0.361728698015213
1790592442927171600,5.436999023437499,-3.1010812247499824,-1.2525257801800966,1.062831475841999,0.2736787199755199,9.802669990453124,-0.056218817593134,-0.032533548772335,-0.699028491973877,-0.2309725284576416
1790592442937184800,5.44701220703125,-3.347578489544988,-0.7878250326603651,0.9789245276212692,0.2541204348835162,9.803192553022503,-0.0570075887840706,-0.0002632262185215,-0.6362301111221313,-0.1755284518003463
1790592442947196700,5.4570241699218744,-2.805196244190633,1.219407938954234,0.8872387620925902,0.2353200372204184,9.8036461420089,-0.0594434787280624,0.0176486633718013,-0.5790876746177673,-0.208338052034378
1790592442957209900,5.467037353515625,-2.898972552257776,0.6603261954724788,0.6228536661684513,0.2132768765101209,9.80412954161167,-0.0626104183263843,0.0242780689150095,-0.4732984006404876,-0.2336561977863311
1790592442967222800,5.47705029296875,-3.774960729278624,0.267232886570692,0.4153495643734932,0.1903918764145113,9.804574362769722,-0.0666936644854489,0.0336627811193466,-0.3790062367916107,-0.2188791185617447
1790592442977235700,5.4870629882812505,-4.510882263961434,0.2437123102515935,0.3085071462452411,0.1712420077266171,9.804900525984168,-0.0704333442041184,0.0229422282427549,-0.2918444573879242,-0.1712122559547424
1790592442987248600,5.497075927734375,-4.820335166624188,-1.099497949460149,0.0847919143617153,0.158076419346407,9.805114460995792,-0.0716243440869729,-0.0128218941390514,-0.1931516975164413,-0.0818373709917068
1790592442997261800,5.507089111328124,-5.275612252238393,-0.911756532755494,-0.0897685245973523,0.1563599708173424,9.805167067965863,-0.0679489161103963,-0.0592210888862609,-0.0962935909628868,0.0469174087047576
1790592443007274800,5.517102050781251,-5.5410617625236505,0.9658534491240978,0.2363420737445354,0.1651812463829294,9.80505951593816,-0.062313732368173,-0.0447068586945533,-0.0054028346203267,0.1224734187126159
1790592443017287700,5.5271149902343755,-4.884005382502079,1.724747570854425,0.9790729961812497,0.1786510053414851,9.804830383357404,-0.061494935931731,0.0203158184885978,0.092640109360218,0.1529029607772827
1790592443027300900,5.537128173828124,-4.375304457475245,-0.7971820590704679,1.0753449204564094,0.1956268361922353,9.8044679797858,-0.0672365437570726,0.0916642993688583,0.1784266531467437,0.1925116181373596
1790592443037312800,5.547140136718751,-4.205470745643973,-1.303663262221217,0.5558382315158844,0.2171795830370858,9.803975812354684,-0.0725092188964132,-0.0152546931058168,0.2554133236408233,0.2396064400672912
1790592443047326000,5.5571533203125,-3.58939051913321,-0.2522147656589746,-0.2173298964942805,0.242595818643365,9.803432206997275,-0.0650359604062978,-0.1003666594624519,0.4023250043392181,0.2759420573711395
1790592443057339000,5.567166259765624,-2.9048057884559038,0.8994728052437305,0.5605939016103744,0.270136462525092,9.802758253258466,-0.057811763040116,-0.0273907165974378,0.446081280708313,0.2816449403762817
1790592443067351800,5.577179199218749,-2.0902710280463097,-0.7051274602293968,1.443876619553566,0.2997075710548088,9.801896667993068,-0.0582327740643173,0.0605593770742416,0.463792622089386,0.3207579851150512
1790592443077365000,5.5871923828125,-1.5798232593521475,0.8369283785253763,1.3866273766338824,0.3318457170609384,9.800809457278252,-0.0663749402253655,0.1102659478783607,0.480641096830368,0.3189393281936645
1790592443087377700,5.5972050781250005,-0.8443702189639211,0.8783826709419489,0.8927811986505985,0.3601428601320833,9.799756148833035,-0.0738142051143338,0.0808111205697059,0.5445409417152405,0.2503509521484375
1790592443097390800,5.607218261718749,-0.3311217867005616,0.0084790745317935,0.1735690989673137,0.384991250988841,9.798768306839465,-0.0792974999302066,0.0681464597582817,0.6254554986953735,0.2574626505374908
1790592443107403800,5.617231201171874,-0.8221751921601593,-0.7200052958875894,0.011613280904293,0.4127667082734406,9.79762089037001,-0.0814937130665406,0.0228298418223857,0.6050727367401123,0.2943357229232788
1790592443117417000,5.627244384765625,-0.1898609296092763,-0.8604699976325034,-0.1589899539947509,0.4417009436717257,9.796377612310648,-0.0790835831848904,-0.018056072294712,0.6080405712127686,0.2862245142459869
1790592443127428900,5.637256347656249,0.8075245163213461,0.6662433105617761,0.077231708240509,0.4703806563196703,9.795071205887195,-0.0755851968422299,0.0156041532754898,0.5450994372367859,0.2817416191101074
1790592443137441800,5.647269287109374,1.3546815017968414,0.8363684065550565,0.5543734196603298,0.4967845695227384,9.793736742413044,-0.0794238936556968,0.0977512225508689,0.4467627704143524,0.2438935935497284
1790592443147454700,5.657282226562501,1.821479221595824,-0.8150812883764504,0.5036638076424599,0.5176558369094506,9.79258991046548,-0.0872226943057496,0.0821738541126251,0.4040957391262054,0.1778413355350494
1790592443157468000,5.66729541015625,1.7912237840637564,-0.5890010809272528,-0.3668821783244609,0.5338450839597731,9.79171254310906,-0.0880160823062993,-0.0173396822065114,0.4234089851379394,0.1507157087326049
1790592443167480800,5.67730810546875,1.0673374820243566,0.5270277320951223,-0.6070026015639305,0.5488981665870174,9.790933375430107,-0.0819286156187765,-0.0488906800746917,0.4289608597755432,0.1495172828435897
1790592443177493800,5.687321044921875,0.4875395155871286,0.1109673891037702,0.0649707770824432,0.5644128388440236,9.790103938868642,-0.075445413912204,-0.0265755224972963,0.4312679767608642,0.1616277396678924
1790592443187507000,5.697334228515626,0.5517668173585086,0.4174532586544752,0.7133025833785533,0.5805408572264016,9.789177471673488,-0.0731529692932032,0.0290579106658697,0.403604120016098,0.1559733152389526
1790592443197520000,5.70734716796875,1.2071699502803384,0.4937462247401475,1.0271978524029255,0.5946166192540898,9.788303611448407,-0.0771486604664009,0.0823192670941352,0.3525870144367218,0.1228800863027572
