time,seconds_elapsed,acc_x,acc_y,acc_z,grav_x,grav_y,grav_z,gyro_x,gyro_y,gyro_z
1789221422675695000,0.0,-1.7296525862917302,0.0272106630086898,0.112771223655343,-0.8738920815244317,9.13480053999424,3.458629757539928,0.0145765859633684,-0.0642700716853141,0.05306126922369
1789221422685775400,0.010080322265625163,-1.5356808968953788,-0.0111181908637285,0.0178045367598533,-0.8658527135841548,9.135869630530475,3.4578280857682224,0.0150722004473209,-0.0432263053953647,0.0810862407088279
1789221422695855000,0.020160156250000005,-1.506273016103357,-0.0956435632437467,0.0254708336040377,-0.8565047472633421,9.137046273094414,3.4570451186969877,0.0091432044282555,-0.0133275287225842,0.1005859076976776
1789221422705935400,0.03024023437500012,-1.5015885115489362,-0.1018476785808801,0.0776850049659609,-0.8465246935840696,9.138311762985587,3.456156353163719,0.0096629876643419,0.0173204634338617,0.1189112439751625
1789221422716015000,0.04032006835937518,-1.6479168446302412,-0.1248234804987907,0.0332440979540348,-0.8353189705673605,9.13974091900587,3.455108013154566,0.0074360524304211,0.0399906262755394,0.1493876576423645
1789221422726094300,0.0503991699218751,-1.7408982029274105,-0.085918872565031,0.088184771670401,-0.822244384938851,9.141387517169118,3.453886654666066,0.0117463786154985,0.0625412017107009,0.1747545301914215
1789221422736174000,0.06047900390625016,-1.5780959971681237,0.0180465288221836,0.2333221414014697,-0.8080250131893902,9.143215901640056,3.452401092283428,0.013367710635066,0.0633673146367073,0.1824414879083633
1789221422746254000,0.07055908203125005,-1.2181538472399114,0.0303366860747337,0.1791992138087749,-0.7926759798228741,9.145141901266577,3.4508594157993797,0.0103084929287433,0.0579025521874427,0.2012575268745422
1789221422756334300,0.08063916015625017,-1.092845213572681,0.011719663888216,0.1514443609207868,-0.7755301261674612,9.147149733957647,3.449434935954213,0.0096951676532626,0.0428194776177406,0.2072437852621078
1789221422766414000,0.09071899414062501,-0.8419193186804652,-0.0815104084730148,0.2247299618840217,-0.7577066655114293,9.149249921107293,3.447826039452851,0.0179790034890174,0.0323282331228256,0.2078365981578827
1789221422776494300,0.10079931640625017,-0.7739176494695246,-0.1059276413708925,0.2777066420510411,-0.7389185245417058,9.151520204126834,3.445874905385077,0.0214645490050315,0.0208422858268022,0.2186210602521896
1789221422786573000,0.11087792968749999,-0.9063190909419208,-0.1188981821030378,0.0932236426204442,-0.7187454320196062,9.153865890470149,3.443909450531005,0.020708329975605,0.0101880151778459,0.2265309244394302
1789221422796653300,0.12095825195312515,-0.8540241094287484,-0.0969008698284625,0.1135205807179212,-0.697717841560021,9.156260676652192,3.44186888461411,0.0228734798729419,0.0030800383538007,0.2370602637529373
1789221422806733000,0.1310380859375,-0.754153868400678,-0.0583165798902511,0.2165484089940786,-0.67563328939341,9.158677090144156,3.4398461466148493,0.0233879368752241,-0.0104479528963565,0.2433888614177703
1789221422816813300,0.1411181640625001,-0.6708875561710447,-0.0130243167459964,0.2078422477081418,-0.6526569029536098,9.161119222599268,3.4377781081691383,0.0237756930291652,-0.0271350517868995,0.2451073974370956
1789221422826893300,0.1511982421875,-0.5099060630328953,-0.0226496387034654,0.167565182377398,-0.628836101578921,9.163560770532488,3.435708316157758,0.0251788608729839,-0.0467663183808326,0.2442808896303177
1789221422836973300,0.1612783203125001,-0.4413914393311366,-0.0587216535598039,0.1613666199982166,-0.6044257368132472,9.16596549358666,3.4336768103301525,0.0287341810762882,-0.0679371207952499,0.2440342754125595
1789221422847052000,0.17135693359375015,-0.5155042118335142,-0.1356821436434984,0.1714995992168784,-0.5793941714093088,9.1684058724761,3.431474331849813,0.0312643758952617,-0.0880019217729568,0.2412624657154083
1789221422857132300,0.1814372558593751,-0.6105642030356452,-0.1129828205794095,0.1645876278713345,-0.553317152073048,9.170845666843652,3.4292584093660112,0.0302073657512664,-0.1090973541140556,0.2496482282876968
1789221422867212300,0.1915173339843752,-0.6372864614728838,-0.1099900685042142,0.1337026602640748,-0.5258467786822467,9.173390090629455,3.4267738990738987,0.035745482891798,-0.1303802579641342,0.2564217150211334
1789221422877292000,0.201596923828125,-0.6104327586757019,-0.0904518398195505,0.1571627385675907,-0.4968853264834731,9.17599822730124,3.4241137399539348,0.0406851172447204,-0.1487057358026504,0.2660261392593384
1789221422887372300,0.21167724609375016,-0.5887600752456114,-0.0357154565036296,0.1298559217080473,-0.4667836547410115,9.17872326835096,3.4210447077721358,0.0417720600962638,-0.1535637080669403,0.2702385783195495
1789221422897452000,0.221757080078125,-0.6944459072172642,-0.0006318681627511,0.0308142404586076,-0.4362156806610524,9.18134777163565,3.418033543257415,0.0415978878736496,-0.1505077332258224,0.2751843333244324
1789221422907531300,0.23183618164062514,-0.8606081639941782,-0.0267056360960006,-0.0884592046976089,-0.405325963813439,9.183928435778617,3.414902844016254,0.0442535914480686,-0.1411405950784683,0.2855959832668304
1789221422917612000,0.24191699218750018,-1.019357587231323,-0.0377963544309139,-0.1471177298933267,-0.3737686133699491,9.186489226177336,3.411611985777318,0.0421126782894134,-0.1291313469409942,0.2979999184608459
1789221422927692300,0.2519973144531251,-1.0624063092324882,-0.0375029244422912,-0.2330839487314224,-0.341344051637873,9.188889857578276,3.4085435381174087,0.0416853912174701,-0.1194416731595993,0.3125306367874145
1789221422937772300,0.2620771484375002,-0.9984675786115228,-0.0091097736507654,-0.300627791172266,-0.3080184128802269,9.191322053161263,3.4051591563761234,0.0388904027640819,-0.1039503365755081,0.3278022706508636
1789221422947852000,0.272156982421875,-0.9448683826319872,0.0264461083769798,-0.30181378608644,-0.2739298817249946,9.193624484884738,3.40185573091656,0.0374027900397777,-0.0834031775593757,0.3435950875282287
1789221422957932300,0.2822373046875002,-0.9008507425334304,0.0484708931803703,-0.2754559405148029,-0.238340261824429,9.19584099189043,3.398542660845816,0.0353292524814605,-0.0702373087406158,0.3690442442893982
1789221422968011300,0.29231616210937506,-0.8036677678279578,0.0317722718358039,-0.3225000157624483,-0.2008496123418212,9.19787512806654,3.39545813883394,0.0346542745828628,-0.0622567534446716,0.3912398517131805
1789221422978091300,0.30239624023437517,-0.5098907923985272,0.051298810082674,-0.3380623265534639,-0.1619819936838932,9.199746767157317,3.392464802236854,0.0325514450669288,-0.0544696673750877,0.4034839868545532
1789221422988171000,0.3124758300781252,-0.0952434123444836,0.0426946478664875,-0.2712655030876398,-0.1235267917517572,9.201467599600551,3.3894141824945807,0.0336895622313022,-0.0527263320982456,0.3841643631458282
1789221422998251300,0.3225561523437501,0.2992083528283983,0.0305243176013231,-0.319950915801525,-0.0879200106538366,9.203013659998774,3.386324984307587,0.0338650643825531,-0.0260097682476043,0.3559087514877319
1789221423008331000,0.3326359863281252,0.1951265950525179,-0.0009410802423954,-0.4399871620237827,-0.0546169353544479,9.20425167736113,3.3836583954468367,0.0284186229109764,0.0125079797580838,0.3596841990947723
1789221423018411300,0.34271630859375013,-0.4506732816131785,-0.1283592534095048,-0.4091737983480095,-0.0208349242815631,9.205375712954998,3.380976024495065,0.0232978984713554,0.0392543710768222,0.3874929249286651
1789221423028490000,0.35279492187500017,-0.7756389933694153,0.2948988921314477,-0.428007678155601,0.013534789302072,9.20589184578359,3.379609120056033,0.0110015738755464,0.1039164438843727,0.4087988436222076
1789221423038570200,0.3628752441406251,-0.6530440025750547,0.0629611908257007,-0.4832514264717698,0.0480591294751269,9.206040314343571,3.378888696826994,0.0026011646259576,0.1423983126878738,0.4249714314937591
1789221423048650200,0.3729550781250002,-0.516252034526132,0.1621264984548091,-0.3106482499271631,0.0821532912201248,9.205935684925317,3.3785181099489328,0.0081696789711713,0.1931609958410263,0.4361171722412109
1789221423058730200,0.38303515625000006,-0.2284338213706389,-0.2990565963327884,-0.0661263768583536,0.1168043333626352,9.205786047321558,3.3779055310085413,0.0072900373488664,0.2032522410154342,0.4577500224113464
1789221423068810200,0.3931152343750002,0.1124687701100483,-0.2466910338014364,-0.13483984760046,0.1535868893748149,9.205344733294844,3.377636650939285,0.00786695163697,0.1981144845485687,0.4872578382492065
1789221423078890000,0.4031948242187502,0.6164914376601577,-0.475524339351058,-0.053588966846466,0.1928984341416507,9.204933229884505,3.376740871143341,0.0201470535248518,0.2015893757343292,0.4987595081329345
1789221423088969200,0.41327416992187516,1.2115163819868118,-0.1632616399645805,0.0547512886241078,0.2308402797241695,9.20466376529336,3.37509222715348,0.0241442304104566,0.1815058141946792,0.4512706995010376
1789221423099049200,0.42335424804687505,1.7225537140719591,0.0376098919481039,0.1371641988947987,0.262089751528576,9.20430779146254,3.373782605859637,0.0129224676638841,0.2236471474170684,0.3754504919052124
1789221423109129200,0.4334340820312501,1.6691250523537395,0.170700265532732,0.0793722274005413,0.2875363640068099,9.203646697205304,3.3735154793560502,0.0053533865138888,0.2591908872127533,0.3602788746356964
1789221423119209000,0.4435139160156252,0.8236047865718603,0.0357242243319749,0.1020434934139251,0.3136410750675946,9.202602156588435,3.374038334186375,-0.0018075874540954,0.2801733911037445,0.4050971865653991
1789221423129289200,0.4535942382812499,0.6400220969818532,0.0451607457190752,-0.0519920530438423,0.3429473951812833,9.201096428200602,3.375293302683532,-0.0051588797941803,0.2853908538818359,0.435964822769165
1789221423139369200,0.46367407226562496,1.4305109420239923,-0.244507844543457,0.0183615861207246,0.3735199358385056,9.19942060394287,3.3766163679808376,-0.0022230111062526,0.3270986080169678,0.4413055181503296
1789221423149449200,0.4737541503906251,1.9664444496303797,-0.3512643379539251,0.1117430496513843,0.4032166800418868,9.197839472231268,3.37750659481883,0.0060501536354422,0.280090719461441,0.4177426993846893
1789221423159528200,0.48383300781249994,2.2930782041966915,-0.4776449847668409,-0.1061386537730693,0.4294282490106299,9.196429605433345,3.378114789845049,0.0054935533553361,0.2620531320571899,0.3423022627830505
1789221423169608200,0.49391308593750005,2.6350585809767244,-0.2489209848105907,-0.0141629653871059,0.4488225757125765,9.19515476319194,3.3790634688720105,0.0019322738517075,0.2343676388263702,0.2627557814121246
1789221423179688200,0.5039931640625002,2.7348239003255963,0.0538122542083263,0.2657341724455356,0.4633806778971105,9.194240570956469,3.3795872004851697,0.0078359693288803,0.1906212270259857,0.2109397053718567
1789221423189768200,0.5140732421875003,2.5749679771512746,0.3001262713909149,0.4636503616839647,0.4759930528413504,9.193630914625524,3.379492215678096,0.0095847640186548,0.1349632292985916,0.183695301413536
1789221423199848200,0.5241530761718749,2.4659306793272493,0.248517664706707,0.290676013739407,0.4870175375396385,9.193165635201334,3.3791859262079,0.0080382665619254,0.0970270186662674,0.1385762840509414
1789221423209928200,0.534233154296875,2.436515345881134,0.0252221195399761,0.0514265281155705,0.4948852021748199,9.192753547269106,3.3791648834198718,0.0039449958130717,0.0784755274653434,0.0958742350339889
1789221423220007200,0.5443120117187499,2.0387579906910656,-0.1846457887768745,-0.0286564779028296,0.5002927237741649,9.192230400177836,3.379790321841836,-0.0049963016062974,0.0667821243405342,0.077523723244667
1789221423230087200,0.55439208984375,1.5648177056610584,-0.3464572299331426,-0.0268102655142545,0.5055683626221492,9.191685625776648,3.3804882409781216,-0.0036969447974115,0.0426064766943454,0.0739452317357063
1789221423240167200,0.5644721679687501,1.4716282575711608,-0.2639139712810516,0.0937897520706057,0.510621262097545,9.191293996110558,3.380795991753041,-0.0019182198448106,0.0140131814405322,0.0561199001967906
1789221423250247200,0.5745520019531252,1.773238337779045,-0.1272539225161075,0.322343948417902,0.514421458098106,9.19110344197452,3.3807378318250176,0.0044216206297278,-0.0213108174502849,0.0225460957735776
1789221423260327200,0.5846320800781253,1.902771457273513,0.0917144071012735,0.3963955653175711,0.5164197192432358,9.191203395217656,3.3801579861104485,0.0040210806764662,-0.0596454218029975,-0.0088203493505716
1789221423270407200,0.594712158203125,1.7192694317042827,0.1551245107382536,0.3911860139757394,0.5172142671544104,9.191389857700466,3.379531963166594,0.0019273696234449,-0.0958849862217903,-0.0330597683787345
1789221423280486100,0.6047910156250003,1.4924734772011636,0.1033650974065065,0.4438295166656374,0.5168601930197328,9.191673350816965,3.37881241672039,0.0030685341916978,-0.1273728758096695,-0.0544971488416194
1789221423290566100,0.6148710937499999,1.2796573866032064,-0.0826619165956974,0.4895388361781835,0.5156946198390796,9.19214973615706,3.3776953953891997,0.0014253269182518,-0.1532229930162429,-0.0707316473126411
1789221423300646100,0.624951171875,1.1624492034137248,-0.260004104360938,0.3032739217668772,0.5143898573834449,9.192620276278255,3.376614029893279,0.0020248044747859,-0.1867481917142868,-0.0846900790929794
1789221423310726100,0.6350310058593751,1.0677775539420544,-0.3957961381196975,0.1943441759705543,0.5129940191108733,9.193140500760078,3.375410499322414,0.0030659898184239,-0.2148023545742035,-0.0961125120520591
1789221423320806100,0.6451110839843752,0.9026639294352382,-0.4461100288182497,0.273471488699317,0.5112617884907871,9.193774707010387,3.37394510294497,0.0053352694958448,-0.22679004073143,-0.1083422824740409
1789221423330886100,0.6551911621093749,0.5752661682264879,-0.3202764944940805,0.2394137362748384,0.5088583440782501,9.19453400094509,3.3722391758099195,0.0088876308873295,-0.2232179939746856,-0.1090362966060638
1789221423340965400,0.6652702636718753,0.0789501660635694,-0.0594184036523103,0.3800812671154737,0.506731378519535,9.19509397291541,3.371033891673386,-0.0034766274038702,-0.2204333990812301,-0.1021629497408866
1789221423351045000,0.6753500976562503,-0.2533066890815272,-0.02929915972054,0.1694286381617188,0.5040994591133668,9.195800659880042,3.3695009830176827,0.0003186728863511,-0.1698950678110122,-0.0985983088612556
1789221423361125000,0.6854299316406249,-0.1634341469872743,0.1150543661564588,0.4013327294588089,0.5005678509211168,9.196145527794956,3.369085972476005,-0.0020065330900251,-0.1711856424808502,-0.1054956242442131
1789221423371205000,0.695510009765625,0.0867913810832426,0.0471656558007001,-0.0863999340802431,0.4949996588673442,9.19669731645882,3.3684012050822374,0.0086906673386693,-0.1391983032226562,-0.1326810419559478
1789221423381285000,0.7055900878906252,0.0806772455845028,-0.051701545664668,0.234360252277553,0.4852520257044583,9.197850578147172,3.3666683899402616,0.0110718002542853,-0.0827736482024192,-0.1584090441465377
1789221423391365000,0.7156701660156253,-0.1329003309052437,-0.243049462428689,0.0920221578761935,0.4727272925110533,9.198709825325013,3.3661028650119897,-0.0059263142757117,-0.0649334415793418,-0.1615741997957229
1789221423401444000,0.7257490234375001,-0.4692414962219074,-0.0753846190690994,-0.5578536629915237,0.4620589643066748,9.19908859550953,3.3665514855623244,0.0045702690258622,-0.1215144246816635,-0.1210576817393302
1789221423411524000,0.7358291015625003,-0.8867031939111649,0.2849380546092986,0.018245266264677,0.4569441420435905,9.198794580999015,3.368053414557874,0.0077592334710061,-0.1032086685299873,-0.0669961646199226
1789221423421604000,0.7459089355468753,-0.7510856399364769,0.2465717913359403,0.9414590125799178,0.4537557943310588,9.199152892917397,3.367505425286293,0.0064897048287093,-0.0655150860548019,-0.0483708158135414
1789221423431684400,0.7559892578125,-0.1526629063976928,0.4212836305975914,0.0869821178823709,0.4520876784557476,9.19921719032526,3.367551602515578,-0.0180610585957765,-0.0731216296553611,-0.0478725396096706
1789221423441764000,0.7660690917968751,-0.1789717617284506,0.0822854844987392,-0.718016167896986,0.4496661138646304,9.199135941782592,3.368098130482435,-0.0012799488613381,-0.0352964922785759,-0.0476405769586563
1789221423451844000,0.7761489257812502,-0.4417287084614857,-0.3336111923635005,-0.0540144987821578,0.4456193592244759,9.199190302318334,3.368487422060966,-0.0083822514861822,-0.0096538811922073,-0.0502833686769008
1789221423461924000,0.7862290039062503,-0.4973350064797326,-0.0573234771996736,-0.5048202842012047,0.4428668456459417,9.198684106361863,3.370230466336012,-0.0202708691358566,0.0178504474461078,0.0026434948667883
1789221423472003300,0.7963083496093752,-0.8799506509110331,0.3235544932514428,-0.234267021036148,0.4445050778396427,9.198334562271834,3.370970471048355,0.0012664466630667,0.0410433188080787,0.0501879826188087
1789221423482083000,0.8063879394531253,-0.4066999555803835,-0.0224690214395523,0.2780950568467378,0.448299099827744,9.19809724638462,3.3711168937817213,-0.0041051488369703,0.0308133158832788,0.0523089244961738
1789221423492163000,0.8164680175781249,0.2033836243314668,0.2275216384291648,-0.3649298752129077,0.4502334654238075,9.197552471983432,3.372346435576677,-0.0103691481053829,0.0695060938596725,0.026604214683175
1789221423502243300,0.8265483398437501,0.4003723234614357,-0.0605482844650745,-0.4149345538318157,0.4495691928287967,9.196972041746973,3.374018168181181,-0.017304552718997,0.0714978724718093,0.015758492052555
1789221423512323000,0.8366279296875001,0.1051621368911117,0.0633475597947835,-0.2238143083438277,0.4484969239547848,9.196376413941383,3.375780501678586,-0.0176634415984153,0.0848563611507415,0.019057622179389
1789221423522403300,0.8467082519531253,0.0325960458414629,0.1356862352967262,0.0277455005377531,0.4478902632985264,9.195864372766016,3.3772581730157136,-0.0111240493133664,0.0628437399864196,0.025514455512166
1789221423532482000,0.8567868652343751,0.3066967723550274,0.0928513021767139,0.1432432265475392,0.4482249020803719,9.195454622921346,3.3783284325957297,-0.007593045476824,0.0574302375316619,0.0219795107841491
1789221423542562300,0.8668671875000002,0.5351899957627058,0.3086129447072744,0.1790147971525788,0.4470313083816319,9.19502032315731,3.379666403201222,-0.0138591984286904,0.0415359586477279,-0.0045082890428602
1789221423552642000,0.8769470214843753,0.6937123322457075,-0.0208913968592882,-0.1417798759967088,0.4439823326071724,9.19457433295548,3.3812843597918745,-0.0173722188919782,0.0424108505249023,-0.0298890098929405
1789221423562722300,0.88702734375,0.5156752575514838,0.0463064086228609,-0.178801738923788,0.4393120392411947,9.194114898750186,3.383141385835409,-0.0256394688040018,0.0411756783723831,-0.0409070402383804
1789221423572802000,0.89710693359375,0.1795758285688236,-0.2327928568303585,-0.2613695474952459,0.4342377316515892,9.193542067298292,3.3853538011878728,-0.0160807259380817,0.039216972887516,-0.0404616333544254
1789221423582882000,0.9071870117187502,0.2588650903936475,-0.0259954420000314,0.0661170245081186,0.42946777730342,9.193243376612664,3.3867703899875283,-0.0074430285021662,0.0312852784991264,-0.0360921844840049
1789221423592961000,0.917265869140625,0.4093463419033214,-0.1575514456242323,0.3545820841997861,0.4259307257510721,9.19311887345016,3.387555110624432,-0.0082772206515073,0.0046393750235438,-0.0296574458479881
1789221423603041300,0.9273461914062502,0.6268434664569795,0.0214022689908742,0.2376461420804262,0.422714832444489,9.193131732931732,3.38792365167588,-6.40317448414e-05,-0.0182097479701042,-0.046098206192255
1789221423613121300,0.9374262695312503,0.7365155550532042,0.0978746832966804,0.2357160508006811,0.4185369987705722,9.193273771750926,3.388058091710508,-0.008173800073564,-0.0269311536103487,-0.060386337339878
1789221423623201000,0.9475058593750003,0.7635070954184979,-0.0639683220416307,0.0764613083899021,0.4135424053536727,9.19320947434306,3.38884631947875,-0.0115192625671625,-0.0544147118926048,-0.0751612931489944
1789221423633281300,0.957586181640625,0.6250105519413948,0.0307774155795574,0.0676525635123252,0.4080873548181727,9.193183755379916,3.3895743414923545,-0.0078541645780205,-0.0642874538898468,-0.0849470794200897
1789221423643361000,0.9676660156250001,0.626724077861011,-0.1510369491636753,0.2304164830878377,0.4026328157393261,9.193187847033142,3.390214685222506,-0.0108155999332666,-0.0936381518840789,-0.0905668810009956
1789221423653440300,0.9777451171875,0.5438860740460455,0.0098094463527202,0.3005988573387265,0.3976335826799273,9.193352097684144,3.390362276999652,-0.0004445815575309,-0.1079322770237922,-0.0941634774208068
1789221423663520000,0.9878249511718751,0.243846932949312,0.0340653512090444,0.5369616816103459,0.3921130291601643,9.193786397448182,3.3898283162534235,-0.002001465531066,-0.1039428636431694,-0.1013641357421875
1789221423673600300,0.9979052734375002,0.0923561756035313,-0.0105868604660034,0.2719827114462852,0.3864842294929549,9.19414646293223,3.3894998149514195,-0.0011486550793051,-0.1031277328729629,-0.0971149206161499
1789221423683680000,1.0079848632812503,-0.1170569016179069,-0.2328138996183872,-0.0182943661034107,0.3817657496036961,9.19446035118699,3.389180373738706,0.0013512541772797,-0.1119987219572067,-0.0817348957061767
1789221423693760300,1.018065185546875,-0.180139490333572,-0.1780214022010564,0.2803372828155756,0.377960365971364,9.194435216745733,3.389674294735491,-0.0078840553760528,-0.0929315537214279,-0.0854273736476898
1789221423703840300,1.028145263671875,-0.1556134998315945,-0.1578068816900253,0.1734346589326858,0.3721390394067391,9.19487010103166,3.389137703640759,-0.011193299666047,-0.0499425455927848,-0.0896562039852142
1789221423713919200,1.03822412109375,-0.0290555967556312,-0.1509369959205388,0.015130641375482,0.3660394804226234,9.194733907431363,3.3901717228636143,-0.0137818846851587,-0.0642588138580322,-0.0904853865504264
1789221423723999200,1.04830419921875,-0.0614531608829274,-0.1191331599026918,-0.3561667230427265,0.3592318827670067,9.194653827932475,3.391116310237348,-0.0107863610610365,-0.043995089828968,-0.0940199345350265
1789221423734079200,1.0583842773437502,-0.0229400364847853,0.0655301645308732,0.5464218761339783,0.3521427282236516,9.194642722016573,3.391889924958348,-0.0089495787397027,-0.0476263090968132,-0.0906158834695816
1789221423744159200,1.0684641113281252,-0.0807850533405318,0.1722030713111162,0.1600531993120908,0.345793322664313,9.194662011238933,3.3924934438094496,-0.0067455465905368,-0.0544306859374046,-0.0812785699963569
1789221423754239000,1.0785439453125003,-0.1349224843826144,0.1778776098161935,0.3038645811364054,0.3400756391372531,9.194824508324263,3.3926331445410844,0.0047558471560478,-0.0453684851527214,-0.0724954679608345
1789221423764319200,1.088624267578125,-0.3243543018596246,0.1219634148925542,0.3336749052494764,0.3351281362650916,9.195072345605492,3.392450773711502,-0.0024962069001048,-0.0285610072314739,-0.0631219372153282
1789221423774399200,1.0987041015625,-0.3538707941252738,-0.1262573126941919,0.2656611072093248,0.3309761311521753,9.195193926158549,3.3925293919056654,-0.0030944712925702,-0.0427196770906448,-0.0530501268804073
1789221423784478200,1.108783203125,-0.3633716494528576,-0.1537070451557636,0.0126399936035275,0.327757753627561,9.195259392610192,3.3926626628965137,-0.0018989781383424,-0.0289705730974674,-0.0390933007001876
1789221423794558200,1.118863037109375,-0.6027525063714012,-0.0548076949864625,0.2609267721638083,0.3251747879296541,9.195420136129856,3.392475031369925,0.0045023881830275,-0.0037730883341282,-0.0292020533233881
1789221423804638200,1.1289431152343752,-0.847232184266299,-0.0115016372233629,0.227821498158574,0.3232011497691273,9.195808843186498,3.391612569321692,0.0150261353701353,0.0151236373931169,-0.0091923922300338
1789221423814718200,1.1390231933593753,-1.1902076364982872,-0.0709936906337738,0.445891125370562,0.3230578323082998,9.196492733797433,3.3897692795425654,0.0234814062714576,0.0289204083383083,0.0219468846917152
1789221423824798200,1.14910302734375,-1.2061569007802757,-0.1060474683582782,0.4512278102234006,0.3238934063496068,9.19683058744967,3.38877208519876,0.0059106675907969,0.0449252091348171,0.022704554721713
1789221423834878200,1.15918310546875,-0.6943278337955474,-0.0029892449438571,0.0903957257181406,0.3241243290286511,9.197023479673266,3.388229648885131,0.0058314162306487,0.0619203299283981,0.018404483795166
1789221423844957200,1.16926220703125,-0.4632712261732667,-0.0123281511753797,0.3252706495195627,0.3233599935926496,9.197084269949793,3.388136125382781,-0.0022877627052366,0.0691292360424995,0.0162792820483446
1789221423855037200,1.179342041015625,-0.5519525857215747,-0.0479898316651582,0.1818564503192901,0.3231567991707473,9.196683287933467,3.389245255668461,-0.0125532131642103,0.0578043535351753,0.0226482264697551
1789221423865117200,1.1894221191406251,-0.6763276283331215,0.0631762948811054,-0.0069543491825461,0.3239310714788734,9.195950882005691,3.391158395813405,-0.018703518435359,0.0601822882890701,0.0366500616073608
1789221423875197200,1.1995021972656252,-0.6261000276785343,0.0098766663700342,0.1303980657607316,0.3260766321402042,9.194930891308188,3.3937168481245634,-0.0352617502212524,0.0554356798529624,0.0536681897938251
1789221423885277200,1.2095820312500003,-0.635408465706557,-0.0977197849959135,0.2070996126472949,0.329998335628584,9.193441529533269,3.397371278978884,-0.0421457551419734,0.0403677821159362,0.0658244490623474
1789221423895357200,1.219662109375,-0.6216551770988852,-0.0146077865451574,0.1731084957182407,0.3352489496331661,9.191582749924065,3.4018837879672645,-0.0492841377854347,0.0420983470976352,0.0755646973848342
1789221423905437200,1.2297421875,-0.5114820071127265,0.0636497576117515,0.2845446713775396,0.3404461164174601,9.189490746080876,3.407015013375878,-0.0529475808143615,0.0634537041187286,0.0826473757624626
1789221423915515600,1.2398205566406253,-0.4474450037490576,0.0197030638575553,0.3081535105019807,0.3464395846785977,9.187198835751412,3.4125852147236464,-0.0657894909381866,0.0626861453056335,0.0894272550940513
1789221423925595600,1.249900634765625,-0.167452552315779,-0.0772457367658615,0.1544622474372387,0.3522551390895619,9.184190301585195,3.420081123436987,-0.0881110429763794,0.0543730929493904,0.0760925412178039
1789221423935675600,1.25998046875,0.0246488862292841,-0.1958306151360273,-0.0164285722315311,0.3561788884045556,9.180521257683637,3.4295123841270803,-0.0949093028903007,0.0513702109456062,0.0509685538709163
1789221423945755600,1.2700605468750001,0.0929017171896994,-0.190452429229021,-0.0440174209028482,0.3599018544504418,9.178285461455584,3.435104505045712,-0.0405760295689106,0.0105942878872156,0.0551981851458549
1789221423955835600,1.2801406250000003,0.2458563000103458,-0.1120715509533882,0.5409942981272936,0.3642162105182185,9.17607070801556,3.440563354973494,-0.0704074278473854,0.0441865995526313,0.0581652112305164
1789221423965915600,1.2902204589843753,0.3356768196564167,-0.1294236677706241,-0.163050043040514,0.3680689769562333,9.173670076614618,3.446547690080106,-0.0356121622025966,0.0255814921110868,0.0576022192835807
1789221423975994600,1.3002995605468752,0.3671124434163794,0.0450116926372051,0.3304521438106894,0.3738931165324524,9.172814921090009,3.4481972108528014,-0.0265189856290817,0.0023913155309855,0.0687538012862205
1789221423986074600,1.310379638671875,0.4704717321366071,-0.010302198305726,0.2400929507106542,0.3788713433364406,9.170817025271058,3.4529628178194165,-0.0696728453040123,0.0217785947024822,0.0494237840175628
1789221423996155000,1.320459716796875,0.5291133427301421,-0.1122755490928888,-0.448190634484589,0.3833768745947629,9.169690651589631,3.455457849505544,0.0048702815547585,-0.0166378654539585,0.0566959455609321
1789221424006234600,1.33053955078125,0.5370513691877946,-0.1844832916915416,0.5028787947446107,0.3887563756760209,9.169622847050428,3.4550361169621344,-0.0038614245131611,-0.0262659918516874,0.0384120158851146
1789221424016314600,1.3406196289062502,0.7468846811152994,0.0394774393856525,0.324024156589806,0.3921566491061821,9.169519386675953,3.454923888759315,0.0028809001669287,-0.0373681783676147,0.0166047196835279
1789221424026394600,1.3506994628906253,0.5494861956080421,0.0390296956181526,0.2119704335540533,0.3950263593235984,9.169518802154064,3.4546000636324283,0.0004057582700625,-0.0472463741898536,0.0097654554992914
1789221424036473900,1.3607788085937502,0.3876734758101403,-0.069534723997116,0.2135080183848738,0.3979240169938653,9.169296683835984,3.4548572532638904,-0.0087826717644929,-0.0726725533604621,0.0080220131203532
1789221424046553600,1.3708586425781253,0.430218814866431,-0.2010182469069957,-0.2748059521734714,0.4011676750902086,9.168799840229749,3.455802132898569,-0.0179889537394046,-0.0904693976044654,-0.0011616317788138
1789221424056633600,1.3809384765625,0.2843827953467145,-0.1310012923508882,-0.2625029354393482,0.4032018843315541,9.168214733818171,3.457116430367529,-0.0145431263372302,-0.0729283615946769,-0.0157337840646505
1789221424066713600,1.3910185546875,0.0256364359619095,0.0293020823299884,0.2399506196305155,0.4038236694917083,9.167725488996505,3.458342757292092,-0.0155183756723999,-0.069452665746212,-0.024688396602869
1789221424076793600,1.4010986328125001,-0.0321687968727201,0.0322580095261335,0.194717685458064,0.4043175904884934,9.167461869624256,3.4589839778050777,-0.0054490016773343,-0.0707505643367767,-0.0174481943249702
1789221424086873900,1.4111787109375002,-0.0935811508212238,0.05261164624691,0.1465261937409639,0.405575518127717,9.167458947014808,3.458842231246829,0.0022470012772828,-0.0742374435067176,-0.0136262914165854
1789221424096952600,1.4212575683593751,-0.0732408119734376,0.0739431880891323,0.1999675688102841,0.407232126228325,9.167676389157773,3.4580732927009463,0.0060757906176149,-0.0785942450165748,-0.0119459712877869
1789221424107032800,1.4313376464843752,-0.0413605862511321,-0.0177618666619062,0.0177343941330909,0.4088705776177346,9.167951698967814,3.4571500403761863,0.0073391944169998,-0.076433889567852,-0.0131105715408921
1789221424117112600,1.4414174804687503,-0.181846001990512,0.0086544310986995,-0.1683525333628058,0.4107913530798628,9.168170310154556,3.456339308515191,0.0026397805195301,-0.0780802592635154,-0.0047322665341198
1789221424127192800,1.451497802734375,-0.3645164355738088,0.0357780003458261,-0.2503063016891479,0.4137470976129174,9.168281369313595,3.4556934118270872,0.002825402887538,-0.0803109183907508,0.0062143909744918
1789221424137272600,1.461577392578125,-0.415181770058535,0.124765028309822,-0.0081628481894731,0.417127058907412,9.168477768668533,3.45476548332721,0.0085519980639219,-0.0688074007630348,0.0068783168680965
1789221424147352600,1.4716574707031251,-0.2566692608498037,0.1658890658587217,0.1014534185662865,0.4205224734993651,9.168805100926756,3.4534871339544653,0.0128050660714507,-0.0675543770194053,0.0124246161431074
1789221424157432600,1.4817375488281253,-0.3741093165664002,0.1022878235638141,-0.1045709660649299,0.423938602085784,9.169108467787504,3.4522634373784062,0.0088207107037305,-0.0536470860242843,0.0170649085193872
1789221424167511800,1.4918166503906252,-0.4786893427206203,0.1012152258962392,-0.1155415651515126,0.4270641502277925,9.16928323983252,3.4514123735070226,0.0053218496032059,-0.029465053230524,0.0224791150540113
1789221424177591600,1.5018964843750002,-0.6475773346669972,0.0244523042112588,-0.2204310956463217,0.4307524833517149,9.169280901744962,3.450957323215901,0.0036962192971259,-0.0123115070164203,0.0450484715402126
1789221424187671600,1.5119765625,-0.8162500398948788,-0.0133797060549259,-0.2995645458549261,0.4358712876701727,9.169106129699944,3.4507828434318304,0.0007435726583935,0.005870958790183,0.0600758902728557
1789221424197751800,1.522056640625,-0.7299328156620264,0.0667757806777954,-0.2139063700526952,0.4415811166843399,9.168857123374938,3.4507170847192405,0.0040141264908015,0.0244856439530849,0.0712553113698959
1789221424207831600,1.532136474609375,-0.5469440733771771,0.0902238762825727,-0.1839209816336631,0.4472855023384094,9.168602856352924,3.450659801574051,0.0029547209851443,0.045445516705513,0.0777345150709152
1789221424217911800,1.5422167968750002,-0.4833840398754924,0.1093950252205133,-0.1987000330924987,0.4528579321758821,9.168286045488715,3.4507743678644296,0.0014891463797539,0.0611809305846691,0.0852261185646057
1789221424227990500,1.55229541015625,-0.4089813445158302,0.0988286230206489,-0.2456096683055162,0.4583617172239348,9.167928318092226,3.4509967784434554,0.0005698231980204,0.076244831085205,0.0882386863231659
1789221424238070800,1.5623757324218752,-0.3570106265209615,0.1093605384290218,-0.2464019877269864,0.4640014036113396,9.167572344261409,3.4511905474498867,0.0049480088055133,0.0859461650252342,0.0976440459489822
1789221424248150500,1.5724555664062503,-0.2860059030365198,0.1071902086526155,-0.3280640796303748,0.4705090684723109,9.167198834773895,3.4513001453042027,0.0013269087066873,0.0854846388101577,0.108074314892292
1789221424258230800,1.58253564453125,-0.1564663538012653,0.1056184292912483,-0.342888723796606,0.4772893762622028,9.166676272204516,3.451759871770441,-0.0008803192176856,0.090363010764122,0.1046532168984413
1789221424268310800,1.59261572265625,0.016440335734561,0.1305050332665443,-0.3079845836758613,0.4837981371017172,9.166180597642064,3.4521699138760567,0.0020848442800343,0.0917150974273681,0.1042172536253929
1789221424278390500,1.6026955566406251,0.10055979419481,0.1653600735485553,-0.2924038604453206,0.4900596451818942,9.16574103718102,3.452450484383106,0.0030640887562185,0.0970707163214683,0.1020864620804786
1789221424288470800,1.6127756347656252,0.1122200195133686,0.1695294681876897,-0.2881938415348529,0.4960567667048424,9.165313167157768,3.452729593585431,0.00244623539038,0.0994105711579322,0.1002949550747871
1789221424298549800,1.6228547363281252,0.1271958356533199,0.1407978792220354,-0.2840542575120925,0.501880760150589,9.16486483886838,3.4530797221973537,0.0030723074451088,0.0984231978654861,0.0997249037027359
1789221424308629800,1.6329345703125002,0.1964278138441965,0.1114957968920469,-0.2955056258529424,0.5079164966508746,9.164389622572063,3.453457615599036,0.0015404573641717,0.0882603079080581,0.0989765524864196
1789221424318709500,1.6430144042968753,0.3114517483297735,0.084589085265994,-0.3332873672366142,0.513949383606948,9.16391265271008,3.4538299560427665,0.0025413671974092,0.0762305408716201,0.0895722582936286
1789221424328789800,1.6530947265625,0.4094224758794531,0.0727303051680326,-0.2835664739951491,0.5195275125328451,9.16350056477785,3.4540874379351734,0.0013863542117178,0.0612739622592926,0.0797739550471305
1789221424338869500,1.66317431640625,0.4009282768437638,0.1048509520500898,-0.2004872087702155,0.524729830416292,9.163103089892864,3.454356610265374,0.0006155924056656,0.0468649715185165,0.0740452408790588
1789221424348949800,1.6732546386718752,0.381211549787037,0.1192535714119672,-0.188486682114005,0.5297821088371798,9.162767574328184,3.454477021774649,-0.0023660827428102,0.0331227928400039,0.0656642690300941
1789221424359028500,1.68333349609375,0.3729755632961168,0.1226028818398714,-0.1781961742460727,0.5347261776432395,9.162410431453583,3.454661146169901,0.0013495900202542,0.0161491930484771,0.0604340881109237
1789221424369108700,1.6934135742187502,0.3623128611149266,0.0845557675182819,-0.1098801783889532,0.5397026874141767,9.162150319212676,3.4545796053662894,0.0007114966865628,0.0006810198538005,0.0580233931541442
1789221424379188700,1.7034936523437503,0.3620158143971115,-0.0007516951501369,-0.0392114819258451,0.5450873761272057,9.162014710134269,3.4540912373274564,0.0063020042143762,-0.0006183367222547,0.0586018338799476
1789221424389268700,1.71357373046875,0.434489258727245,0.046593408870697,0.0837035346031189,0.5508742889655753,9.16180545129776,3.4537294182777405,0.0037048896774649,-0.0534914061427116,0.0448271632194519
1789221424399348700,1.723653564453125,0.7153918838080018,-0.0788625243127346,-0.1779907148018479,0.5562287652034312,9.161716603970527,3.453109240552783,0.003648814978078,-0.0642277002334594,0.0365535207092762
1789221424409428500,1.7337333984375,0.7941043321255594,-0.0655687429755926,0.2716539178833365,0.5622110179508104,9.161738815802336,3.452077267156541,0.0073639247566461,-0.0913522616028785,0.0303462240844964
1789221424419507700,1.743812744140625,0.9742161307346076,0.0460159012436866,0.2615396433651447,0.5682483618862927,9.16178440850973,3.45096930591464,0.0013479846529662,-0.1585795581340789,0.0025877035222947
1789221424429587700,1.753892578125,1.1925557339943944,0.0952227074831724,-0.1857487815827131,0.5725693303579464,9.161958011510968,3.449793832394481,0.0035999538376927,-0.1707454174757003,-0.0328443236649036
1789221424439667700,1.7639726562500002,0.8462759064547717,-0.0176531455904245,0.1529085882544517,0.5737848436275497,9.16245602416098,3.448269983828068,0.0083627505227923,-0.1666561365127563,-0.0719621703028678
1789221424449747500,1.7740524902343753,0.2792888332085684,-0.1128694233328104,0.4098848692268133,0.5718497473791241,9.163101336327196,3.4468744378164407,0.0013141625095158,-0.1374098360538482,-0.0735914930701255
1789221424459827700,1.784132568359375,-0.5143722851941361,0.0859212106525898,0.0943997006624937,0.57183305197265,9.163478352946042,3.445876366689801,0.0048378421925008,-0.1442754119634628,-0.0286648981273174
1789221424469907700,1.794212646484375,-1.1097443259254098,-0.109846860641241,-0.2170648340836167,0.5758373922431841,9.16382029825151,3.4442990343704816,0.0102371349930763,-0.1295436024665832,0.0026464194525033
1789221424479987700,1.8042927246093752,-0.7555857278347015,0.050575171983242,0.6163461839705705,0.5803601668972521,9.163958829939364,3.443172368428111,-0.0012379304971545,-0.1580129265785217,-0.0064183152280747
1789221424490066700,1.81437158203125,-0.1641075892694294,0.2238251219987869,0.0796720871299505,0.5856366825280711,9.163989225077628,3.442198554959893,0.0006467885104939,-0.1628617495298385,0.0013679686235263
1789221424500146700,1.8244516601562502,-0.1381879159193486,-0.4034311630427837,-0.0582835544034838,0.5924875348035246,9.164113728240132,3.440691365267336,0.0075243953615427,-0.1959540098905563,0.0067365048453211
1789221424510226700,1.8345317382812503,-0.1788616524174809,-0.0064238955676555,0.4705786996424198,0.5996425211247056,9.164394883269072,3.438703406320512,0.0063765728846192,-0.1949691623449325,0.0049071796238422
1789221424520306700,1.8446115722656249,-0.442360576624237,-0.1931593501001596,0.3033797202289104,0.606064261267893,9.164681883516907,3.436812478007376,0.0105358678847551,-0.167401522397995,-0.0052261520177125
1789221424530386700,1.854691650390625,-0.6703617056660354,-0.0748059423983097,0.0647293695420026,0.6111050319140776,9.165140148678422,3.434695631983876,0.0158262364566326,-0.1201274842023849,0.0075618149712681
1789221424540466700,1.8647717285156251,-1.1808471760220824,0.0746446143567562,0.2487485508531332,0.6153666714139282,9.16562647089064,3.4326357768446205,0.0172077976167202,-0.0376072190701961,0.0221863035112619
1789221424550545700,1.8748505859375,-1.5071625122889876,0.0266179578125476,-0.3587780745849013,0.6154720314845442,9.166068369439245,3.4314366301879287,0.0097187217324972,0.1145199984312057,-0.0056157666258513
1789221424560625700,1.8849306640625,-1.7324769960626958,-0.2982119622021913,-1.5913599678888917,0.6043591013178229,9.16663301758468,3.431902494134009,0.0225949566811323,0.277182400226593,-0.0724315494298935
1789221424570705700,1.8950104980468752,-2.675268134029209,-0.0541997922211885,-0.9528703411713242,0.5851300481801852,9.166979639065264,3.434310724319517,-0.0355895161628723,0.4698106944561004,-0.061993557959795
1789221424580785700,1.9050905761718753,-3.948249549999833,1.282446871191263,0.1373757958188653,0.5706295944670214,9.165251792359353,3.441357427960634,-0.0456605963408947,0.5036576390266418,0.1753357648849487
1789221424590865700,1.915170654296875,-4.637663892790675,1.4326415243119,-0.3550584695398807,0.5910142839131877,9.162000097087024,3.4465710709556934,-0.0112301846966147,0.3657008707523346,0.5892144441604614
1789221424600945700,1.92525048828125,-3.5604587314203378,0.1656295381397008,0.5665542713195085,0.6477627742365002,9.157541364112497,3.448222637555003,0.0155701823532581,0.3072863817214966,0.853739857673645
1789221424611025700,1.9353305664062501,-0.4281003248751163,-0.8736895446896552,0.2201461412250995,0.7185467676423489,9.152090697491168,3.4486686277568337,0.0098779425024986,0.2844462990760803,0.8785714507102966
1789221424621104600,1.94540966796875,1.865658555062115,-1.2738596601098775,-0.6333446650445461,0.7842738429848104,9.146144356307389,3.450122918218374,0.0166052412241697,0.2265525013208389,0.7139906287193298
1789221424631184600,1.955489501953125,2.9569308202296494,-1.3816770607501268,-1.1495698480963703,0.8280025831393897,9.141733554127812,3.451594744336605,-0.0022579280193895,0.2327339649200439,0.3915297091007232
1789221424641264600,1.9655695800781252,3.629508886770904,-0.2080921308159828,-0.6167939277380704,0.8421117725126445,9.139960699236392,3.452875431796908,0.0169469621032476,0.3161840140819549,0.1455480456352234
1789221424651345000,1.97564990234375,2.957518849250674,1.894428430211544,0.7621703669220209,0.8408819384567439,9.139698833429811,3.4538691190093758,0.0251854509115219,0.3588614165782928,0.1339723467826843
1789221424661424600,1.9857294921875,1.0730325518608093,1.634517264831066,0.1758002190202474,0.8466682667732238,9.13879165545702,3.454856668742001,0.008211912587285,0.2835988402366638,0.2292141914367675
1789221424671504600,1.9958095703125,0.7470390679594129,-0.1401373694866895,-0.9789946702480316,0.8599191588167101,9.13634952300191,3.4580408517360683,-0.0308004673570394,0.2288218885660171,0.2348800599575042
1789221424681583600,2.0058884277343747,1.9649840216889976,-0.0638303748756647,-1.4210852342918514,0.8699006738007068,9.133965258213877,3.46184316662848,-0.0034708362072706,0.1854476034641266,0.124990701675415
1789221424691663600,2.015968505859375,2.954081276017427,-0.4098147266000509,-0.5242524221628904,0.868261820552498,9.133687025794387,3.4629853224009275,0.0152887366712093,0.1817710995674133,-0.0100523335859179
1789221424701743600,2.026048583984375,2.6404657007172703,-0.1432522866368293,-0.2238271678254008,0.8588095901396126,9.134676036831737,3.462733101205528,0.0109634594991803,0.1338860094547271,-0.0632690787315368
1789221424711823600,2.036128662109375,1.27492728934139,0.1571907956182956,-0.8252925935283303,0.850375596858561,9.1351541757375,3.463553185416758,-0.0073111518286168,0.064846746623516,-0.0342763140797615
1789221424721903600,2.04620849609375,0.2746192704949527,0.4830500586807728,-0.9595765608116984,0.8493087713446468,9.134606478726864,3.465257651247084,-0.0185666680335998,-0.0105482134968042,0.0274825282394886
1789221424731983600,2.05628857421875,0.1081345768306404,0.7818769379109144,-0.4392886583656072,0.8532869542606174,9.134008512833717,3.4658591242715717,0.002923177788034,-0.0298159159719944,0.0341524146497249
1789221424742063900,2.0663688964843754,0.9034877399735152,0.746444390001893,0.2861848398000002,0.8569986682601273,9.13412658625543,3.4646316283032297,0.0141999488696455,-0.0644540265202522,0.0047053131274878
1789221424752142600,2.076447509765625,1.196532820931822,0.259131413179636,-0.0437915031924843,0.8585901752352714,9.13481924469471,3.4624121986880896,0.0112435733899474,-0.0788830369710922,-0.0201933775097131
1789221424762222800,2.0865278320312504,1.2428674327358602,-0.2000064395159483,-0.9879916311740876,0.8583437261935323,9.135017397615313,3.4619501341342924,-0.0090094935148954,-0.0794912129640579,-0.0493748374283313
1789221424772302600,2.0966074218750004,1.3393939162939783,-0.6653150898009538,-0.8373907353401183,0.8554903825890272,9.135252375414966,3.4620343052864078,-0.0070169158279895,-0.0760482773184776,-0.065273106098175
1789221424782382800,2.1066877441406255,1.0550646412327884,-0.1173316634386777,-0.2493357030913233,0.851318284536153,9.135690766832232,3.4619051259487867,-0.0021731653250753,-0.0705430805683136,-0.0798939988017082
1789221424792462600,2.1167675781249997,0.8142969330657273,0.1255523792952299,0.0678553926080465,0.8457826430451124,9.136416743019222,3.4613474920660257,0.0001411215926054,-0.0669193118810653,-0.0909013748168945
1789221424802542600,2.126847412109375,0.6486291818074882,0.6187094059705733,0.3573579786539078,0.8398162819866091,9.137063808751106,3.461094101826846,-0.0062098293565213,-0.0754996389150619,-0.0942552238702774
1789221424812621600,2.1369265136718747,0.4254674921534955,0.1784481031805276,0.0445496280834078,0.8343317130956799,9.13754077861309,3.461160445061326,-0.0119172502309083,-0.0932583957910537,-0.092210978269577
1789221424822701600,2.147006591796875,0.2602129978712648,-0.0982107833832502,0.1259855100154876,0.829148830565065,9.13796864863634,3.4612770571783185,-0.0075882747769355,-0.1071757301688194,-0.0992093682289123
1789221424832781600,2.15708642578125,0.2113918299484997,-0.1574649363845586,0.2061421657919883,0.8232026355117559,9.138713914045692,3.460727314341068,-0.0008110630442388,-0.113131895661354,-0.1137337163090705
1789221424842861600,2.16716650390625,0.1346416216146201,-0.3336059316664934,0.2954924741104245,0.8164548417519778,9.13977832840681,3.459513554637134,0.0052668773569166,-0.1152927577495575,-0.1190326064825058
1789221424852941800,2.177246826171875,-0.0866745132379233,-0.2793348277747631,0.4837272272899746,0.8104718218196183,9.140874306949971,3.458026530949771,0.0022055739536881,-0.1257986724376678,-0.1035386025905609
1789221424863021600,2.187326416015625,-0.2087413885049522,-0.1224514906704425,0.4549488765731453,0.8059451381754129,9.141709004208446,3.4568776531755923,0.0011887351283803,-0.1317904591560363,-0.0931932851672172
1789221424873101800,2.1974067382812503,0.0656202539671212,0.0603729278981685,0.4272796561419963,0.8022777747742831,9.142489340931176,3.455666523820162,0.0052804159931838,-0.1276255548000335,-0.0833702161908149
1789221424883180500,2.207485595703125,0.1805566197670996,0.0655868631541728,0.6394108332157135,0.7992704096518456,9.143410547429324,3.45392610989362,0.0112811001017689,-0.105091705918312,-0.0730237066745758
1789221424893260800,2.2175656738281253,0.2192759342618286,-0.0084001640766859,0.7397887315049767,0.795865496579185,9.144374424025417,3.4521588079601524,0.0102589791640639,-0.0834612473845481,-0.0749875232577323
1789221424903340500,2.2276455078125004,0.3957324982989579,-0.2540104169040918,0.4508730054363608,0.7908936995159834,9.145326025661824,3.4507772904738783,0.0065700798295438,-0.05885561555624,-0.086909033358097
1789221424913420800,2.2377258300781255,0.5764477426938712,-0.3643377545386552,0.2027364490017294,0.7848055387087166,9.14611922186613,3.4500665118560194,0.00059154961491,-0.0658964812755584,-0.0951879993081092
1789221424923500800,2.2478056640624997,0.6789407334409654,-0.4844231005996465,0.125967974358797,0.7777812660951167,9.146943397730588,3.449473222137988,0.0028740705456584,-0.0576841048896312,-0.1073842123150825
1789221424933580500,2.2578854980468748,0.9767029791142792,-0.167992175617814,0.7924342800214886,0.7691190170161426,9.147895583888888,3.448894253206253,-0.003899679519236,-0.0866909921169281,-0.1369226574897766
1789221424943659800,2.2679645996093747,1.0519139951821417,-0.1571077935099601,0.2760460153624415,0.7597482543416321,9.148681181308628,3.448882855029404,-0.0093866409733891,-0.1246171072125434,-0.1432733684778213
1789221424953739500,2.2780444335937498,0.4395406603652984,-0.0889823517888784,0.3453694346964359,0.7502280001938343,9.149539843964575,3.4486920086324213,-0.0079874154180288,-0.1248573213815689,-0.1612755358219146
1789221424963819800,2.288124755859375,0.0801081404596567,-0.0577466710478067,0.398520010125637,0.7384094059757887,9.150624716591835,3.4483635073304173,-0.0030382047407329,-0.09376260638237,-0.1777377277612686
1789221424973899500,2.298204345703125,-0.4621710098464042,-0.2148059492409229,0.3725286597788333,0.7246352937757968,9.151911833792925,3.4478690018117426,0.0003578582254704,-0.0560162886977195,-0.174510508775711
1789221424983979800,2.30828466796875,-1.082542430745065,-0.0701794516414403,0.2540352590844035,0.7118900862321257,9.153031777733563,3.4475501451209185,0.0020602766890078,-0.0234889201819896,-0.1239630579948425
1789221424994059500,2.318364501953125,-1.4560677003458142,-0.0295540112644433,0.1808016805693507,0.704587581199035,9.153856538119912,3.446862455117702,0.0077186948619782,-0.0318634957075119,-0.0652443468570709
1789221425004139800,2.3284448242187503,-1.0112108133938162,-0.0029342998862266,0.3196703452944755,0.7010121338650583,9.154470870625971,3.4459599533200262,0.007106730248779,-0.0369495451450347,-0.0403704158961772
1789221425014218500,2.3385234375,-0.0172157040212303,0.1582283219724893,0.344412572363019,0.699114191289246,9.154916860827804,3.445159742853045,-0.0001115014601964,-0.0648035407066345,-0.0511679388582706
1789221425024298800,2.3486037597656253,0.5926859069198369,0.0747825615227222,0.0780593912363052,0.6953946593094616,9.15531316666901,3.444858714079857,-0.0030854090582579,-0.0735784396529197,-0.0792578980326652
1789221425034378800,2.3586835937500004,0.7006406702041625,-0.0987859529227018,0.1469295138448476,0.6905399858199059,9.155750973564386,3.4446722515970465,-0.0052119428291916,-0.0904839187860488,-0.090662881731987
1789221425044458800,2.3687636718750005,0.1307760322276502,-0.1808832213729619,0.2993754530236124,0.6845991975940764,9.156296332487464,3.4444074631810184,-0.0041829599067568,-0.09351097792387,-0.1036079823970794
1789221425054538800,2.3788437499999997,0.0783365276772528,-0.2129886706858873,0.2344981994435191,0.6777822110556065,9.156827662885188,3.4443422889903186,-0.0093582812696695,-0.0938657149672508,-0.1127559468150138
1789221425064618500,2.3889233398437497,0.1979179428040981,-0.225570504361391,0.1509732362776994,0.6708779115598649,9.1574390727818,3.4440699017897245,-0.0042004622519016,-0.1225530058145523,-0.1196135878562927
1789221425074697700,2.3990026855468747,0.4357252667956054,-0.226754745709896,0.2235284771397709,0.6645597413890063,9.158173232275248,3.4433410029932854,-0.0034952573478221,-0.1719471961259842,-0.1300941854715347
1789221425084777500,2.4090825195312497,0.6034007046144455,-0.1404389827817678,0.3122530547752976,0.6592415420409291,9.158948892822862,3.4423043534219264,-0.0007890650304034,-0.2179904580116272,-0.135376438498497
1789221425094857700,2.4191625976562507,0.6564287496425211,-0.0046370121508836,0.3424669912531972,0.6548454990390687,9.159764300858974,3.440969597686827,-0.0032873763702809,-0.2716960310935974,-0.1441757977008819
1789221425104937500,2.429242431640625,0.564906138786301,0.0843546919882297,0.405131537219882,0.651198593904078,9.16085443418324,3.4387592281609773,0.0070271957665681,-0.3029524683952331,-0.1543224304914474
1789221425115017700,2.43932275390625,0.4269979165911674,0.0282014276117086,0.4772410801410675,0.6474000053387134,9.162240335583686,3.435782258176804,0.0102251190692186,-0.3215197622776031,-0.1634362936019897
1789221425125097700,2.449402587890625,0.269741362260282,-0.0224018014222383,0.3773123869240283,0.6431975852128118,9.16361337750256,3.4329096253499385,0.005812426097691,-0.3304542005062103,-0.1746311485767364
1789221425135177700,2.4594826660156253,0.1305924923542887,-0.1016553708791732,0.0711632019817829,0.6383951533671468,9.164905755400657,3.4303564337357875,0.0060345334932208,-0.3373155891895294,-0.1811572313308715
1789221425145256700,2.4695615234375,-0.0144698393791913,-0.1219534780204296,-0.059730538341403,0.6336701706718653,9.166199886864424,3.427773431505263,0.0010631582699716,-0.3428757786750793,-0.1782689094543457
1789221425155336700,2.4796416015625002,-0.1563819634534418,-0.0852887579679489,0.0506841853156685,0.6292365721385925,9.167392896041273,3.4253973500236867,0.0020120423287153,-0.3498135805130005,-0.1775959283113479
1789221425165416700,2.4897216796875004,-0.22093787612468,-0.0116997901439666,0.0801838360443711,0.6252589006792754,9.168623899140954,3.4228330524936315,0.0050294348038733,-0.3565348088741302,-0.1738831996917724
1789221425175496700,2.4998015136718754,-0.2981768908888101,0.0589145457834005,-0.0265513223171234,0.6219928115554153,9.169835613018272,3.420182537984848,0.0040789525955915,-0.3669978380203247,-0.1691616922616958
1789221425185576700,2.5098815917968755,-0.4265311758622527,0.1048544591814279,-0.0340408012896776,0.619114771901071,9.171030960282684,3.417496659901738,0.0069066230207681,-0.3607814908027649,-0.1691041588783264
1789221425195656700,2.5199616699218756,-0.5511983698207885,0.1300455990612506,0.0095458269804716,0.6158418146450072,9.172325676268338,3.414611459854245,0.0079801427200436,-0.3527211546897888,-0.1705851405858993
1789221425205735700,2.5300405273437505,-0.7232998073883354,0.0615402181118726,-0.1067614618465304,0.6125677248777821,9.173643188607691,3.411657578484714,0.0079609742388129,-0.338692843914032,-0.1564984917640686
1789221425215815700,2.5401206054687506,-0.9738757197991011,0.052208910664916,-0.2023155932411551,0.6108548200126737,9.174893480929732,3.408600529001653,0.0147240720689296,-0.3211114704608917,-0.1253983676433563
1789221425225895700,2.5502006835937507,-1.1727085854910313,-0.023321838876605,-0.1261111822217702,0.611418079918623,9.176205148050188,3.4049703558057542,0.0227491669356822,-0.3137302696704864,-0.1013862490653991
1789221425235975700,2.560280517578125,-0.9507348635125904,0.0022393033593893,-0.2484384619906544,0.6134515585076064,9.177428552365305,3.401302480947971,0.0190188772976398,-0.3049876391887665,-0.0831055119633674
1789221425246055700,2.570360595703125,-0.8876066455569118,0.0895709653317928,-0.3888099324941635,0.6167627288822084,9.17853329873681,3.3977228688955305,0.0198163334280252,-0.2717947363853454,-0.0629517659544944
1789221425256135700,2.580440673828125,-0.9122064684800804,0.1692062275826931,-0.3547121403202414,0.6204132142137736,9.179553873956204,3.394301077753305,0.022909328341484,-0.2432949244976043,-0.0495323650538921
1789221425266215700,2.5905205078125,-0.9348729121878744,0.1588134283840656,-0.4036521123170852,0.6240756091788411,9.180518335074186,3.391017233777046,0.0176831800490617,-0.200192853808403,-0.0346632674336433
1789221425276294700,2.600599609375,-1.0446137551713734,0.258077520212531,-0.4482365194529294,0.6277233180314302,9.181212162557244,3.388465795728564,0.011914238333702,-0.1581974625587463,-0.0224955510348081
1789221425286374700,2.6106796875000002,-0.9044478171773256,0.2754454191207885,-0.6629509910181164,0.6310599151082337,9.181652307540178,3.386654946914315,0.0086332308128476,-0.1242362186312675,-0.0080594895407557
1789221425296454700,2.6207595214843753,-0.7104924213286489,0.2993219692707061,-0.5801654480427503,0.634775647695735,9.182014126589891,3.3849724006548523,0.0118007948622107,-0.0985031649470329,0.0057444730773568
1789221425306534700,2.6308395996093754,-0.5143498176340013,0.2293412550717592,-0.4670779980450868,0.6391476522348821,9.18241452408433,3.3830656902506946,0.0176284350454807,-0.0884037613868713,0.0195855889469385
1789221425316614700,2.6409196777343755,-0.3558597759854048,0.1589110435396432,-0.6263420928061008,0.6442115114957094,9.182814921578764,3.381020448158681,0.0146395694464445,-0.0764933079481124,0.0264765173196792
1789221425326694700,2.6509995117187506,-0.2199413393680006,0.0954541781514883,-0.7861994772851467,0.6489524224124849,9.1831247181803,3.3792692205771804,0.0109510477632284,-0.0600714161992073,0.0227337125688791
1789221425336774700,2.6610795898437507,-0.1264668637916445,0.2346633268773555,-0.6774065096110106,0.6531912290260196,9.183377816158533,3.377766414798796,0.0120037952437996,-0.0389922298491001,0.029100265353918
1789221425346853600,2.6711584472656256,-0.2079780029170215,0.3743424312025308,-0.5397708938121796,0.6574892915461212,9.183609871348738,3.376301310682297,0.0136262737214565,-0.0182778015732765,0.0371825583279132
1789221425356933600,2.6812385253906257,-0.1695935463998466,0.5258966822385788,-0.5656260505586862,0.6613027854196727,9.183788150525093,3.3750717688873406,0.0122030805796384,0.001538248732686,0.0398124307394027
1789221425367013600,2.691318603515625,-0.0802780171338468,0.3747399060875177,-0.6187628897234797,0.6649121350232511,9.18396116900444,3.3738904501482843,0.0154780000448226,0.0241104587912559,0.0484245643019676
1789221425377093600,2.701398681640625,-0.0843632406208664,0.281828398156166,-0.6562415565073489,0.6685485187642276,9.183947140479088,3.3732112357124686,0.0048823473043739,0.0436913520097732,0.0548726096749305
1789221425387173600,2.711478515625,-0.0156824300393462,0.2220879229426383,-0.8274614620000124,0.6719929601296782,9.18368293658495,3.37324572250396,0.0014736629091203,0.0669401437044143,0.0596359334886074
1789221425397253600,2.72155859375,0.1547927215006202,0.2746399479568004,-0.8579612296819686,0.6743493139974772,9.183354435282943,3.373668916352093,-0.0007327660568989,0.09245216101408,0.0487593188881874
1789221425407332600,2.731637451171875,0.316769363155961,0.232663092970848,-0.614907383339107,0.6753278036408126,9.183132316964864,3.374074574543536,0.0042110383510589,0.1097926199436187,0.0479979291558265
1789221425417412900,2.7417177734375002,0.2006050629962235,0.2112660846769809,-0.5266349333852529,0.6758224552899599,9.182982094839216,3.374387878276408,0.0036757430061697,0.1258363127708435,0.0493082031607627
1789221425427492600,2.7517976074218753,0.107501612689346,0.1599117450147867,-0.8332087734803557,0.6764499395385384,9.1825635771662,3.3754020237550137,-0.0040958058089017,0.1311039477586746,0.0578500181436538
1789221425437572600,2.7618774414062504,0.0723039695147425,0.1874415569752454,-0.873936212927103,0.676931512510404,9.181966780316827,3.376924118755757,-0.0074471272528171,0.1440868526697158,0.0546070896089077
1789221425447652600,2.7719575195312505,0.0898096694584935,0.2482651512503624,-0.5902306227222085,0.6764843532647937,9.181447140356898,3.378427801316976,-0.0055936486460268,0.1625198274850845,0.0468819253146648
1789221425457732600,2.7820375976562506,0.2116067148081958,0.2814484589278698,-0.4292915804862975,0.6749961605336516,9.181035052424669,3.379845851421356,-0.0041595362126827,0.1712757796049118,0.0438232868909835
1789221425467812900,2.7921176757812507,0.3207127670194953,0.2636959446161985,-0.5619833101421594,0.6730305595491081,9.180531779077649,3.381604970048368,-0.0070722606033086,0.170229971408844,0.0404023192822933
1789221425477891600,2.8021965332031256,0.3922127266749739,0.1299380470335483,-0.6729749569043517,0.6711120856419205,9.17991510848403,3.383659564490616,-0.0116449082270264,0.1628303825855255,0.0379868298768997
1789221425487971800,2.8122768554687507,0.4600543830186128,0.0261047475934028,-0.5511076958626508,0.6692606125563383,9.179301360499858,3.3856925316229463,-0.012133790180087,0.1497281789779663,0.0356048978865146
1789221425498051600,2.8223564453125007,0.4578200480952858,0.1215074878185987,-0.4751718726515769,0.6676044428471476,9.178619223454596,3.38786753757447,-0.0119007639586925,0.1395892649888992,0.0357300676405429
1789221425508131800,2.832436767578125,0.3420396326866001,0.2214583928674459,-0.3428787869244813,0.6659193393044174,9.178027687302231,3.389799382419884,-0.0107737630605697,0.139432355761528,0.0258533395826816
1789221425518211600,2.8425166015625,0.2019859228953719,0.3363748118579387,-0.0729547615736723,0.6627697161670774,9.17758403518796,3.391617245496809,-0.0086099449545145,0.1471946686506271,0.011768945492804
1789221425528291600,2.852596435546875,0.1706722815472632,0.3185392954379319,0.1042620462462306,0.6583198240861297,9.177312232509257,3.393217374169826,-0.0065085124224424,0.1429528594017028,0.0009731530444696
1789221425538370600,2.862675537109375,0.228613744514808,0.2572743871361017,0.1199301554992794,0.65364956725277,9.177076670187711,3.3947575893491506,-0.0073985406197607,0.1118761673569679,-0.0093306172639131
1789221425548450800,2.872755859375,0.4999679487992077,0.0114706575632095,0.0311842428147792,0.6493984856795519,9.176876763701438,3.3961154336988923,-0.0087434500455856,0.0711205750703811,-0.0131011148914694
1789221425558530600,2.8828354492187502,0.6108629302538932,-0.1554541810840368,0.1518482655465602,0.6465420002698898,9.176656398949026,3.3972567126885056,-0.0108345644548535,0.0191780179738998,-0.0117455655708909
1789221425568610600,2.8929155273437503,0.506204212840274,-0.3225654822140932,0.1779208644360304,0.6454069318253547,9.176472859075664,3.397968660350144,-0.0057288506068289,-0.0215515568852424,-0.0163463167846202
1789221425578690800,2.9029958496093755,0.4445872762303799,-0.4342191000163555,0.3231652016729116,0.6447744060754775,9.176496824473142,3.39802272862494,-0.0017223909962922,-0.0446147955954074,-0.0289864782243967
1789221425588770600,2.9130754394531255,0.2688262201767414,-0.3650263213247061,0.6342191097915172,0.6435141038160771,9.176735893926024,3.397616485911608,0.00231589586474,-0.0481939539313316,-0.0357381179928779
1789221425598850800,2.9231557617187507,0.0765815007034689,-0.2590010647982358,0.6704770026087761,0.6416790704086422,9.177102973672747,3.396972342789173,0.0048738620243966,-0.0401959493756294,-0.0382683873176574
1789221425608929500,2.9332343750000005,-0.1187327624082565,-0.0498649778872728,0.792556737357378,0.6396212610960006,9.177460116547346,3.396398050032556,0.0038195298984646,-0.020080130547285,-0.0304874330759048
1789221425619009800,2.9433146972656257,-0.2117074717689305,0.086183660981059,0.9848632700204848,0.6374263814002276,9.17773016566038,3.396077147515118,-0.0002878634259104,-0.0074631390161812,-0.0235323216766119
1789221425629089500,2.9533945312500007,-0.1607566714063286,-0.0537578936725854,0.9814940858483314,0.6360058470778167,9.177911367446184,3.3958544446751477,0.0037828583735972,-0.0094867777079343,-0.0141703812405467
1789221425639169800,2.963474609375,-0.0541144520252943,-0.3006108400374651,1.0140320813596249,0.6351573404897004,9.17816095829308,3.3953391886293884,0.0049378713592886,-0.013222393579781,-0.012633204460144
1789221425649249500,2.973554443359375,0.2155772989396005,-0.6242448282659053,0.8656894858464598,0.6342146528121083,9.178429253840443,3.394792660662532,0.0058969128876924,-0.0093992855399847,-0.0149960936978459
1789221425659329500,2.983634521484375,0.2104261997867375,-0.9145400259941816,0.7555223072096705,0.6329312619380653,9.178724437394738,3.394227427995205,0.0063387313857674,0.0051948381587862,-0.0156323239207267
1789221425669408500,2.99371337890625,-0.0748436440601944,-0.7524392465025186,0.7480278598010539,0.6307473420277238,9.1789816270262,3.393941304530203,0.0053444127552211,0.0451295413076877,-0.0147327035665512
1789221425679488800,3.003793701171875,-0.3284059518706053,-0.4697568618655204,0.9061676267072558,0.6264838393643498,9.179263366577027,3.393967900276184,0.0039305402897298,0.0971173793077468,-0.0263520758599042
1789221425689568800,3.0138737792968753,-0.4371582952734082,-0.0246598094820976,1.050395480377972,0.6206137782871722,9.179487822982669,3.394439609441161,-0.000523249618709,0.1305579841136932,-0.0076525588519871
1789221425699648500,3.0239533691406253,-0.6072264003824442,0.5880962410420179,0.617841098703444,0.616952844626829,9.179199653691052,3.3958889314666387,-0.0042058685794472,0.1518872380256652,0.0258369594812393
1789221425709728800,3.0340336914062505,-0.6454216910030692,0.0442874700158834,0.9899480259388684,0.614446780090034,9.179075150528549,3.396678328278661,0.0093181524425745,0.1904200315475464,0.0480184257030487
1789221425719808500,3.0441135253906255,-0.328529578250274,-0.5040758955746889,1.3048679618358612,0.6132898651398718,9.17901669833958,3.397044823503494,0.0051311305724084,0.219402402639389,0.077067919075489
1789221425729888800,3.0541936035156256,-0.412563075460121,-1.1017033505499365,0.5510118342727423,0.6127782988885417,9.178393013483284,3.3988220623090863,-0.0143908616155385,0.2387885898351669,0.0753946527838707
1789221425739967500,3.0642724609375005,-0.0646260918306186,-0.8084381971001624,-0.0782695268556475,0.6103544327424839,9.177369515654444,3.402019689306617,-0.0175618883222341,0.2672401964664459,0.0597794763743877
1789221425750047700,3.0743527832031257,-0.0349447643920779,-0.4130103077709675,0.5319119970053434,0.6053632733916864,9.1766862095654,3.4047540827065705,-0.0007996921194717,0.3015820980072021,0.0442643053829669
1789221425760127700,3.0844326171875007,-0.1008000692240893,-0.0210737676888704,1.37460259231925,0.5984946297312155,9.17650033160448,3.4064684854090213,0.0030685495585203,0.3071925938129425,0.0404551848769187
1789221425770207700,3.0945126953125,-0.1442370233578607,0.1030950482934713,0.7975619982987642,0.5930003066312521,9.176232036057112,3.4081524929732083,-0.0015914128161966,0.2681214809417724,0.0554627627134323
1789221425780287700,3.1045927734375,-0.0139962305180728,0.4313829998075962,0.0471355529233813,0.5908489738162607,9.175649852254988,3.4100913520812988,-0.0225318484008312,0.1980888843536377,0.0776482298970222
1789221425790367500,3.11467236328125,0.1759623873120173,0.8542886786490679,-0.9487345565408468,0.592426707994379,9.174423525330424,3.413116252860427,0.0194011479616165,0.1731169372797012,0.0772404968738555
1789221425800447700,3.1247526855468752,0.1997165897238999,-0.6625456250876188,1.4948583265110849,0.591567168555595,9.175430072024463,3.4105618922024963,0.0559088252484798,0.1697267293930053,0.0563013926148414
1789221425810526700,3.13483154296875,0.3408965635986998,0.5619903244048357,0.1558008025646209,0.5913458539551124,9.17657456588447,3.4075197480276227,0.0447321198880672,0.1011051088571548,0.0322419926524162
1789221425820606700,3.14491162109375,0.2541997654637322,-0.3501554999291896,-2.446566638165712,0.5906539992334321,9.177277161195876,3.40574367826581,-0.0287516862154006,0.0214451663196086,-0.0054952674545347
1789221425830686500,3.1549914550781253,0.2681479921216145,1.485824248445034,-2.5121941255912184,0.5861329781450331,9.175255884501338,3.411964744737744,0.0364475101232528,0.0623494163155555,-0.0230509527027606
1789221425840766700,3.1650715332031254,-0.3435285926027223,-0.258849673628807,0.450922982057929,0.5839963679751381,9.17650266969204,3.4089790069252253,0.0473440997302532,0.1133830398321151,0.0235748719424009
1789221425850846700,3.1751516113281255,-1.0201621085472403,-0.1515910759150981,1.83551972964704,0.586512442449294,9.17773133470416,3.405238066831231,-0.0038003497757017,-0.0061562829650938,0.0864711478352546
1789221425860926700,3.1852316894531256,-0.5393505495082587,-0.4262859689295292,-2.57251415425837,0.596362366942875,9.175147747951746,3.410484735313058,-0.0855806991457939,0.0086069507524371,0.117945447564125
1789221425871006700,3.1953117675781257,0.1020362599555402,0.0193675482928752,-1.4546686472028494,0.6044030135247856,9.173917913895846,3.412377417191863,0.0015036077238619,0.00999400857836,0.0318383909761905
1789221425881085700,3.2053906250000006,1.240773383066058,0.6284393573462963,2.5944816559165718,0.6030612435270101,9.17476897776723,3.4103257453590627,0.0348620973527431,0.0283746123313903,-0.0249183662235736
1789221425891165700,3.2154707031250007,0.2411122838210314,0.0340016383230686,1.025197618496418,0.5979057969925925,9.175594907197356,3.409013201455772,-0.0002823950489982,0.0761427506804466,-0.0498572662472724
1789221425901245700,3.225550537109375,-0.2275072811102494,-0.2696504691064357,-0.3197001559108495,0.5927728180183097,9.175332456868889,3.410614206911623,-0.020950922742486,0.0532387681305408,-0.0084285996854305
1789221425911325700,3.235630615234375,-0.754451901499182,-0.3054652943313121,-0.1849631841629743,0.5923943400947377,9.1749349819839,3.411748179377615,0.001612133346498,0.0411368757486343,0.0281672328710556
1789221425921405400,3.24571044921875,-0.5753867258662357,0.076291797041893,1.0280465781867505,0.5951388530299068,9.175053055405616,3.4109529373466967,0.0178582146763801,0.0112556768581271,0.0557072460651397
1789221425931485700,3.25579052734375,-0.408558442928642,-0.0200403329879045,0.8478191903740168,0.6000946853389963,9.175317843821643,3.40937034433037,0.0177200473845005,0.021983727812767,0.0638031214475631
1789221425941564700,3.26586962890625,-0.3027516149258241,-0.1560246744483709,0.3800643159806728,0.6054684873318299,9.175580878672005,3.4077123479902744,0.0183972902595996,0.0174283906817436,0.056368101388216
1789221425951644700,3.27594970703125,-0.2834907418778166,-0.1507493643939495,0.1749938710734248,0.6095510074051097,9.175841575434804,3.4062826074481007,0.0152045805007219,0.0105290515348315,0.0436148904263973
1789221425961724400,3.2860292968750002,-0.3082208766497671,-0.0536661237359046,0.1645320982918143,0.6127335098987445,9.176023361742496,3.405222577001154,0.0123656513169407,0.0171179790049791,0.0392361208796501
1789221425971804700,3.2961096191406254,-0.3703274234075099,-0.0690057316869497,0.3261258050441741,0.6164813546575606,9.176099934110043,3.4043396566867825,0.0073259593918919,0.0113583737984299,0.0497113987803459
1789221425981884400,3.3061894531250005,-0.3885199365716427,-0.2841974653750658,0.4404664699733257,0.6216555424250662,9.175813518384098,3.4041724834263323,-0.001593766035512,-0.0144910663366317,0.0613928213715553
1789221425991964700,3.3162695312500006,-0.2562180830162018,-0.3952390887588262,0.3105304687663912,0.6283670958276838,9.175226658406851,3.4045226120382543,-0.0054436260834336,-0.0322673171758651,0.0684828162193298
1789221426002044400,3.3263493652343756,-0.2081760097071528,-0.1741501137256622,0.2847679587393999,0.6358402081873268,9.174702342271804,3.404547161957621,0.0010337143903598,-0.0293399691581726,0.0666044875979423
1789221426012123600,3.3364284667968755,-0.2108960092555731,-0.0268809926629066,0.3797159409344196,0.6427500606410205,9.174527570226788,3.403721524788439,0.0118458019569516,-0.0244169477373361,0.0626173391938209
1789221426022203400,3.3465083007812506,-0.3333841786745935,0.0705529611289501,0.4361638043433427,0.6489699580691755,9.17465674956441,3.40219066195935,0.0167585350573062,-0.0121509609743952,0.0598085075616836
1789221426032283600,3.356588623046875,-0.3801124659713357,0.1449047300189733,0.2657043618291616,0.6548470334090292,9.174674869742988,3.401015480700135,0.0118446554988622,-0.0009719072841107,0.0660324469208717
1789221426042363600,3.366668701171875,-0.4022803855724632,0.1504617796242237,-0.0216501062721014,0.6616024259533733,9.17450477387309,3.4001676316991447,0.0089071886613965,0.0041027460247278,0.0826282054185867
1789221426052443400,3.376748291015625,-0.4650992453180253,0.107429862627387,-0.0328726342931389,0.6696539227228612,9.174142954823374,3.3995693735450505,0.0054582157172262,0.0104854591190814,0.0941993668675422
1789221426062523600,3.38682861328125,-0.4781012771669775,0.0628401947945356,0.1434507318183779,0.6783161718018352,9.173690534880755,3.399069315068424,0.0071892705745995,0.0236595831811428,0.1023603603243827
1789221426072603400,3.396908203125,-0.4263451517708599,-0.0791284817725419,0.0629015695929527,0.6868643660470843,9.173204212668535,3.398665118181705,0.0074775414541363,0.0438335314393043,0.1078347489237785
1789221426082682600,3.406987548828125,-0.3847078309375792,-0.2245107661753893,-0.2381768879562616,0.6949065835315734,9.172540195801854,3.398822354570031,-0.0025508580729365,0.0670155510306358,0.1062847897410392
1789221426092762400,3.4170673828125,-0.3276844326630234,-0.1477268017023801,-0.3090928371787071,0.7019281527314335,9.171622496435043,3.399857835097611,-0.0052176839672029,0.0834132805466651,0.1033939346671104
1789221426102842600,3.4271474609375003,-0.273753958902508,0.0156949972599744,-0.1528758550286293,0.7087503269016743,9.170707135155796,3.4009099744990468,-0.0065793585963547,0.0860913544893264,0.1099141538143158
1789221426112922400,3.4372272949218754,-0.2731280090238899,0.1728577358275652,-0.0778904644101858,0.7166538665678351,9.169766639435291,3.4017905567258597,-0.0022415530402213,0.0738432556390762,0.118625484406948
1789221426123002600,3.4473076171875006,-0.1808883359394967,0.3183528329551219,0.0496434440910816,0.7255692136250436,9.168970520621537,3.402047161835432,0.0064536682330071,0.0595689751207828,0.1228870749473571
1789221426133082600,3.4573874511718756,-0.0780602680191397,0.3069628394126892,-0.0480354243725538,0.735119132258743,9.1683889213413,3.401563762232661,0.0094332071021199,0.0430807285010814,0.1225481852889061
1789221426143161600,3.4674665527343755,-0.1563947498697787,0.221266085165739,-0.3721671329900622,0.7450692291911691,9.167746531784534,3.4011318005561826,0.0055961245670914,0.0402897335588932,0.1230717673897743
1789221426153241600,3.4775466308593757,-0.3234571703568101,0.1225356618225574,-0.5550806911468505,0.7550121657304465,9.16696736410558,3.401038277053833,0.0042756921611726,0.0366509184241294,0.1202529445290565
1789221426163321600,3.4876264648437507,-0.4154254791539162,0.0489554618269205,-0.4908218617260456,0.7648293569982051,9.166177090510724,3.4009739796459675,0.0006814899970777,0.033501997590065,0.1184779480099678
1789221426173401600,3.49770654296875,-0.4288438367187976,-0.0039285716205835,-0.390791461700201,0.7751052518188953,9.165341224208474,3.400901498931646,0.0031619521323591,0.0272560007870197,0.1285608112812042
1789221426183481300,3.507786376953125,-0.4789272796623408,-0.0464256510883569,-0.4190414046287536,0.786432482323423,9.164443398585917,3.400720589406788,0.0023677975405007,0.0175463818013668,0.1373796015977859
1789221426193561600,3.517866455078125,-0.4795619973693042,0.051104748815298,-0.4342477415889501,0.7990382813964039,9.163429253107308,3.400514253179729,0.0047864057123661,0.0231568496674299,0.1496064364910125
1789221426203641600,3.5279465332031252,-0.5243609240386635,0.162443893840909,-0.3995446769982576,0.8122636006072164,9.162373022052645,3.4002275451928377,0.0069195977412164,0.0268125720322132,0.1527234017848968
1789221426213720600,3.538025390625,-0.5130504985384643,0.2049555863559246,-0.2865431517183781,0.8254938151888549,9.161310945779084,3.399903427805006,0.0093110799789428,0.0374341830611228,0.158390998840332
1789221426223800600,3.54810546875,-0.5253410941824317,0.2674602655857801,-0.1941401778310537,0.8386823095206171,9.160307321694493,3.399377942626178,0.0115766311064362,0.0546440631151199,0.1662084460258484
1789221426233880600,3.5581855468750003,-0.5057227129336446,0.2438064182758331,-0.306039879348874,0.8518344173647463,9.159271548905968,3.3988995114594696,0.0134700573980808,0.0835286080837249,0.1704693883657455
1789221426243960600,3.5682656250000004,-0.5960794218156487,0.2251858889579772,-0.3883329626321792,0.865127760310471,9.158139330005644,3.398592637467384,0.0132450200617313,0.1049830392003059,0.1850762814283371
1789221426254040600,3.5783454589843755,-0.7292084469102322,0.2111813290029764,-0.5182569811403751,0.8789956882737576,9.15658216369152,3.3992297663271427,-0.0014654331607744,0.1244124323129654,0.1996252685785293
1789221426264120600,3.5884255371093756,-0.717957934903726,0.0921878698319196,-0.7202589783877134,0.8936324086524545,9.154667854502796,3.400567736932635,-0.0031096688471734,0.1550185531377792,0.2190724611282348
1789221426274200300,3.5985053710937507,-0.6976165000773966,0.1623544619917869,-0.5421338235512375,0.9086053752481936,9.152436149927974,3.4026059647619724,-0.0077171782031655,0.1771517843008041,0.2283989936113357
1789221426284279600,3.6085844726562506,-0.6591975567687303,0.2071662481427192,-0.4208005232557654,0.9233078543394804,9.150121443244814,3.4048730329111216,-0.0036233675200492,0.2017924189567566,0.2335937470197677
1789221426294359600,3.6186645507812507,-0.523597611515969,0.283930338871479,-0.3901353358790278,0.937495004319772,9.147727241584658,3.407427685829997,-0.0060510681942105,0.2304782718420028,0.2375087291002273
1789221426304439600,3.628744384765625,-0.472053448370099,0.3157365129768848,-0.4377963739812374,0.9514924038816244,9.145250622338056,3.4101977350652217,-0.0059823584742844,0.2514346837997436,0.2430110871791839
1789221426314519600,3.638824462890625,-0.3809054429799318,0.3394306922972202,-0.5356102670013905,0.965240139531344,9.142654760625955,3.413291024905443,-0.0057102455757558,0.2673386931419372,0.2499323785305023
1789221426324599600,3.648904541015625,-0.3510299446761608,0.3692196813613176,-0.7389379598945379,0.9792086783248932,9.139950762364268,3.416553241571784,-0.0086458483710885,0.2858588397502899,0.2614049911499023
1789221426334679600,3.658984375,-0.3615923282880335,0.3237783651351928,-0.9141764533787964,0.99351200203076,9.137059132575988,3.420157403543591,-0.00719108665362,0.3035459220409393,0.2701618671417236
1789221426344758500,3.6690634765625,-0.3026852351587265,0.142245739942789,-0.8284241695523261,1.008376247555017,9.1340885923326,3.423739061422646,-0.0052874591201543,0.3153397142887115,0.284105122089386
1789221426354838500,3.6791435546875,-0.2809134022030979,0.083727500000596,-0.7199684710085391,1.0243130176816135,9.13095613952577,3.4273616358339782,-0.0043327044695615,0.318471223115921,0.3001498878002167
1789221426364918500,3.6892233886718753,-0.1791356470532715,0.0801519796013832,-0.8363233983695506,1.041347519917041,9.127648330152034,3.431039739824832,-0.0063364668749272,0.3205543458461761,0.3074189722537994
1789221426374998500,3.6993034667968754,0.0880289235215634,0.188505386814475,-0.8625923966139555,1.0575967169936746,9.124340520778295,3.434862805244326,-0.0017504342831671,0.3288295269012451,0.2899008393287658
1789221426385078500,3.7093835449218755,0.4575493413951247,0.4741957210958004,-0.8511161860927939,1.0712980562184005,9.12131503547728,3.438649338045716,0.0001350837992504,0.3363795876502991,0.2591554522514343
1789221426395158500,3.7194633789062506,0.5476702687598765,0.443987045314908,-0.9310285117194056,1.082930553279817,9.118753076034784,3.441797572943568,0.008689428679645,0.3378287255764007,0.2550742924213409
1789221426405238500,3.7295434570312507,0.1382432263031602,0.4318073626995086,-0.7984358585238456,1.0943217889312653,9.116268858003616,3.4447768810153003,0.0090745221823453,0.3550239503383636,0.2580935060977936
1789221426415317500,3.7396223144531255,-0.0265830326296389,0.2748193961769342,-0.9817769944429398,1.1060687792178243,9.11359350131452,3.4481039796113966,0.0052183708176016,0.3679568469524383,0.2714170217514038
1789221426425397800,3.7497026367187507,-0.1296421328268945,0.0226245042622089,-1.1579267575532195,1.1181482893943786,9.110805916422605,3.451572240243852,0.0090655740350484,0.374341756105423,0.2728463411331177
1789221426435477500,3.759782470703125,0.0110971480756998,0.1127192012071609,-1.1417395928621292,1.1303385664690284,9.107949357947708,3.455136654727161,0.0052888388745486,0.3718532621860504,0.2747518420219421
1789221426445557500,3.769862548828125,0.1968717216867953,0.1666664799720048,-1.157389289675653,1.1428338178396225,9.104880033504962,3.4591154952302574,-0.0012183291837573,0.3584788739681244,0.2742607593536377
1789221426455637500,3.7799423828125,0.353798094215244,0.1195873334109783,-1.1214701272934675,1.154848226890713,9.101829998284575,3.4631489885300395,0.0006117951124906,0.3508497178554535,0.2504267990589142
1789221426465717500,3.7900224609375,0.638157106827572,0.1554606108248233,-1.0028405329987409,1.1642281227197495,9.099027215823533,3.467372159183025,-0.0019339205464348,0.3542028963565826,0.2290477305650711
1789221426475797800,3.8001027832031253,0.4305604313783347,0.2615086637049913,-0.815660257308185,1.172806492907554,9.096378162619471,3.4714281565755605,0.0009868370834738,0.3575581312179565,0.2230695933103561
1789221426485876500,3.810181396484375,0.1885531714789569,0.3095511023402214,-0.733657973664999,1.1807806135918943,9.09397577765286,3.47501916680485,0.0107435937970876,0.3444615006446838,0.2199001759290695
1789221426495956700,3.8202617187500003,0.316082111544162,0.4329179542899131,-0.6543050354868173,1.1894219660133123,9.091665747144818,3.4781162560373544,0.0088971434161067,0.3332976698875427,0.2272692769765854
1789221426506036500,3.8303413085937503,0.4938752579472958,0.6111386784553527,-0.6720420599684119,1.1989752456478773,9.089120154315232,3.4814883628189564,0.00801617000252,0.3219664692878723,0.2324078530073166
1789221426516116700,3.8404216308593755,0.6606083003494888,0.5622860924810171,-0.7050158165484667,1.2092631962325424,9.08664587315619,3.484384668782353,0.0111722080036997,0.3069009780883789,0.2266759276390075
1789221426526196500,3.8505014648437506,0.7665732780560851,0.8543710962355137,-0.508971266400814,1.2180701875444502,9.084558545488118,3.48675958122015,0.0188093557953834,0.3149240016937256,0.2025080025196075
1789221426536276500,3.8605812988281256,0.9321583925321698,0.7227817748636007,-0.4767003973931074,1.2248675195343792,9.08282076191008,3.4889053610771894,0.0153606729581952,0.3163425624370575,0.191467747092247
1789221426546355500,3.8706604003906255,0.8224583930157124,0.2900415152281522,-1.0332435623079537,1.2307191681720315,9.08086378262341,3.491939029684662,0.0074066095985472,0.3197180926799774,0.1787053346633911
1789221426556435700,3.8807407226562507,0.7625276559270918,-0.3883434840261936,-1.3546335710018873,1.2343863123774528,9.07899623518586,3.4954987679928538,0.0036623661871999,0.3419423997402191,0.1568423807621002
1789221426566515500,3.8908203125000007,0.8373806523375212,-0.0251133984684944,-0.7058607429400086,1.2359978392273188,9.077140962707997,3.499743858216702,-0.0052499026060104,0.3425951302051544,0.1443201899528503
1789221426576595500,3.900900390625,0.8032187088862061,0.2111024185478687,-0.9214312468126415,1.2370903106391429,9.075109749141337,3.5046252005174754,-0.0043388782069087,0.3396537005901336,0.1460661590099334
1789221426586675700,3.910980712890625,0.8493744569920003,0.2812029597342014,-0.4858490417495369,1.238369098403305,9.073541476911306,3.508229362489283,0.019446613267064,0.3398689031600952,0.1416764706373214
1789221426596755500,3.921060302734375,0.9486866257458924,0.6974106022417544,0.4295797497779131,1.2384167369373142,9.072878044566512,3.5099294444054365,0.0351211428642272,0.3542554080486297,0.1277512013912201
1789221426606835700,3.9311406250000003,0.855468828344345,1.0780056640982627,0.2443929859921336,1.237213060235977,9.072660602423548,3.5109120257019995,0.0395752787590026,0.3654361665248871,0.1224001199007034
1789221426616914400,3.941219482421875,0.5428079234205186,0.8739245224893093,-0.2495540220171213,1.2344377503037451,9.072636052504182,3.5119530591875314,0.0416757091879844,0.3906381130218506,0.1116597279906272
1789221426626994700,3.9512995605468753,0.5227293042488396,0.3383820600271224,-0.5902627714261413,1.230723844347149,9.072624946588276,3.5132834310084577,0.0332390815019607,0.3976808488368988,0.1145143657922744
1789221426637074400,3.9613793945312503,0.5714055107429623,-0.3049906625568866,-1.0177201222226022,1.2269390651114285,9.072406919923424,3.5151714367121456,0.0278074573725461,0.3928577899932861,0.1079374179244041
1789221426647154700,3.9714597167968755,0.8387222762048244,-0.5786527053922415,-1.0219608285322783,1.2216379630286245,9.072233901444076,3.5174674386948346,0.0296828560531139,0.3933917284011841,0.0827420502901077
1789221426657234400,3.9815393066406255,0.984846684211865,-0.2982581394314765,-0.8008084328740834,1.2146764534529295,9.072408673489091,3.5194241257205605,0.0373953320086002,0.3946070671081543,0.0692748427391052
1789221426667314400,3.9916193847656256,0.7705377977728843,-0.047171501019597,-0.5017147194013,1.2063245854973792,9.07316153768301,3.520354100047052,0.0423248447477817,0.388833075761795,0.0531536675989627
1789221426677394700,4.00169970703125,0.8058736803743988,0.4876064068108797,-0.293223652395606,1.1974746318265794,9.074236473438145,3.5206074902862308,0.0462785735726356,0.3692652285099029,0.0490697100758552
1789221426687473400,4.011778320312501,0.8966880698960273,0.7453279531925916,-0.617141718262434,1.1891104889113455,9.075238343957066,3.520859419220686,0.0386068038642406,0.3459439277648926,0.0408775582909584
1789221426697553700,4.021858642578126,0.991140742854774,0.7566279303640127,-0.5786801779210567,1.180100814634189,9.076358872419595,3.521004380649328,0.0429456643760204,0.3276891708374023,0.024505378678441
1789221426707633400,4.031938232421875,0.9625405251838266,0.6830600053280591,-0.5327490323513746,1.1700945305351167,9.077651250317691,3.5210116871729493,0.0433794930577278,0.3267312347888946,0.010156531818211
1789221426717713700,4.0420185546875,0.6941097340654582,0.3681915073573589,-0.6608066724658012,1.1588528594221918,9.079627518826722,3.5196330922961234,0.0683324411511421,0.3252997696399688,-0.0062362900935113
1789221426727793400,4.052098388671875,0.5700974238190799,0.1653185724943876,-0.4599792719557881,1.1460961075711995,9.082584615066647,3.516177398884296,0.0849297940731048,0.3214437961578369,-0.0205025784671306
1789221426737873700,4.0621787109375,0.6181256877984851,0.011035188755393,-0.9565645195141436,1.132634056995064,9.086032709693908,3.5116266037121413,0.0890343263745307,0.3055511116981506,-0.0322769470512867
1789221426747953700,4.072258544921875,0.5796876744631677,-0.2417179215639829,-1.581812387342751,1.118998549548164,9.089491325715183,3.5070497973158954,0.0880713313817977,0.3031681180000305,-0.0297304298728704
1789221426758032600,4.082337646484375,0.4062232049141079,0.1648100384503603,-1.5169634830743073,1.1060144917473196,9.093119453084467,3.5017566593438385,0.0952865108847618,0.2897854149341583,-0.031043229624629
1789221426768112600,4.09241748046875,0.4422160901196301,0.9026619566738604,-1.2758482035785912,1.0924673201709985,9.097020552176236,3.4958719852194187,0.0901450142264366,0.2645511627197265,-0.0467172674834728
1789221426778192600,4.10249755859375,0.5842877886697649,0.8923720333278179,-1.7425731504023074,1.0789343232505022,9.10012787054181,3.4919863759577274,0.0592664331197738,0.2629601955413818,-0.045295275747776
1789221426788272600,4.1125776367187505,0.5527857120774686,0.3825882815003394,-2.5179230246320365,1.0661435229994356,9.101891373082994,3.491315344828367,0.0195808038115501,0.2622238397598266,-0.0427727289497852
1789221426798352400,4.1226572265625006,0.683238430634886,0.295620192143321,-2.268653957036137,1.0519590764328837,9.103416975215076,3.4916423848256466,0.0291627701371908,0.2397553622722625,-0.0742907002568245
1789221426808432600,4.132737548828126,1.021261959547922,1.029473980641365,-0.6384741368874907,1.0353571934610604,9.10533011536002,3.491614035513997,0.0311870388686656,0.2461972832679748,-0.1027412489056587
1789221426818511400,4.142816406250001,0.8299575165994465,0.5313409191191196,-0.5843351349428296,1.016420730061829,9.108312930563091,3.4893992820739745,0.0733989477157592,0.2511463463306427,-0.1206351742148399
1789221426828591600,4.152896484375001,0.907119374474138,0.4380903884917497,-0.0715630149543285,0.9973185547068716,9.11252967147529,3.483898931092024,0.0875371396541595,0.1894344985485077,-0.1247356384992599
1789221426838671400,4.162976318359376,1.030328332448378,0.183417708286643,-1.3586542048200965,0.9799034556560218,9.11611162161529,3.4794682551681992,0.0368176512420177,0.143464908003807,-0.1275391429662704
1789221426848751600,4.173056640625,1.1888071220505982,-0.5052665666639805,-2.5228864922583103,0.9616349546462296,9.11780848866105,3.480118243509531,-0.0128745390102267,0.1456958353519439,-0.1631980687379837
1789221426858831600,4.183136474609375,1.326422937170416,0.175006438294053,-1.732279719924927,0.941335020874068,9.120182232055068,3.479448089163005,0.0503492839634418,0.0953132361173629,-0.1904873549938202
1789221426868911600,4.193216552734375,0.8770747301485389,0.9182564161688088,0.7040940255284309,0.919025500845164,9.12467077564597,3.47363852610141,0.0921989977359771,0.1361125856637954,-0.2031679898500442
1789221426878991600,4.203296630859375,0.5316426054794341,2.3569757990896703,1.3230489306926727,0.8961994095962494,9.12980521592498,3.466102285377681,0.0974738001823425,0.1161623522639274,-0.2001040279865265
1789221426889070600,4.21337548828125,0.5217457000389695,1.9169436288803812,-0.1182832650750875,0.8742234323706477,9.134990509608388,3.4580452356502414,0.0908867418766021,0.0954813137650489,-0.1938301473855972
1789221426899150600,4.22345556640625,0.8693377061557024,-0.4848877955019474,-2.01845754546225,0.854337924618274,9.138879333740473,3.452733977499604,0.0337010771036148,0.0637285858392715,-0.1852113604545593
1789221426909230600,4.23353564453125,1.0934176796983928,-1.2217103706777095,-2.5998747471317647,0.8349619738232343,9.140981274455784,3.4519106784179803,0.0067104711197316,0.0230962000787258,-0.2080772668123245
1789221426919309800,4.24361474609375,1.560227893652767,-1.0406412713438271,-1.655058533078432,0.8137727630611509,9.143966427746417,3.449063472293317,0.0469519682228565,-0.0419808737933635,-0.2601163685321808
1789221426929389800,4.2536948242187504,2.0104173007391397,-0.5299982723385095,-0.1502192030400037,0.7897513245478271,9.148076785674691,3.4437425695315,0.0541294552385807,-0.0868769735097885,-0.3039370775222778
1789221426939469800,4.2637746582031255,1.8876558673366903,0.499422516810894,0.1657984649658203,0.7640720358248799,9.152502200901507,3.4377743087768557,0.0539350137114524,-0.1413501352071762,-0.3424615561962127
1789221426949549600,4.273854492187501,1.8465403053551912,0.0800286454826593,-0.8032038035780191,0.7365040107458829,9.156352446588873,3.433533602467179,-0.0047954125329852,-0.1786192059516906,-0.3790805637836456
1789221426959628800,4.2839338378906255,1.629659741797298,-0.7654770072519779,-1.74905842076838,0.7073804267879575,9.15954802775979,3.43113501689285,0.0349726490676403,-0.2128201127052307,-0.3959491550922394
1789221426969708800,4.294013671875001,0.9874673881042748,0.1785246755480766,1.0707345040515064,0.6784482737489044,9.16275354580283,3.428419620454312,-0.0031795299146324,-0.2243143171072006,-0.3924649357795715
1789221426979788800,4.304093750000001,0.782008163075149,1.7721113795757293,1.7317969048440456,0.6509216035936027,9.165798904848096,3.425613038600981,0.0202938821166753,-0.266132116317749,-0.4021244943141937
1789221426989868800,4.314173828125,1.356713299885392,0.2777794150263071,1.380501587229967,0.6234409645371138,9.169740335950255,3.4201720165908336,0.0522925592958927,-0.3226510286331177,-0.4135246872901916
1789221426999948800,4.324253662109375,1.5764074595592914,-0.175847565293312,1.2142784671112894,0.5972283726550638,9.173556094846129,3.4146111675933,0.0197982918471097,-0.4102381765842438,-0.4256243407726288
1789221427010028800,4.334333740234375,1.5529159632042049,-1.3078355794698,-0.4159668194890022,0.5710400749640538,9.176080060365797,3.412310197174549,-0.026467740535736,-0.4526098668575287,-0.4638553559780121
1789221427020107800,4.34441259765625,1.711721208281815,-2.421476036050916,-0.7823144525453448,0.5430184974312782,9.178213565263151,3.411147875396907,-0.0013861510669812,-0.5336214303970337,-0.5157744884490967
1789221427030187800,4.35449267578125,1.7499433869093657,-1.6853081253916025,1.41269500708729,0.5128761648848652,9.181103441485762,3.408029743376374,-0.0129490634426474,-0.5575885772705078,-0.5358408689498901
1789221427040267800,4.36457275390625,1.4805610672198235,0.3413689668834209,2.9637124431937933,0.4835822293287143,9.18381270044446,3.4050136104255917,0.0148790553212165,-0.6571863293647766,-0.550372302532196
1789221427050347800,4.374652587890625,1.7960916823610662,0.7627274162828922,2.6939725422382352,0.4564031670346856,9.187275408118962,3.3994206127241253,0.0269359834492206,-0.6932620406150818,-0.5474998354911804
1789221427060428000,4.38473291015625,1.574682097071409,1.3966232854694127,3.2694699984699485,0.4289655634023249,9.190087542930245,3.395388872990012,0.0045278239995241,-0.726481556892395,-0.5607175230979919
1789221427070507800,4.3948127441406255,1.6961391698770223,0.04604688090384,1.1005042038932442,0.4004331868031993,9.19287746590972,3.39131680124551,0.0081523861736059,-0.7420764565467834,-0.6044088006019592
1789221427080587800,4.404892822265626,1.5839499838933349,-2.0479116034835574,0.1665279482841491,0.370167702801153,9.195053056383133,3.3888618093088265,-0.0219546500593423,-0.7676670551300049,-0.5994771718978882
1789221427090666800,4.4149716796875005,1.131801259432733,-2.257510631731152,-0.5933090072542428,0.3434758760347962,9.196206318071484,3.38853915322572,-0.0309609286487102,-0.8570254445075989,-0.5837759375572205
1789221427100746800,4.425051757812501,1.3313050101235508,-2.785589918705821,-0.4269125763952732,0.3187488830680027,9.197262549126147,3.38809140945822,-0.0246151518076658,-0.8697195053100586,-0.598048746585846
1789221427110826800,4.435131591796876,1.653977605973929,-0.7376596105217933,1.7988216918468474,0.2904133259489201,9.198319364702702,3.3877672920703885,-0.0279204025864601,-0.888684093952179,-0.66365647315979
1789221427120906800,4.445211669921875,1.6584806164816022,0.8889560874044895,1.6880962948054077,0.2565815643000416,9.19916224526763,3.3882100674018263,-0.0426802225410938,-0.8601521253585815,-0.7036905884742737
1789221427130986800,4.455291748046875,0.7455785669527948,0.5116296719551087,1.492320332466066,0.220182345049642,9.19970058992803,3.389307214988768,-0.0231954716145992,-0.8199186325073242,-0.6993768215179443
1789221427141066800,4.46537158203125,-0.2067204040713608,0.0610778612971305,1.8850106135249136,0.1847236580523662,9.200441763684154,3.38941535153836,-0.0164627339690923,-0.7676674127578735,-0.648668110370636
1789221427151147000,4.475451904296875,-0.6902522549197078,-0.7285375619113444,0.832113379459083,0.1532031324879266,9.201169493436812,3.389013785000145,-0.0083768432959914,-0.7460407018661499,-0.5863258838653564
1789221427161225700,4.48553076171875,-0.9943833780378104,-1.419873812675476,0.1269558163523673,0.1248391347256489,9.201627758598327,3.3889296138480303,-0.0176797807216644,-0.6617268919944763,-0.5530441999435425
1789221427171306000,4.49561083984375,-1.1161893373463303,-0.3966711673885583,0.4112666789740323,0.0964089307262096,9.201197550487516,3.3910251248225567,-0.0468057058751583,-0.6411888599395752,-0.5461583733558655
1789221427181385700,4.505690673828125,-1.1607717717207968,-0.7505535788863897,0.4831622868835926,0.0655740584715269,9.200888338407871,3.392600995837152,-0.0108857210725545,-0.5155527591705322,-0.545698881149292
1789221427191465700,4.515770751953125,-1.2361232191726566,-0.0087730890423059,1.0154092149317264,0.0330370059584383,9.201609638419749,3.3911189405858515,0.0355656668543815,-0.4778250753879547,-0.5290482640266418
1789221427201545700,4.5258505859375004,-1.4155604795210062,0.6781944451183081,0.2136082638889551,0.0005873596606918,9.202975666075943,3.387570308193564,0.0318119786679744,-0.4486233592033386,-0.5137344002723694
1789221427211625700,4.535930664062501,-1.6239814038999378,0.073330024626851,0.6225882932305336,-0.0325068126384518,9.20270561696291,3.388148692603409,-0.047222651541233,-0.3860595822334289,-0.5002966523170471
1789221427221705700,4.546010742187501,-1.7473818658582865,-0.4950567228168249,0.0210445415943861,-0.0648790391118032,9.199775408729913,3.395631157313287,-0.0666553601622581,-0.355843722820282,-0.4706259369850158
1789221427231784700,4.5560895996093755,-1.6975032978370783,-0.3711041799336672,-1.5517115558505057,-0.0973999510575551,9.19852511640787,3.3982395862460133,-0.0513166189193725,-0.4152841567993164,-0.5229013562202454
1789221427241864700,4.566169677734376,-1.6251115769736468,1.1211398724257946,-2.246948613445461,-0.1320827857109718,9.201011088004709,3.39032895925194,0.2444334626197815,-0.4072857201099396,-0.55843186378479
1789221427251944700,4.576249755859375,-2.741963835208118,2.821110144898295,4.035963197027146,-0.1831520065551623,9.20346783350706,3.3812732538759707,0.0619787015020847,0.0497710406780242,-0.6298439502716064
1789221427262025000,4.586329833984375,-2.8113319704666733,0.6759761845469474,-0.4640820310994982,-0.2418737331802025,9.20249928073585,3.3802196531698105,-0.0770516544580459,-0.1981181800365448,-0.6485210061073303
1789221427272104700,4.59640966796875,-2.3384147448740897,-2.866328758284449,-3.041354778061807,-0.2832359816654585,9.193903886348007,3.4003353894814845,-0.3512592613697052,-0.2282318770885467,-0.4188779294490814
1789221427282185000,4.606489990234375,-3.2540669698938727,-2.4709435390532017,-2.411037936405837,-0.2975815005452372,9.18847601608038,3.4137598114609715,0.1415062099695205,-0.6286883354187012,-0.1912536770105362
1789221427292263700,4.616568603515625,-4.581562943123281,0.1607651469737291,6.696236591020226,-0.300812536622025,9.191436034929753,3.4054984713330865,0.0819342285394668,0.117885448038578,-0.1338228732347488
1789221427302344000,4.62664892578125,-3.832309048658609,1.899952746590972,4.833522272716462,-0.321331629570201,9.1943294182837,3.3957980383127926,0.1398204565048217,0.1585700064897537,-0.1644946336746215
1789221427312423700,4.636728515625,-2.7140470697566865,-0.1781909135490655,-1.7927327273219822,-0.3379617522558197,9.20193638615608,3.3735043734401464,0.3038099408149719,-0.0740941390395164,-0.1545850187540054
1789221427322503700,4.64680859375,-2.8097669131070373,-1.5448358248621223,-2.659315947137773,-0.3457910211093724,9.209124251833558,3.3530355859071013,0.105747178196907,-0.0641296505928039,-0.0833909958600997
1789221427332584000,4.6568889160156255,-3.445581475396454,-0.1659340740442275,-3.23937559671849,-0.3496769226320088,9.20524185744226,3.363275240370631,-0.3422231376171112,0.1200862601399421,0.0249474681913852
1789221427342663700,4.6669685058593755,-3.998268257144093,0.3444634257674217,-3.3670340083822605,-0.3472077925721183,9.189246415930986,3.406987248586118,-0.5662779211997986,0.2694222629070282,0.1866770982742309
1789221427352744000,4.677048828125001,-4.122759729209542,0.0105991354256868,-0.6147834646984934,-0.3216267035266384,9.188222333580256,3.4122581747263667,-0.0498344935476779,0.0423055104911327,0.3615719377994537
1789221427362822700,4.6871276855468755,-3.337872211305797,-0.5894271973848343,5.707119755208492,-0.2945807112940587,9.188800425729156,3.4131428486064075,0.0052724387496709,0.2838050425052643,0.4344598650932312
1789221427372903000,4.697207763671876,-2.2248452104479077,0.1811731442302465,-1.4391940146952866,-0.2592885217037983,9.189283240810036,3.414709659531712,-0.0165207404643297,0.0934369564056396,0.3883126080036163
1789221427382982700,4.707287597656251,-0.798221485120803,0.2535357851296663,-0.9255588481366632,-0.2368218566181138,9.189194978004693,3.4165757456645367,-0.0457499995827674,0.2445542961359024,0.247993066906929
1789221427393063000,4.717367919921875,-0.1194584463343024,-0.0150087685614824,-0.395330858695507,-0.2269525150380097,9.188243376368284,3.4198063981488347,-0.0395677350461483,0.2361877113580703,0.1492041647434234
1789221427403142700,4.727447509765625,-0.7849081953655928,0.0353980611175298,0.0614203911244869,-0.2211053051134571,9.187515062093734,3.422143024402857,-0.0144208380952477,0.2661693096160888,0.1865856349468231
1789221427413223000,4.73752783203125,-2.2118108106993137,-0.0541150365471839,0.1754611963242292,-0.2072306734147481,9.187844732439515,3.422126073268056,-0.0007843883358873,0.252968817949295,0.3100883662700653
1789221427423303000,4.74760791015625,-2.7502508942991493,-1.0327350282639265,-1.2080050859302285,-0.1818978235092945,9.188134070774913,3.422790966917574,-0.042445171624422,0.2213942855596542,0.4130133092403412
1789221427433382000,4.757686767578125,-2.3005424025975167,-1.4809855762422084,-2.0041981339633463,-0.1493243913584388,9.1867236194551,3.4281498636022207,-0.0552642978727817,0.2483910173177719,0.4608740508556366
1789221427443462000,4.767766845703125,-1.640303300886601,0.0968044237166643,-0.3215931300505995,-0.1147960988127626,9.185963740998506,3.4315114489898084,-0.0372343994677066,0.3031714856624603,0.4759512543678283
1789221427453541600,4.7778466796875,-1.1016975783962757,1.4915724367082115,0.9888239903450012,-0.0831330503719393,9.185369866758585,3.434014956243336,-0.0289333239197731,0.2789787948131561,0.4349063336849212
1789221427463622000,4.7879267578125,-0.4494165595503523,1.1761597488582134,-0.0474865583181381,-0.0557600318418117,9.185047210675478,3.4354318373039363,-0.0178005937486886,0.3369133770465851,0.3879895806312561
1789221427473701600,4.7980065917968755,-0.3033705140091479,1.1990998949408531,0.8461281685471534,-0.0327156308002537,9.184702342760565,3.4366496886610984,-0.0132255498319864,0.3565177023410797,0.3726977109909057
1789221427483782000,4.808086914062501,-0.4603628279132768,0.3817231891036033,-0.1174836391299962,-0.0100976578851754,9.183710993635652,3.439438442596793,-0.054571833461523,0.3371890187263489,0.3855401277542114
1789221427493861600,4.818166503906251,-0.6325535877320915,-1.2236352012604474,-1.6967668002560734,0.0155977611303096,9.181062524953484,3.446479301019013,-0.0712671875953674,0.3054087162017822,0.4040485918521881
1789221427503940900,4.828245849609376,-0.7950783647894859,-1.56483348775208,-0.0928472105234861,0.0419522731005446,9.178095491841434,3.454156703779101,-0.0880331322550773,0.3431188762187958,0.4057018458843231
1789221427514020600,4.838325439453126,-0.8575697461463511,-0.1387900465309619,1.06197164414227,0.0659869181553134,9.175554575186966,3.4605253620281813,-0.0458177663385868,0.3839083909988403,0.3874437510967254
1789221427524100900,4.84840576171875,-1.2184558258611708,-0.5827887822836637,1.1228200805976989,0.0870458764341194,9.174680714961886,3.4623753738090395,0.013994600623846,0.4543604850769043,0.3901035785675049
1789221427534180900,4.85848583984375,-1.99677368305102,0.653697717243433,1.8157687349945304,0.1084969164701644,9.174500097697972,3.4622488248199224,-0.0110867843031883,0.5074335932731628,0.4498686492443084
1789221427544260900,4.868565673828125,-2.347275950591266,1.1710849298119543,-0.1632262763902545,0.1359312230337411,9.172763483163711,3.4658778289720416,-0.0698639750480651,0.4528241753578186,0.5086590051651001
1789221427554340900,4.878645751953125,-1.937204034359753,-0.3922960210442542,-1.1546323921829462,0.1672906580186449,9.170186910673976,3.4713220658525823,-0.0326686687767505,0.4979203045368194,0.5233897566795349
1789221427564420600,4.8887255859375,-1.3499071270018814,0.2762655033320188,0.9781301623731852,0.1967998437606729,9.169308958795666,3.4720921734422445,0.0299420934170484,0.5240433812141418,0.4986102283000946
1789221427574499800,4.8988046875,-1.177856762034446,0.2027496007442474,0.9367597488477826,0.2227200285674072,9.16965324218869,3.46961906132698,0.0462704673409462,0.5665335655212402,0.4866041541099548
1789221427584579600,4.908884521484375,-1.7921664717413484,-0.6302548823356628,-1.226167057825625,0.2473077226613648,9.170072344383597,3.4668402442634103,0.0252476874738931,0.5827663540840149,0.4880748987197876
1789221427594659800,4.91896484375,-2.524419400914013,-1.183051846459508,-1.9706299186214804,0.2726728491349146,9.16861162418127,3.468801315203309,-0.0286307241767644,0.6608693599700928,0.5301717519760132
1789221427604739800,4.9290446777343755,-3.473116840314865,-0.3071656685084104,-1.4496698160022496,0.2994531579023227,9.166160139375924,3.4730692017808558,-0.0143498433753848,0.7496886849403381,0.5896583795547485
1789221427614819800,4.939124755859376,-4.068037666679919,0.4363847536176443,-0.7800912235379218,0.3296416311454028,9.163914990797638,3.476261275820434,-0.0125815048813819,0.824424684047699,0.6735700368881226
1789221427624899800,4.949204833984376,-4.267698946020007,1.1954735211372374,-1.683136334310472,0.3690406715326011,9.159747934246065,3.4832761230185625,-0.0887320190668106,0.812367856502533,0.8035587072372437
1789221427634978800,4.959283691406251,-4.159911648257077,0.9262450768351554,-2.249399805989861,0.419121228399314,9.152446086800095,3.4967788709312675,-0.1313636302947998,0.8271803855895996,0.8995931148529053
1789221427645058800,4.969363769531251,-3.1693697480782865,0.093168113040924,-1.355537241843343,0.4724513251138851,9.143512254238129,3.513311780320108,-0.1306683272123336,0.8447890281677246,0.8785926103591919
1789221427655138800,4.97944384765625,-1.8656774058930572,-0.8900637563854455,-1.6018541816353795,0.5181908936342224,9.13659268410802,3.5248473198130723,-0.0337468348443508,0.9076777100563048,0.7926132082939148
1789221427665218800,4.989523681640625,-1.6128908316954969,-0.6699912649184465,0.1806283698290586,0.5554018493926153,9.131399207118154,3.532628767469525,-0.0164219699800014,0.9701439142227172,0.7632303237915039
1789221427675298800,4.999603759765625,-2.7266315337806937,0.6466174035936594,0.4935673610419034,0.5930986159065738,9.125915222749114,3.5406627285823222,-0.04269565269351,0.996908724308014,0.8344208598136902
1789221427685378800,5.009683837890625,-3.7758600162059066,1.066787519991398,-0.9574442249581218,0.6390067824594676,9.119043583413958,3.5503646229073405,-0.0097483647987246,0.9872282147407532,0.9504009485244752
1789221427695458800,5.019763671875,-4.251146747408807,-0.2016840173393488,-0.0049549920588731,0.6935127180203795,9.112453683629631,3.557052430108189,-0.0118634477257728,1.076071858406067,1.0309584140777588
1789221427705537800,5.0298427734375,-3.662743340113759,1.516762992066145,1.53420015681833,0.7485510068923235,9.104812813487648,3.5654490870535374,0.000378230412025,1.0935194492340088,1.0194897651672363
1789221427715617800,5.039922607421875,-2.5266937755867835,0.102558457198739,0.2208586734086275,0.800175103406608,9.09790960997045,3.571856323747337,0.042361631989479,1.208329677581787,1.0056650638580322
1789221427725697800,5.050002685546875,-2.334503855040669,-1.3343898243963717,0.6229395908862352,0.8492011462517082,9.090406102472544,3.5796325107067823,0.0003848510677926,1.1547083854675293,1.0086439847946167
1789221427735777800,5.0600827636718755,-2.344593871900439,0.1416127027362585,-1.1656328018859028,0.9008904169566928,9.079656160399315,3.5942514031678434,-0.0958500728011131,1.190893530845642,1.05099356174469
1789221427745857800,5.070162841796876,-2.6212764316007493,-2.049259510961175,-1.6567404948160052,0.9583535948880016,9.067412180376053,3.6102591196388,-0.0215726401656866,1.1277588605880735,1.1340686082839966
1789221427755937800,5.080242675781251,-2.8229262544095515,-0.8785065895825624,2.106246888074278,1.0223369683682917,9.055303809431194,3.623077684679627,-0.014420454390347,1.1984151601791382,1.184791922569275
1789221427766017800,5.09032275390625,-1.9489944253966207,1.663413688969612,1.679361199685931,1.0879797994934022,9.04225961894095,3.6365143816187975,0.0032463001552969,1.1347131729125977,1.2067464590072632
1789221427776096800,5.100401611328126,-1.0850298636466265,-0.9950532401233912,-0.6151838621929288,1.1540128720451146,9.029845543047784,3.646991644230485,0.0426871813833713,1.1492478847503662,1.1576579809188845
1789221427786176800,5.110481689453126,-0.4415286193121224,-2.032456844720244,0.7023860525667667,1.2118628573369234,9.017540188226103,3.6586522714078415,-0.0057840207591652,1.1830778121948242,1.055087327957153
1789221427796256800,5.120561767578125,-0.3147393186330795,0.3182306678801774,-0.0316276026681065,1.260897741075605,9.00434109943509,3.6745550661996,-0.0204013120383024,1.2127240896224976,1.0264629125595093
1789221427806336800,5.1306416015625,-1.423142020691186,0.7756026799470186,-0.5191866632059217,1.3092678042300046,8.990494944912195,3.691503570652008,-0.0107067562639713,1.242233395576477,1.0574926137924194
1789221427816416800,5.1407216796875,-1.9003443762570615,0.4127870204091072,0.5630149912774562,1.3604519018918275,8.975625877082347,3.709138303802907,-0.0124189024791121,1.2394773960113523,1.1125340461730957
1789221427826496800,5.1508017578125,-1.507240984352678,0.1578986516267061,0.6711246528625487,1.4164109588705005,8.959670183059572,3.7267242293760177,0.002431180793792,1.2416507005691528,1.150464415550232
1789221427836576800,5.160881591796875,-0.7810922172740101,-0.8575117323487996,0.6416153575226664,1.473614901343733,8.943179066985845,3.744113171072304,0.0083793504163622,1.2678916454315186,1.1726675033569336
1789221427846655700,5.170960693359375,-0.1692506512463092,-0.8234078026950359,-0.5014057995826006,1.5324493676282465,8.926583906015754,3.760064773441851,0.0421032644808292,1.1723812818527222,1.162745237350464
1789221427856735700,5.181040771484375,0.1303795071907341,-0.6238613819062709,-0.4391103791892528,1.5898540933705865,8.910042521059513,3.7754298080950974,0.0261418744921684,1.2389371395111084,1.1374590396881104
1789221427866815700,5.19112060546875,0.4313778852410614,0.1115507419496774,-0.1005377650260925,1.6436467660956084,8.89274242669046,3.793144620744884,0.0173485744744539,1.128069519996643,1.081911325454712
1789221427876896000,5.201200927734376,0.7808207068562507,-0.0596177256166934,-0.2528992407917976,1.6935867089152334,8.876564614349602,3.8090366018816826,0.0310380216687917,1.1173937320709229,0.9823911786079408
1789221427886975700,5.211280761718751,1.1409478579625487,0.2709136209100484,1.4243641098320483,1.7314957299403846,8.862666437378525,3.8243244796454894,0.0666943341493606,1.1955443620681765,0.8693385124206543
1789221427897055700,5.221360595703126,0.9880334244892,1.0267699823796748,1.5796230606049295,1.7599116770856085,8.851406792217492,3.8374075408414,0.1102245002985,1.2213456630706787,0.8345789313316345
1789221427907134700,5.231439697265626,-0.0996079368300735,-0.2148158861130475,-0.4890852471917867,1.7887172080703078,8.840376279637217,3.849497207085788,0.0859695225954055,1.1776918172836304,0.8769749402999878
1789221427917215000,5.24152001953125,-0.7309811556711793,-1.1678490166306494,-1.5432804121136665,1.823634938324988,8.826900127470493,3.864010301084816,0.0347579978406429,1.1446337699890137,0.9253936409950256
1789221427927294700,5.251599609375,-0.3245243611969053,1.9602847579568623,0.3871332314535975,1.8651928372465072,8.810030825734138,3.882625569705665,0.0289719086140394,1.0793229341506958,0.9868333339691162
1789221427937374500,5.261679443359375,0.4968798465907573,1.6257260556101798,0.952823871681094,1.9124352115452288,8.793241018974781,3.897679346452653,0.0967253893613815,1.0788558721542358,1.0334012508392334
1789221427947454700,5.271759765625,1.3054783488191664,-0.7958978644788265,1.3537299001604317,1.963804018124193,8.779064025062322,3.904086583146453,0.1947855651378631,0.9755182266235352,1.0470809936523438
1789221427957534700,5.281839599609375,1.9080067275784909,-0.622231150355935,1.7547814745903014,2.0148926925875243,8.766557010188698,3.906158420984447,0.1624617278575897,0.9927698969841005,0.9707291722297668
1789221427967614700,5.291919677734375,2.0498235745847224,1.7884201248198746,1.2707540953099727,2.05353938023746,8.753999141910672,3.914189167226851,0.1470094174146652,1.0539536476135254,0.8496136665344238
1789221427977693700,5.30199853515625,1.849119069802016,2.16627962423265,-0.5937517825856804,2.084404327969998,8.742600380539894,3.92333781158328,0.103596419095993,0.9331636428833008,0.735724925994873
1789221427987773700,5.31207861328125,2.1279022550433875,0.0942658451497554,-1.543894744619727,2.1086375826030967,8.731360024601221,3.935402635647357,0.0962028726935386,0.9658652544021606,0.6840969920158386
1789221427997853700,5.32215869140625,1.9664735295943916,-1.6490969943255185,-0.9549439325749872,2.130454423744232,8.723214712068438,3.941710503619909,0.1701465994119644,0.9128845930099488,0.6753072142601013
1789221428007933700,5.3322385253906255,2.1962832789607343,-2.1519103226184844,0.3938935193687677,2.152634399109333,8.716212724351882,3.945148076853156,0.1824851334095001,0.8726606369018555,0.6370742321014404
1789221428018013700,5.342318603515626,2.4523007979035376,-0.3612462182641029,-0.5493763420253992,2.173745868460089,8.709228856813906,3.948993354104459,0.154490515589714,0.7566086053848267,0.6040454506874084
1789221428028093700,5.352398681640626,2.479895784054696,0.3541846093147993,-1.35748194617033,2.197476434268057,8.703379546263813,3.948756038217246,0.178255021572113,0.6922237873077393,0.5784025192260742
1789221428038173700,5.362478515625,2.8432991803526875,1.3320342011809347,0.915501564502716,2.2229810240112244,8.695331264364718,3.952209978063404,0.1148281171917915,0.6814526319503784,0.6554291248321533
1789221428048253000,5.372557861328126,2.5602105530023573,3.0209885741204023,0.8291808331385254,2.2588683299504217,8.685609496295452,3.953236690762639,0.1643341481685638,0.5354058742523193,0.717716634273529
1789221428058332700,5.3826376953125,3.1980607127726075,1.6105717410981657,0.1661567768841981,2.3029170227743685,8.675816416555643,3.94932594705969,0.2248480916023254,0.5381899476051331,0.7772766351699829
1789221428068412700,5.392717529296875,3.711332891237736,0.0957762497127056,0.5425011955589055,2.3491392602451144,8.668048120641707,3.939144452524185,0.2803353369235992,0.5353896617889404,0.753350019454956
1789221428078492700,5.402797607421875,4.224015871638059,-0.2065168443232774,0.5270689408883452,2.3875718667529524,8.661340147435665,3.930784328196943,0.2727485001087188,0.7280941009521484,0.6960054636001587
1789221428088572700,5.412877685546875,4.365852446258068,0.6046341188669204,-0.8279919156149029,2.4212600552126764,8.65913007017076,3.915015681178867,0.4335280060768127,0.477037250995636,0.6709759831428528
1789221428098652700,5.42295751953125,4.046637151254713,-0.243442845660448,-2.119467311914265,2.4694816498070957,8.65726544534266,3.8889316841125487,0.2958101034164428,0.2323460131883621,0.7269335389137268
1789221428108731600,5.43303662109375,4.213397739250958,-1.3479974939882755,-2.68580589465648,2.5201445000737905,8.646571032848954,3.880212955605984,0.0840417742729187,0.2793453633785248,0.6382465362548828
1789221428118811600,5.44311669921875,5.184177246600389,-1.3496253874510526,-2.1350968427225947,2.557174546307325,8.63577900519967,3.880020355643332,0.0744426771998405,0.2435564547777176,0.4493275284767151
1789221428128891600,5.453196533203125,5.948904312267899,-0.6906470994561911,-1.47303783210814,2.579840259362757,8.628322259452938,3.8816044099643823,0.001621963805519,0.1299192458391189,0.2323532402515411
1789221428138972000,5.4632768554687505,6.561720568546653,0.4178653465867042,-1.3647677192643284,2.586074769838154,8.626829390546678,3.8807740966200823,0.073272980749607,-0.1276430636644363,-0.0726106539368629
1789221428149051600,5.473356689453126,7.222709027320146,0.5644955852240323,-0.6762319128736853,2.574513803642988,8.636420810234545,3.8671038831859823,0.090123526751995,-0.2188960164785385,-0.3621002435684204
1789221428159131600,5.483436523437501,6.973481753039359,-1.3696797489643096,-1.2435519078686832,2.542721073541045,8.652092426618934,3.8530814953133454,0.1569678038358688,-0.3907136023044586,-0.587093710899353
1789221428169211600,5.4935166015625,5.871112632057071,-3.044488107651472,-0.4990241651430726,2.493030283176899,8.677446063584089,3.828460264275968,0.2602381408214569,-0.1777384281158447,-0.771947979927063
1789221428179291600,5.5035966796875,5.056978853663802,-1.2928098597735165,0.4164347292616963,2.432233284647763,8.706155440717936,3.802297941276431,0.0867771431803703,-0.3308627605438232,-0.8777942657470703
1789221428189370600,5.513675537109376,3.5544910551875826,-0.1731640252977609,-2.1064061702892185,2.371307545172423,8.730189811778068,3.7856390674203633,-0.0018509421497583,-0.3727939128875732,-0.8831316232681274
1789221428199450600,5.523755615234375,2.3256334431037304,3.156760149613022,1.4066338073521851,2.315077416167408,8.750053619155286,3.7745679305687534,0.0182532612234354,-0.5774437189102173,-0.7583937048912048
1789221428209530600,5.53383544921875,1.3159414367750286,1.6543728889018297,1.7524135764151811,2.274463081706315,8.769232366877795,3.754699154755473,0.143721342086792,-0.586148738861084,-0.6791192293167114
1789221428219610600,5.54391552734375,2.5960817845895883,-0.0840244371205568,4.499344970902801,2.232873326341808,8.793681163957714,3.7223435300737617,0.2417187541723251,-0.4897588789463043,-0.7847529649734497
1789221428229691000,5.553995849609375,4.540144014281034,2.0375445232480764,3.7920392898514863,2.1751425835154947,8.822553622698784,3.688044954630732,0.3015106618404388,-0.5599488019943237,-0.9341068863868712
1789221428239770600,5.564075439453125,3.686480189532041,-0.2579845812320709,-0.864844267193973,2.1097320998415348,8.85855491040647,3.6394241315856575,0.4670476913452148,-0.7132821679115295,-1.0755442380905151
1789221428249849900,5.57415478515625,1.857174512094259,-4.4091012208759786,-2.2624264608234164,2.0363960838653146,8.900623535329103,3.5780405653402205,0.5445399880409241,-0.6577814221382141,-1.0936386585235596
1789221428259929600,5.584234619140625,0.2750876917243003,-5.227076477128267,-2.783108038762212,1.971421653521061,8.93539557350278,3.527405479863286,0.2411247491836547,-0.6522740125656128,-0.8400553464889526
1789221428270009900,5.5943146972656255,-0.9284761968880892,-4.630398285701871,-3.93094770206511,1.9285044489450751,8.951184094265102,3.511064585915208,-0.1474038064479828,-0.6007840037345886,-0.6286371350288391
1789221428280089600,5.6043945312500005,-0.4168244592316448,-1.855684565797448,-3.889622588986158,1.8953937681123612,8.951499151563644,3.528247775906324,-0.4449063539505005,-0.4625174701213836,-0.5517783164978027
1789221428290169600,5.614474609375001,1.3354285197943447,0.5299766450285911,-2.503899175454676,1.8557430179864167,8.9438787396878,3.5684210886016485,-0.591174304485321,-0.3197619915008545,-0.6618093252182007
1789221428300249900,5.624554687500001,2.677873348091542,1.0276543639987707,-0.6765092685103417,1.7977875264935197,8.93806040879786,3.612399346537888,-0.4619584679603576,-0.2645789086818695,-0.8470396399497986
1789221428310329600,5.634634521484375,2.839688004118204,1.494080620136857,1.2795762841910123,1.7426643358170986,8.948678833445905,3.613124445942044,-0.0919687896966934,-0.5176125168800354,-0.9233924746513368
1789221428320408800,5.6447138671875,1.576709803506732,0.5321206713199615,4.322235422849655,1.6782072073452174,8.963432750463484,3.60706090811938,-0.0265250653028488,-0.5114067792892456,-0.9177047610282898
1789221428330488600,5.65479345703125,0.8276422253943979,-0.0329804785817861,2.205876890605688,1.6193815088890493,8.978615706548094,3.596171849836409,0.0403389185667037,-0.5639565587043762,-0.8666186928749084
1789221428340568800,5.664873779296875,0.8169473745092749,-0.1893447602480649,1.6320689948961138,1.5622908175319432,8.996267098572849,3.5772649047926066,0.1395547091960907,-0.6676738858222961,-0.9012094140052797
1789221428350648600,5.67495361328125,1.351510908936709,-1.2417027728706598,-0.4331061703383922,1.50282638278082,9.01762085224688,3.548860355824232,0.2377374768257141,-0.7300578355789185,-0.9715518951416016
1789221428360728800,5.68503369140625,0.6014128187328577,-3.3622523270636795,-1.3808496700152757,1.4373993863634764,9.03890329425037,3.5217142824843526,0.0845370143651962,-0.6433506011962891,-1.0091581344604492
1789221428370808600,5.695113525390625,-0.3181353908121586,-2.6076298913031817,-2.1232474149748684,1.364401224039495,9.050425389739871,3.521161324776709,-0.2593138813972473,-0.4720669984817505,-1.012528896331787
1789221428380888600,5.705193603515625,-0.6408706766352057,2.474437810909748,-1.730762593360245,1.294786858934909,9.053642598220703,3.539132450275123,-0.0937166586518287,-0.8350231051445007,-0.9160752892494202
1789221428390967600,5.7152724609375,-1.5096910078532992,4.601776586851478,1.3864651718094945,1.2407920877665282,9.063876407465338,3.532272209116816,-0.0042085382156074,-0.1768502444028854,-0.725848376750946
1789221428401047800,5.7253527832031255,-2.316859185017645,0.0676379504650831,2.2297493491023777,1.1920333175554871,9.074172176030276,3.522619122369587,0.0960360392928123,-0.5975356698036194,-0.6177179217338562
1789221428411127800,5.735432861328126,-0.8065089095380157,-4.3291327811479565,-0.7670312509566545,1.1577082924969493,9.08371800301075,3.5094396150618787,0.0277114659547805,-0.4660526514053345,-0.61695396900177
1789221428421207600,5.745512451171876,-0.0713973029986023,0.602510550841689,0.9154264534398912,1.113473502516374,9.094005588269232,3.497086913967133,0.1118460521101951,-0.5127722024917603,-0.7023471593856812
1789221428431287800,5.755592773437501,0.1342577368635684,3.2750130195498466,-1.035702645897865,1.0631424414873123,9.103757751476763,3.487365145897865,-0.0350342877209186,-0.358095645904541,-0.7478228807449341
1789221428441367600,5.76567236328125,-0.8836596614968031,-1.6483271789968013,-2.097165463735163,1.0069609008643776,9.107012953880428,3.4955288708701726,-0.1852930337190628,-0.2486005872488021,-0.6697664260864258
1789221428451447800,5.775752685546875,-1.9509630951210852,-2.523138421192765,-0.8650488498553633,0.971135992636904,9.112280080628397,3.491936399336159,0.012617889791727,-0.2712574899196625,-0.47857466340065
