time,seconds_elapsed,acc_x,acc_y,acc_z,grav_x,grav_y,grav_z,gyro_x,gyro_y,gyro_z
1789224567633387800,0.0,1.241830783164501,-0.1888534330671653,-0.1827139439314603,5.1666988730549805,-0.3257503593279048,8.32883545500934,0.5959063172340393,-0.1537155508995056,-0.4873427152633667
1789224567643425800,0.010038085937499996,1.0954290925860404,-0.4275939097229391,-0.9555997661352156,5.18052164670229,-0.2400891147857531,8.323156824851036,0.7564935684204102,-0.166929617524147,-0.5861878395080566
1789224567653462500,0.020074951171874966,0.8760439988613128,-0.576224126538448,-0.7109300090283155,5.202983653879166,-0.1457773390018846,8.31132317919433,0.697277843952179,-0.3608044683933258,-0.657822847366333
1789224567663500800,0.030113037109374963,0.8894260430037975,-0.7515045960009098,-0.3349637760162353,5.243770422297716,-0.0613268584889825,8.28670603981018,0.4859709143638611,-0.5906698703765869,-0.6488365530967712
1789224567673538600,0.04015087890624991,0.6726701287388801,-0.5251990188306197,-0.4921159931898117,5.296673744967579,0.0001206459120431,8.253219949793815,0.1904485672712326,-0.6595624685287476,-0.5979945659637451
1789224567683575600,0.0501877441406251,0.6539975769728422,-0.6282827785450965,-0.9468763614535332,5.347966709831357,0.0322761205715592,8.22001209219694,-0.1506954431533813,-0.5607341527938843,-0.5411283373832703
1789224567693613800,0.060226074218749925,0.5310831449657678,-0.7095768408536911,-1.158771391683817,5.383193506035209,0.0345615395114407,8.196976084524392,-0.4632068574428558,-0.2854636609554291,-0.4885225892066955
1789224567703651600,0.0702639160156251,0.3250450240701437,-0.9088711135122924,-1.3346148653239012,5.393505056691169,0.010147672181006,8.190261097055673,-0.725043535232544,0.0276487246155738,-0.4249148368835449
1789224567713689900,0.08030224609374992,0.0411772290408611,-1.0926765790075064,-1.225948738899827,5.376152939873934,-0.0322989922737819,8.20160491336882,-0.7416478395462036,0.4902478754520416,-0.3785014450550079
1789224567723726800,0.09033911132812511,-0.0943850876152515,-1.4344469662986694,-2.573942141234874,5.345916791564226,-0.069410901254625,8.22111566952467,-0.7189018130302429,0.0742549076676368,-0.4005377888679504
1789224567733764600,0.10037695312500006,-0.427349214246869,-1.823680384901911,0.0864361744374036,5.367485064771771,-0.1190645790453534,8.206479825928806,-0.9041296243667604,-0.5624224543571472,-0.2761871814727783
1789224567743803000,0.1104152832031251,-1.2152636787563562,-1.2928114672087132,1.3132821544378994,5.432200405788421,-0.1800714665986597,8.162668741253018,-0.8735661506652832,-0.9566970467567444,-0.191050723195076
1789224567753839600,0.12045190429687502,-0.7036047807067632,-1.761613658697903,0.6062766253769397,5.525078011450171,-0.2381432048823684,8.098591698139906,-0.7158684134483337,-1.337609887123108,-0.0773608237504959
1789224567763877400,0.13048974609374997,-0.3709954588621854,-1.4736350673489271,1.2971271384507417,5.650509394714236,-0.2855046755161136,8.01003254019916,-0.4656274020671844,-1.7663521766662598,0.0900726467370987
1789224567773915400,0.14052758789062492,-0.2846294270515441,-0.9967674966953696,1.7039374225378034,5.805808092975616,-0.3251310583857819,7.896661597084998,-0.242091491818428,-2.115389347076416,0.317614734172821
1789224567783952100,0.1505644531250001,-0.4244172524482011,-0.4388116154383867,1.4295938271790742,5.9815089432746165,-0.3618991292148828,7.762793809387087,-0.0501679815351963,-2.3874623775482178,0.5332638025283813
1789224567793990400,0.16060278320312493,-0.2757511240690946,-0.4120071951430291,0.7555863123565911,6.1711728524744505,-0.3976818057358264,7.611100442141294,0.061381995677948,-2.573249340057373,0.6576077938079834
1789224567804028200,0.17064038085937505,0.1812035393685102,-0.8153757412783801,0.1413742178052663,6.364842490184307,-0.4327513290187343,7.447945185160637,0.1507997512817382,-2.537458896636963,0.6144422292709351
1789224567814066400,0.1806787109375001,1.5239906052321197,-0.5781043142618612,-0.1270300506323576,6.511698938792944,-0.413544231984578,7.321007488986849,0.9393158555030824,-1.2594783306121826,-0.1339628100395202
1789224567824103400,0.1907158203124999,6.26763182375431,0.6086038992807269,3.839632523414493,6.566635813117027,-0.2759595791880041,7.278291798332333,1.4914180040359497,-0.3903998434543609,-1.1130661964416504
1789224567834141200,0.20075341796875001,7.409316471558808,2.42428466373086,7.861711864256859,6.586587298777699,-0.1063981175600085,7.264704002484679,0.9980974197387696,-0.1014467403292656,-1.0166534185409546
1789224567844179500,0.21079174804687506,-0.3693903617531061,4.08096816766262,1.2856430368840694,6.569474835935234,0.0011457941215292,7.280960140758752,0.3644054532051086,0.6240500211715698,-0.857421875
1789224567854216400,0.22082885742187508,-1.0962702195852994,-0.1395632319936994,-1.3040928858101368,6.4883116334646935,0.0704304900933289,7.353043380194902,-0.138738140463829,1.735839605331421,-1.0185261964797974
1789224567864254200,0.23086645507812498,0.531323383462429,-2.8405650792136785,-2.2059464487105607,6.317739378225803,0.1068356047949753,7.499675956919789,-0.7268309593200684,2.7696821689605717,-1.0915188789367676
1789224567874292500,0.24090478515625002,-0.4290466658145189,-1.5227765532672404,-3.1480653865039345,6.079212946179509,0.1022668355747126,7.694354479411244,-1.1634219884872437,3.423870325088501,-1.1382405757904053
1789224567884329200,0.25094140624999994,0.2884136217653751,-1.4473390349671245,-1.870627283385396,5.791811131805181,0.0714213368947384,7.913292998412251,-1.3579121828079224,3.819267511367798,-1.2042808532714844
1789224567894367200,0.26097949218749994,0.3470791612237692,-0.6648780866231769,-0.9872042801886796,5.485794633331895,0.0366993529744446,8.128658919623494,-1.2615360021591189,3.701824188232422,-1.3296016454696655
1789224567904405200,0.27101757812499994,-0.0043482583373785,-0.4725007902787998,0.7551631185084581,5.190787020128965,0.0159564806157082,8.320207911917567,-1.031552791595459,3.4256341457366943,-1.439691185951233
1789224567914443300,0.28105566406249993,-0.7266659228205681,-0.2216629207299091,0.6446060637712479,4.915621002471447,0.0160609182377171,8.48568196723461,-0.7286888957023621,3.0840156078338623,-1.527854323387146
1789224567924480300,0.2910925292968749,-0.7416162391930818,-0.9921944896914064,0.6309153920710087,4.660924356868863,0.052320691343164,8.628060978168248,-0.1862558424472808,2.916694402694702,-1.7337473630905151
1789224567934518300,0.3011306152343749,-0.5273626631379127,-1.824911680262536,0.1368786599516868,4.415695796835422,0.1461274402143433,8.755036668264866,0.4418154954910278,2.508617877960205,-1.7527211904525757
1789224567944556300,0.3111687011718749,-1.0870911800906062,-1.3921473090991376,0.9536807807713746,4.236214258953929,0.2783946973804384,8.840099800783396,0.9117336869239808,1.535200595855713,-1.6647673845291138
1789224567954593300,0.3212055664062501,-0.7725260489806532,-0.9773955644883214,2.3321306961685417,4.116477580200136,0.4581530429093167,8.889043572172522,1.5645831823349,1.03314471244812,-1.6632776260375977
1789224567964631300,0.3312436523437501,-0.410405678230524,-0.95624931608513,1.9255711719721555,4.036124817329645,0.6939345966942608,8.910585541895031,2.186767101287842,0.5186350345611572,-1.608932614326477
1789224567974669300,0.3412817382812501,-0.6284209449067711,-0.8999780513521284,2.196105438175797,4.006938762594759,0.972252940902859,8.897727229365707,2.67394495010376,-0.1185505613684654,-1.4166427850723269
1789224567984706300,0.35131860351562505,-0.3091393066689372,-0.4842717094302177,2.454949266585708,4.025089920835197,1.2819897750735283,8.850171697464585,3.0955557823181152,-0.583474338054657,-1.1973191499710083
1789224567994744300,0.36135668945312505,0.1673717056319117,-0.0972309785656631,2.0334207213163373,4.072609504640102,1.6144066430859267,8.773706297421455,3.4067556858062744,-0.8405522704124451,-0.9621165990829468
1789224568004782000,0.37139428710937494,0.3736535721555352,0.2469691200904548,1.5169722509026526,4.138967644427717,1.955846044857055,8.672600377118586,3.587477207183838,-1.0076889991760254,-0.7184152603149414
1789224568014819300,0.381431640625,0.3838736451357603,0.5491588998824357,1.0976742411643263,4.217033465404808,2.2902146314591167,8.552305187699199,3.5615594387054443,-1.055249571800232,-0.4081165194511413
1789224568024857300,0.3914697265625,-0.0828223678544163,1.1475205143511296,0.175582776877284,4.304248807521164,2.595963418906927,8.420499008706212,3.3440020084381104,-1.1355955600738523,-0.090721771121025
1789224568034895000,0.4015073242187499,-0.2400844751432538,1.4962968348816037,0.1289303312957286,4.409885941512883,2.857558591851592,8.2799548119843,2.9515092372894287,-1.350460410118103,0.2132013738155365
1789224568044933400,0.41154565429687495,-0.144153619390726,1.2986264370977878,0.6170961255550385,4.52793685913682,3.067349927800893,8.139995721673966,2.446571588516236,-1.276623010635376,0.3440435528755188
1789224568054970400,0.42158276367187497,0.4778188800290227,1.1977338672846556,0.801922531595826,4.596691246411204,3.2049034182742235,8.047944629964231,0.8989278674125671,0.5708493590354919,0.3608629405498504
1789224568065008400,0.4316206054687499,1.6389850578948857,1.919073918907344,-3.986153456458449,4.53147117074281,3.2134958900526165,8.081435396155715,-0.2579796612262726,0.9792725443840028,0.1787149757146835
1789224568075046400,0.4416586914062499,1.3856915570884942,1.1754223744943737,-1.169056638854742,4.474416281351447,3.1663126985952257,8.131694341796637,-0.6809106469154358,0.5869117975234985,0.0924041047692298
1789224568085083100,0.4516955566406251,0.1471300048530101,0.4221691812604665,0.504765631404519,4.430433931761979,3.1049387769609686,8.17930306518972,-0.7590003609657288,0.5438823103904724,-0.0144038349390029
1789224568095121400,0.4617336425781251,-0.2330067918419837,0.2906953029617667,-0.4525169732511043,4.37916551681757,3.0436794216170906,8.229781791061162,-0.7778066992759705,0.6839228868484497,-0.0685165077447891
1789224568105159200,0.47177148437500005,-0.6037336628958583,0.2336626254022121,-0.5243804324567317,4.312202396874129,2.9810020161688326,8.287878006199001,-0.839631199836731,0.8564552068710327,-0.1140602901577949
1789224568115197200,0.48180957031250005,-0.3524094163358211,-0.1588216116905212,-0.8045949656754732,4.231914223672449,2.9133506217002867,8.35306388733685,-0.9364466667175292,0.9543671011924744,-0.1966389715671539
1789224568125234400,0.49184667968749984,-0.0009632920742034,-0.6586275748610496,-0.7621124992549418,4.1385926736354826,2.8413913009047507,8.42430599977374,-0.999443531036377,1.1119228601455688,-0.2631959021091461
1789224568135272200,0.5018845214843748,-0.166856449586153,-0.3914586934372782,-0.7077788515210152,4.029302277833224,2.766207465104759,8.501952718555927,-1.0333315134048462,1.2773852348327637,-0.2856820523738861
1789224568145310500,0.5119228515624998,-0.2907224832296371,-0.0291299406334757,-0.5802198085784912,3.9059669900655742,2.688040521840751,8.584185596084595,-1.0631932020187378,1.4001572132110596,-0.3013409078121185
1789224568155347500,0.521959716796875,-0.2021630330279469,0.1278872519835829,-0.3163058372974395,3.773563721962273,2.606889594329893,8.668029415941238,-1.077997088432312,1.4703128337860107,-0.3128964900970459
1789224568165385200,0.53199755859375,-0.0878036633983254,0.2027490162223577,0.0494201567292213,3.638704000617564,2.5254434832647443,8.749419997426868,-1.0555615425109863,1.397533655166626,-0.3222188651561737
1789224568175423500,0.542035888671875,-0.1374246033966541,0.2709669585324823,0.6190484286665916,3.5136978570282458,2.4470504761599003,8.82248581815958,-0.9735460877418518,1.2694977521896362,-0.3227820992469787
1789224568185461200,0.5520734863281249,-0.2425654783040285,0.263271581724286,0.6237918238013982,3.396028632198274,2.3781313998430966,8.887174271169304,-0.8257794976234436,1.197747826576233,-0.3172227442264557
1789224568195498200,0.5621105957031252,-0.1074044359251856,0.3355782546527683,0.5002671509414911,3.286305690197646,2.32153667530939,8.943212384733558,-0.662643313407898,1.095649242401123,-0.2806578278541565
1789224568205536300,0.5721486816406252,0.1039183473750948,0.4542100409045815,0.3559299916774034,3.1851164755254984,2.278621516560018,8.990734014365076,-0.4732665121555328,1.0218174457550049,-0.2221894562244415
1789224568215574300,0.5821865234375001,0.2201440953984856,0.3814502173811197,0.0984299790918827,3.093580639861524,2.249627769526839,9.02991217854321,-0.3053510785102844,0.896591305732727,-0.1593854576349258
1789224568225611300,0.5922236328124999,0.1936982792824506,0.2297391683481633,0.0134369892001152,3.015729046157002,2.233146151933819,9.060288027584551,-0.1449582427740097,0.7615317702293396,-0.0964805260300636
1789224568235649300,0.6022614746093748,0.1666276092663407,0.2911426083378494,0.0664648150324821,2.950473314653337,2.2287546389766035,9.082827191650868,-1.59583287313e-05,0.6369373798370361,-0.0462114997208118
1789224568245687300,0.6122995605468748,0.0952384895741939,0.3066471975922584,0.2034463508367538,2.897214018152654,2.23539641507864,9.098325789555906,0.1355756819248199,0.5216373801231384,0.0155522674322128
1789224568255725300,0.6223376464843748,0.0441454311966896,0.325782982955873,0.4484878638654947,2.856579517686367,2.252023870883137,9.107070237025615,0.2553195655345917,0.3921480774879455,0.074194885790348
1789224568265762300,0.63237451171875,0.0294043736606836,0.1737692977145314,0.6178022279977798,2.8273271197170016,2.278192477492988,9.109689479613303,0.3754869699478149,0.2963946461677551,0.1067083552479744
1789224568275800300,0.64241259765625,0.0499687305226922,-0.0770122202709317,0.7210626959860325,2.806313850043714,2.314692946894467,9.106985481351613,0.4907987415790558,0.2196459323167801,0.1144339516758918
1789224568285838300,0.65245068359375,0.0151896780863404,-0.2574308928720653,0.658455140903592,2.793208869276941,2.3610363265268504,9.099113725063203,0.5914923548698425,0.1243002340197563,0.1119484230875969
1789224568295875300,0.6624875488281252,-0.0455967990487813,-0.3794965990953147,0.590369446671009,2.789501539191604,2.4160643862657247,9.085796562850474,0.6543896198272705,-0.0180592369288206,0.0405326820909976
1789224568305913000,0.6725253906250002,-0.1389423144832253,-0.402872944638133,0.7884183223783969,2.805484121221304,2.477448390902578,9.06431947505772,0.730626106262207,-0.3092753887176513,0.0625679418444633
1789224568315951400,0.6825637207031252,-0.2686360313668847,-0.1847676615908741,1.331289520293474,2.8480890449777245,2.546946874542534,9.031713090485336,0.8307548761367798,-0.5982698202133179,0.0360644832253456
1789224568325989000,0.6926013183593751,-0.4099392297625541,-0.0155114573866128,1.4278601352542637,2.9135259782671925,2.625939454975724,8.988114187255501,0.9110281467437744,-0.8337233662605286,-0.0398409329354763
1789224568336026000,0.7026384277343749,-0.7088520337104797,-0.1289843995705246,0.7589934904515743,2.9858871578618884,2.713824366916716,8.938121783596277,0.9768075346946716,-0.7716196775436401,-0.1468577533960342
1789224568346064400,0.7126767578125,-0.9211381090849636,-0.5168646499991416,-0.6744885763376951,3.0242946299284696,2.802279772222042,8.897823090955615,0.8129557371139526,-0.1100524142384529,-0.2321822345256805
1789224568356102100,0.7227143554687498,-0.4536091524019837,-0.5210507035121321,-2.706236980527639,2.993707476224005,2.866769780050218,8.887616754239797,0.4771081805229187,0.6107445359230042,-0.2120818048715591
1789224568366139400,0.7327517089843751,0.2258753325268626,-0.058480830541253,-2.9093823025912044,2.8942183434680104,2.890522119298577,8.912842965433,0.0070392042398452,1.343722224235535,-0.0369864255189895
1789224568376177400,0.7427897949218751,0.7207672201707959,0.6489931928142905,-1.7808815460085867,2.797212844221294,2.883651356746256,8.945978926837444,-0.2006436139345169,0.9032029509544371,-0.0235707852989435
1789224568386215200,0.752827392578125,0.5102765037804842,0.7294231125742197,0.1909761608421802,2.729676892825961,2.8611308973804115,8.974027794235944,-0.3100659847259521,0.5979970097541809,-0.0651680305600166
1789224568396253400,0.7628657226562501,0.8702268370151519,0.6471472726866603,0.4993301623523235,2.681122413015365,2.835817592425644,8.996672172242402,-0.293224424123764,0.4461845159530639,-0.1088059172034263
1789224568406290200,0.7729025878906248,0.2653784908756613,0.3257525878176093,1.0339695384949446,2.6426784083306787,2.8161881783261893,9.014195553973316,-0.1977530568838119,0.3537078499794006,-0.0864934250712394
1789224568416328200,0.7829404296875002,-0.4478378755241632,0.294706292168796,1.0412842454224824,2.6062106721550227,2.805036669714749,9.028279024383425,-0.0820323154330253,0.4313171803951263,-0.0304408092051744
1789224568426366200,0.7929785156250002,-0.480656733803451,0.5334329229623079,0.3553852172762155,2.561517251686752,2.8019892648428675,9.042005936440823,0.0040846476331353,0.5533270835876465,0.0237998254597187
1789224568436403200,0.803015625,-0.2470131053626537,0.8256915297180414,-0.3206599408537149,2.5060920093238352,2.8028707238525152,9.05725143636763,0.0397684797644615,0.7056377530097961,0.0847444161772728
1789224568446441500,0.8130537109375,0.115189244582504,1.026907637284696,-0.8756728274613619,2.4377780592933296,2.8050121197953817,9.075214963081478,0.0651255100965499,0.8538248538970947,0.1076625138521194
1789224568456479200,0.823091552734375,0.5865642091691494,0.7706903579860925,-0.9450386246323584,2.3581541952192784,2.8102871375888583,9.094601800596712,0.1006311997771263,0.9539390206336976,0.1091863438487052
1789224568466517200,0.833129638671875,0.5279506921589374,0.4168737052008509,-0.6233809049129486,2.269823439206928,2.8178423752740023,9.114716367864608,0.1221777647733688,1.039819598197937,0.1023364290595054
1789224568476554500,0.8431667480468752,0.2646902163505554,0.1302110187560319,-0.5440373190850019,2.178891853046417,2.8252812931030986,9.134582513329386,0.0363719463348388,0.9426186680793762,0.067946046590805
1789224568486592300,0.8532045898437501,0.8797951680883764,0.3636617549732327,-1.007282607099414,2.0909601793542505,2.8206261607736347,9.15654650785625,-0.0447756387293338,1.045371651649475,0.0731874108314514
1789224568496630300,0.8632426757812501,-0.4329676386505365,0.8423848903656005,-1.0625064816713332,1.9905454561859368,2.8183494480133056,9.17959829761982,0.0294283088296651,1.167150616645813,0.1453879177570343
1789224568506668300,0.8732805175781251,-0.5454843030229211,0.3715253279551863,-0.584080575659871,1.889679043727368,2.81665345775038,9.201410900977251,-0.01448854804039,1.1093424558639526,0.1610374450683593
1789224568516705300,0.8833176269531249,-0.0778736594058573,0.0976376596704125,-0.2549509126245975,1.7946658873416483,2.807576417325437,9.22318141875863,-0.1293932348489761,1.0255122184753418,0.0997230038046836
1789224568526743300,0.8933557128906249,0.306058584049344,-0.4319236825555563,-0.3510059792786836,1.7031253755025564,2.791259488774836,9.24546456223726,-0.1946300268173217,0.958166480064392,-0.0301489774137735
1789224568536781300,0.9033935546874998,0.9092869277715684,-0.8161231986448169,0.3742413089156151,1.6257237175226211,2.7691932029172777,9.266011675703526,-0.4207603633403778,0.5969561338424683,-0.3817677199840545
1789224568546818300,0.9134306640625001,5.880979946076869,0.4314779846146702,0.583627571195364,1.5596002632737158,2.7339558853194115,9.287815511232614,-0.4391010105609894,0.5792517066001892,-0.445128858089447
1789224568556856300,0.923468505859375,2.328757712604105,0.938764074407518,-0.1529874987095594,1.4801177073664962,2.7110464266359804,9.307516237002613,-0.1717731952667236,0.8488947153091431,-0.4413566589355469
1789224568566894300,0.933506591796875,0.5513518798820675,0.1795791530370712,0.5029553671121597,1.3855571170538663,2.7160578250572085,9.320603097590803,0.1520410925149917,0.8690327405929565,-0.3638924956321716
1789224568576932000,0.94354443359375,-0.5192777024902403,0.6987538335442542,2.799974417889118,1.3090648290038107,2.740815834216773,9.324411842224002,0.2272241860628128,0.6016682982444763,-0.2468234896659851
1789224568586969300,0.9535815429687502,-1.0635548216804862,1.1082233999684452,3.4392747764676805,1.263470660303533,2.7557188043162224,9.326309200277924,0.0396476313471794,0.2023451775312423,-0.1937043517827987
1789224568597007400,0.9636196289062502,0.158747377410531,0.8522048581123352,3.036349224859476,1.2369226989872752,2.761842547893524,9.328056336206195,0.0449914075434207,0.3046218752861023,-0.2769487500190735
1789224568607045400,0.9736577148437502,2.326460541577637,0.3549783900409937,1.3737883533269166,1.1922677838984876,2.7700533268779512,9.331435457250477,0.0197177436202764,0.3825936317443847,-0.5017951726913452
1789224568617082400,0.9836945800781249,3.460584983260929,0.0733624655917286,0.8500824591308832,1.1448114745881408,2.7760364929407837,9.335599006670712,-0.0522235184907913,0.2080381512641906,-0.8351054787635803
1789224568627120400,0.9937326660156249,3.519950779943168,-0.2465437342852353,1.1386702684193848,1.1099862449225038,2.781404741975665,9.338206558820604,-0.0501361340284347,-0.0651297345757484,-1.0808918476104736
1789224568637158400,1.003770751953125,2.272661585242301,-0.1270601535096764,0.7064712760537862,1.0890968208245932,2.793003409832716,9.337204688301682,0.0402789637446403,-0.1260729879140854,-1.140497088432312
1789224568647196400,1.013808837890625,1.7259252363316713,-0.0991220530092716,-0.2881710451811551,1.0727467937219888,2.814745286041498,9.332567091628908,0.131990760564804,-0.2613959312438965,-1.3211257457733154
1789224568657233200,1.023845458984375,3.4851185360148547,-0.1740615586593747,-0.509763878083229,1.0459080327656118,2.838209455998242,9.328506418061256,-0.0239863842725753,-0.0643067583441734,-1.781981348991394
1789224568667271400,1.0338837890625001,4.639996135130525,0.0510915970727801,-2.3939503157436848,1.006728480347991,2.8539728423193096,9.328007236367464,0.1311214417219162,-0.4406479001045227,-1.9960840940475464
1789224568677309200,1.04392138671875,-0.6142857443094253,-2.066581817162037,4.044775741297007,1.0328220489602535,2.935677019798756,9.299756124395133,1.153712511062622,-1.0388832092285156,-1.6799026727676392
1789224568687347500,1.053959716796875,-2.2952836052864787,-3.2879934971541163,4.534204102838039,1.0453607741463928,3.056354486533999,9.259390211737156,0.9160983562469482,-0.3166662454605102,-1.8950200080871584
1789224568697384400,1.0639968261718749,2.680296775846183,0.5049845348522066,-6.186935654273629,1.0179964549459517,3.164428492283821,9.22607480211258,1.063092589378357,-0.4830778539180755,-1.9431185722351076
1789224568707422200,1.0740344238281252,0.0697481475520879,-1.3633756803840398,0.3152981215596199,0.9937263023685664,3.282777223810553,9.187288267600536,1.1079834699630735,-0.3852186501026153,-1.929606914520264
1789224568717460500,1.0840727539062498,-0.9161761027634144,-0.8442354866683482,-1.3977759626358746,0.9592717326462268,3.4067791587933898,9.14571122558713,1.1925580501556396,-0.1761412024497985,-1.6136059761047363
1789224568727498200,1.0941105957031252,-4.661999292623997,-2.1338936044126746,-1.0893085638791322,0.9369208576936274,3.542282730999589,9.096416741064193,1.5243762731552124,-0.4347853064537048,-1.2509270906448364
1789224568737535200,1.1041474609375,-2.4049798054106533,-2.708541165816784,0.944045521941781,0.9086038408782332,3.684178342330456,9.042768152984976,1.2518035173416138,-0.063260868191719,-1.6099594831466677
1789224568747573200,1.114185546875,2.133352337142825,-0.0979559318393468,-3.78945015014112,0.8586514769684522,3.815402922043204,8.99309782088697,1.412484049797058,-0.1936042308807373,-1.5666465759277344
1789224568757611300,1.1242236328125,-1.223861045905575,-0.3587310205727815,1.007933179962635,0.7917075731821358,3.953624521036446,8.939375583049655,1.1756244897842407,0.3516872823238373,-1.900089979171753
1789224568767648500,1.1342607421875002,2.065879367981106,-1.0143734421432018,-2.0163994438886643,0.6522877043150365,4.044235643070936,8.910054211497306,0.7034066319465637,0.7731814980506897,-1.9795429706573489
1789224568777686300,1.1442985839843751,-0.7075625053565949,-0.6290630422025919,1.6908996617883445,0.5030079010169953,4.114721384182572,8.887431460800766,0.5598169565200806,0.6941289305686951,-2.096341848373413
1789224568787724500,1.1543369140625002,-0.1649883906919509,-1.6171607640996577,2.216422250017524,0.3517361201841384,4.153817130774259,8.876512007379532,0.1512832343578338,0.4406375586986542,-2.5240883827209477
1789224568797762300,1.16437451171875,0.8847343780562281,-0.6518591036394238,-0.9749152919799088,0.2296168206101283,4.177919598634541,8.869196715930103,0.2296347618103027,-0.0648165494203567,-2.731300115585327
1789224568807799600,1.174411865234375,0.1570162975679151,-0.5853691541656851,0.91027184715569,0.0991632800688035,4.192982143209874,8.86450534324348,-0.0054632471874356,0.2335504442453384,-3.04689884185791
1789224568817837600,1.184449951171875,0.6200193925905972,-1.61847096991539,-2.1932482951790093,-0.0548381357904989,4.185803045360744,8.868281939172745,-0.2435637712478637,0.558035135269165,-2.668220281600952
1789224568827875300,1.1944875488281248,-0.2776850695400498,-0.2353103926092386,0.3848410288631916,-0.1861915021152235,4.157461624756455,8.879821570318937,-0.353788286447525,0.1066237762570381,-2.2953855991363525
1789224568837913600,1.2045258789062498,-2.2669266948521134,-1.1687895123511551,0.1746060407996177,-0.268981684733089,4.111412990286946,8.899118975985049,-0.4618226885795593,-0.2519605457782745,-1.9142487049102783
1789224568847950300,1.214562744140625,-1.9659572506353256,-0.1734177077978849,-0.11788695923388,-0.3299323942529037,4.0672874328345054,8.917326248326898,-0.4602210521697998,0.0024405834265053,-1.7136008739471436
1789224568857988400,1.2246005859375,0.2858481917241588,0.4812605449154973,-1.712752597156167,-0.3923901290684938,4.025674442724883,8.933664804187417,-0.278668463230133,0.0180080272257328,-1.2589190006256104
1789224568868026400,1.234638671875,-3.2583991538792847,0.9404518813639878,0.3575643148809671,-0.4425876633783802,4.011654977461696,8.937624355468154,0.0308598317205905,0.144421100616455,-0.8378269672393799
1789224568878064400,1.2446767578125,-1.7257818823382258,-0.0225844645127654,0.7074912667512894,-0.486011611900106,4.010127329503,8.936053745150566,-0.0404847972095012,0.114216923713684,-0.7940019965171814
1789224568888101600,1.2547138671875002,0.5982318140765651,-0.0123252285659313,-1.116903257769346,-0.5228144617816433,3.9920869381606576,8.94205210878253,-0.2600019574165344,-0.0337509736418724,-0.8670847415924072
1789224568898139400,1.2647517089843752,0.3518603676183149,-0.3741176825359463,-0.927711642256379,-0.5474366791997105,3.9595840139627456,8.955020311427116,-0.3310144245624542,-0.154364213347435,-0.7867625951766968
1789224568908177400,1.2747897949218752,-1.940028882522136,0.2607262811556458,-0.1192009644418954,-0.5553278343083337,3.934064372780919,8.965775514197349,-0.1479074507951736,-0.0940460041165351,-0.2354704439640045
1789224568918215400,1.28482763671875,-3.9763720671564338,1.1179308472514151,0.5567027393907308,-0.5489684553442522,3.930841611342132,8.967580517792701,0.0618319660425186,-0.1372456848621368,0.0436930917203426
1789224568928252400,1.29486474609375,-0.8382638649128377,0.593666734650731,0.3983785558283328,-0.5301720214702189,3.938856283232569,8.965194499439,0.0981574803590774,-0.1733304411172866,0.1403607726097107
1789224568938290400,1.30490283203125,-0.184422428349778,0.5249363127738237,-0.9530027353793382,-0.5290496298441663,3.94818057641685,8.961158375790715,0.1220337003469467,0.2118026614189148,0.0565858371555805
1789224568948328400,1.3149406738281249,-0.4916509694939479,-0.2288505489453673,-0.4639847082048654,-0.5550640688056125,3.9602138362988826,8.954272707930206,0.1278838813304901,0.3279156982898712,-0.0497075766324996
1789224568958365400,1.324977783203125,-0.092260094817914,-0.3248117998361587,-0.049148354050517,-0.5848500256624073,3.968187883917987,8.948844837662577,0.0593610443174839,0.2486833781003952,-0.1186144649982452
1789224568968403500,1.335015869140625,0.0823600110396742,-0.4215978111132979,-0.11449264062047,-0.6042959729537367,3.97010394667238,8.946702564936876,0.002603487111628,0.0418495126068592,-0.1455922722816467
1789224568978441500,1.3450537109375,0.1319076666060835,-0.5836494907662272,0.0808066441178321,-0.5996747794264927,3.966806074170768,8.948476004350185,-0.0507561191916465,-0.2626456618309021,-0.0804973617196083
1789224568988479500,1.355091796875,-0.4620001467915252,-0.117827338001132,0.3433165938198566,-0.5514953800059854,3.965459043475985,8.952171351736784,0.0155712384730577,-0.7741814255714417,0.2031404674053192
1789224568998516500,1.3651289062499998,-2.086928731881082,0.8236813589394092,1.063881277155876,-0.4435927853003144,3.966966525429487,8.957498684239386,-0.0432073064148426,-1.3294057846069336,0.322336882352829
1789224569008554500,1.3751667480468752,-1.5267365429393946,0.7431471020221709,-0.5312924038022756,-0.3196418498523533,3.9568203944683074,8.967261953362822,-0.100380852818489,-1.324643611907959,0.2003262788057327
1789224569018592300,1.3852045898437502,-1.457451555919647,0.4578443057537079,0.407028310751915,-0.2135514922004193,3.953322323219478,8.971957417702674,-0.0313125476241111,-0.8444401621818542,0.0366429910063743
1789224569028630500,1.3952429199218752,-1.15369730328992,0.9250342397406696,0.3115039899736642,-0.154434628777951,3.948812152318656,8.97515533696115,-0.061454202979803,-0.5055318474769592,0.0564049780368804
1789224569038667500,1.40527978515625,-0.7490124138589948,1.0392027629733085,1.3822329410672187,-0.1248711281659547,3.942532341396809,8.978376052573322,-0.0690591484308242,-0.0918440371751785,0.0428555756807327
1789224569048705500,1.41531787109375,-0.4914758321227505,0.4112450516641139,0.4644406352788209,-0.1191952288208529,3.9405157408773896,8.979338175603747,0.0134932557120919,-0.0040830271318554,0.0720004141330719
1789224569058743600,1.42535595703125,-0.400163101157546,-0.1156748361423611,-0.1262538055628538,-0.1166851730955298,3.9428061899021274,8.978365531179309,0.0244532469660043,0.008117051795125,0.0830581560730934
1789224569068781300,1.4353935546874999,-0.4380505679380148,-0.0820332633033394,0.5143646498769522,-0.1112690480646211,3.9440301787391294,8.977896744623779,0.0050976597703993,-0.0570057593286037,0.0886587873101234
1789224569078818600,1.4454309082031251,-0.3041075230468064,-0.1114028579115867,0.3252174580276012,-0.1012607638047076,3.944968628633022,8.977602730113267,0.0065179448574781,-0.0898568481206893,0.0837670117616653
1789224569088856600,1.4554689941406251,-0.2064387741183862,-0.3144265994220971,0.331883345657587,-0.088347305288352,3.944784504237771,8.97782017225623,-0.00783356372267,-0.1181436106562614,0.0761208087205886
1789224569098894300,1.465506591796875,-0.2252623334613628,-0.0620160189300775,0.1440022282212972,-0.0756588876995257,3.944512993820011,8.978055150055885,0.0022663921117782,-0.0954563468694686,0.0744077786803245
1789224569108932600,1.475544921875,-0.2097744944123551,-0.0692635058403015,0.0424590855449438,-0.0652594441309804,3.9451767184257513,8.977845306697487,0.0120969181880354,-0.0653644874691963,0.0798779055476188
1789224569118969300,1.4855815429687498,-0.1973534590554423,0.0087537998199462,-0.0515805496335029,-0.0583772194697288,3.947514805984497,8.976865063488482,0.0376960411667823,-0.0114638386294245,0.0836758762598037
1789224569129007600,1.4956198730468748,-0.0506488811068469,-0.0735056734547019,-0.1035387004077434,-0.0558930699372198,3.951214537285268,8.975252952116728,0.0422127619385719,0.0235886871814727,0.0725220292806625
1789224569139045400,1.5056577148437502,0.1059601919336244,-0.1464516672000289,-0.025983167040348,-0.0582257780679501,3.956374404266477,8.972964548918604,0.0724947676062583,0.0881484374403953,0.0537897683680057
1789224569149083400,1.5156958007812502,0.2759880015648901,-0.3602081073880195,-0.0355617272466421,-0.0703859111660858,3.963630951265991,8.969674859723447,0.0881874412298202,0.2456725537776947,0.0252558626234531
1789224569159120600,1.52573291015625,0.4214105449128896,-0.4160989214360713,-0.1089250696212053,-0.1038795954004395,3.97328403801322,8.965077010539174,0.124183289706707,0.4917220771312713,-0.0079911239445209
1789224569169158400,1.535770751953125,0.4634520991655066,-0.0925710239306092,-0.1146639055341482,-0.1531037455003708,3.985393285740912,8.958994475755095,0.1433897316455841,0.5679846405982971,-0.020117562264204
1789224569179196400,1.545808837890625,0.2604616023374721,-0.0540767503634095,0.056748307660222,-0.2015043864561244,3.998523985470831,8.952183626696467,0.1454537212848663,0.4820628464221954,0.0037033334374427
1789224569189234400,1.5558466796875,0.0600323708321899,0.0266050983309745,0.3328279330313206,-0.2370536926126107,4.0106174511075015,8.945900600904226,0.1229774430394172,0.3245009183883667,0.0126792509108781
1789224569199271400,1.5658837890625001,-0.1091905521569773,0.3218471048116684,0.4005956473559141,-0.2638559757498093,4.021234706711769,8.940382129743695,0.1202131211757659,0.3131830990314483,0.0256381779909133
1789224569209309700,1.5759221191406252,-0.014373375001084,0.2916319992899894,0.2373398526102304,-0.2961246345341205,4.035588226234912,8.932901418599485,0.2089217007160186,0.464661031961441,0.1014242842793464
1789224569219347500,1.585959716796875,-0.6653958268869667,0.246969558481872,0.5140156903088092,-0.337624994582124,4.060049590535462,8.920335951536893,0.3267809450626373,0.5936444997787476,0.2216458469629287
1789224569229385500,1.595997802734375,-0.9121560534670948,-0.0090399232849478,1.148839780256152,-0.3816106321072205,4.094894693945348,8.902617339494824,0.4299182295799255,0.602052628993988,0.27440145611763
1789224569239422500,1.6060346679687498,-0.2206548213995993,-0.2258230178177356,1.6813959203839302,-0.4191954992119223,4.138097875855863,8.880923394080996,0.5084758996963501,0.503640353679657,0.2989684045314789
1789224569249460500,1.6160727539062498,0.0540704667530953,0.22878011405766,1.4549498022317886,-0.4473181259663775,4.186726297685504,8.85672711045742,0.5457159876823425,0.4141919016838074,0.3023205399513244
1789224569259498200,1.6261105957031252,0.20515293555893,0.5735761327803135,0.7591162400484085,-0.468814393383637,4.236823915284872,8.83175633533001,0.5534585118293762,0.3707546889781952,0.3070769906044006
1789224569269536500,1.6361489257812498,0.0039646658472716,0.8652785669580102,0.2941927896887064,-0.4925314421229064,4.2907843457922334,8.804372069320083,0.6444200873374939,0.5163965821266174,0.340142011642456
1789224569279573500,1.646185791015625,-0.1718201729407533,1.2903349940925837,0.3500760049521922,-0.5353671058952808,4.356988171800971,8.769288480979204,0.8240286111831665,0.7944938540458679,0.3875552415847778
1789224569289611500,1.656223876953125,-0.3630802652908489,1.6727335982397198,0.7594108390808105,-0.5923558712478727,4.441758166591823,8.722974473571776,1.0613813400268557,0.8853909969329834,0.4137540757656097
1789224569299649500,1.66626171875,-0.6019817046619952,1.6513184697672725,1.1710159562289717,-0.6501856905344874,4.547419265981018,8.664214826089143,1.297426462173462,0.9095379710197448,0.4436491429805755
1789224569309687300,1.676299560546875,-0.7891649029619991,1.847081280364096,1.2282365575760603,-0.7178352583721279,4.67083317194283,8.592928289988636,1.4652659893035889,1.1416867971420288,0.4605269432067871
1789224569319724500,1.6863369140625002,-0.6075483988784254,2.0488629128590223,1.2862094385951757,-0.7981471777755766,4.804239771869779,8.511910633468627,1.5598317384719849,1.197180151939392,0.46608766913414
1789224569329762600,1.6963747558593751,-0.6273114492949098,1.820247926235199,2.1360878995865584,-0.869064442172274,4.9456157432407135,8.423537938010693,1.681681513786316,1.0010955333709717,0.4466117024421692
1789224569339800300,1.70641259765625,-0.6053629445981233,1.9695593667805196,2.740264337813854,-0.9246814807802438,5.096328282755613,8.32723211146593,1.8177229166030884,0.8162028193473816,0.3737624585628509
1789224569349838600,1.7164509277343751,-0.3151538177181035,2.2922610425949097,2.6279543019294738,-0.9682879827946425,5.261295557594299,8.218976319408416,2.1203386783599854,0.6453197598457336,0.261415958404541
1789224569359875300,1.7264875488281248,-0.0968180869158357,2.3634862038969997,2.47419172719419,-1.0134928599163888,5.453432578909397,8.087230346170067,2.5154895782470703,0.7662437558174133,0.158933937549591
1789224569369913600,1.7365258789062499,0.0542366171002388,2.2174434097588063,2.0678835474103687,-1.075662900364399,5.66965540921092,7.928955846968293,2.821187734603882,0.934164583683014,0.0847244188189506
1789224569379951400,1.7465637207031248,0.1033097870226949,1.8117086459487677,1.842054684373736,-1.1473312753893434,5.901361639848351,7.747770427778363,3.041110038757324,0.967253029346466,0.02062364295125
1789224569389989400,1.7566015625000002,0.2660751679029315,1.4338181668758392,1.7168208695083855,-1.22465365758799,6.140089147424698,7.547841729673743,3.173708438873291,1.024051070213318,-0.0494782142341136
1789224569400026600,1.766638916015625,0.5420256870016456,1.0849731650233267,1.555873936226964,-1.3066738422140478,6.378651235306263,7.333198277518153,3.2368953227996826,1.0116755962371826,-0.1227492615580558
1789224569410064400,1.7766767578125,0.7414584182828664,0.3726753747731447,1.7943810790508985,-1.3892394588284194,6.611210283380746,7.108606847321987,3.2293708324432373,1.0020908117294312,-0.1872022897005081
1789224569420102400,1.786714599609375,0.882248698720336,-0.1961602854818105,1.5741186179697513,-1.4761603480428456,6.832288737019896,6.878311068004369,3.141514539718628,1.0870327949523926,-0.2066731005907058
1789224569430140400,1.796752685546875,0.9763580381341278,-0.4769540798932313,0.8868389491200447,-1.5650323713250458,7.037964454343914,6.647414400184154,3.011248826980591,1.0845661163330078,-0.221361756324768
1789224569440177400,1.8067897949218752,0.6298838570661842,-0.8374749064922332,0.4348918847113847,-1.6532554291792212,7.227448915323615,6.418809058171511,2.8907806873321533,1.0762341022491455,-0.2716842591762543
1789224569450215700,1.8168278808593752,0.7063584633290767,-1.1002402922600507,-0.1576853011369705,-1.744693649687618,7.40237702768445,6.19122253781259,2.813859224319458,1.0866281986236572,-0.3623342514038086
1789224569460253400,1.8268657226562501,1.1746437913373111,-1.1427385407716035,-0.6720166332662105,-1.8427756921246647,7.565932682159542,5.960808100551367,2.819448232650757,1.042044758796692,-0.5144063234329224
1789224569470291500,1.8369038085937501,1.9216126436047252,-1.08798871345222,-0.7579752533197402,-1.9449561097912489,7.722171876141428,5.723250805798172,2.92290472984314,0.7842643857002258,-0.7318800687789917
1789224569480329500,1.8469418945312501,2.431512276896834,-1.55037943046391,-0.2269295177549123,-2.047841460856795,7.874064565351605,5.475019556817412,3.0907511711120605,0.5528597235679626,-0.9654895067214966
1789224569490366500,1.8569787597656249,2.928121489852667,-1.8632213910430668,-0.0972831471443176,-2.16182746712938,8.02185624898374,5.210250430011749,3.240474939346313,0.5562171936035156,-1.12211012840271
1789224569500404500,1.8670168457031249,3.039003831021488,-1.920852326756716,0.1499514920145273,-2.276151473184675,8.161938673412799,4.936829210194945,3.245781660079956,0.192617192864418,-1.1830698251724243
1789224569510442500,1.8770546874999998,2.149411783801019,-2.6392542791008946,0.8776093484818935,-2.373718551836908,8.28642780739069,4.676638935612142,3.025176763534546,-0.1200834512710571,-1.15612530708313
1789224569520480500,1.8870927734374998,1.5091481331482528,-3.15814546649158,-0.4205471330165863,-2.458449091400206,8.388877543517946,4.444451643459499,2.5964338779449463,-0.1892605870962143,-1.0396571159362793
1789224569530517500,1.8971298828125,0.932221520896256,-2.883031471282244,-1.937330875609815,-2.530650111997127,8.46600988303721,4.253570759685338,2.0418708324432373,-0.2783185839653015,-0.9036808609962464
1789224569541183500,1.9077958984375,0.3350011854171753,-2.18506031254828,-1.8269851255357263,-2.5910873373031613,8.520716455736755,4.105367280381918,1.4672462940216064,-0.4760512113571167,-0.806007981300354
1789224569551221200,1.91783349609375,0.4173004061803221,-2.093476253828406,-1.3656483014911411,-2.635079331503808,8.551087044081092,4.013186424812674,1.0494391918182373,-0.6503260731697083,-0.7628834247589111
1789224569561258500,1.9278708496093748,0.4912000473886728,-2.1137579943567517,-0.7764154576346278,-2.6702225410774347,8.567477622389793,3.954568231627345,0.7998756170272827,-0.842219352722168,-0.7533478140830994
1789224569571296500,1.9379089355468748,0.8374480184853077,-1.9867823042601347,-0.517171816252172,-2.7023814741432663,8.576522514110803,3.912897666111588,0.7253550291061401,-0.831750214099884,-0.7838484644889832
1789224569581334300,1.9479465332031252,0.8762737159639596,-1.9938041657209395,-0.474535912835598,-2.741207171621918,8.583544960093498,3.870262054955959,0.743200421333313,-0.6631720066070557,-0.7919785380363464
1789224569591372500,1.9579848632812502,0.8249903957113623,-1.5817366917580364,-0.0955094154700636,-2.787936189571022,8.590611829739808,3.820886906412244,0.7676016092300415,-0.4643718004226684,-0.8015393018722534
1789224569601410300,1.9680227050781252,0.6718319243490696,-1.306649584555626,-0.213694188606739,-2.843372830110788,8.597292914938926,3.764594233565032,0.7570818066596985,-0.2484766542911529,-0.7861194014549255
1789224569611447600,1.978059814453125,0.1719526036813855,-1.099035008123517,-0.3311047625005245,-2.900893875709176,8.602164904889463,3.709173959638178,0.6762444972991943,-0.2499874532222747,-0.7551995515823364
1789224569621485600,1.988097900390625,-0.200434017278254,-0.900161956551671,-0.7051935112029314,-2.9543755827888845,8.602757610085606,3.66532488103956,0.5241672396659851,-0.316265344619751,-0.7265198230743408
1789224569631523300,1.9981357421875,-0.447549121710658,-0.5946370409876108,-0.6576657440915703,-3.003393003936112,8.597255505537987,3.6382968811213967,0.3280257284641266,-0.3400367200374603,-0.6909716725349426
1789224569641561600,2.008173828125,-0.5540791128888726,-0.3153139036506414,-0.234261468078196,-3.049493953114748,8.585037244477867,3.628790801629424,0.1341808438301086,-0.3437529802322387,-0.6701210141181946
1789224569651598300,2.018210693359375,-0.5977069499522447,-0.1414917067050933,-0.0123567927479743,-3.094002372404933,8.566238435983657,3.6355320925831793,-0.0402628742158412,-0.351165622472763,-0.6578779816627502
1789224569661636400,2.02824853515625,-0.6282391585990786,-0.0157674779742956,-0.0112602296829223,-3.136942227204144,8.541818864998222,3.656132689802349,-0.1888560354709625,-0.3167542219161987,-0.6282570958137512
1789224569671674400,2.03828662109375,-0.8076558145508169,0.0286585237294435,0.0544447068929672,-3.1776424863830206,8.514002637311815,3.6857471990823742,-0.2910806834697723,-0.2336809337139129,-0.5538582801818848
1789224569681712400,2.04832470703125,-0.80525372184515,0.0456488214969635,0.2823527142912149,-3.213713039934635,8.486238432073593,3.718358552090824,-0.3027559220790863,-0.1908112168312072,-0.4777710735797882
1789224569691749600,2.05836181640625,-0.7729220625609159,0.0708422994643449,0.2531383102446794,-3.246044406957924,8.461044954106212,3.747572371615469,-0.2441823631525039,-0.1601552963256836,-0.4405414164066314
1789224569701787400,2.068399658203125,-0.7218985622882843,0.3230173176348209,0.1568777841463685,-3.276567555515468,8.439460898807644,3.769612646248937,-0.1652328968048095,-0.1271480172872543,-0.4030086100101471
1789224569711825400,2.078437744140625,-0.7864607585698365,0.340391646283865,0.2726847222357988,-3.304331760753691,8.4223870144099,3.783541510619223,-0.0749293640255928,-0.0984111875295639,-0.3518844544887543
1789224569721863400,2.088475830078125,-0.5197001656860113,-0.1011836617141962,1.1158435195833445,-3.3261358885437247,8.41175689932406,3.7880797385707496,0.121075689792633,-0.2710485756397247,-0.3360848724842071
1789224569731901400,2.098513671875,-0.0603130144044756,-0.0715852267861366,0.4743538342669606,-3.345288917303085,8.40759627251327,3.780441791038215,0.2932653129100799,-0.3289976418018341,-0.3852753341197967
1789224569741938400,2.10855078125,-0.1628106813266873,0.1909428430944681,0.0878998172491788,-3.365943290536105,8.407233868941665,3.76287369338274,0.3892837166786194,-0.3647291958332062,-0.4141880869865417
1789224569751976400,2.1185888671875,-0.2211857134059071,0.3078483900755643,-0.2738756855860352,-3.3867265508458018,8.408391806805133,3.741577222853899,0.4067700207233429,-0.3640453219413757,-0.4051905870437622
1789224569762014500,2.128626708984375,-0.2007932059794664,0.3058095777243375,-0.2507096217930317,-3.4071190582722424,8.41043120367825,3.71841145132184,0.3851446211338043,-0.2306332737207412,-0.3357586562633514
1789224569772052500,2.138664794921875,-0.3619219255685806,0.4005611605644226,-0.7609247507750988,-3.424209017021954,8.415638709193468,3.690829616913199,0.4235452711582184,-0.1276237964630127,-0.2172762155532837
1789224569782089500,2.14870166015625,-0.7873457247108221,0.6336877793937921,0.3206745539009571,-3.4330332517296074,8.428365504297613,3.653400926750898,0.5229306817054749,-0.017174981534481,-0.0403124988079071
1789224569792127500,2.15873974609375,-1.2964639983668922,1.2635206369251013,0.5519897393941879,-3.4262484138950704,8.45215028451085,3.6044942725017663,0.6156851053237915,0.0435544103384017,0.2327675074338913
1789224569802165500,2.16877783203125,-1.551671516101062,2.0762761127024887,-0.8011886643633246,-3.395497594061493,8.489037707403302,3.5464401429399848,0.6292786002159119,0.2452668845653534,0.5993923544883728
1789224569812203500,2.17881591796875,-1.3570321565762162,2.274105792701244,-3.23366832498759,-3.3439828031405803,8.534965930363535,3.484610586492717,0.3961833119392395,0.746229887008667,0.9955143928527832
1789224569822240300,2.1888525390625,-1.0664020278051496,1.3486907369494436,-0.964735551010072,-3.2754826828882098,8.580214354366063,3.438245433419943,0.0675206929445266,0.8022882342338562,1.284969925880432
1789224569832278500,2.198890869140625,-1.1676081936120986,1.3011521561831234,-0.9406161320149898,-3.1742765170812604,8.627751766088604,3.4141251376420256,0.0841744989156723,0.3979341387748718,1.516617774963379
1789224569842316300,2.2089287109375,0.3488955629959702,-0.0711228699713945,2.0514684191823003,-3.0467119211807847,8.684263342383504,3.3869609441235657,0.3308840692043304,0.2710519731044769,1.657392501831055
1789224569852354600,2.218966796875,0.495218635380268,-0.2521446230322122,1.6287211457729338,-2.90737680798769,8.75111160377562,3.337002734994888,0.6315294504165649,0.2317998856306076,1.7184162139892578
1789224569862392300,2.229004638671875,0.313757321858406,-0.2817144163876772,1.263804714563489,-2.7604817809343336,8.825423040655254,3.2652772229552265,0.881742537021637,0.0878340601921081,1.7296773195266724
1789224569872429300,2.23904150390625,0.0932584216728806,-0.5827724156707524,0.54134588804394,-2.6086665408745406,8.90337020368874,3.1772979107290507,1.049872636795044,0.0438743233680725,1.71817147731781
1789224569882467600,2.249079833984375,0.0255935832008719,-0.8767401644319296,0.2105643661484122,-2.458251815262437,8.980812924331426,3.0777210996896027,1.1199733018875122,0.0707031413912773,1.669806718826294
1789224569892505300,2.25911767578125,0.011818448087573,-1.2582383126080037,0.2807347577005624,-2.314741169950366,9.052262542039156,2.9780729769796133,1.0434458255767822,-0.0058779190294444,1.5059086084365845
1789224569902543400,2.26915576171875,0.2418850948244333,-1.388082836139202,0.1052691774621605,-2.1882216991886496,9.111928198450803,2.890475649808347,0.8844678997993469,-0.0353033170104026,1.2420190572738647
1789224569912580600,2.27919287109375,0.4925609604783356,-1.5147569129407406,-0.0370391063228249,-2.0882962208420035,9.15734730284512,2.819998968786001,0.6695548295974731,-0.0631802231073379,0.9027262330055236
1789224569922618400,2.289230712890625,0.7301343295834958,-1.5813567525297405,-0.1522334654718637,-2.019561561181396,9.187885064449906,2.770293273113668,0.4493760168552398,-0.0787073820829391,0.5493896007537842
1789224569932656600,2.29926904296875,0.800764593732357,-1.367957747477293,-0.0269248318046331,-1.981255649793148,9.205825794810057,2.738208866588771,0.2788839042186737,-0.0436018630862236,0.2537718117237091
1789224569942694400,2.309306640625,0.9319714916579424,-1.4391571898162363,-0.1069353571087121,-1.970157040412724,9.214027805966138,2.7185607477888465,0.1638457328081131,0.0041835042648017,-0.0316556803882122
1789224569952732400,2.3193447265625,0.7364613406479358,-1.3808698360204696,-0.0396510423868894,-1.98518714402318,9.2143983928442,2.706343363511562,0.1055893525481224,-0.0313686318695545,-0.2861470878124237
1789224569962769400,2.329381591796875,0.5234107106417417,-1.041798040163517,-0.041574703925848,-2.0187392850130794,9.208868815767763,2.700335939790308,0.0529949702322483,-0.103185161948204,-0.4724233746528625
1789224569972807400,2.339419677734375,0.4924120535269379,-0.6819003138989209,-0.2617576700299978,-2.0655520357228814,9.19837489428222,2.7007006814494727,-0.0190342143177986,-0.0873508006334304,-0.5892453193664551
1789224569982845200,2.34945751953125,0.3016660481788218,-0.3263426626652479,-0.1285235040605068,-2.120361484275013,9.183841342017054,2.707677242463827,-0.0978539064526557,-0.0682135298848152,-0.631587564945221
1789224569992883500,2.359495849609375,0.1125854918248951,-0.0723088648855686,0.2286488888934254,-2.175339713522792,9.166982561674711,2.7211569017618893,-0.1486164182424545,-0.1137732937932014,-0.6079123616218567
1789224570002920400,2.36953271484375,0.1889794340670108,0.2405424480438232,0.4546384954497218,-2.225547367367893,9.150116182547809,2.7372815226107834,-0.1194921508431434,-0.1865381002426147,-0.5771132111549377
1789224570012958500,2.37957080078125,0.1599560225479304,0.4552425988227129,0.4167673222169279,-2.2704450782366097,9.135481507995724,2.7492653903931377,-0.0445422753691673,-0.1947843134403228,-0.5088018178939819
1789224570022996500,2.38960888671875,0.1960370974935591,0.4658107545882463,0.4117088697835803,-2.306525714790821,9.124911598664522,2.754323550565541,0.0295131430029869,-0.1888816356658935,-0.3890054225921631
1789224570033034200,2.399646484375,-0.1175526127129793,0.7207388708591461,-0.1398895322054624,-2.3300696719855067,9.119280314779282,2.7531603520050645,0.0893072336912155,-0.1848597228527069,-0.2355476766824722
1789224570043072500,2.409684814453125,-0.1135707034699618,0.7840221332460642,-0.2804173623144626,-2.3397378101713957,9.118695208367704,2.74689398508668,0.1436498761177063,-0.184837207198143,-0.0909656211733818
1789224570053109500,2.419721923828125,-0.0380180343575775,0.8297019344031811,-0.2548614807754755,-2.337778200536221,9.12269509165883,2.735254692958295,0.2039387822151184,-0.1736753731966018,0.0191512964665889
1789224570063147300,2.4297595214843746,0.0355906610801815,0.8126017465204,-0.2510191261336207,-2.3283383181482558,9.130369279548525,2.717645678770542,0.2610825002193451,-0.1435779184103012,0.087490938603878
1789224570073185500,2.4397978515625,0.2325958729535341,0.6120189684212207,-0.1576110668569803,-2.3161498677045107,9.140611856621502,2.6935195377737284,0.3139827251434326,-0.0460564270615577,0.1177321970462799
1789224570083223300,2.4498356933593746,0.2205861400775611,0.6000690029084682,-0.127161568057537,-2.304140134828537,9.152561822134256,2.6630703312352297,0.3541741669178009,0.0012740003876388,0.1333435177803039
1789224570093260500,2.459872802734375,0.3002824848659336,0.2101023015946149,0.197274676464498,-2.2927070327967405,9.16499226464033,2.629978208972513,0.3789117336273193,-0.065329261124134,0.0918008759617805
1789224570103298300,2.46991064453125,0.1928140437938272,0.1458814660966396,0.0279407308489084,-2.284598106751591,9.176541248136758,2.596552909232676,0.3919178545475006,-0.1072443500161171,0.0347022078931331
1789224570113336300,2.4799487304687498,-0.0020578093126416,0.0089402623027563,-0.1591211791589856,-2.280813473646343,9.18718772983551,2.562001528072357,0.403953492641449,-0.0679507404565811,-0.0008177034324035
1789224570123374300,2.489986572265625,-0.0028672259993851,-0.0015121581286191,-0.1220695056155324,-2.280004056959599,9.197640150266883,2.5249501467898487,0.4221973717212677,-0.0343692153692245,-0.0031404821202158
1789224570133412400,2.5000246582031247,-0.2374759000800549,-0.5279577064216137,-0.2657116683527827,-2.278380985802412,9.208434516003727,2.486782620958984,0.4177903831005096,-0.0258915722370147,0.0238149687647819
1789224570143449300,2.510061767578125,-0.088096362734586,-0.6431862601011991,-0.2977444908209145,-2.27513016731292,9.219216022258996,2.449533525147289,0.4033605456352234,-0.0484685227274894,0.0177133362740278
1789224570153487400,2.5200996093750003,-0.0484073264248669,-0.8161573931753635,-0.2169040905639529,-2.2739685761876403,9.228784645593166,2.414333178558945,0.3868031203746795,-0.0702569112181663,-0.0273356325924396
1789224570163525400,2.5301376953125,-0.0485031880147755,-0.8250999935656785,-0.1825526158899068,-2.2738724223367868,9.2377260769397,2.3799802425801757,0.3993580937385559,-0.1017902642488479,0.0069180661812424
1789224570173563400,2.5401757812500003,-0.092492990258336,-1.1009171686083077,0.0084659227892756,-2.2595110117681325,9.250331876012682,2.344436050990224,0.4572663903236389,-0.2572879791259765,0.2480822056531906
1789224570183600400,2.5502126464843746,0.0294517199337482,-1.1832061602383852,0.286325125053525,-2.2012919009029863,9.274261033132673,2.3049494053848085,0.6147395372390747,-0.6221660375595093,0.844948410987854
1789224570193638400,2.560250732421875,-0.0186941790759563,-1.0478332286745309,-0.7371089909017086,-2.076980461579561,9.314861923590302,2.2560803066670894,0.7290709018707275,-0.7416338324546814,1.3834611177444458
1789224570203676400,2.5702888183593746,-0.637309769283235,-0.6041010349035263,-2.0913820580281315,-1.9355590436317025,9.355805928397178,2.2119898205280304,0.3968824446201324,-0.180403858423233,1.382601022720337
1789224570213714400,2.58032666015625,-0.7613290937922894,-0.6342191097915172,-2.068716491103172,-1.8115398652531205,9.385924003285169,2.189324253603071,0.091810442507267,0.1495823115110397,1.2247307300567627
1789224570223752400,2.5903647460937496,-0.7156677050746977,-0.3077168726503849,-1.3776727935448287,-1.7189362542271611,9.402841235816478,2.191402375051379,-0.1960097551345825,0.1739791333675384,0.8284932374954224
1789224570233789400,2.60040185546875,-0.3710534726597368,-0.365192325541377,-0.8028472452253103,-1.664317213680595,9.406894895121455,2.216024629002064,-0.3488703966140747,0.0949205309152603,0.3953790962696075
1789224570243827500,2.610439697265625,0.2573756555534899,0.0817079768717289,-0.3515393555030227,-1.646910590197146,9.402324518465996,2.2481962754189966,-0.3296166658401489,-0.0007523314561694,-0.0187817085534334
1789224570253865500,2.6204777832031247,0.5095351838938892,0.5462333678245544,-0.1156372806109488,-1.6690768292978404,9.39194750135839,2.275057102076709,-0.209985077381134,-0.1101089194416999,-0.4746072888374328
1789224570263903500,2.630515869140625,0.5704553704112768,0.5607768569618463,-0.1300733638510108,-1.729997308076173,9.377405765786769,2.289494208230078,-0.0351901985704898,-0.1939844340085983,-0.8769445419311523
1789224570273941500,2.6405537109374997,0.5663233851730823,0.8590548701375722,0.1479202784478664,-1.8190895499803128,9.36059491623938,2.2892278123788534,0.1233682855963707,-0.2874843180179596,-1.1170037984848022
1789224570283978500,2.6505908203125,0.3191632725551724,1.122287873417139,0.5110667773753405,-1.9222309216335411,9.34291722072959,2.277130985741317,0.2411000877618789,-0.2621438503265381,-1.1966896057128906
1789224570294016300,2.6606286621093753,-0.7181468085393309,1.327740887901187,0.4038955656841397,-2.02500959745422,9.326156055542826,2.256661029164493,0.3000741899013519,-0.2867959141731262,-1.109526753425598
1789224570304054500,2.670666748046875,-1.1682673881731926,1.4198638758033513,0.4974702136993408,-2.114182941770553,9.31184579063952,2.2338651138581334,0.3369128704071045,-0.367648035287857,-0.957821488380432
1789224570314092300,2.6807045898437503,-1.0938966223217546,1.4305629644721745,0.5246889138840138,-2.1885537076219914,9.301146117448804,2.206645975282043,0.4053944647312164,-0.3063401877880096,-0.7976003885269165
1789224570324129300,2.6907416992187496,-1.3714762769922613,1.199804828339815,0.3127960756108164,-2.251250402292609,9.294281492376326,2.172235902288556,0.4291787147521972,-0.1310652643442154,-0.653586208820343
1789224570334167600,2.70077978515625,-1.4460570323325692,0.5692933408945798,0.0860892606958746,-2.3071536374308166,9.289581351861358,2.133336116660386,0.4448330700397491,-0.0081286877393722,-0.5915750861167908
1789224570344205300,2.7108176269531246,-0.9719994045332072,-0.1675578758537769,-0.0647189942784607,-2.362225536311417,9.285575038829446,2.0900636689059438,0.4617367088794708,0.0829036235809326,-0.5685958862304688
1789224570354243600,2.72085595703125,-0.7050017880231142,-1.2092489485114812,-0.2592760823473334,-2.41763601949662,9.281600289979576,2.043854437047243,0.4508039057254791,0.2180656939744949,-0.5703820586204529
1789224570364281300,2.7308935546875004,-0.6430933211207389,-1.2027981649369002,-0.2138888343960046,-2.47954419413805,9.275148337361216,1.9984666045740245,0.4191607236862182,0.1633505225181579,-0.6920337677001953
1789224570374318300,2.7409306640624997,0.0310445420831441,-1.7605664877325296,0.2086968187108635,-2.553635266265273,9.263245133599638,1.9600006803184744,0.343260109424591,0.0703790336847305,-0.8321818113327026
1789224570384356600,2.7509689941406252,0.5099097162947058,-1.8464561342030763,0.2696381941467523,-2.6329680384382605,9.246783828142284,1.932578420385718,0.2366475462913513,-0.0640526041388511,-0.8641002178192139
1789224570394394400,2.7610065917968747,0.0838023188024759,-0.6289268486022949,-0.3660796297699212,-2.710989728012681,9.22635537261963,1.9223105627410115,0.06624785810709,-0.1622934341430664,-0.8673343658447266
1789224570404432600,2.771044921875,-0.1701116519898176,-0.6798579944163561,-0.1698439409643411,-2.786727398303151,9.203964092591404,1.9213523852333425,0.091949962079525,-0.2038387954235077,-0.8290845155715942
1789224570414470400,2.7810827636718747,-0.1026718544453382,-0.6602788491994143,-0.1645247917681932,-2.8541671958476305,9.184384947374465,1.9160329437762496,0.1097966060042381,-0.1385806947946548,-0.6916638016700745
1789224570424507400,2.79111962890625,-0.3185267282173037,0.0075648822963237,-0.0107943657368421,-2.9052658071830866,9.169110805875064,1.9123893265768883,0.0048794033937156,0.052091110497713,-0.4151794910430908
1789224570434545400,2.8011577148437503,-0.4043883176371455,0.0658288552165031,0.2259001747071743,-2.9320813333943483,9.160376879799363,1.91331930090338,-0.0592583045363426,0.0522405132651329,-0.1603501439094543
1789224570444583400,2.81119580078125,0.1348462773412466,-0.1439198106348514,0.1310742114566266,-2.9415985188022256,9.156143187752363,1.9189606677912172,-0.0756354108452797,0.0300555862486362,-0.0455694906413555
1789224570454621400,2.8212336425781253,0.4127224307402968,-0.1675263116717338,0.1359993928991258,-2.943542930868268,9.155358759376409,1.9197214230306443,0.0035859060008078,0.1642085909843444,0.0424216166138649
1789224570464658400,2.8312707519531246,0.4090171464815735,-0.171103001114726,0.1474140824913978,-2.9398379388704896,9.158936033341288,1.908307025699317,0.1301940828561782,0.1638450026512146,0.110156275331974
1789224570474696400,2.841308837890625,0.7959899266764521,-0.1548287426620721,0.7539207172319292,-2.929074260532856,9.166604960533975,1.8879310310162605,0.2136599421501159,0.1196820735931396,0.1898132860660553
1789224570484734500,2.8513466796875004,0.8928963494628668,0.2514350134581327,0.0872702871739864,-2.90821559689939,9.17767931225598,1.8662486299097536,0.17791448533535,0.0881742089986801,0.3091024756431579
1789224570494772500,2.861384765625,0.8495841542199254,0.2067734494328498,0.1383686062484979,-2.876126221938431,9.19091697949171,1.8507637682691216,0.1368264257907867,-0.0136634670197963,0.3968632221221924
1789224570504810200,2.8714226074218754,0.806589062102139,0.2023854436069727,0.2032274473890662,-2.83642315710336,9.205331873813272,1.8403735994189976,0.1205514371395111,-0.0769341811537742,0.4406397640705108
1789224570514847500,2.8814597167968747,0.544460512933135,0.2516232295066118,0.4591584570921957,-2.7924662342160937,9.22073753273785,1.8304466641664503,0.1575046479701995,-0.0953576639294624,0.4780827462673187
1789224570524885500,2.891497802734375,-0.0542889318093657,0.0791939482241868,0.3377408395141363,-2.743634983290732,9.23859000029266,1.8141973940245808,0.239802598953247,-0.0425766073167324,0.5508923530578613
1789224570534923300,2.9015356445312497,-0.5195522816479206,-0.2101145765542983,0.2244486607246101,-2.6879294626817107,9.259896992215513,1.788775806389749,0.3111529350280761,0.021831676363945,0.6465882658958435
1789224570544961500,2.91157373046875,-0.6200201963081956,-0.393971260780096,0.0566715891622006,-2.6239731233388186,9.28438904391527,1.7564872555948794,0.3378535807132721,0.095170609652996,0.750650942325592
1789224570554999300,2.9216115722656246,-0.6919403541371226,-0.4198112199574709,0.087755001951009,-2.552053550031781,9.310231341180204,1.7254036966755986,0.2525373697280884,0.1156918630003929,0.8248394131660461
1789224570565036500,2.93164892578125,-0.539402645021677,-0.2072545109480619,-0.2090392024077474,-2.475345865665376,9.334399567753076,1.7064625571012495,0.0861830711364746,0.1032555624842643,0.8511492609977722
1789224570575074600,2.9416867675781253,-0.4818329379759729,0.0790600927114486,-0.1096598136365413,-2.397643471173197,9.355291549134254,1.7030010184705255,-0.0536890737712383,0.0939491465687751,0.8396276235580444
1789224570585112300,2.951724609375,-0.6807232329435646,0.2189472868293523,0.2793511943876743,-2.3216056488923726,9.373571302190422,1.7078363296724854,-0.0751677379012107,0.0773003920912742,0.8114393949508667
1789224570595150600,2.9617629394531253,-1.0223163639716804,0.1378507198542356,0.6225152279943228,-2.247414915782958,9.391670437982675,1.707641391622275,0.0693889111280441,0.0500863529741764,0.7858139276504517
1789224570605188400,2.9718005371093748,-1.0676447213426232,0.0402677129805088,0.4439040432065725,-2.175750194019824,9.411890803712604,1.6890303607851267,0.2886657118797302,0.1006609797477722,0.756713330745697
1789224570615225300,2.981837646484375,-1.133914013803005,0.0187321729987859,0.4803735329478978,-2.1094810476899144,9.433426343694329,1.6525605787828563,0.3943586051464081,0.1935728043317794,0.6889289617538452
1789224570625263400,2.9918757324218754,-0.7404391582377254,-0.4985287828415632,-0.1063381218679249,-2.052845845015347,9.452842407304049,1.612440019188076,0.3276524245738983,0.2801004350185394,0.58528733253479
1789224570635301400,3.00191357421875,-0.6164096045956016,-0.725444272071123,-0.1971535343028604,-2.0088322235047817,9.467271914672851,1.5829472365915775,0.1682694405317306,0.2678680121898651,0.4247794151306152
1789224570645339400,3.0119516601562504,-0.4406308667548,-0.8526344817012548,-0.3570131107389926,-1.982151575719565,9.475202123150227,1.569077993454039,0.0359567962586879,0.2439369261264801,0.2235954850912094
1789224570655377400,3.02198974609375,-0.4492871975496411,-0.8552630766391753,-0.35204306724146,-1.973494952663779,9.47782954904437,1.564107511565089,-0.0240663271397352,0.2244929075241089,0.041380938142538
1789224570665414400,3.032026611328125,-0.3874680163659155,-1.222346915015578,-0.0139135206706821,-1.9809959759436544,9.4762069162786,1.5644582246989012,-0.0836348012089729,0.2543342411518097,-0.1103630661964416
1789224570675452400,3.0420646972656247,-1.0497272257275878,-1.779137332689762,-0.0209453190036118,-1.9995877175584436,9.471856319853662,1.5671506786532698,-0.0846603885293006,0.3244976103305816,-0.1685241013765335
1789224570685490400,3.052102783203125,-1.5901755804099142,-2.3345786738425494,0.0495621955484151,-2.019532481217384,9.467653607466817,1.5669723994769156,-0.0607727840542793,0.3436447083950043,-0.1322079300880432
1789224570695528400,3.0621408691406247,-1.5209741800203918,-2.4275989028453826,-0.3139386697746813,-2.033517167428136,9.46445568820834,1.5682010644890367,-0.126998946070671,0.3429450988769531,-0.0436692759394645
1789224570705566500,3.0721787109375,-1.1773672249518334,-2.279076566851139,-0.7972253136903047,-2.039392343071848,9.46108299690485,1.5808768600583076,-0.2998895943164825,0.3807106018066406,0.0389773398637771
1789224570715603500,3.0822158203125003,-0.6594454671151936,-2.2752713293492794,-0.843725929711014,-2.040914438072592,9.455480939114093,1.612115317278355,-0.5603744387626648,0.4984260499477386,0.0827003195881843
1789224570725641500,3.092253662109375,-0.1198698036141693,-1.866738459253311,-0.0869390093930065,-2.039550310112536,9.44618119584918,1.6674109419122338,-0.801191508769989,0.4191669225692749,0.1125096753239631
1789224570735679500,3.1022917480468752,0.4549547217920422,-1.3164859189152718,0.6122592069178819,-2.0336314414575694,9.433577734863755,1.744234069351852,-0.9437958002090454,0.2036420851945877,0.1246097460389137
1789224570745717500,3.112329833984375,0.9429838840596376,-0.7241115621626377,0.6452011070549488,-2.0235170208089053,9.418804528623818,1.833545653095096,-0.9825485944747924,0.0346848219633102,0.1308078467845916
1789224570755755000,3.122367431640625,1.278914897672832,-0.3758522512435913,0.2825401996873319,-2.0113908219464123,9.403189026340842,1.9247638011120256,-0.9560216069221495,0.082406535744667,0.1527671962976455
1789224570765792000,3.1324042968750003,1.2673330348201095,-0.3606464988052845,0.1980984139375388,-1.9998089590936896,9.387983273902536,2.009205586861819,-0.9035309553146362,0.1743127554655075,0.1446374505758285
1789224570775829800,3.142442138671875,1.582079367715865,0.4294651834875345,0.1485553614810109,-1.9937327079199252,9.371050843802092,2.0925673222899435,-0.9588922262191772,0.2030501216650009,0.0584652759134769
1789224570785868000,3.1524802246093753,1.6291434628382324,0.7017728891044854,0.0323648309014737,-1.9988978355981408,9.34953400852084,2.181972137274593,-1.0036702156066897,0.0981133952736854,-0.0911302268505096
1789224570795905800,3.1625180664062498,1.4310932719565927,1.1721019979000091,-0.0474427191764116,-2.014380651412159,9.324526993036269,2.2728534545525907,-0.9196813702583312,-0.0747550502419471,-0.2251601964235305
1789224570805943800,3.17255615234375,1.3172196400173009,1.7917957387328147,-0.5640221224933862,-2.036826730367541,9.299942002356053,2.3521913412921127,-0.7382809519767761,-0.0439020618796348,-0.2764601409435272
1789224570815980800,3.1825930175781254,1.4616282570824026,2.461615154215693,-1.2393278604328632,-2.06347069940418,9.278052826631068,2.414581892623007,-0.6778998970985413,0.2784850299358368,-0.2358723580837249
1789224570826018800,3.192631103515625,1.2100230016238986,2.6110622038394213,-0.8902268379926681,-2.090939574957639,9.25654651274383,2.472794135355949,-0.7602479457855225,0.5518016219139099,-0.1104542165994644
1789224570836056800,3.2026691894531254,0.6712374655872583,3.183371093162894,0.2819812506303191,-2.1089557086415587,9.235952637526392,2.5337501238390803,-0.8584272265434265,0.7137932181358337,0.0772288590669632
1789224570846094800,3.21270703125,-0.888338686158508,3.6376316952109335,3.140572984921932,-2.0952854952074587,9.22476781116724,2.585309922945499,-0.3753774166107178,0.2016288042068481,0.438479334115982
1789224570856132900,3.2227451171875003,0.3744685418002307,3.1754198418974875,-0.5650611101523041,-2.055646873910725,9.233427502962948,2.5862159318745133,0.209499105811119,0.4153972864151001,0.5537704825401306
1789224570866169900,3.2327822265624997,0.3317367767937481,3.153821758073568,-0.521097465263307,-2.0129151089042425,9.255025586786866,2.542252286985516,0.47593954205513,0.577357292175293,0.6892395615577698
1789224570876207900,3.242820068359375,0.171601013764739,3.3548972881257533,0.1599891941651701,-1.9584233479991555,9.282745368361471,2.4830595087826253,0.5280789136886597,0.5438768267631531,0.7565174102783203
1789224570886245600,3.2528579101562496,0.5192642584867775,2.7491572538435456,-0.5161003876283764,-1.9055068735867735,9.306993674433231,2.4329577995300293,0.3012888431549072,0.550157368183136,0.682606041431427
1789224570896284000,3.262896240234375,-0.1918732558123767,1.8755577255249023,1.2679033820539711,-1.85307423716858,9.326462929534912,2.398667261262983,0.3700721561908722,-0.0424066297709941,0.5532645583152771
1789224570906321700,3.2729340820312496,-0.2379077156260609,1.8554630320012568,1.3113945871256292,-1.807039777354896,9.346557038536668,2.3551757639303803,0.642109751701355,-0.2387186884880066,0.3443096578121185
1789224570916359000,3.28297119140625,-0.1067880575925111,1.5328057798504828,0.9813898948214947,-1.7789448788575828,9.37023835837543,2.281307979165017,1.01185941696167,-0.1923384070396423,0.1436087787151336
1789224570926397000,3.2930092773437503,0.1415524969816207,1.7143407431304454,0.941871538903564,-1.7712554933987557,9.39729821473658,2.173433733770996,1.313326358795166,-0.0590167008340358,-0.0375490598380565
1789224570936434700,3.3030468749999997,0.37210605045259,1.9493121130436657,0.6269207694768906,-1.7857324931710958,9.42344446338415,2.044559370446205,1.3388266563415527,0.228201761841774,-0.2192828953266143
1789224570946473000,3.313085205078125,0.1036797163136303,2.2028239327758548,0.935731574843824,-1.8168804956287143,9.443619236406684,1.9202514382541176,1.2095781564712524,0.1262257844209671,-0.3538418114185333
1789224570956510700,3.3231230468749997,0.4384541072376072,2.2856910165548325,0.8840424502693116,-1.857467357560992,9.457568266782165,1.8095842011407015,1.1343612670898438,-0.0806110128760337,-0.4938567280769348
1789224570966547700,3.333159912109375,0.4885808048009872,2.2752608079552648,0.9940763579152524,-1.9075942012548448,9.467998475381732,1.6995495628423989,1.2806833982467651,-0.2674391567707062,-0.6272280216217041
1789224570976586000,3.3431982421875004,0.3339350174903869,1.9043600416392088,0.6912908041872083,-1.9673793923929328,9.477825457391145,1.571828022814542,1.5111675262451172,-0.2687576711177826,-0.7178871035575867
1789224570986623700,3.353236083984375,-0.3573917347930371,1.113466269057989,0.4167417493842542,-2.033218476742506,9.487160271969437,1.4248483862176538,1.66718327999115,-0.17216257750988,-0.7227774262428284
1789224570996662000,3.3632744140625004,-1.1931050384402275,-0.3130436206310987,-0.083734075871855,-2.0963781127497554,9.496451831927894,1.2621299132190644,1.7807163000106812,0.0403710007667541,-0.6033059358596802
1789224571006699800,3.37331201171875,-1.1449953797876835,-0.3242734551757574,0.0941798473667353,-2.144487917532772,9.507682250994444,1.084216282241419,1.8498151302337649,0.3425941169261932,-0.347651720046997
1789224571016736800,3.38334912109375,-1.56826463124454,-2.7800872296363117,-1.197201440908387,-2.166091262053698,9.52200888251066,0.8998713030420243,1.7880427837371826,0.5432627201080322,-0.0030397484079003
1789224571026774800,3.3933872070312496,-1.2876760040163993,-3.8833313798874616,-0.8477373573094605,-2.151893956005573,9.54023135242164,0.723688149118796,1.636417031288147,0.5325732827186584,0.3990488946437835
1789224571036812800,3.403425048828125,-0.975756126718223,-4.828446576887369,-0.4803133271932601,-2.095705328054726,9.563429272657633,0.5650083205191418,1.451554775238037,0.4414950609207153,0.8413421511650085
1789224571046850800,3.4134631347656246,-0.7054718897528945,-5.317585015571117,-0.442424033781886,-1.9942896111503243,9.59228244217634,0.4258145154928788,1.254448652267456,0.4265473484992981,1.3136123418807983
1789224571056888800,3.423501220703125,-0.5114265505984426,-5.455047612890601,-0.230945804191567,-1.848208530828357,9.625895373442768,0.310851992338337,0.9669457077980042,0.4027439951896667,1.737710952758789
1789224571066925800,3.4335380859375,-0.6951981868892908,-5.4907969716638325,-0.1495078399002552,-1.664437186798453,9.66164590125978,0.2294144116395153,0.566807210445404,0.3267359137535095,2.0678107738494877
1789224571076963800,3.4435761718749998,-0.6201430920355021,-5.367153640860319,-0.4329460113406181,-1.4523377200372516,9.696618430441616,0.1915804651445709,0.1117488890886306,0.3265585601329803,2.307440757751465
1789224571087001900,3.4536142578125,-0.9791804751437156,-5.529390613952279,-0.3454185345351696,-1.222287951369956,9.728072137847542,0.2025148056076839,-0.4745875597000122,0.2680841982364654,2.3785202503204346
1789224571097040000,3.4636520996093747,-1.012503410487622,-5.091276260063052,-0.7631745755285024,-1.001020112638548,9.751289347305894,0.2840350961538962,-1.222955584526062,0.3056834936141968,2.1612350940704346
1789224571107078000,3.473690185546875,-0.3803266201786697,-5.446130146941543,-0.8011188139975071,-0.804803201598674,9.764072256511447,0.4307661100182682,-1.8265745639801023,0.4005980789661407,1.850228309631348
1789224571117115000,3.4837272949218754,0.3955003700435161,-5.495602910640836,-0.1823094547837972,-0.6437490816157311,9.765960846737029,0.6180543761279433,-2.0071334838867188,0.5368549823760986,1.4834755659103394
1789224571127153000,3.49376513671875,1.0559706501618027,-4.215490035355091,1.028373983510211,-0.5240090053284541,9.758666598075628,0.8150120955977589,-2.076173782348633,0.2079370319843292,1.0069807767868042
1789224571137191000,3.5038032226562503,1.7410072162598371,-3.0199066241025925,1.033194389403984,-0.4506819763762876,9.742525026091933,1.0249215780340135,-2.216001510620117,-0.1763182282447815,0.4871789515018463
1789224571147229000,3.51384130859375,2.18408942168951,-1.973355251932144,0.7769792289972305,-0.4280921415686607,9.717250884103777,1.2498624061897396,-2.367281436920166,-0.334734559059143,-0.1030526235699653
1789224571157267000,3.5238791503906253,2.368407293686271,-0.791012430524826,1.019044210433215,-0.4620241121890023,9.68217898620069,1.4873855064123869,-2.4652116298675537,-0.4408450126647949,-0.6971554160118103
1789224571167304700,3.5339169921874998,2.455046297219396,-0.7461030292183161,0.7765788315027952,-0.5486631522547454,9.63727016941607,1.729850739212334,-2.468322277069092,-0.5869998931884766,-1.2544280290603638
1789224571177342000,3.543954345703125,2.331824114437401,-0.1042114851027727,0.9919412455826996,-0.6814709825709462,9.583005495265123,1.9677404807902872,-2.3686814308166504,-0.6572958827018738,-1.7231595516204834
1789224571187379700,3.5539919433593754,2.2709378301896157,0.9678811555594206,0.946781668907404,-0.8475849432267248,9.523211244037746,2.181841204371304,-2.0009260177612305,-0.623560905456543,-1.98812735080719
1789224571197417700,3.564030029296875,2.200348774833977,1.031726728004217,1.1977547639422117,-1.027938003245741,9.462058563938736,2.3628718713909387,-1.6613311767578125,-0.8788009285926819,-2.137042760848999
1789224571207456000,3.5740683593749996,1.7391712330043314,0.5755336965888739,0.6577294569775461,-1.2085561439417305,9.40065512394905,2.517430272679031,-1.3404889106750488,-1.071890115737915,-2.2126684188842773
1789224571217493800,3.58410595703125,1.0993494809001685,1.3557681279897689,-0.5863204635411501,-1.397427441459149,9.336137935853005,2.655958745664358,-1.287050724029541,-1.045360803604126,-2.385340452194214
1789224571227531000,3.594143310546875,0.0569091973103582,10.030500840961931,-3.968569284451008,-1.58800115898028,9.294298443511128,2.695302914059162,1.3954620361328125,1.0141161680221558,-1.6304454803466797
1789224571237568800,3.6041811523437497,1.036515569715947,-0.6593348463475703,2.602192376424372,-1.7511847652725874,9.319013782572746,2.5019462878212333,2.017104387283325,-0.1820689886808395,-1.6049166917800903
1789224571247606800,3.614218994140625,-0.1158351412706077,-0.9752098910123108,0.2187199078142642,-1.876439915186912,9.334714625051618,2.34786456413418,1.5148526430130005,-0.8520922660827637,-1.3595216274261477
1789224571257644800,3.6242570800781246,-0.0166940912999212,-0.9798772983014584,0.3208312057673931,-1.9755809651575984,9.339382032340763,2.245752827789634,0.8948272466659546,-0.3893100023269653,-1.07257080078125
1789224571267682800,3.634295166015625,0.1500292334258556,0.1184972000867128,-0.7383724349662661,-2.058507377908379,9.331717196801304,2.2027267560116943,0.167521059513092,-0.3240140974521637,-0.8635650873184204
1789224571277719800,3.6443320312500003,0.2429479017503559,-0.2073258226186037,0.8708101898610592,-2.125837869859487,9.311876185777782,2.222647846534103,-0.3185420632362366,-0.6949822902679443,-0.8246802687644958
1789224571287757800,3.6543701171875,-2.782919238191843,2.360728429621458,4.397800951443612,-2.172030735105276,9.29259806933403,2.258378646737337,0.3367038369178772,-1.057478666305542,-0.399867981672287
1789224571297795800,3.6644082031250003,-0.8992308131814003,1.6152888327479362,-1.3924820940114555,-2.1767196235738693,9.301821240231394,2.2154889146901664,0.5843735337257385,-0.4525035321712494,-0.221570685505867
1789224571307833900,3.6744460449218748,-1.9919594146370887,1.3752169248253103,-1.6617251513607798,-2.1811339328847823,9.308907399100065,2.1811169817499816,0.364624947309494,-0.4267279207706451,-0.1079028323292732
1789224571317871900,3.684484130859375,-2.903835189858079,2.4139660988122222,-1.1544310243919491,-2.185937972165644,9.309989349117874,2.171666870228946,0.0628528296947479,-0.2600838243961334,-0.1287172883749008
1789224571327910000,3.6945222167968748,-2.315921319645643,2.446772389870882,-1.368765264467895,-2.2028347464308142,9.30606311558485,2.1714215171657503,-0.0142860915511846,0.0720013082027435,-0.2786749601364136
1789224571337947000,3.70455908203125,-2.204723190525919,2.707922157135606,0.3236334037065506,-2.2305353849135336,9.299148806151749,2.172770593687147,-0.0438799336552619,0.0134618245065212,-0.2589081525802612
1789224571347985000,3.7145971679687504,-1.998290225093812,3.2195430612623688,0.8835590506665408,-2.24468388338387,9.293003143003585,2.184460593089461,-0.1837364733219146,-0.1318816542625427,-0.0622308142483234
1789224571358023000,3.72463525390625,-2.00439628688395,3.22386793872416,0.8590390880465507,-2.238577967724204,9.28867885006368,2.208980701839924,-0.2850021123886108,-0.0725067481398582,0.1247214898467063
1789224571368061000,3.7346733398437504,-1.9976057499609887,3.008453502196073,0.4831330607891082,-2.2217257632531227,9.28577202270627,2.238026763582229,-0.3439171612262726,0.0872412398457527,0.2463870346546173
1789224571378098700,3.7447109375,-1.981968620368093,0.7293126379370689,0.1759907731562852,-2.194865667247772,9.284585443270206,2.269237456012517,-0.3792791664600372,0.1507067680358886,0.3901577889919281
1789224571388136000,3.754748291015625,-1.1046074014283715,0.1734364124983549,0.0531654807373881,-2.1568941023804244,9.285905878219008,2.300035768249631,-0.3298163414001465,0.0576047860085964,0.466991513967514
1789224571398173700,3.7647858886718746,-0.053475277338922,-0.1230816052675247,-0.0419882531628012,-2.1125288909532127,9.288682941716909,2.3297971386544405,-0.3107800781726837,-0.099392294883728,0.4583583474159241
1789224571408212000,3.77482421875,0.2903162405163049,-0.3062082216531038,0.2347822770819067,-2.069207781751454,9.290598419949411,2.3608315977349874,-0.3031534850597381,-0.1167964488267898,0.4170173406600952
1789224571418249700,3.7848620605468746,0.2271601116403937,-0.9793599964290856,0.1322290805801749,-2.027449830213189,9.293523367485404,2.3854231642864643,-0.1836664974689483,-0.0978544503450393,0.408170610666275
1789224571428287700,3.794900146484375,0.228892049999535,-0.2745242126226425,-0.8100527926899492,-1.9860864309504629,9.296623671588302,2.408033055501431,-0.2652504444122314,-0.1819074749946594,0.419314295053482
1789224571438325000,3.8049372558593753,0.1839076837606728,-0.2761240490347146,-0.8403685821071266,-1.941101918581128,9.298222923478484,2.438348114266246,-0.278883695602417,-0.2489461600780487,0.4351537227630615
1789224571448362800,3.8149750976562498,-0.0878968946397304,-0.6977180607557296,-1.1174454018220306,-1.892257369782776,9.299335853156446,2.472263974002004,-0.3582800626754761,-0.2740499973297119,0.4791450202465057
1789224571458400800,3.82501318359375,0.1985005649976432,-0.8690905264616012,-0.9206801361843944,-1.8377803680554032,9.298175577205418,2.5173133683010933,-0.4696558713912964,-0.4012966156005859,0.4897204339504242
1789224571468438800,3.8350510253906247,-0.1740453381769359,-0.7719441574394702,-0.5598001208841801,-1.779024666095525,9.29410496676564,2.57392255975157,-0.5493032336235046,-0.5985859632492065,0.5066506862640381
1789224571478476800,3.845089111328125,-1.1928043019279837,-0.4743757538378238,-0.4880412910968065,-1.7076213717475532,9.288329890495538,2.6422242348223923,-0.6179320812225342,-0.9546711444854736,0.6057770252227783
1789224571488514800,3.8551271972656247,-1.7090493587240576,-0.6028279462277889,-0.1070166056513786,-1.61245653193146,9.28420316595435,2.7154993143916126,-0.5485377907752991,-1.3188709020614624,0.7887917160987854
1789224571498551800,3.8651640625,-2.3270883180871604,-0.1594640012472868,-0.0821805628195404,-1.4859769547887145,9.283616305977104,2.7886756097614764,-0.5313225984573364,-1.6802908182144165,1.0425100326538086
1789224571508589800,3.8752021484375003,-3.4587776415780183,0.5044254396647214,-0.7737298718124628,-1.3172057576224208,9.284866598299145,2.868207411637902,-0.5594536066055298,-2.5343339443206787,1.3382238149642944
1789224571518627800,3.885240234375,-3.7388600728496906,0.5901596033126115,-2.731759252057969,-1.090843079970032,9.286520210725069,2.9565146406441927,-0.5943024158477783,-3.259082555770874,1.6626943349838257
1789224571528665900,3.8952780761718753,-3.66085767249763,0.7527490431040526,-4.419320124812424,-0.8221353716064244,9.28209713358581,3.0556723494887352,-0.8678812980651855,-3.1561272144317627,1.999576449394226
1789224571538704000,3.905316162109375,-3.295156812912225,0.0260135621786117,-3.160703042019904,-0.5264380591062828,9.265433583554625,3.16938202303797,-1.1356048583984375,-2.9628119468688965,2.313544988632202
1789224571548740900,3.915353271484375,-1.852794543444365,0.8532043905436992,-8.390545184469223,-0.2318068232013843,9.226833511525392,3.313939839315414,-1.9147553443908687,-0.2499472349882125,2.6639227867126465
1789224571558779000,3.9253911132812496,0.7862246117264032,-2.691505859863758,6.581433569276332,-0.005116274434654,9.158993901008367,3.5047400590687987,-1.789060354232788,0.7245867848396301,2.6833667755126958
1789224571568817000,3.93542919921875,-1.7249813796103,1.5574492227196692,1.3853887747496365,0.2327951949179172,9.102434393918514,3.6416862312987446,-1.5457751750946045,0.471185028553009,2.868062973022461
1789224571578855000,3.9454672851562496,-1.344965871207416,-0.8755413100361824,-1.8963278340920804,0.4839509895758703,9.024804626271129,3.806451553824544,-1.8233779668807983,-0.0837740451097488,3.005281686782837
1789224571588893000,3.955505126953125,5.937329025286436,-4.872565704599023,12.10982055914402,0.7263323800172656,8.959467353963852,3.920556364171207,-0.5829289555549622,1.3465954065322876,2.431709051132202
1789224571598931000,3.9655432128906254,4.154410420492291,0.4432452870368957,18.590607642322777,0.9105231915682552,8.940977757549286,3.924314839921892,0.8323683142662048,-1.2090482711791992,2.0505144596099854
1789224571608967700,3.9755800781249997,1.1937825723756104,1.4239783253848552,0.0336941798090934,1.1260491256467997,8.964612315636872,3.8128900624394415,0.9909526109695436,-0.8951621055603027,1.7710579633712769
1789224571619006000,3.9856181640625,1.1553029849208891,-0.5279126982361078,-5.132994756373763,1.291271544290334,8.968968757280706,3.7497444549575447,0.7001804113388062,-0.045989453792572,1.744208812713623
1789224571629043700,3.9956560058593746,3.1072651740819213,-1.005598015013337,-3.343438613261282,1.4480024673119187,8.97110635383129,3.686856621629,0.5293835401535034,-0.1312436908483505,1.4295992851257324
1789224571639082000,4.0056943359375,3.5079315485864875,-0.2848684965044259,-4.380199536040425,1.5691228555090724,8.964298427382111,3.653708677525818,0.1072807982563972,-0.2378862500190735,1.1119017601013184
1789224571649119700,4.01573193359375,3.4137066199690103,-0.2647013222664594,-4.387936267772317,1.6633476379960774,8.944131253144144,3.6614459937796,-0.3442018330097198,-0.1347639858722686,0.7935667634010315
1789224571659156700,4.02576904296875,3.5940889060825105,-0.4418541249394416,-3.527615907743573,1.7238818939357996,8.91508343783617,3.7040386425763367,-0.6592732071876526,-0.1855989396572113,0.415110319852829
1789224571669195000,4.035807373046875,3.356130629312992,-0.9150397922098636,-0.7447659353956579,1.7478582511983811,8.883091970291733,3.7690909604623912,-0.7318981289863586,0.3082811236381531,0.0981340855360031
1789224571679232800,4.045844970703125,0.586020311550796,-1.10389706120193,9.593081483599542,1.7394976884797215,8.868442682692407,3.807265208294988,-0.024680009111762,0.0186434667557477,-0.0172159429639577
1789224571689270800,4.055883056640625,0.3451535999886691,0.6931073520898818,4.073138496950269,1.74303916047886,8.876217408347129,3.787474466153979,0.3216470777988434,-0.212855264544487,-0.0326089486479759
1789224571699308800,4.065921142578125,-0.2454166299514472,0.7084229946434497,-3.0758605665147303,1.7495738229446112,8.885591970413923,3.76239818482548,0.1314619481563568,-0.1329955905675888,0.0152943953871726
1789224571709346800,4.075959228515625,-0.4872480948925018,-0.0443693030804395,-3.0865333516985176,1.7551276576794683,8.886755753496288,3.7570603309288617,-0.0282549392431974,-0.0327853001654148,0.0370562635362148
1789224571719384000,4.085996337890625,-0.5085083250641822,0.2162742682278156,-2.7207573810502885,1.7606756471954286,8.881691455844043,3.766424663862586,-0.2057490348815918,-0.0101569527760148,0.0817973688244819
1789224571729421800,4.0960341796875,0.6534069176033139,0.357717459616065,0.9829466227442024,1.7653353095695374,8.87103211466372,3.789295836362242,-0.2126380652189254,0.092741459608078,0.0492107942700386
1789224571739459800,4.106072265625,0.7442784441396594,-0.0321609788924455,4.379337366253138,1.76514417091161,8.868860031321644,3.7944671015203,0.1095607504248619,-0.0518436767160892,-0.0106512075290083
1789224571749497900,4.116110107421875,-0.0621986820206046,0.3840484171807766,0.0691214670211076,1.7682170024856925,8.87537686586976,3.777762050434947,0.1815303266048431,-0.1168422624468803,0.0069837551563978
1789224571759536400,4.126148681640625,-0.6372197529122233,0.3101233492702245,-2.376470188632607,1.7771590183541175,8.878523347201943,3.766154614749551,0.0275175832211971,-0.1100895479321479,0.0980793163180351
1789224571769573000,4.136185302734375,0.1802104366779327,-0.2550356682986021,-1.1786772846370934,1.7906664424419405,8.8756580208987,3.7665097117975352,-0.0572528839111328,-0.0729050934314727,0.1098793596029281
1789224571779611400,4.1462236328125,0.5510230863191187,0.006467734709382,0.9237854087233542,1.801728957595676,8.871980209168791,3.769897600670159,-0.0340490266680717,-0.069296509027481,0.0758367031812667
1789224571789649200,4.156261474609375,0.5433804626114667,0.0066787471115589,0.926950887016952,1.809371435172856,8.871768612244725,3.766731830115616,0.0754913613200187,-0.1011049747467041,0.0294420272111892
1789224571799687400,4.1662998046875,-0.4463805163227021,0.2153852104336023,-0.1882294924825429,1.8166122000813485,8.8749495803684,3.755739603719115,0.1065243780612945,-0.1115640103816986,0.0425652861595153
1789224571809725200,4.17633740234375,-0.5258845534093678,0.2769336118519306,-1.6295067431926726,1.8253375044591724,8.876398610132933,3.7480762294843792,0.0159198176115751,-0.0715642571449279,0.0765744149684906
1789224571819763200,4.18637548828125,0.1093402262933552,0.2161889280319213,-0.632061639496684,1.8341529713384803,8.873996225166321,3.749461838623881,-0.0500690527260303,-0.0102138128131628,0.0809776782989502
1789224571829800400,4.196412841796875,0.4959601013973355,0.1048053593426942,1.151163839289546,1.8400325308963652,8.871954490205646,3.751412972691655,0.0120224505662918,-0.0080315480008721,0.0435114428400993
1789224571839838200,4.206450439453125,0.4097599276728927,0.0404085827559232,0.9813707517296076,1.8443809353642164,8.872904922798275,3.747027889475226,0.0700428783893585,-0.0419895127415657,0.0174894295632839
1789224571849876500,4.21648876953125,0.0944879634678363,0.0600526099026203,-0.1642056428164243,1.8478082794643935,8.875556898611784,3.739047996637225,0.0671385154128074,-0.0651678740978241,0.0006010220386087
1789224571859914200,4.226526611328125,-0.1370598617374896,0.0405365930497646,-0.9278992737829684,1.8495125991642476,8.877116403013467,3.734501877640188,0.0084328558295965,-0.0326091349124908,0.0017456486821174
1789224571869952300,4.236564453125,-0.117453390122205,-0.0422960039377212,-0.3675742522418498,1.8495087997719644,8.876900129914283,3.735018887251616,-0.0150368697941303,0.0017469674348831,-0.0190864540636539
1789224571879990300,4.2466025390625,-0.2303260283254087,-0.1769791996717453,0.2451128246992826,1.848207946306467,8.876759844660759,3.7359953310683367,-0.0049887639470398,0.0098107531666755,-0.0152927804738283
1789224571890027300,4.2566396484375,-0.3322958719812333,-0.0537929649859666,0.1964022775441408,1.847077042580396,8.877023464033007,3.73592431165874,-0.0017186334589496,-0.0155097804963588,-0.0063169989734888
1789224571900065300,4.266677490234375,-0.3318688787408173,-0.0539431871116161,0.1965495770603418,1.846650779992342,8.877176024246216,3.735777304403483,-0.0020523276180028,-0.0184094291180372,-0.0067934384569525
1789224571910103300,4.276715576171875,-0.1559773281753063,-0.1304740536063909,0.1404641172230243,1.8465831215836104,8.87739054377973,3.7352994577586647,0.00798702519387,-0.00925188139081,-0.0032736756838858
1789224571920141300,4.286753662109375,-0.167902743768692,-0.0662029492259025,-0.3691828564822673,1.846986295557022,8.877313971412182,3.73528104531914,-0.0101839890703558,0.0042881625704467,0.0049509648233652
1789224571930179300,4.296791748046875,-0.3346666927658021,0.1648667370736599,-0.3552852640330791,1.847203591569513,8.875938006883858,3.73844184743762,-0.0585453622043132,0.018336871638894,0.0141512509435415
1789224571940217300,4.30682958984375,-0.2524728320732712,0.1166676465719938,0.7163251460701227,1.8479094017513096,8.873860031566023,3.743025960357487,-0.0197718665003776,0.037836268544197,0.0251562315970659
1789224571950254000,4.316866455078125,-0.3877317818686366,0.1385515615999698,0.5939303540229797,1.8495413868673145,8.873522762435675,3.743016315746307,0.0293991863727569,0.0247825849801301,0.0358512066304683
1789224571960292400,4.326904541015625,-0.34092297668159,0.1599105759710073,-0.5146273924663662,1.8525619037322696,8.874010253691672,3.7403643399327993,0.0200488269329071,-4.20706346631e-05,0.0476788356900215
1789224571970330000,4.3369423828125,-0.1541283393077552,0.2268658048689365,-0.4966232414811849,1.856405281287432,8.872595710718631,3.741813369697333,-0.0283921714872121,0.0433356240391731,0.0686265081167221
1789224571980368400,4.346980712890625,0.0635094723582267,0.227595872709155,0.5747124433338642,1.8615783000111576,8.870220798280835,3.7448762643992897,-0.0144427996128797,0.0437689200043678,0.0791015177965164
1789224571990406400,4.357018798828125,0.2250666464924812,0.3075859397470951,1.152002628201246,1.86821379250288,8.869389023631811,3.7435415086641903,0.0550774708390235,-0.0011857086792588,0.0888478755950927
1789224572000443100,4.367055419921875,0.3023663054026663,0.3181055801957845,0.3597656243175268,1.8768061181508005,8.870391478672623,3.7368636383354654,0.0897137448191642,-0.0244926288723945,0.0849308967590332
1789224572010481400,4.37709375,0.2338198617905378,0.3394026352465152,-0.439992130459845,1.8850484613172709,8.871689117267728,3.7296249192535873,0.0525644086301326,-0.0412534214556217,0.0732424482703208
1789224572020519200,4.387131591796875,0.1494146086588501,0.3545587033241987,-0.2237207848414778,1.89179179809764,8.87209535998106,3.725240420559048,0.0390350185334682,-0.0091876331716775,0.0588462054729461
1789224572030557400,4.397169677734375,-0.2127969475060701,0.4836299043953418,0.2305328029438853,1.897117523165047,8.872759961369633,3.720947399540245,0.0652588531374931,-0.0108513748273253,0.0544916838407516
1789224572040595200,4.40720751953125,-1.6505542073965072,0.6725847885429859,0.4475011909157037,1.906733492772281,8.874143524682522,3.712723176552355,0.1175036802887916,-0.0155611746013164,0.1619563549757003
1789224572050633200,4.41724560546875,-2.424681846354902,0.617788783994317,-0.608157909078896,1.9289321728378528,8.873424562758206,3.702962537777424,0.0910945534706115,0.0103376656770706,0.3375636339187622
1789224572060670500,4.42728271484375,-3.16308876811266,0.3964449574172496,-0.811421012303233,1.9692801114477216,8.86672126572728,3.697780458964407,0.0437107905745506,0.0139403901994228,0.5627887845039368
1789224572070708200,4.437320556640625,-2.821806310468912,-0.2227268053680658,-0.6707622492909431,2.029475198560953,8.853823790231347,3.6961350298449394,-0.006384705659002,0.0021477807313203,0.8044343590736389
1789224572080746500,4.44735888671875,0.4894916360355913,-1.2955255484730004,0.3972866689383983,2.0965455782711504,8.838906791606545,3.6944039682686327,0.0870570912957191,0.1364736258983612,0.7479724287986755
1789224572090784300,4.457396484375,2.2012876631192864,-2.395851765450835,0.2908464018702507,2.1524184182710946,8.82757525025308,3.689364805057645,0.0726220831274986,0.0264085717499256,0.5325340628623962
1789224572100822300,4.4674345703125,3.322594854936004,-1.7029080794900655,-0.6921317850559949,2.183320921535045,8.821917078360915,3.684734514908493,0.0280202571302652,0.0289585497230291,0.1988413035869598
1789224572110860300,4.47747265625,1.5378500576280056,-0.7695540474325419,-1.5087112030357122,2.187976784516871,8.819009666481614,3.688931382076442,-0.0905131250619888,0.118546150624752,0.006919415667653
1789224572120897300,4.487509521484375,0.0680355714805424,-0.0107189624130725,-0.2722749723911285,2.183411814688891,8.814048829203843,3.703464934341609,-0.160282090306282,0.1116506978869438,-0.0095863249152898
1789224572130935300,4.497547607421875,0.5168354239046573,0.8420154725313186,1.3843652769207953,2.178437241146713,8.809609969973563,3.716930272853374,-0.079391673207283,0.076879471540451,-0.0225397609174251
1789224572140973300,4.507585693359375,0.040180473088473,1.657329985141754,1.4177069900304078,2.17475548389405,8.809371485042572,3.7196509299889207,0.0355937704443931,0.017059015110135,-0.0105491438880562
1789224572151011300,4.51762353515625,0.0372406202442944,1.65502521533072,1.42489280988127,2.177695044477284,8.811675670331717,3.7124654023990034,0.120965726673603,-0.0160919483751058,0.0772273689508438
1789224572161049300,4.52766162109375,0.6823634013660251,1.475053848105669,-0.7168459550738334,2.1851419994823638,8.814626336830854,3.701068686854839,0.121621660888195,0.0186186265200376,0.0714344605803489
1789224572171087400,4.53769970703125,1.0788764555834234,0.9674193832665682,-0.3975377210900187,2.188161201173067,8.817382942062617,3.6927073934838175,0.0953884273767471,0.0532468482851982,0.0319800712168216
1789224572181124000,4.547736328125,1.1510047032050787,0.2802390831381082,1.2726418087527156,2.187260306810588,8.821766856235266,3.682757369616628,0.1637003719806671,0.0254668816924095,-0.0119897844269871
1789224572191162400,4.557774658203125,0.9715347096309064,-0.1406394737899303,1.1202186659276483,2.1855194544926286,8.82994548651576,3.6641447313442814,0.2416709065437317,-0.0538467168807983,-0.0342716164886951
1789224572201200000,4.5678125,0.2392573766693472,-0.302585939502716,-0.3547071718841791,2.1860689050689337,8.839111958789825,3.641647068332136,0.2161977738142013,-0.0881698057055473,-0.0078298905864357
1789224572211238400,4.5778505859375,-0.1243723757304251,-0.8087380568295717,-1.4267641567111014,2.190269133237749,8.844875929144024,3.625090485806763,0.1150246709585189,-0.04756785556674,0.0387715920805931
1789224572221276200,4.587888427734375,-0.2067944922208786,-1.3882587772279975,-1.4376915011778473,2.1951786787196994,8.846046141967177,3.619257834130525,0.0094801383092999,-4.29479405283e-05,0.0490774922072887
1789224572231314200,4.597926513671875,-0.2793018022879958,-1.6209826604753732,-0.6335024859547614,2.199002620922029,8.84443870677054,3.620867899675667,-0.0337121821939945,0.0168810449540615,0.0448203943669796
1789224572241351400,4.607963623046875,0.230352477940917,-1.957915690737963,-0.7692746459692716,2.2011089455515145,8.84199365170598,3.6255569342747327,-0.0683196932077407,0.0195551253855228,0.0103657469153404
1789224572251389200,4.61800146484375,0.5890827678613364,-2.0828736112713813,-1.6484876302555205,2.1985160064488647,8.83811301088035,3.636572833807766,-0.1744235306978225,0.0375413112342357,-0.0420981235802173
1789224572261427500,4.628039794921875,0.2864589805662632,-1.69016141064167,-1.5253917042016982,2.1919886505067345,8.830568586850166,3.658775313265621,-0.2998924851417541,0.0576865263283252,-0.0601849816739559
1789224572271465200,4.63807763671875,-0.2077091228477656,-0.8349059327870607,-0.4876403090804815,2.1853196941368283,8.819269194200634,3.689885029539466,-0.3632202446460724,0.0669610574841499,-0.0324040353298187
1789224572281503200,4.648115478515625,-0.4774563303269445,-0.0619213263839483,0.35274726998806,2.1821279123581943,8.805845064482092,3.72368003937453,-0.3616321980953216,0.0650475770235061,0.0161709561944007
1789224572291541200,4.658153564453125,-0.4803578969873487,0.646301177251339,0.6081590781226753,2.182934260305017,8.792090095373988,3.7555727227196094,-0.3252754211425781,0.0687746703624725,0.0546734631061553
1789224572301578200,4.6681904296875,-0.2104253960691392,0.787342217579484,0.4002884811028838,2.185491981963813,8.779438119071722,3.783578627759218,-0.269056886434555,0.093017429113388,0.0601220242679119
1789224572311616300,4.678228515625,-0.274464445259422,0.901017696598172,-0.7136176406770944,2.189077146974206,8.767665263691544,3.808720960061252,-0.3280752003192901,-0.0648120269179344,0.0646751448512077
1789224572321654300,4.6882666015625,-0.0947162192657589,0.5685989288896321,-1.485043034939468,2.1926352778472005,8.752775737595558,3.840787830929458,-0.3448123931884765,0.1686209589242935,0.0757078230381012
1789224572331692300,4.6983046875,-0.7383833947516978,0.6805904003441333,0.8611483352854847,2.1977987980902194,8.737300520566105,3.87293653486222,-0.3127899467945099,0.0763799995183944,0.1096225753426551
1789224572341730300,4.708342529296875,-0.5628247294023633,0.6908610344678163,1.9539315895378588,2.2067434443071483,8.725384457322955,3.894654445673525,-0.1724975258111953,-0.0163669884204864,0.1432979851961136
1789224572351768300,4.718380615234375,-0.4670280214235186,0.7237088265806436,0.869512551265955,2.221229650299251,8.717226869830489,3.904675196689367,-0.0923017039895057,-0.0513579286634922,0.1565722823143005
1789224572361805300,4.728417724609375,-0.186144210641086,0.7834586541444063,-0.0762742613852024,2.237975033394992,8.709550928375124,3.912233941505849,-0.1032915040850639,-0.0397630594670772,0.1700271070003509
1789224572371843300,4.73845556640625,0.7163429739877581,0.8892097699046134,0.921340938180685,2.2497737538687885,8.70360809432268,3.9186873554289336,-0.0428447350859642,0.0175939071923494,0.0900757759809494
1789224572381881300,4.74849365234375,0.7165813127882779,1.069293949854374,0.6989552013352512,2.253874613316357,8.701592078325152,3.920805955018103,-0.0001750376541167,0.0295360535383224,0.0299706198275089
1789224572391919400,4.75853173828125,0.466576916655153,0.9209668441712856,0.0145353058308362,2.2529370402053,8.701778540807961,3.9209333807900544,0.0257760901004076,0.0771820694208145,0.0031912196427583
1789224572401957400,4.768569580078125,0.4012224009521305,0.9047463617324828,0.3819230955898761,2.2503559376709164,8.703334538078307,3.9189609116733073,0.069740891456604,0.0908265113830566,0.0101580489426851
1789224572411995400,4.778607666015625,0.6752095840886235,0.8674410056889057,0.3502738656118512,2.2478112216241657,8.707120486357807,3.9120036398813127,0.1296083182096481,0.0765070915222168,0.0028479746542871
1789224572422032400,4.788644775390625,0.3324190599694848,0.4745978721559047,-0.3516726264938712,2.246135981888324,8.712252588549255,3.901525792747736,0.1136455982923507,-0.0091721266508102,0.0184040293097496
1789224572432070100,4.798682373046875,-0.8413919338054955,-0.5678560015678406,-1.685465654040873,2.2520254783183336,8.713378377708793,3.895612769311666,0.0084336129948496,-0.0270161721855402,0.0911998301744461
1789224572442108400,4.808720703125,0.1026328376092016,-0.5332902996212243,2.060564748829603,2.2607434761725367,8.71352918435633,3.890223477488756,0.1740302890539169,0.0925451144576072,0.1173006743192672
1789224572452146200,4.818758544921875,-0.3755075294591486,-0.6411001014769077,0.5499740156576037,2.273061836606264,8.717789179888367,3.873463189084828,0.0951573029160499,-0.2771162986755371,0.0863474830985069
1789224572462184200,4.82879638671875,0.5266390250384807,-0.4194149141162633,0.1889040307432413,2.28220843513608,8.721309170708059,3.860139597131312,0.1777725517749786,-0.0162348989397287,0.0509522035717964
1789224572472222200,4.83883447265625,0.5269418073773384,-0.427778253313899,0.2076753667086362,2.281905652797222,8.729672509905695,3.841368261165917,0.2587875425815582,0.0347774215042591,-0.0556018687784671
1789224572482259200,4.84887158203125,3.258835207208991,0.0007598784565925,-0.2173497885048389,2.2624929501883684,8.741068933188915,3.82690835865885,0.2932504415512085,0.3739621639251709,-0.3349698781967163
1789224572492297500,4.85890966796875,3.845288064958155,-0.913304931241274,0.909723565623164,2.2187758274063465,8.759253409177065,3.8108939201861616,0.1809037923812866,0.0028774118982255,-0.6379668712615967
1789224572502335200,4.868947509765625,3.5413340519726275,-1.6881179221153255,-1.926678256431222,2.14220141403079,8.78483091802597,3.7958015649944543,0.0805071517825126,-0.1360109597444534,-0.993062138557434
1789224572512373200,4.878985595703125,5.185434553185105,-0.8355389699935912,0.0567509380087256,2.0264992514900864,8.81750744522512,3.7835479403600094,0.2286231815814972,0.2174768596887588,-1.5237860679626465
1789224572522411300,4.889023681640625,1.2185502992115913,-0.3845142811268567,-1.7456635176330804,1.8916671488046648,8.849064613005519,3.7796871732786297,0.0055855838581919,0.3380424082279205,-1.5595853328704834
1789224572532449300,4.8990615234375,0.2610376851923763,0.8896627743691206,2.281575105668604,1.72525172098428,8.886460569941997,3.7715649493604895,0.1359639465808868,-0.0329062789678573,-1.7738652229309082
1789224572542486300,4.9090986328125,-0.476726262486726,0.4318424340128898,-1.7502677965581417,1.5874860490649938,8.911528375703096,3.7729189943179486,0.0205337535589933,0.5776835680007935,-1.3976765871047974
1789224572552524300,4.919136474609375,9.173644357651472,-1.4479647656500338,4.387435332512856,1.3925665574245154,8.949297842127084,3.7604815375491976,0.1815905719995498,-0.1785033047199249,-2.357653856277466
1789224572562562300,4.929174560546875,-2.938480679042637,0.0908615896642208,-1.7468921826452015,1.1742532576497644,8.985706541591883,3.748145203067362,0.1583832502365112,0.1907019019126892,-2.3409578800201416
1789224572572600300,4.939212646484375,3.931812502200901,0.4349111739337444,-0.8593255037724972,0.9453259902063756,9.016050241929292,3.7399987214908,-0.1094168052077293,0.110216312110424,-2.7440102100372314
1789224572582638300,4.949250732421875,0.8408371494669467,-1.3062193764448164,0.935790903815627,0.6896564079184084,9.037246174693108,3.7447234119251367,0.0533254966139793,0.1162763386964798,-2.971569299697876
1789224572592676400,4.95928857421875,6.064623279812932,-1.4784803154230115,-0.1731561342522501,0.4031627213649451,9.059868925389647,3.7318373346060514,0.110044464468956,-0.1976306587457656,-3.430504322052002
1789224572602713300,4.96932568359375,1.1189654509961604,-1.248781917476654,-1.0531953402295708,0.0911538140764459,9.07273308313787,3.721233523005247,0.0595450736582279,-0.2573773264884949,-3.5153963565826416
1789224572612751400,4.97936376953125,-3.812020293867588,-2.614038589301705,-2.327085103216767,-0.2217608098801225,9.070900022491813,3.720210609698295,-0.0625552609562873,0.29144948720932,-3.077147483825684
1789224572622789400,4.989401611328125,-1.0854550302561372,-2.762757324650884,3.7977754954159257,-0.5146197936818003,9.061602617314458,3.713882575720549,0.2273982614278793,-0.5808274149894714,-3.2981295585632324
1789224572632827400,4.999439697265625,-9.120051299151775,-1.2015215691298249,-1.0314067022696136,-0.7436105548154562,9.054352792316674,3.692711192876101,0.2288524806499481,-0.5811963677406311,-2.2690179347991943
1789224572642865200,5.0094775390625,-13.108189791947602,0.2389958031237125,-0.98278354113698,-0.895346007637307,9.04182765726447,3.68972779315114,-0.0078511293977499,0.2421039193868637,-0.9983733892440796
1789224572652903400,5.019515625,-11.969698971748352,1.3924497991770506,0.1726461389034986,-0.9347481898296623,9.038786389872431,3.6874049031615255,0.0371491648256778,0.0702219605445861,0.1283073127269745
1789224572662941200,5.029553466796875,-7.062791437086463,1.172253389069438,-2.32242617149502,-0.8917940873093902,9.041410308635234,3.691609661374986,-0.1819488257169723,0.2862538695335388,0.8583450317382812
1789224572672978400,5.0395908203125,-4.225738457646965,1.2675725426644089,-0.5391553922623396,-0.8038808260567486,9.04305807584226,3.7077319441363215,-0.2304884791374206,0.0649621561169624,1.213062047958374
1789224572683016200,5.04962841796875,-4.346028970891237,0.2819482251435518,-2.035886234647036,-0.6832910376049578,9.041372314712405,3.7359190509617326,-0.4198970198631286,0.1710329353809356,1.5704540014266968
1789224572693054200,5.05966650390625,-4.4987128104791045,0.2900134581774473,-2.0799428185164928,-0.5306069057561457,9.03330708167851,3.779975342570245,-0.5599217414855957,0.1879725605249405,1.966280937194824
1789224572703092200,5.06970458984375,-3.2257711419969795,-0.8232692710071802,0.93878774754405,-0.3403921212079003,9.0205668425709,3.8319586277857423,-0.5622192621231079,0.0938812121748924,2.3348217010498047
1789224572713130200,5.079742431640625,1.0301694155596195,-2.15667476054132,3.713241355207562,-0.130697788492823,9.010525925549864,3.868298061406612,-0.2340148240327835,0.1095988005399704,2.283738851547241
1789224572723168300,5.089780517578125,0.8425547670397907,-2.153844505551457,3.7048683713987463,0.0569168782933149,9.007695086038112,3.876669876171648,0.0106652341783046,0.2219181507825851,2.025721549987793
1789224572733205200,5.099817626953125,0.8039567408371716,0.1690817244201898,0.0584551115781068,0.2246521474074572,9.004152298864721,3.878809226287901,-0.0610319711267948,0.0582670979201793,1.809470534324646
1789224572743243300,5.10985546875,3.42797479929626,-1.5840683495759964,0.5706979469954967,0.3693788174457847,8.997713790249824,3.882666486237943,0.0073763830587267,-0.1562105864286422,1.406084418296814
1789224572753281300,5.1198935546875,5.297969629997015,-1.244328445199132,-1.5719477036714553,0.4801365823868662,8.993910306313634,3.879359261386096,-0.0402735061943531,-0.1441345512866974,0.8414446711540222
1789224572763319600,5.129931884765625,5.235062799707055,-1.2353893519401549,-1.5843462897345422,0.5430434492094441,8.984970628532766,3.891758139710128,-0.2331942170858383,-0.1016701757907867,0.4827166199684143
1789224572773357300,5.1399697265625,2.0055289441756905,-1.092872978362441,-0.3618687340766191,0.5805080509353429,8.97219064193666,3.915762115631997,-0.2975530922412872,-0.0584245696663856,0.3107467889785766
1789224572783395600,5.1500078125,2.773111253143847,-0.5588689775139093,-0.8549161628976464,0.6013662396447733,8.958027092027663,3.944932388275861,-0.3550422191619873,0.0274336170405149,0.1248312592506408
1789224572793433300,5.160045654296875,1.06389026417993,0.1278325991868972,0.074790452568233,0.6042697060013189,8.943198356208205,3.977994115400314,-0.3672254681587219,0.0592972040176391,0.0264097675681114
1789224572803470300,5.17008251953125,-0.3311706673435867,0.3651549161404371,0.8454214815825224,0.6053068304967135,8.929285566189884,4.008972021988034,-0.3116365075111389,0.0538505092263221,0.0470228977501392
1789224572813508600,5.180120849609375,-0.1363390731822699,0.9203139332205056,0.5340846648693084,0.6079969828961417,8.917461857405304,4.03480058298856,-0.2586980760097503,0.0711095184087753,0.0618110001087188
1789224572823546400,5.19015869140625,0.1406700881239026,0.9463725035846232,0.9798232300266624,0.6099120227372273,8.90801130749285,4.055331914363801,-0.1838097274303436,0.0787637084722518,0.0568985342979431
1789224572833584600,5.200197021484375,0.9080914343766868,1.079237836241722,0.7576800697654485,0.6116280328748748,8.901440696930885,4.06947938992083,-0.1331133097410202,0.0416090860962867,0.0343820564448833
1789224572843622400,5.210234619140625,1.4536289288915694,0.9814636907100676,0.2046644944548606,0.6118189523370936,8.895964895868302,4.081405682297051,-0.1284144222736358,0.0129340346902608,-0.0029703767504543
1789224572853660700,5.22027294921875,1.3032146416708823,0.8614093243092298,0.2927548658400773,0.6105006728127599,8.891221500733494,4.09192590726763,-0.1077754646539688,-0.0247702002525329,-0.0291031785309314
1789224572863697400,5.230309814453125,0.5785193978687748,0.8935352318882942,0.0873392607569694,0.6091541901072487,8.887676375472545,4.099820167648792,-0.0763807892799377,-0.0626930817961692,-0.03409393876791
1789224572873735400,5.24034765625,-0.2575578802525997,0.2318476849347353,-1.6545856548696756,0.6127975515782833,8.882728397676349,4.109988802702724,-0.1682488620281219,-0.0323601439595222,0.0103167165070772
1789224572883773400,5.2503857421875,0.2186003730878233,-0.2282107897371053,0.8181786698698997,0.6136840520892292,8.878162112674117,4.119712324337661,-0.0528668761253356,0.0039512584917247,-0.0122429206967353
1789224572893811500,5.260423828125,0.0837519768547266,-0.1110451305150985,0.80260525316298,0.6126615041084588,8.877115233969688,4.122117924174666,-0.0145047940313816,-0.009067540988326,-0.0235504508018493
1789224572903849500,5.270461669921875,0.4748996315814554,-0.2228951476722955,0.4437231336817145,0.6098232850078493,8.87763428940773,4.121420297299325,0.027224276214838,-0.0095596928149461,-0.0524121932685375
1789224572913887500,5.280499755859375,0.4238028834095224,0.0439496163636446,0.0279062440574169,0.6049557520367205,8.879091502478719,4.119000961197912,0.0220660157501697,-0.0125554809346795,-0.0685610026121139
1789224572923924500,5.290536865234375,0.9731725399658084,0.2113420725226402,0.2787991134628653,0.598321538186632,8.88048850979507,4.116954842323064,0.0222833305597305,-0.0360426977276802,-0.1031157821416854
1789224572933962500,5.30057470703125,0.8655101837567984,0.4996884742707014,0.4466466199129819,0.5906133749620989,8.882439643862844,4.113858045351505,0.0415886975824832,-0.0792023465037345,-0.1285569816827774
1789224572944000500,5.31061279296875,0.1793532718593254,0.7515408363580703,0.0874222628653049,0.5837985438480973,8.885270483374596,4.108715421766043,0.0602593198418617,-0.128696396946907,-0.1164489239454269
1789224572954038300,5.320650634765625,-0.0844772589219734,0.681607468432188,-0.0833177501559257,0.5784310619981959,8.889213668042421,4.100937773501872,0.0978940725326538,-0.1284526586532592,-0.1120127141475677
1789224572964076500,5.33068896484375,-0.5265448804816231,0.7840741556942462,0.0863642782449722,0.5742794587440788,8.894786499738693,4.089422984535992,0.1437446475028991,-0.1143586710095405,-0.0918600410223007
1789224572974114300,5.3407265625,-0.5237191555364057,0.7770400192737579,0.1013008583530783,0.5714534415379167,8.901818882593512,4.074485819905996,0.1751165241003036,-0.0992719456553459,-0.0704529210925102
1789224572984152600,5.350764892578125,-0.3210778374722227,0.5338368275880814,0.4482786050289869,0.5696260069150477,8.909642708086967,4.057608919385076,0.1934468001127243,-0.0860184580087661,-0.057594645768404
1789224572994189600,5.3608017578125,-0.156976056889072,0.4152747455716133,0.5396463906496763,0.5678809533460065,8.918221151340008,4.038964716930687,0.2115810513496399,-0.0717359855771064,-0.0542208105325698
1789224573004227300,5.370839599609375,-0.1313735962620004,0.2883352958321571,0.3178010442912578,0.5656218858402222,8.927246169316769,4.019294970820844,0.2198216766119003,-0.0522927790880203,-0.055823765695095
1789224573014265600,5.3808779296875,-0.2097324088362976,0.2631675368279219,0.1887742668837309,0.5621290022231639,8.936851617529987,3.998384869261086,0.240448772907257,-0.0377275496721267,-0.0645079687237739
1789224573024303400,5.390915771484375,-0.1825965280968695,0.188669637465477,-0.3690805651515722,0.5568401751000434,8.946855709671974,3.9766941387176513,0.2372934520244598,-0.0121239218860864,-0.0797212719917297
1789224573034341600,5.400953857421875,-0.09385985816475,0.0617903934806585,-0.3328834626108408,0.5489077746655792,8.957017622724175,3.954861369355023,0.2515926361083984,0.0057749911211431,-0.0989815443754196
1789224573044379400,5.41099169921875,-0.0296293780555948,0.1581593483895063,-0.0471779307603836,0.5392950564613566,8.968088467314839,3.9310213518232096,0.2795206606388092,-0.0045394315384328,-0.1093859821557998
1789224573054416400,5.42102880859375,-0.085278748030588,0.2611813314467668,0.1586909710481762,0.5308994224293158,8.980137217026948,3.9045685214444994,0.3054878115653991,-0.0391996130347251,-0.0923077389597892
1789224573064454700,5.43106689453125,0.2075831218479201,0.2063625305444002,-0.1099891917213797,0.5260900128535926,8.992758213669061,3.8760684031471606,0.3117726147174835,-0.0875128209590911,-0.0765777826309204
1789224573074492400,5.441104736328125,0.0866715175632387,0.2491279055595398,-1.0238000266581773,0.5245982399258762,9.004163404780625,3.849706465922296,0.2378661781549453,-0.1823408007621765,-0.0524091273546218
1789224573084530400,5.451142822265625,-0.1104386890545487,-0.1027507649004459,-1.1063535144433378,0.5280771680828183,9.011125645008685,3.832899708028137,0.1459269225597381,-0.1215157881379127,-0.0085114426910877
1789224573094568400,5.4611806640625,-0.168560184764117,-0.1905342622935771,0.784829942497611,0.5342745614182204,9.01840469610095,3.814880359473824,0.2280619293451309,-0.1784489750862121,0.0203969962894916
1789224573104606500,5.47121875,-0.4631083637617528,-0.2242237659275531,-0.381488795825839,0.5454090823622421,9.026805444699525,3.793375799152255,0.2148108333349228,-0.1978639513254165,0.067280612885952
1789224573114644500,5.4812568359375,-0.0241083496117964,-0.7029553768873215,-1.2191378898411989,0.5590628926508129,9.03388049765229,3.774500126029551,0.1772879511117935,-0.1427708715200424,0.0817702785134315
1789224573124681500,5.491293701171875,0.4247598188081756,-0.7790110270857811,-1.8071102122426037,0.5695820581754669,9.038258566606045,3.762424196049571,0.0760023444890976,-0.0922816023230552,0.0453408993780612
1789224573134719500,5.501331787109375,0.7176462386060506,-0.9776227973729372,-1.0210413755998016,0.5723794703416526,9.03964739061594,3.7586610441237687,0.0076274783350527,-0.0378061234951019,-0.0345107801258564
1789224573144757500,5.511369873046875,-0.1269545377107337,-0.6414104826003313,-0.1019511389553546,0.5697323168337345,9.039822162660956,3.7586458465546366,-0.0123065486550331,-0.0438938401639461,-0.0415415242314338
1789224573154795500,5.52140771484375,-0.5053219866456463,-0.5975000292032957,0.2216355030000209,0.5677207943482324,9.039603551474212,3.7594726527675983,-0.0088591147214174,-0.0514487586915493,-0.0224199518561363
1789224573164833500,5.53144580078125,-0.1012942824818193,-0.5072615398734808,-0.7591828755438327,0.5692111059712246,9.038849518236518,3.7610628445684906,-0.0409917496144771,-0.0475975610315799,-0.0124030048027634
1789224573174871600,5.54148388671875,-0.4216632775649428,-0.3049830637723207,-1.068171083304286,0.5686074044570326,9.036337243154644,3.767184834580123,-0.0969515144824981,-0.0058400630950927,-0.015628270804882
1789224573184909600,5.55152197265625,-0.5772362992556765,-0.0112689975112676,-0.3534510343432426,0.5690062310488895,9.03202230256498,3.7774583913132544,-0.1231945678591728,-0.0087021626532077,0.0072754453867673
1789224573194946600,5.561558837890625,-0.2589533531989902,0.3451034772366285,0.3231482505381107,0.567805221228674,9.027745940420033,3.787845345292985,-0.0921568349003791,0.0329096056520938,-0.0124038914218544
1789224573204984300,5.5715966796875,-0.6722374364100396,0.5085831438660622,0.5624123492091894,0.5670423470973969,9.025278673523664,3.793838448227942,-0.0376935936510562,0.0160155780613422,0.0145912403240799
1789224573215022600,5.581635009765625,-0.1724207326497882,0.7380600080162286,-0.1730345536991953,0.5671646583028137,9.02414703914523,3.796508836480975,-0.0204388909041881,0.0496520139276981,0.0158578716218471
1789224573225060400,5.591672607421875,-0.1724791117735207,0.7388637256145477,-0.1749333730578422,0.5672230739591643,9.0233439060688,3.798408240361512,-0.0153543837368488,0.0522488616406917,0.0323984995484352
1789224573235098400,5.601710693359375,-0.0848949728773906,0.7071656880587339,0.2028676741659641,0.568523671696335,9.022869858816266,3.799339383731782,0.0042118392884731,0.0598992109298706,0.0382857024669647
1789224573245136400,5.611748779296875,0.032811661353521,0.554878446573019,0.6066998192250729,0.5693300927083939,9.023873482900855,3.79683558421731,0.0592961274087429,0.052846360951662,0.029231222346425
1789224573255173400,5.62178564453125,-0.0317654767688363,0.4122779018431902,0.1695236229687929,0.5700120105579495,9.026562868115306,3.7903362853258846,0.0859727934002876,0.0449815765023231,0.0251589678227901
1789224573265211600,5.631823974609375,-0.0317841084040701,0.4090589397966861,0.1772042405992746,0.5700304960627108,9.02978183016181,3.782655375434458,0.0858231261372566,0.0509057790040969,0.0167846567928791
1789224573275249400,5.64186181640625,-0.0620594927456229,-0.0348544557601213,-0.5617851572215556,0.5694805705623701,9.032413932231067,3.776449798792601,0.0557280629873275,0.0560305528342723,0.0176236126571893
1789224573285287400,5.651899658203125,-0.0614225465489551,-0.036568858462572,-0.5577800132334232,0.5688436974309384,9.034128334933518,3.772444362543523,0.0429938957095146,0.0603941418230533,0.0181107055395841
1789224573295325400,5.661937744140625,0.0896583513543009,-0.3289817789971828,-0.0786526809543371,0.5684479395790025,9.035646922802924,3.768866211795807,0.0421339757740497,0.052860327064991,0.0218823365867137
1789224573305363500,5.671975830078125,0.1862855553405359,-0.4062234241098165,-0.3076005527943372,0.5687859758943319,9.036872665205598,3.765875505547225,0.0277204178273677,0.0471704863011837,0.0252701453864574
1789224573315401500,5.682013671875,0.2621513089900836,-0.4580307682365179,-0.4880746088445186,0.5693848551029339,9.03720350459516,3.764988493579626,-0.005143862683326,0.0369480848312377,0.0233458373695611
1789224573325438500,5.69205078125,0.2812703624146059,-0.4001140013188123,-0.3967983008995652,0.5698682181730866,9.036298080188036,3.7670854658588766,-0.0357473120093345,0.0326321683824062,0.0156596880406141
1789224573335476500,5.7020888671875,0.2920434296350926,-0.2655968098014593,-0.0466857633292675,0.5698691680211574,9.034659665331244,3.771016083306074,-0.0442383177578449,0.0252011399716138,0.0074159456416964
1789224573345514500,5.712126708984375,0.2324062321329489,-0.0746808547139167,0.0861383605346083,0.5695016133503988,9.033034694477916,3.774960729278624,-0.0414161682128906,0.0142195951193571,0.0001231455244123
1789224573355552500,5.722164794921875,0.2328818137554451,-0.0731371324032545,0.0823740395650267,0.5690260682605207,9.031490972167251,3.778724465726316,-0.0385621637105941,0.0042832130566239,-0.0032662961166352
1789224573365590500,5.732202880859375,0.2384793049689382,0.2217114908456802,0.105924718761444,0.5685162921074778,9.030231912016868,3.7818095722600815,-0.0304043721407651,-0.0038029428105801,-0.0077601140365004
1789224573375628500,5.742240966796875,0.2092281491085887,0.333858445122838,0.2226283134296536,0.5678398176180198,9.029265112811329,3.7842178024455904,-0.0215783882886171,-0.0089598875492811,-0.012312788516283
1789224573385666300,5.752278564453125,0.2126678777663037,0.3947790700316428,0.5340075079798698,0.5667944002183154,9.028948301947116,3.78513199468106,0.0034772874787449,-0.0142306853085756,-0.0197982992976903
