time,seconds_elapsed,acc_x,acc_y,acc_z,grav_x,grav_y,grav_z,gyro_x,gyro_y,gyro_z
1789064040750730800,0.0,0.8266087906934321,2.004158386474848,0.3831581903427839,0.4966365393541753,6.380934377807378,7.430169289973378,0.249258205294609,0.1669297516345977,0.0784747600555419
1789064040760767700,0.01003710937500002,-0.2469624346213415,1.619073027461767,0.2207534594684839,0.49416364643462,6.401053621250391,7.413008896335959,0.3138655424118042,0.0562862195074558,0.1461151242256164
1789064040770805000,0.02007421875000004,-0.4484396042769774,0.4942641111344099,0.5783148517400026,0.503805590733327,6.424230498698353,7.392281750127672,0.3048470020294189,0.0330381542444229,0.1760567724704742
1789064040780841700,0.03011108398437501,-0.113560364739038,0.5495107820600271,-3.04835238186419,0.5060597263356671,6.440660239973664,7.377817171445488,0.1666024029254913,0.2054868042469024,0.1928975731134414
1789064040790878700,0.04014794921874998,-0.8223487951613963,0.4337923990368842,-3.1482161931514736,0.502573235926777,6.449088461101055,7.37068951152265,0.09673622995615,0.1931326687335968,0.162465900182724
1789064040800915700,0.05018505859375,-0.8269229712091386,-0.682675974446535,-1.8461112662881607,0.4983188298853114,6.454497626668214,7.366242468985915,0.0671602264046669,0.2377503365278244,0.1935533136129379
1789064040810953000,0.06022216796875002,-0.8908641129828989,-0.9133125300258398,-2.4780846429795025,0.4919302248267456,6.454242775124311,7.366894210892915,-0.0481085740029811,0.325926810503006,0.2605073153972626
1789064040820990000,0.07025927734375004,-1.0353621618971227,-0.5552864428520202,-1.7843956916093826,0.4893346553755924,6.447566366100311,7.372911863747238,-0.0748079344630241,0.2295998632907867,0.3160789310932159
1789064040831026700,0.08029589843750018,-0.4839577115776017,-0.742415865138173,-0.914684402900934,0.496527270293422,6.441214366725087,7.37798142209649,-0.0651193484663963,0.1671058535575866,0.327766478061676
1789064040841063700,0.09033300781249998,0.6195201378315687,-0.5055114813357592,-1.7661591931730507,0.5026122527629137,6.432806603863835,7.38490157674849,-0.1214585900306701,0.2196371257305145,0.2987766563892364
1789064040851101000,0.1003701171875,0.7683429180771112,-0.0684440061509609,-1.225088907200098,0.5032772925429045,6.420859560960531,7.395245860630274,-0.1557595580816269,0.1885433793067932,0.2000766992568969
1789064040861138000,0.11040722656250002,0.6575966974433511,-0.2989034515976905,0.3142641023367643,0.500448718053475,6.409205363523959,7.405539875629544,-0.1310342699289322,0.1928966343402862,0.1387628614902496
1789064040871174000,0.12044311523437501,-0.0690356884337961,0.0266050983309745,0.3504565287023782,0.4938568089751526,6.39913288232088,7.414687643203139,-0.1281514018774032,0.1930974274873733,0.1220826879143714
1789064040881211000,0.13048022460937503,-1.1288679824598131,0.9581015198230742,0.1002139398992061,0.4900650520093739,6.3879071394294495,7.424611655846237,-0.1533212214708328,0.1585212796926498,0.1604458838701248
1789064040891247900,0.14051708984375,-1.4560595170393584,1.4822791231840848,-0.1814928777039051,0.4902985685043036,6.375939638260006,7.434875860229134,-0.1286464929580688,0.1622896492481231,0.2242578864097595
1789064040901284600,0.15055395507812497,-1.3835866937637329,1.6010229915082457,-0.1462304256647825,0.4930931676588952,6.367627736988664,7.441811212450266,-0.0636597648262977,0.1999502032995224,0.2800361812114715
1789064040911321900,0.160591064453125,-0.9752719964630902,1.6280208885490894,0.5987520750910044,0.4970302148468792,6.3642737503856415,7.444418764600157,0.0171831473708152,0.1963133960962295,0.3056102693080902
1789064040921358800,0.170628173828125,-0.6415222724117339,1.49784201849699,0.642067485204339,0.5020601353054865,6.367110435116291,7.441655145105719,0.0947033762931823,0.1855152398347854,0.2962341606616974
1789064040931395800,0.18066503906249998,-0.1665659422069788,1.5666642103105783,-0.2272083346962928,0.5059439910015091,6.373406320390105,7.435999895823001,0.108523316681385,0.2190857082605362,0.2800935506820678
1789064040941432800,0.1907021484375,0.0966285556931048,1.391878136768937,-0.6461234825968742,0.5052138135634362,6.379999727305769,7.430393161857127,0.1047381907701492,0.2366136014461517,0.2494773417711258
1789064040951469800,0.20073901367187497,0.0663879504039883,1.0319207892715931,-0.3384609704822302,0.5044794714068994,6.385465591496229,7.425746797356009,0.0798964947462081,0.2013978213071823,0.2209471762180328
1789064040961506800,0.21077612304687499,0.1377211021251976,0.7338245624035596,-0.4515852453589439,0.504074543867819,6.389673564580082,7.4221537413001055,0.0746346265077591,0.1820144951343536,0.2170764952898025
1789064040971543800,0.22081298828125018,-0.0628056349378079,0.8841495639055967,-1.4966455021888017,0.5043862401654944,6.394522758176922,7.417955120566487,0.0538494549691677,0.2217544466257095,0.236184149980545
1789064040981580800,0.23085009765624998,-0.5713073110654949,1.1551438488364218,-2.0406664546608924,0.5071127790525556,6.395419999277592,7.416995920145511,0.0173692721873521,0.1425959467887878,0.2614103257656097
1789064040991617800,0.24088696289062517,-0.6208608849160373,1.1316788020968436,-2.3090578636169434,0.5125232963265851,6.3931467936486,7.418582897076011,-0.0476874932646751,0.2144664227962494,0.3023724257946014
1789064041001654800,0.25092407226562496,-0.2136819136470556,1.0918553257524966,-1.735733075249195,0.516548350591585,6.388378264072537,7.422410346409678,-0.0380882620811462,0.2172500342130661,0.3059548139572143
1789064041011691800,0.260961181640625,0.2746989481350407,0.8421861529231071,-1.127733863863349,0.5176321272403002,6.385010833466053,7.425232418093085,-0.0120505355298519,0.2372602373361587,0.2790331840515136
1789064041021728800,0.2709980468750002,0.5822068542098626,1.1120797831356524,-0.843641027906537,0.5182280473068356,6.382967929461598,7.426946820795536,-0.0143670542165637,0.2021407335996627,0.2223307341337204
1789064041031765800,0.28103515625,0.7488168182216585,1.2387094362735749,-1.02123982078135,0.5147230348605663,6.38083734717369,7.4290212889820335,-0.0033564805053174,0.228157952427864,0.1878720819950103
1789064041041803000,0.291072265625,0.3693244569100439,1.055093575066328,-0.2368120293438434,0.5118914281638339,6.381446418982744,7.428694541245698,0.0371138155460357,0.160391628742218,0.1702693253755569
1789064041051839700,0.3011091308593752,-0.1016795920049771,1.1480904231935738,-0.4694511569172143,0.5115370252355933,6.383619086846709,7.426851543727516,0.0402712598443031,0.1533632725477218,0.1883990615606308
1789064041061876700,0.31114599609375015,-0.4827313846530393,1.4969213965207335,-0.8843944785773754,0.513407056891173,6.384340971380472,7.426101602143048,0.0124745806679129,0.1416402906179428,0.1961322724819183
1789064041071913700,0.3211831054687502,-0.5843681604295968,1.2138286775171756,-0.5126783042252063,0.5150859864214435,6.385965942233801,7.424588274970651,0.0671356990933418,0.1649200469255447,0.2069931626319885
1789064041081951000,0.33122021484374997,-0.6473910913798958,0.6871288622021675,0.2218248880922794,0.515859710740298,6.393123997294903,7.418371884673833,0.1463952362537384,0.16472028195858,0.2098102569580078
1789064041091988000,0.34125732421875,-1.0280997696787118,1.0367518626898526,-0.6467319698840379,0.5169378248332068,6.402331970623135,7.4103516598254435,0.1155505031347274,0.1989485621452331,0.2306449711322784
1789064041102024700,0.35129394531250013,-1.4274883793324231,1.159058391931653,-1.351183722808957,0.5166442121814936,6.408114645677805,7.405371533325314,0.0906842350959777,0.2451739907264709,0.2767288386821747
1789064041112061700,0.36133105468750015,-1.6699338845185934,0.4028682684630155,-0.2220347314506769,0.5177242990357801,6.414919649517536,7.399402395787835,0.1369217783212661,0.2306240797042846,0.3184081017971039
1789064041122099000,0.3713681640625002,-1.8126076406151053,0.0717535690903663,0.0779623606026172,0.5218337436486036,6.423865172517299,7.3913482686698435,0.1410741657018661,0.2697876691818237,0.3694047927856445
1789064041132136000,0.38140527343749997,-2.071157600644976,0.1235936464428901,-0.3025005993068218,0.5264486900981515,6.431131948649883,7.384698747652768,0.1135578602552414,0.27708899974823,0.4073886573314667
1789064041142173000,0.39144213867187516,-2.0295812892839318,-0.3440869936704635,-0.0859995365858077,0.5321577153947205,6.437330218768119,7.378886846503615,0.1185807436704635,0.3232048153877258,0.4509548246860504
1789064041152209000,0.401478271484375,-2.1671786188989874,-0.4561369173139333,-0.4885685298413038,0.5400192425500602,6.443137443742156,7.37324504122436,0.100835308432579,0.2887808084487915,0.4867032170295715
1789064041162245600,0.4115148925781251,-2.373437689068913,-0.1039133789390325,-1.3710136279165743,0.5499539227176458,6.444657200655341,7.371182847997546,0.0138833932578563,0.3375352323055267,0.5392648577690125
1789064041172282600,0.42155200195312514,-2.29057688890025,-0.4874935940861701,-0.7004267351925373,0.5604669872950763,6.441424210083484,7.373216399651765,-0.0127799091860651,0.3630869388580322,0.5786527395248413
1789064041182319900,0.43158911132812516,-2.3801906704604625,-0.8087801424056291,0.2166466086715459,0.5709223303359001,6.436500197684764,7.37671359411776,-0.027342140674591,0.3869247734546661,0.6182665228843689
1789064041192356900,0.44162622070312496,-2.540942081169784,-0.7237567573755979,0.5913982051968574,0.5832333111807704,6.430486636483669,7.380994047915935,-0.0368538871407508,0.4123068153858185,0.6730722188949585
1789064041202393900,0.45166308593750015,-2.820959630511701,-0.3134305741220712,-0.3306605258643627,0.5968959988955408,6.422535385218263,7.38682173115611,-0.0708162784576416,0.450235366821289,0.7471697330474854
1789064041212430600,0.4616999511718749,-2.9807866198524837,0.3532178101092577,-1.0789970132231712,0.6120234619332477,6.410252242228388,7.396247731149196,-0.1328082829713821,0.5010871291160583,0.8237515687942505
1789064041222467800,0.47173706054687514,-2.7299013492316004,0.1762801114916801,0.0422194315701723,0.6291391761787235,6.394905620014667,7.408087222024798,-0.1219077929854393,0.5207526683807373,0.8866584300994873
1789064041232504800,0.48177416992187494,-2.0776123297423124,-0.1325602122306823,1.4734259546428918,0.6496205309323966,6.382174733257293,7.417292272743582,-0.0585847459733486,0.4907518923282623,0.9277877807617188
1789064041242541800,0.49181103515625013,-1.463824305821955,0.3054816609442234,0.7133002452909946,0.6732888451591134,6.373143285539746,7.4229445994168515,-0.0302018448710441,0.4883653819561004,0.9406805038452148
1789064041252578800,0.5018481445312499,-1.0882909843344242,1.079741694110632,-0.8807710273832082,0.6951929992575198,6.363831267315149,7.428912567910552,-0.0406893715262413,0.5307902693748474,0.9355746507644652
1789064041262615800,0.5118850097656251,-0.5961306405462324,0.6701070002526044,-0.4677653957873582,0.7140449992436915,6.354929583457112,7.434742589238286,-0.0314588882029056,0.5505563616752625,0.902236819267273
1789064041272652800,0.5219221191406249,-0.4371351335935294,0.8182400446683168,-0.1657002652883529,0.7293773737363517,6.345061684915423,7.4416791105031965,-0.0536137223243713,0.541766881942749,0.8744823932647705
1789064041282689800,0.5319589843750001,-0.3434430697437375,0.7196440613597631,0.1377870069682598,0.7447711960926652,6.335918593516945,7.447941678029299,-0.017753692343831,0.5255022048950195,0.8661660552024841
1789064041292726800,0.5419960937499999,-0.1320642454072833,0.9393611635178328,-0.3181061647176742,0.7624874700471759,6.328237975886464,7.452677474379539,-0.0169139970093965,0.4577961564064026,0.8597827553749084
1789064041302763800,0.5520329589843751,0.7368306123517453,1.4115613268822431,-1.2642822689473627,0.7825896892901509,6.319764746573567,7.457782688564062,-0.0395093895494937,0.4421164691448211,0.8053207397460938
1789064041312800800,0.5620700683593749,2.063862621331215,1.3434557589054106,-1.465812557029724,0.7979566236395388,6.31080694861412,7.463736628532409,-0.0292152035981416,0.4269444346427917,0.7223361134529114
1789064041322837800,0.5721069335937501,2.9584023540869357,1.0596522612839936,-0.7487637728601694,0.8097717837914824,6.30521132056415,7.467192906466126,0.0130927003920078,0.3717097043991089,0.5984776020050049
1789064041332874800,0.5821440429687499,3.5234561577156183,1.1618331173419951,-0.4071709340929985,0.8172314521476626,6.304035262522101,7.46737235468626,0.0518606044352054,0.2931105196475982,0.4489717185497284
1789064041342911700,0.5921811523437501,3.8007936741933226,0.970849357715249,-0.8339829727232456,0.8204644427195191,6.304979849895835,7.466220846563577,0.0709924548864364,0.3239074945449829,0.330146849155426
1789064041352949000,0.6022182617187499,3.5097295379191635,1.1086685133874417,-1.1341092441141605,0.8156950363606214,6.307071853739023,7.464976399460435,0.052915446460247,0.2236407846212387,0.2245895266532898
1789064041362985700,0.6122551269531251,3.112925684061646,0.9332143313258886,-0.9740437698423862,0.8108714886616915,6.3102931538730855,7.462779181677103,0.0535065382719039,0.2885876595973968,0.1819482445716858
1789064041373022700,0.6222919921874999,2.8290733788624403,0.8586363524645566,-0.8008733148038387,0.8039780028209089,6.311399069288373,7.462589796584844,0.033817782998085,0.1558061838150024,0.1352326720952987
1789064041383059700,0.6323291015625001,2.846249262329936,0.7631400887370109,-0.6309662454754114,0.7966779820058494,6.311874870106577,7.46296973581314,0.003552159294486,0.2243066430091858,0.0957787260413169
1789064041393097000,0.6423662109374999,2.650413971018791,0.8372562953054904,-0.5585808082222938,0.7881085257768631,6.312727687543631,7.463159120905399,0.0321065708994865,0.1324393153190612,0.0318615287542343
1789064041403134000,0.6524033203125001,2.569783852511644,0.7579109559118747,-0.6492325545281171,0.7761128944914788,6.315308351686596,7.462232069188356,0.044967845082283,0.1760337799787521,-0.0160439554601907
1789064041413170000,0.6624392089843751,1.9805647449195385,0.9725193367540836,-1.1147656612187624,0.7621429674584418,6.319470732063055,7.460148248651623,0.0446123108267784,0.1536360532045364,-0.0668354928493499
1789064041423207000,0.6724763183593749,1.38043056782037,1.19168289668262,-1.4134797277241944,0.7448722453143447,6.322368791592121,7.459437470033764,0.0243374705314636,0.1625348776578903,-0.0980336368083953
1789064041433243600,0.6825129394531251,0.9325593745484948,0.6335638607531786,-0.5120101957052946,0.7240784636106342,6.3260810901135205,7.458337399837374,0.0581979639828205,0.1974417269229889,-0.1077547073364257
1789064041443280600,0.6925500488281249,0.0564397531677037,0.4064303448587655,0.2728255920112133,0.7056645627807825,6.332200449776649,7.454909178954362,0.0749511048197746,0.1066469550132751,-0.1189000979065895
1789064041453318000,0.7025871582031251,-0.4774577185664325,0.6123334411978721,-0.1564665729969739,0.6905417393855751,6.337585065424442,7.451748669096827,0.0526165068149566,0.1024596691131591,-0.1127119809389114
1789064041463355000,0.7126242675781249,-0.8935866698145866,0.673694211089611,-1.076762970560789,0.674966130721569,6.341167015564442,7.450127789896726,0.0175248999148607,0.161964938044548,-0.0757829993963241
1789064041473391900,0.7226611328125001,-1.6017705950051546,0.8925473898947238,-0.8478308808118105,0.6596522417336702,6.341532341745496,7.451188697126507,-0.0033489558845758,0.1342707276344299,-0.0473913103342056
1789064041483428600,0.7326979980468749,-1.6004872771963476,0.2344084753334522,0.3290525061458349,0.6480437100697308,6.343061451008915,7.450905204010009,0.0368456020951271,0.1114123463630676,-0.0321448147296905
1789064041493465900,0.7427351074218751,-1.2820035113379358,0.6610089170396327,-0.4755237548291683,0.6379631916906684,6.346220791822671,7.449085002845525,0.0269596837460994,0.1133820265531539,-0.0383161567151546
1789064041503502800,0.7527722167968749,-0.5673884571213275,0.9792296480476856,-1.5253011033087969,0.6232032833237201,6.34672815682292,7.449902748969197,-0.0269149672240018,0.1743886619806289,-0.0845368728041648
1789064041513539800,0.7628090820312501,-0.0029869433889165,0.7056471001893282,-0.1719295150667429,0.604081197691895,6.346174614593386,7.4519485755831,-0.0046256398782134,0.1154398694634437,-0.1394403278827667
1789064041523576800,0.7728461914062499,0.7519337811984121,0.1766302401036024,0.8595470375686883,0.587173025249876,6.348317471840978,7.451475112852454,0.0246814787387847,0.0826401114463806,-0.1957840472459793
1789064041533613800,0.7828830566406251,1.081266273329407,1.0008061045616865,-0.5237731142133474,0.566991822486557,6.349542045199871,7.451994168290495,-0.0214878804981708,0.055978674441576,-0.2290213704109192
1789064041543650800,0.7929201660156249,1.3133812308982014,0.5893219834446907,0.9191893131047488,0.5521508117074146,6.352965005385875,7.450191502782702,0.0846148505806922,-0.0829672291874885,-0.2848430871963501
1789064041553687800,0.8029570312500001,1.8250082725048065,0.6203969206660985,-0.8144821534395218,0.538667243419215,6.3616936707645655,7.443727275204658,0.0798592418432235,-0.0325751602649688,-0.3074959218502044
1789064041563724800,0.8129941406249999,1.6934610367089509,1.3965245012700558,-2.0856278784155844,0.5184821681983769,6.366375106579065,7.441157716977596,0.0174995996057987,-0.003345537232235,-0.33843794465065
1789064041573761800,0.823031005859375,1.498841112536937,0.3001829700142145,0.0999187563449144,0.4989705717923119,6.371708868822455,7.437925895449519,0.0687950104475021,-0.0730212852358818,-0.3629467785358429
1789064041583798800,0.8330681152343753,1.6006106113150715,0.223494867131114,-0.0267781168103218,0.4808484204506501,6.378216935542225,7.4335402277112,0.0490218475461006,-0.0791149139404296,-0.372236967086792
1789064041593835800,0.84310498046875,1.880860800369084,0.6095353349119425,-1.252696460571885,0.4605188221925869,6.381532928222417,7.4319807233095165,-0.0176903381943702,-0.0162185095250606,-0.3942967355251312
1789064041603872800,0.8531420898437503,2.326447682096064,0.7175532265603541,-0.6916969007700682,0.4373588593468069,6.381254695802927,7.433619138166308,-0.0232889410108327,-0.1097244396805763,-0.4567195773124695
1789064041613909800,0.863178955078125,3.223480108450353,-0.0840168383359909,0.3767062377244234,0.4149580808378755,6.383610319018364,7.432880302497744,0.0290419086813926,-0.1156108304858207,-0.533284068107605
1789064041623947000,0.8732163085937499,3.5097105409577485,0.4579617946535348,-0.3292939136862755,0.3876007393674924,6.387060167211294,7.431393278810382,-0.006823415402323,-0.1582469642162323,-0.635573148727417
1789064041633983700,0.8832529296875,3.400190135791897,0.4192021481484174,0.6041022039473056,0.3570604935446754,6.390356286147236,7.4300897949963804,0.0394143871963024,-0.206007570028305,-0.7290760278701782
1789064041644020700,0.8932900390625003,2.8741911622226235,0.0292863002389669,0.5744044002979993,0.3249111685574054,6.3982473316580055,7.424772983887792,0.0767159834504127,-0.2270211428403854,-0.79021155834198
1789064041654057700,0.903326904296875,1.6453426102280615,0.8002338478565215,-0.5692395648807287,0.2875262079389765,6.404068585157394,7.421295078644156,0.0331967398524284,-0.1574109047651291,-0.7926411628723145
1789064041664093700,0.913363037109375,0.2243021101270802,0.0042582419663667,1.2934849825561046,0.2542389832292683,6.411753294441104,7.415872469073533,0.1241498440504074,-0.2536090612411499,-0.7355438470840454
1789064041674131000,0.9234001464843753,-0.8478479780770838,0.2879296376407146,-0.3425543772757053,0.2256547851113602,6.422269427758455,7.407693838793039,0.0951448231935501,-0.1627430766820907,-0.6301023960113525
1789064041684168000,0.9334372558593751,-1.4556678873732685,0.3650619771599769,-0.2127344036638736,0.2023031721509993,6.430729213067889,7.401025028553605,0.1155639514327049,-0.2354616373777389,-0.5633355975151062
1789064041694205000,0.9434741210937503,-1.3785916619554162,-0.3370183704584836,-0.4821627544522285,0.1831368455186486,6.441185140630602,7.392427296078204,0.1152877807617187,-0.189766064286232,-0.5058661699295044
1789064041704241200,0.9535104980468749,-1.6487074104860424,0.3194242615789175,-1.7016957810908555,0.1647513487993739,6.447188180437684,7.387625448754429,0.0299143902957439,-0.1558405756950378,-0.4792300462722778
1789064041714278100,0.9635473632812501,-1.3928447898440062,-0.5199240375697612,-0.8350468025624752,0.1442686423388309,6.450361549776792,7.385283269542455,0.0371451377868652,-0.1164050325751304,-0.4744606018066406
1789064041724315400,0.973584716796875,-2.0193917575724423,-0.6721276924252509,-0.4943418525457382,0.1225855379794258,6.452329050457477,7.383956404852866,-0.0011883017141371,-0.0944432020187377,-0.4284855127334595
1789064041734352400,0.9836215820312502,-3.119037444940209,-0.4221189123779535,-0.4466472044348716,0.1032411787658929,6.45176557135582,7.384743755838275,-0.0276425462216138,-0.0608527511358261,-0.346371978521347
1789064041744389400,0.99365869140625,-4.260696081520617,-0.5015566062301398,-0.3545873448967933,0.0879018265431746,6.448603892454504,7.387704359209537,-0.0695137307047844,-0.0190260615199804,-0.2013396769762039
1789064041754426400,1.0036955566406252,-5.500599403753877,0.0392909769028425,-0.2741355055660009,0.0810247164484579,6.442112192347645,7.39344377964437,-0.0997675061225891,0.018700011074543,-0.0176177825778722
1789064041764463400,1.013732666015625,-5.867646417251229,0.0667629211962223,0.0249205062448978,0.084003202536283,6.435290237373113,7.399349788817763,-0.0800128802657127,0.0290969964116811,0.1469288021326065
1789064041774500400,1.0237695312500001,-5.322339516621828,0.4774643675029277,-0.4999491710335016,0.0929539040346629,6.429208287110924,7.404526899194717,-0.0842094868421554,0.1152689009904861,0.2865804433822632
1789064041784537300,1.033806640625,-4.287512192253768,0.8139590063482522,-0.5737842225730418,0.1024476903006434,6.4241615251153705,7.408781049507856,-0.0424091704189777,0.1765475571155548,0.3488342761993408
1789064041794574300,1.0438435058593751,-3.201463799214363,0.4613841703176498,0.0216916073262691,0.1096517490610946,6.422394515442848,7.41020962100625,-0.0012907607015222,0.2620547413825989,0.3815269768238067
1789064041804611300,1.053880615234375,-2.707609730185568,0.2943769140839576,1.137844338989258,0.1152879283171612,6.424201857125759,7.408557762145995,0.0648163184523582,0.2617068290710449,0.4040789306163788
1789064041814648300,1.0639177246093752,-2.5085066692501305,-0.2852858451336622,1.5860411109536885,0.1222358477589208,6.431351144358516,7.402240834084153,0.1355714499950409,0.2963489592075348,0.460999995470047
1789064041824685300,1.07395458984375,-2.583302090254426,-0.3618617198139429,0.9086118049889802,0.1325374341432936,6.441787198176979,7.392983176395297,0.1464516818523407,0.3076926171779632,0.5433115363121033
1789064041834722300,1.0839916992187502,-2.7985131131649017,-0.42473640139997,0.1508008023202419,0.1458872291171457,6.450193791994452,7.385397251310944,0.1099458858370781,0.365725040435791,0.652044951915741
1789064041844759300,1.094028564453125,-2.466469608509541,-1.3187298984497784,0.7603337991446256,0.1626489514263346,6.4577341243714095,7.378455469349026,0.1203270852565765,0.4221520125865936,0.7550244331359863
1789064041854796300,1.1040656738281251,-1.9799197250142693,-1.6196914516210554,0.6322405031949281,0.1815749664967879,6.464058651217818,7.372472887808084,0.0862713754177093,0.4481649696826935,0.8349429965019226
1789064041864833300,1.1141025390625,-1.323792442536354,-1.6511983505189418,-0.1564934610038995,0.205101662029419,6.467284043005108,7.369025962224602,0.0416688881814479,0.4267341196537018,0.8646296858787537
1789064041874870300,1.1241396484375001,-0.2948641678779385,-1.2959528339743611,-1.9117817160725592,0.2258811777457594,6.465183855855464,7.370262226021289,-0.0482831038534641,0.5244380235671997,0.8580173254013062
1789064041884907300,1.1341765136718749,0.7698582180108875,-1.854837593579292,-0.6244032336980104,0.2397466762899421,6.460981727990507,7.37350749155283,0.0013825471978634,0.5243312120437622,0.792026698589325
1789064041894944500,1.1442138671875002,1.0967913939151912,-2.879610849183797,1.261263797909021,0.255334048456978,6.458942331117391,7.374771227878331,-0.0362327359616756,0.3959921002388,0.6815441250801086
1789064041904981200,1.1542504882812499,1.4332612636454405,-1.795775163757801,0.3488146067142486,0.2636291995229199,6.450103191101551,7.382212191534042,-0.1442329734563827,0.4499003291130066,0.5980212688446045
1789064041915017500,1.164286865234375,1.0695879643648862,-2.109077143064141,1.3962760794669389,0.2671247317547909,6.436746281400323,7.3937360405892125,-0.1676645278930664,0.5057231187820435,0.5559148192405701
1789064041925054200,1.174323486328125,0.3002160137672908,-2.0868881076097487,2.4320693262577056,0.2673594903587363,6.425031878209114,7.403909644079208,-0.1222947835922241,0.3425530195236206,0.5660839080810547
1789064041935091200,1.184360595703125,-0.3147187142364681,-0.9733288995712996,1.6280395932495593,0.2817983866103924,6.4183420251816505,7.409173848217725,-0.0777587443590164,0.2360193729400634,0.5782929062843323
1789064041945128200,1.1943974609375,0.033028263246268,0.576534982585907,-2.463624155950546,0.3103900739150121,6.406154159259796,7.418574129247665,-0.2098962068557739,-0.0076546072959899,0.563393771648407
1789064041955165400,1.204434814453125,0.3899779533602297,3.305423355382681,-6.916928091168403,0.344293731756322,6.3803188762575385,7.439312381371855,-0.4394268691539764,0.2365708500146865,0.7362943887710571
1789064041965202400,1.2144716796875001,0.5303002509597688,2.8245652537882324,-6.191350548106431,0.3625873672073706,6.339989788478612,7.472846986705064,-0.4028196334838867,0.7585574984550476,0.6184240579605103
1789064041975239200,1.2245085449218749,8.172219828930496,-0.3806120129913091,6.610266280528903,0.34410518691428,6.31763299524188,7.492628376495838,-0.1613848954439163,0.357217788696289,0.1779726147651672
1789064041985276200,1.23454541015625,5.747851578569412,0.8050263428300619,8.463804481947422,0.3195041949473321,6.311438816776871,7.498936536729335,-0.015173690393567,0.4176185131072998,-0.0367664061486721
1789064041995313400,1.244582763671875,3.215370744013786,1.9909692345559595,6.347588573044538,0.2948284024448134,6.317209801393747,7.495086875563859,0.18266561627388,0.0748435854911804,-0.1407159715890884
1789064042005350400,1.2546196289062501,1.9174663375802337,2.7291046458959576,3.090484719672799,0.2838523782644421,6.333547188210487,7.481711261162161,0.2237873822450637,0.0805959478020668,-0.0738249644637107
1789064042015387400,1.26465673828125,0.4965976686485111,3.6599370505213735,-0.6945815162956714,0.2743353024544194,6.34827480174303,7.469573664122819,0.1859771609306335,0.1977358758449554,0.1072601377964019
1789064042025424100,1.274693359375,0.0937954511590302,2.290176053014397,1.0240589698553084,0.2719188889624551,6.367406787714362,7.453360195946693,0.3615321815013885,0.1582246720790863,0.2207387089729309
1789064042035461400,1.284730712890625,1.6670321717277168,0.0329921690195798,2.214897816929221,0.2737675490364432,6.401873705461621,7.423709154048562,0.5421832203865051,0.1433770209550857,0.1854904443025589
1789064042045498400,1.294767578125,2.962303453178704,-0.1223655659526586,0.1662199052482843,0.2710658705960028,6.440663747105002,7.39017980941236,0.4869081974029541,0.1041189432144165,0.0057095168158411
1789064042055535400,1.3048046875,3.301331117632985,-0.3289689195156097,-2.019152541989088,0.2536094531540759,6.474286030721664,7.36136463381648,0.423818439245224,0.2209677994251251,-0.1469761580228805
1789064042065572400,1.314841552734375,2.828649600492417,-1.6644295880138873,-1.4513053082495926,0.2287458647281862,6.505505344849825,7.3346069752722975,0.4082989990711212,0.1007777824997901,-0.2862735390663147
1789064042075609000,1.3248784179687503,2.143725847119093,-3.97878614256084,-1.4607155261516571,0.2009458209916017,6.5311547498911615,7.312592711862921,0.2512100636959076,0.0636104419827461,-0.3440329730510711
1789064042085646300,1.33491552734375,0.5108536095486954,-3.375806805163622,-2.463110945731401,0.176581578656286,6.541091037493944,7.304336340171099,-0.001697129337117,-0.002086421707645,-0.3342163562774658
1789064042095683300,1.3449526367187499,-0.4122435611821711,-2.7544056758910416,-2.805849447402358,0.1566626070257276,6.53499973488152,7.310240595778822,-0.166678100824356,-0.0175058580935001,-0.3061250746250152
1789064042105720300,1.354989501953125,-0.4036000898689031,-2.9966327160209416,-2.5075392855226992,0.1375444395171944,6.519250961607694,7.324672441235184,-0.2771369218826294,-0.0013097471091896,-0.3060425221920013
1789064042115757300,1.3650266113281249,-0.3750695399006828,-1.4940741903960704,-3.0708243259131907,0.1147001550244633,6.49331689440608,7.348065591782331,-0.4367026090621948,0.0988456159830093,-0.3010456562042236
1789064042125794300,1.3750634765625,-0.0587810829963069,-0.3865513399124145,-2.1535984218358992,0.0842195030349306,6.460042401313781,7.377747028818726,-0.4502551853656769,0.1720144897699356,-0.3034897148609161
1789064042135831300,1.3851005859375003,0.4065949608359485,-0.1579009897142648,-0.0766828421860933,0.0530918355458648,6.430110788908601,7.404137023094296,-0.3695166409015655,0.1317027509212494,-0.2992659509181976
1789064042145868300,1.3951376953125,0.7130622718166559,0.6765653826117515,-0.0842167448222637,0.0246511444017407,6.4042860273003575,7.426634101584553,-0.3351927697658539,0.1202262714505195,-0.2988032698631286
1789064042155905300,1.4051745605468753,0.6917161169271916,2.4428543396443128,0.5264063853263855,-0.0030838584311175,6.383220442917943,7.444788766956329,-0.2169377654790878,0.0870683193206787,-0.2954402267932892
1789064042165941200,1.4152104492187503,0.3351320452552289,2.978782002031803,2.750896790987253,-0.0226887811204767,6.373717870557308,7.452891409391165,-0.0375061519443988,-0.0629634037613868,-0.3063086271286011
1789064042175978500,1.4252478027343751,0.3913886604083701,1.8560329408437013,2.9765222404062746,-0.0391417411578819,6.376579105207323,7.450375042656064,0.1043734848499298,-0.0414879359304904,-0.3331045508384704
1789064042186015500,1.4352846679687499,-0.0450027741118101,2.361741406056285,1.8665747931241987,-0.0595939748483477,6.386970735362172,7.441333073544502,0.1685194373130798,-0.0007393220439553,-0.3477154970169067
1789064042196052200,1.445321533203125,-0.9326407692216336,2.4826024126648902,0.8368857084274292,-0.0830992942328099,6.401980672967434,7.428197697639465,0.2486251890659332,0.0534144602715969,-0.3344787955284118
1789064042206089200,1.4553583984375003,-1.3399702548772097,1.6171072803467512,0.4735363804042339,-0.1091203090655151,6.423370082476735,7.409372585660218,0.3341718316078186,0.0957002565264701,-0.2838920354843139
1789064042216126200,1.4653955078125,-1.7170017790332437,1.1296803217560052,-0.2831716294586658,-0.1305736780559644,6.448267207846045,7.387366505557298,0.3263576030731201,0.0727011933922767,-0.2110796272754669
1789064042226163500,1.475432861328125,-1.6870688514538108,0.9894096812784672,-1.791843669527769,-0.1486852258052211,6.469725006416439,7.368238026717305,0.2644426226615906,0.1053431257605552,-0.1449739784002304
1789064042236200400,1.4854697265625,-1.1024020003385842,-0.1820920126408338,-1.3577812213778495,-0.1641305682862177,6.4876709974735975,7.352113990390301,0.2284175306558609,0.0900312811136245,-0.1145068854093551
1789064042246237200,1.4955065917968753,-0.6648105012796819,-0.9441004669994116,-0.8218997362196445,-0.1757039555715397,6.503137446674704,7.338168467146158,0.1874628067016601,0.0077494075521826,-0.1251584738492965
1789064042256274200,1.50554345703125,-0.4866585315015166,-0.8308598722666501,-2.1353157461702823,-0.1846157041658647,6.512450049421191,7.329686470004916,0.0611823722720146,0.0252157505601644,-0.1443633288145065
1789064042266311400,1.5155808105468749,-0.399445344809629,-0.6087327863574028,-3.096179131922125,-0.1986560660866089,6.511486757346988,7.330175130304694,-0.0670265033841133,0.0679358094930648,-0.1620483249425888
1789064042276348400,1.52561767578125,-0.5591966750983148,-0.7553986808300018,-2.403359364601969,-0.215177851293236,6.503876282343268,7.336462247750163,-0.1275271326303482,0.0946526452898979,-0.1674609333276748
1789064042286385400,1.5356547851562499,-0.8835751250185072,-0.3994552451491355,-1.7738006478369237,-0.2343673944043926,6.49344665826559,7.345107911020517,-0.1358782798051834,0.1577529162168502,-0.1375104188919067
1789064042296422100,1.54569140625,-0.609518858701177,-0.8332844690650701,0.3489718431025743,-0.252992271103803,6.484797487863898,7.352127434393763,-0.091229036450386,0.1408572942018509,-0.099201388657093
1789064042306459400,1.5557287597656249,-0.2954699152187444,-0.2499357148110866,0.1145779808163642,-0.269711222850345,6.478451333707571,7.357126265594363,-0.077948160469532,0.1522446870803833,-0.0619291625916957
1789064042316496400,1.565765625,0.011385244302079,0.3763105164051055,-0.3801853120118379,-0.282678183385916,6.471705366578698,7.362575178650021,-0.1072155013680458,0.1376646757125854,-0.047292698174715
1789064042326533400,1.5758027343750003,0.6896076003406196,0.1338479139536619,0.7091518934398889,-0.2963599959262646,6.463225123003125,7.369483058342337,-0.1122585982084274,0.1155426204204559,-0.0418414548039436
1789064042336570400,1.585839599609375,1.0437878257412463,0.0321487039327621,2.176010160130262,-0.3054759070568718,6.455239969468116,7.376106275874376,-0.1028829365968704,0.0473057739436626,-0.0599698573350906
1789064042346607000,1.5958764648437502,1.3748061520673334,0.5325444496899843,1.4167916287511586,-0.3123791288403794,6.448797953721881,7.38145055951178,-0.0616418607532978,-0.0027687211986631,-0.1213216707110405
1789064042356644400,1.60591357421875,1.7065474589057266,0.9175240102410316,0.3755541450798511,-0.3218011102454736,6.444496457135677,7.3848016235053535,-0.050960186868906,-0.0192132070660591,-0.2033454328775406
1789064042366681300,1.6159506835937503,1.6861568511754272,1.495811389452219,-0.3573714226573705,-0.3374731284886598,6.439919650739431,7.388094235309958,-0.0427858754992485,0.0087293535470962,-0.2879209518432617
1789064042376718300,1.625987548828125,1.3642482254348691,1.4221522790014742,-0.2802472664445638,-0.3577856660140678,6.437862133687735,7.388931270655989,0.0216740760952234,-0.0193645991384983,-0.3455222249031067
1789064042386755300,1.6360246582031253,0.8842932101599872,1.61364048101902,-0.9610977790296076,-0.3803137606970965,6.440004990935325,7.385937934058904,0.0597959272563457,0.0189348757266998,-0.3585136234760284
1789064042396792300,1.6460615234375,0.4911965767899527,1.634496806564927,-1.0285445908367634,-0.4023117670914158,6.44368923240602,7.381558696061372,0.0757924690842628,-0.0404906347393989,-0.3296398818492889
1789064042406828300,1.65609765625,0.5275619485696778,1.40276427244246,-1.2036194181919098,-0.4204213512124493,6.447673333606123,7.37706898342669,0.0592053048312664,-0.0266014002263546,-0.2990659177303314
1789064042416865300,1.6661345214843752,0.9444754377916454,1.3101415183246137,-1.372664902254939,-0.4373536351824179,6.449166787034272,7.374778826662897,0.022559942677617,-0.0298459306359291,-0.3080277144908905
1789064042426902300,1.676171630859375,1.521525968684256,0.4833364744067192,0.0676706836909055,-0.4550588762862607,6.451617687317729,7.371562202703952,0.0928166583180427,-0.0838173851370811,-0.3515998721122741
1789064042436939300,1.6862084960937502,1.8189551099456849,0.0575643002182245,0.1950572926759719,-0.4707204096680507,6.457208054670691,7.365681912493705,0.0820745304226875,-0.1371349245309829,-0.4174135029315948
1789064042446976500,1.696245849609375,1.7713358651585875,1.0312006583034992,-2.1496271801173688,-0.492383338889107,6.457113946646452,7.36434803354144,-0.0229517184197902,-0.0568121783435344,-0.4641555547714233
1789064042457013200,1.7062824707031252,1.6501915115639567,0.5977180558681487,-1.3292337568074464,-0.5213254653329029,6.451859094858169,7.366961430910229,-0.0273262280970811,0.0262374356389045,-0.4930135607719421
1789064042467050200,1.716319580078125,0.9736556473076344,-0.5318722495168448,1.0317729052335023,-0.547487824865058,6.451086941441893,7.365739780160784,0.0717405453324318,-0.2277160584926605,-0.4981245100498199
1789064042477087200,1.7263564453125002,0.3641475291961804,0.8242886771827935,-1.0798673663169145,-0.5624172811126336,6.452587993654609,7.363299985793232,0.0019212450133636,-0.1870975345373153,-0.4801095426082611
1789064042487124200,1.7363935546875,0.8598571994964033,0.967335796636343,-2.343691954624653,-0.5830275960082187,6.4461600064337246,7.367325588047504,-0.0708767995238304,-0.0797943174839019,-0.4709939956665039
1789064042497161500,1.7464306640625002,1.1706032837748528,0.0072036477684974,-0.2135071416020393,-0.6105096598368138,6.438585771787166,7.371721192657947,-0.0477371253073215,-0.0639873892068862,-0.5084806680679321
1789064042507198200,1.756467529296875,0.8337357930291444,-0.0067775313109159,1.8655384358137843,-0.634567996294424,6.435208988830447,7.372638307502865,0.0475486479699611,-0.2153910249471664,-0.5645878911018372
1789064042517235200,1.7665043945312502,1.019849681597203,-0.3586906885623931,1.383670280393958,-0.656529579668492,6.436221965265274,7.369830264344811,0.0645049959421157,-0.1758534759283065,-0.5761616826057434
1789064042527272200,1.77654150390625,0.4079956944793462,0.7700953147023916,-0.7840297320306301,-0.6803359871916472,6.434206533789634,7.369430451372265,-0.0201357267796993,-0.1722192913293838,-0.5548667907714844
1789064042537309400,1.7865786132812502,0.258771347695589,0.6440934380739927,-0.3225263192474842,-0.7022972052395343,6.429126454046369,7.371804194766282,0.0025179199874401,-0.1717106252908706,-0.5323649644851685
1789064042547346400,1.79661572265625,0.744454019902274,-0.0319172332644462,0.6208709679186344,-0.722906278026104,6.427278780353069,7.371422501972317,0.0456568710505962,-0.1923849433660507,-0.5347301959991455
1789064042557383400,1.8066528320312503,0.9606537615891544,0.3313543533474207,0.2618149531751871,-0.7442777865525335,6.427327295669913,7.36925392576158,0.0630217492580413,-0.1922267526388168,-0.5619431734085083
1789064042567420200,1.816689453125,1.1203611431382596,0.2024906575471162,-0.1096633207678794,-0.7654207470200955,6.428699753066897,7.3658900022864335,0.0824602246284484,-0.2537166178226471,-0.6021425127983093
1789064042577457400,1.8267268066406253,1.1030865485366432,0.6381804146379232,-1.531315249031782,-0.7876504798110574,6.428305785313248,7.363889768379926,0.0354090929031372,-0.1993204951286316,-0.6117982864379883
1789064042587494400,1.836763671875,0.8123678646992891,0.4025900360435247,-1.2839175282657145,-0.8098239523701369,6.427318527841567,7.362346046069264,0.0804029032588005,-0.2875640988349914,-0.6163800954818726
1789064042597531400,1.8468007812500002,0.6926605581704527,-0.0513783050596714,-1.0109107344686985,-0.825688314847648,6.428633702093363,7.359435711580515,0.0652148947119712,-0.3342120349407196,-0.6043388843536377
1789064042607568400,1.856837646484375,0.511136627741158,0.5943477026522159,-2.260924239566922,-0.8401895722784102,6.425450980404019,7.360573191177845,-0.0087600294500589,-0.3365580439567566,-0.6156866550445557
1789064042617605000,1.8668745117187502,0.57791401585415,0.0137321727544069,-1.5275029972672465,-0.8568386553928256,6.419188412877917,7.364117147395015,-0.0114556811749935,-0.3241093456745147,-0.6473380327224731
1789064042627642400,1.87691162109375,0.6223340262085199,-0.2551484810233116,-0.84091247972548,-0.8758200539123266,6.412735875737667,7.367506205311417,-0.0226494502276182,-0.312194675207138,-0.6867324113845825
1789064042637679400,1.8869487304687502,0.2007699712343514,0.3372837433964014,-1.4495184248328208,-0.8991285218507051,6.402243707817792,7.373820210763812,-0.0924612879753112,-0.2904265224933624,-0.6998173594474792
1789064042647715300,1.8969846191406252,-0.2349581451054662,0.4934294138759374,-0.912170958775282,-0.9209922708734868,6.388254345431924,7.383249133366346,-0.1153618767857551,-0.2920268774032593,-0.6678131818771362
1789064042657752300,1.907021728515625,-0.401304014820978,0.6241133108407259,-0.4575625662028789,-0.940795726365596,6.3742877793997526,7.392816587656735,-0.0961769968271255,-0.2702890932559967,-0.5968787670135498
1789064042667789300,1.9170585937500002,-0.696888843389973,0.747100808084011,0.5593892019957304,-0.95466138930656,6.363378847372531,7.400433492401242,-0.0553271695971488,-0.3267589211463928,-0.5308383107185364
1789064042677826300,1.927095703125,-0.731313748626411,0.949597895371914,0.9095663292348384,-0.9603392888125032,6.355410644972324,7.406543499714136,-0.0286313761025667,-0.3668842315673828,-0.490917295217514
1789064042687863300,1.9371325683593752,-0.6419155825782566,1.1357359685331585,0.5408469986110925,-0.9675863373313098,6.3506327630460255,7.409697579830884,0.0254343915730714,-0.2742880284786224,-0.4558847546577453
1789064042697900300,1.947169677734375,-0.6898615020364522,0.5284726702064275,1.6905501176983118,-0.9753057526022196,6.352462901082634,7.407116915687919,0.1320444643497467,-0.2952092885971069,-0.4556341469287872
1789064042707938000,1.957207275390625,-1.00081355721578,0.7284317634493113,0.4900000239491462,-0.9832315041001886,6.358554788216948,7.400839735114574,0.1322834640741348,-0.267789363861084,-0.4382418394088745
1789064042717974800,1.967244140625,-1.3511052507452666,1.0487345614284276,-0.5834533836722373,-0.9929678121514618,6.362666315189004,7.396004570043087,0.0988277792930603,-0.1825532913208007,-0.3879363238811493
1789064042728011800,1.9772810058593753,-1.3652026035502551,-0.0290349558264017,0.4754062659293412,-1.0007176225606351,6.368432039108872,7.389995100495219,0.1498180329799652,-0.2115536779165268,-0.3204633295536041
1789064042738049000,1.9873183593750001,-1.6779022330492734,0.0394768548637628,-0.069503159815073,-1.003004929780215,6.375786493524909,7.383340318781137,0.1210042238235473,-0.2238697260618209,-0.2513646781444549
1789064042748086000,1.9973552246093749,-1.4317384379923344,-0.2202121921986341,-0.4435106599748134,-0.999124435085058,6.381690164610744,7.37876468142867,0.0922172516584396,-0.2446303814649582,-0.1930192857980728
1789064042758123000,2.007392333984375,-1.242062253832817,-0.1459545313328504,-1.6543208664536475,-0.994720501037687,6.384346232077479,7.377061384642124,0.0212408155202865,-0.1783024817705154,-0.1450964957475662
1789064042768159700,2.0174289550781253,-1.0483573986791073,-0.3564367721557617,-0.776771139204502,-0.9904549525476992,6.383540176391601,7.378333304274082,-0.0026117248926311,-0.1610154062509536,-0.1169767826795578
1789064042778197000,2.02746630859375,-0.5736574543882161,-1.098369237691164,0.4053875578075647,-0.9858657250612972,6.382372301656007,7.37995769060552,-0.0078770602121949,-0.1613738685846328,-0.1107649579644203
1789064042788234000,2.0375031738281253,-0.487852928917855,-0.3497872511386871,-0.1436082604676485,-0.9817380506720392,6.3785360844939945,7.383823133862018,-0.0657491087913513,-0.1470110714435577,-0.1201731711626052
1789064042798271000,2.047540283203125,-0.2461803808655589,-0.4692682015657424,0.2085445507586002,-0.9769573922667651,6.372920582699775,7.389304780143499,-0.0474590547382831,-0.1904149949550628,-0.1268481165170669
1789064042808308000,2.0575771484375003,-0.3583238280113786,0.1123427691102027,-0.5937795473754406,-0.9713558459326624,6.367564024102688,7.394659000653028,-0.0809502378106117,-0.1662938892841339,-0.1068631112575531
1789064042818344700,2.067614013671875,-0.5394613164063543,0.4909077864438295,-0.3068687313884496,-0.9652945731323213,6.360549176904558,7.401486800846457,-0.0722813829779625,-0.1661817729473114,-0.0775305181741714
1789064042828382000,2.0776511230468753,-0.5307549359247088,0.1568856751918792,0.7681529484629631,-0.9554456715520472,6.356839216470718,7.405950794517993,-0.0193904731422662,-0.183222010731697,-0.0489026084542274
1789064042838419000,2.087688232421875,-0.4711291731320321,0.4624842405140399,0.7403390588641167,-0.945190600323677,6.356650415900349,7.407427881333231,0.0270478650927543,-0.1696619838476181,-0.0326847545802593
1789064042848456000,2.097725341796875,-0.1039332526832819,0.1687590683370828,1.133999938520789,-0.9335040349874644,6.360078636783361,7.405967161130905,0.0660138428211212,-0.2046557068824768,-0.0537256821990013
1789064042858493000,2.10776220703125,-0.0156902480196207,0.6964023019820451,-0.1553594885379076,-0.9249316561490296,6.363499843403696,7.4041042898684735,0.0438914932310581,-0.1385059803724289,-0.0530665479600429
1789064042868530000,2.11779931640625,0.2896140105310827,0.1147591826021671,0.6998281847774982,-0.9164458596155048,6.368738913100957,7.400653857153654,0.1012718975543975,-0.2035398185253143,-0.079113520681858
1789064042878567000,2.127836181640625,0.3831850783497095,0.2808434787720442,-0.3498889579474926,-0.9081137923389672,6.374438586047291,7.396773216328024,0.0550937540829181,-0.1549285948276519,-0.0760847106575965
1789064042888604000,2.1378732910156253,0.3918597485188395,0.3645511050283909,-0.2057435218632221,-0.9009269495747982,6.377071857160329,7.39538146970868,0.0490406490862369,-0.179594337940216,-0.0831049680709838
1789064042898640000,2.1479091796875003,0.7697301346518098,-0.5032429518818855,0.5903770454555749,-0.8918345654502511,6.381008027565479,7.39308839033544,0.0622824169695377,-0.1957823634147644,-0.0887426137924194
1789064042908676900,2.157946044921875,0.406452337494865,0.4628168334692716,-0.7596715358436107,-0.8828983948007225,6.382056075313687,7.39325614811778,-0.0089569082483649,-0.1959587633609771,-0.0815387070178985
1789064042918714000,2.1679833984375,0.5668056157320738,-0.0509592028647661,0.0241173731684684,-0.8731137175630778,6.38182694273293,7.394615746033192,0.0231815874576568,-0.2072079628705978,-0.0800867527723312
1789064042928751000,2.1780205078125,0.4100904017362743,0.1440355459690094,-0.2276554939419031,-0.8637916163358836,6.381959629201889,7.395595989242196,-0.0082693481817841,-0.1815541088581085,-0.0697004199028015
1789064042938787800,2.1880571289062503,0.2961602173041552,0.3292477364569902,0.1892459760487079,-0.8531112323675304,6.381848570042848,7.396931037238239,0.0336868911981582,-0.2267623394727707,-0.0715382620692253
1789064042948824800,2.19809423828125,0.5677412160817533,0.1720838288456201,-0.3720399994790553,-0.8420267976429313,6.38488633030355,7.395580207151174,0.0442899800837039,-0.1891893893480301,-0.0758048295974731
1789064042958861800,2.2081311035156252,0.4038547222170978,0.7652151414453983,-0.8598743698269128,-0.8322672548465431,6.387013405460119,7.394847801223396,0.0491949878633022,-0.2221768945455551,-0.0968089178204536
1789064042968899000,2.21816845703125,0.7322465724971144,-0.083492522200942,0.0696440295904874,-0.8224780475642531,6.391016795882583,7.392483994701505,0.0704639479517936,-0.2283599078655243,-0.1272322833538055
1789064042978936000,2.2282053222656253,0.8581002728264778,0.3937795376002788,-0.6461994704425335,-0.8182965240959078,6.39348289373517,7.390815184706449,0.0256077982485294,-0.1290178745985031,-0.1520377546548843
1789064042988972800,2.2382421875,0.925620076804608,-0.3847334768354892,1.0279361035495995,-0.817731364493817,6.394927831846475,7.389628020748495,0.0628236085176467,-0.1993861943483352,-0.1811408400535583
1789064042999009800,2.2482790527343752,0.4397516727674752,-0.2945844193547964,0.9312567675173282,-0.8121996685255318,6.398900827130675,7.386798350280523,0.0634374618530273,-0.2462783306837082,-0.167925164103508
1789064043009047000,2.25831640625,0.0223820738084614,0.4370008396893739,-0.701561292180419,-0.8027422504808753,6.400988739320636,7.386022689732909,0.0336487740278244,-0.242257684469223,-0.1261176615953445
1789064043019084000,2.2683532714843753,0.2792692151926457,0.146861709305644,-0.9321481633991002,-0.7922269208811223,6.402476932051777,7.385868375954032,0.0313850864768028,-0.2286742329597473,-0.0989712625741958
1789064043029121000,2.278390380859375,0.2582113026600331,0.5048018717616796,-1.0026724829554556,-0.7819429888844489,6.40351679649353,7.386062437221407,0.022392027080059,-0.2544324100017547,-0.1242844760417938
1789064043039157800,2.288427001953125,0.749099799881503,-0.2338338903158903,0.0674298606723547,-0.7719942801915108,6.405636857387423,7.385270994582772,0.0661192685365676,-0.2720867693424225,-0.1826817393302917
1789064043049195000,2.29846435546875,0.2673231952026486,0.1640460683405399,-0.7863023531377316,-0.7650180114381014,6.408485817077755,7.383524443176388,0.0353468097746372,-0.269178181886673,-0.2004788219928741
1789064043059232000,2.3085012207031252,-0.5301924066711217,0.28452538215518,-0.587786444440484,-0.7581872886352241,6.409063909226656,7.383727856794,0.0282729193568229,-0.2361675053834915,-0.1733041852712631
1789064043069269000,2.318538330078125,-0.779414785581082,-0.359929290446639,0.142195471060276,-0.751228117147088,6.410974711284041,7.382780346810817,0.0461299493908882,-0.2123960703611374,-0.1183947026729583
1789064043079306000,2.3285751953125002,-1.0465444309730083,-0.0388350498288869,0.2656055776298046,-0.7408768920678644,6.412648781976103,7.382372350531816,0.0182538423687219,-0.2199591696262359,-0.0807503908872604
1789064043089342700,2.338612060546875,-0.8146886357970535,-0.1524345410019159,0.1622363885700702,-0.7282245504394174,6.413271882310509,7.383089558890462,0.0121311983093619,-0.2369524389505386,-0.0527761168777942
1789064043099380000,2.3486491699218752,-0.8772779976356774,0.3102022597253322,-0.5724702173650265,-0.7154647298485041,6.411967229452729,7.385469732025265,-0.0437515079975128,-0.1561989933252334,-0.0018538160948082
1789064043109417000,2.358686279296875,-0.8645096284121274,0.149220839652419,0.4050117102324962,-0.7018967346798628,6.410591849446297,7.387965055972337,0.0143403243273496,-0.1937996000051498,0.0362821631133556
1789064043119454000,2.36872314453125,-0.4455784792248159,0.1310807873278856,0.2856809819310903,-0.6850834009144455,6.413020537897944,7.387436063662171,0.0184413269162178,-0.159152939915657,0.0475220344960689
1789064043129491000,2.37876025390625,-0.0028130115941166,0.7446738731980324,-0.7460837399959563,-0.6717532330896705,6.414587641084194,7.387299870061874,0.0290337204933166,-0.1593315601348877,0.022390553727746
1789064043139528000,2.388797119140625,0.4202475655481219,0.196799167907238,-0.0804120918422937,-0.6590691080834716,6.417033280670642,7.38631845780909,0.0331251323223114,-0.1496917158365249,-0.0160159561783075
1789064043149564000,2.3988332519531252,0.3043327831700444,0.4958990188598632,-0.3394365375161171,-0.649995647855103,6.417956825256347,7.386320211374759,-0.0039129089564085,-0.1133601665496826,-0.011173446662724
1789064043159601000,2.4088701171875,-0.1569721844315529,-0.0014841010779142,0.8666431333094835,-0.6396982718549669,6.418992013522982,7.386319626852869,0.0365407727658748,-0.1945916414260864,0.0063488213345408
1789064043169638000,2.4189072265625002,-0.7878060356989502,0.3521557338356971,0.3160743666291237,-0.6232767138861119,6.420891125142574,7.386072374093533,-0.0005694122519344,-0.1574039310216903,0.0758357122540474
1789064043179675000,2.428944091796875,-0.9177455440372227,0.5432692573219537,-0.2069850463569164,-0.6049667118221521,6.422211560091376,7.386447637146711,0.0264648683369159,-0.1642424017190933,0.1346819996833801
1789064043189712100,2.4389814453125003,-0.5998099501134827,0.5213683911591768,-0.771918438476324,-0.5844220095086843,6.425258088180422,7.385451611846685,0.0163399279117584,-0.1061305254697799,0.1553810536861419
1789064043199749000,2.4490183105468755,-0.3274446325577795,1.0460317322105168,-1.5803718331456182,-0.5682861731460318,6.4253738235145805,7.386610134232043,-0.0138619169592857,-0.0860124751925468,0.1388292461633682
1789064043209785900,2.4590551757812498,0.0431494424292817,0.2686199570149183,-0.1843681408792734,-0.5540121485998853,6.426316072800756,7.386874922648071,0.0047318404540419,-0.0762620419263839,0.106808066368103
1789064043219822800,2.469092041015625,-0.4186312529252842,0.5713982042193413,-0.0549473957180976,-0.5414436858626083,6.426853248417377,7.387339617550372,0.004848220385611,-0.0928495451807975,0.1071121990680694
1789064043229859800,2.479129150390625,-0.6877019859150052,0.1452957751631736,0.6482634172350168,-0.5249612280193716,6.430528722059727,7.38533061581552,0.06614900380373,-0.1385461390018463,0.123807705938816
1789064043239897000,2.4891662597656254,-1.1499943571187554,0.7589677714884281,-0.9951590385854244,-0.5069429023783654,6.434261478847265,7.383337980693578,0.0028344797901809,-0.0780585557222366,0.1755135208368301
1789064043249934000,2.499203369140625,-1.5657136315874751,0.7372878545999526,-0.6752467012286186,-0.4879128424115478,6.435889372310042,7.383200618049502,0.0376569703221321,-0.0703745707869529,0.2249984294176101
1789064043259970800,2.509239990234375,-1.545579775097221,0.1514905381500721,-0.5097235460728406,-0.4680933491000905,6.439447357052564,7.381381585928797,0.0063592349179089,0.0361934192478656,0.2869323790073395
1789064043270007800,2.519277099609375,-2.134898982062936,0.8299994560450314,-0.7759452097743749,-0.449342288737744,6.440592435434461,7.381547590145468,0.0076634180732071,-0.0115698166191577,0.3451773524284363
1789064043280045000,2.5293144531250005,-2.122335268566012,0.3340536754339933,-0.4707657466471195,-0.4268909125527367,6.442883761242031,7.380880650669336,-0.0092188920825719,0.0918391272425651,0.4228841066360473
1789064043290082000,2.5393513183593748,-1.982478469586372,0.8289794653475284,-1.0025848046720027,-0.4046901866605505,6.443108802169561,7.381934543636441,-0.0150188552215695,0.1056161001324653,0.4918443560600281
1789064043300119000,2.549388427734375,-1.2466101263955234,0.4003226756334304,-0.41136429412961,-0.3796513512656092,6.445148783564568,7.381483877259493,0.0054280953481793,0.0951128527522087,0.5000436902046204
1789064043310155800,2.559425048828125,-0.7767637596156448,0.8159440426856279,-0.989887235662341,-0.3546461989445612,6.446717055794596,7.38135820505321,-0.0049737505614757,0.0906598567962646,0.4905470013618469
1789064043320193000,2.5694624023437505,-0.350637036368437,0.2020516816079616,-0.0873871915519237,-0.3285681201623752,6.450536906343698,7.379227622765303,0.0639027804136276,0.0306599047034978,0.4522826969623565
1789064043330230000,2.5794992675781248,-0.3876299289293587,0.4318003484368324,-1.088144780796766,-0.3044440615247935,6.456018552625179,7.375467977970838,0.0308298915624618,0.0969541892409324,0.4455099403858185
1789064043340267000,2.589536376953125,-0.5784540775476024,0.4116062861919403,-1.1027858850896357,-0.2825605483556166,6.459602840852737,7.373200033038854,0.0322307124733924,0.0834564864635467,0.4329347610473633
1789064043350304000,2.5995732421875,-0.1430188797397538,-0.0037473698347806,-1.149407351011038,-0.2639952746226452,6.461657435294986,7.372087103360891,-0.01942715421319,0.1512267589569091,0.4135115444660187
1789064043360340700,2.6096101074218754,0.0799016215695068,0.3767874862670898,-1.2670984954118727,-0.2497403018368408,6.458209340667724,7.375604756093025,-0.0860922038555145,0.1605811119079589,0.3925990760326385
1789064043370378000,2.6196472167968747,0.5836278269236908,-0.1061895071774721,0.0017395371437072,-0.2348226456249132,6.454564846685528,7.379284321388602,-0.0401594042778015,0.1141515523195266,0.3663487732410431
1789064043380415000,2.629684326171875,0.7516189430955798,0.0987678327441215,-0.0653045390814542,-0.2186097802369855,6.452216822254657,7.381835174915194,-0.0519084706902504,0.0785943567752838,0.3797452747821808
1789064043390451000,2.63972021484375,0.7737192773532122,0.5385667787194252,-0.4095779952347278,-0.1979136502214707,6.449509316861629,7.384785256892442,-0.0484222248196601,0.0474580824375152,0.3741943538188934
1789064043400488000,2.64975732421875,0.9753006380356848,0.7406465173780917,-1.0439625247210265,-0.1781812506715767,6.446746866410971,7.38769909851253,-0.0475276671350002,0.0486240126192569,0.3670602738857269
1789064043410525000,2.6597941894531254,1.2025433133929968,0.6718880384504795,-0.6756698950767517,-0.1594194131868891,6.4448763963639735,7.389759538173675,-0.0283685214817523,0.0497691743075847,0.3086326122283935
1789064043420562000,2.6698312988281248,1.357259097199887,0.8422831835567951,-0.9650333649128676,-0.1490850205114577,6.4420747829467055,7.3924167746841905,-0.0638657957315445,0.136167973279953,0.2437945008277893
1789064043430599000,2.6798681640625,1.133465831644088,0.3276011382937431,1.2051140406638383,-0.1445110545262694,6.438861081597208,7.395306650906801,-0.0231601111590862,0.0832284465432167,0.178659439086914
1789064043440636000,2.6899052734375,0.7770251870308071,0.0597387216478586,1.848179889255762,-0.1392695371435955,6.4399202352613205,7.394485982173681,0.0323138013482093,0.0822145864367485,0.165868803858757
1789064043450673000,2.6999421386718754,0.128261738718627,0.6791425396233797,0.4660311193406581,-0.1312544268617406,6.443756452423334,7.391289231958985,0.0601201020181179,-0.0075152507051825,0.1904983669519424
1789064043460710100,2.7099794921875,-0.1261310742323286,1.1858382623076438,-1.4654174202322958,-0.1186760363854933,6.448373006308079,7.38747522662878,0.0349207408726215,0.0660463199019432,0.2261599600315094
1789064043470747000,2.72001611328125,-0.3396673871299251,1.1531026983976362,-1.8998411029100415,-0.1107418275864329,6.449684673428535,7.386453482365607,0.0184006169438362,0.0871390104293823,0.2583355605602264
1789064043480784000,2.73005322265625,-0.236632727254182,0.0922340470612049,0.1855892071068287,-0.0996028587961569,6.454411117428541,7.382482240647077,0.0767978802323341,0.1012718752026557,0.246033102273941
1789064043490820900,2.7400900878906254,-0.0614125183452852,0.0388607687920331,-0.2786012528032064,-0.0930133974032476,6.460648550513386,7.377109899958968,0.0832687616348266,0.1050447300076484,0.2328567653894424
1789064043500857900,2.7501271972656247,0.0155280066626146,-0.0044400282740592,-0.916588775217533,-0.087802841414418,6.466091033828258,7.372403914225101,0.0334807001054286,0.1597383320331573,0.2046048790216446
1789064043510895000,2.760164306640625,-0.2255938487043604,0.3496078029185533,-1.9376433025598525,-0.0865502475374378,6.465337585112452,7.373079621529579,-0.0426402986049652,0.1455568224191665,0.2103084921836853
1789064043520931800,2.770201171875,-0.3874833965981379,-0.2127905177652835,-0.5895750814229249,-0.080732775164023,6.4630035892069335,7.375191499117016,-0.0346177965402603,0.0939149484038353,0.2163711786270141
1789064043530968800,2.7802380371093753,-0.3203596427328884,-0.2317243508160114,-0.4428577490240335,-0.0742346407498,6.458893231278657,7.378859958496689,-0.0855324044823646,0.1268395036458969,0.2518690228462219
1789064043541005800,2.7902751464843747,-0.295674954537861,-0.2718552856743335,0.2349187629431486,-0.0648020192196825,6.45428252261281,7.382982006862759,-0.0510631129145622,0.0650395154953002,0.2307808101177215
1789064043551043000,2.800312255859375,-0.1959125943310558,0.2336298921763897,-0.9327367769420146,-0.0580225105808116,6.446940927678346,7.389449741572141,-0.1576335281133651,0.1551976948976516,0.2187665998935699
1789064043561080000,2.810349365234375,-0.1484857303109019,0.4547334802567958,-0.4336965374469756,-0.0557696490535279,6.43682636089921,7.398279529237747,-0.1101552248001098,0.1634609550237655,0.2017972022294998
1789064043571116800,2.8203859863281253,-0.5273151707343757,0.2202700598657131,0.4050619791150093,-0.0565707682693842,6.428427950388193,7.405572024333477,-0.1233642399311065,0.2163254916667938,0.2399845421314239
1789064043581153800,2.8304230957031247,-0.7379781749516725,0.4981085116028785,1.6374778682023283,-0.0513601255155866,6.422780299890041,7.4105094807356595,-0.0206333342939615,0.0977871268987655,0.2667011022567749
1789064043591191000,2.840460205078125,-0.4671749556135386,0.6373404566824435,0.1563034913897514,-0.0432388468789402,6.42121495026946,7.411917593967914,-0.0514564588665962,0.1739794760942459,0.2976762950420379
1789064043601228000,2.850497314453125,-0.2266663002414628,1.3492974706709384,-0.1826578298300504,-0.0354986810809467,6.417941627687215,7.414792857143283,-0.0232165660709142,0.1425046324729919,0.2808405756950378
1789064043611265000,2.8605344238281254,0.2145405763030052,0.3851379659831523,0.7336310856580733,-0.0307856331353425,6.417686776143312,7.415034264683723,0.0096709383651614,0.1720505654811859,0.250077337026596
1789064043621302000,2.8705712890624997,0.2778477858210914,0.7623796257585287,0.7150555645257234,-0.0272048543224111,6.4199260795027016,7.413109434100985,0.0527270622551441,0.1649588346481323,0.2030903995037078
1789064043631338800,2.880608154296875,0.3708386973978951,0.6110130062490702,-0.362415262043476,-0.0293656993178417,6.423450746497512,7.410047708442807,0.0347566157579422,0.2335952967405319,0.1893673837184906
1789064043641376000,2.890645263671875,0.0163155311779584,0.7922288205772637,-0.1432470259398222,-0.0323267113977693,6.42613954719007,7.407703775665164,0.040110632777214,0.1855316311120987,0.1981374323368072
1789064043651412000,2.90068115234375,0.0599175488134846,0.2501408819943666,0.1772778903573751,-0.0328331516661215,6.428035151678324,7.406056592980026,0.0007818426238372,0.2309861183166504,0.2377851605415344
1789064043661449000,2.9107182617187504,0.3315533099856227,0.3822352302789688,0.4848778586298227,-0.0310810541516519,6.428669942450523,7.405512987622618,0.0284419674426317,0.1443337798118591,0.2449083179235458
1789064043671486000,2.9207551269531247,0.8998962913528085,0.1026800377517938,0.2890904981136322,-0.027509047733643,6.431545205625891,7.40303052315712,0.0329006612300872,0.1682499945163726,0.2129766196012497
1789064043681523000,2.930792236328125,1.447472013697028,0.4711895250171423,-0.4423930541217327,-0.0262139481554972,6.4345858884960405,7.400392575868964,0.0501451604068279,0.1271859109401703,0.1415455788373947
1789064043691560000,2.9408291015625,1.8870446035705504,0.4519494024962187,-1.38499071534276,-0.0321368879140936,6.437964425018429,7.397429634410143,0.0268575493246316,0.2008890509605407,0.0665497258305549
1789064043701597200,2.9508664550781254,1.6622924298547208,0.5354658900946379,-1.1859843927800655,-0.0427646626290865,6.440639197185635,7.39504712318778,0.0504560843110084,0.1521558761596679,0.0035696926061064
1789064043711634200,2.9609035644531247,1.4063164119660854,0.0744084675133228,-0.9457201771557332,-0.0538917400521691,6.445301928299665,7.390911046296358,0.0593073368072509,0.1379036158323288,-0.0156441591680049
1789064043721671400,2.970940673828125,0.8775660207968204,0.3624742987543344,-1.2853437616765495,-0.0651833786535076,6.447832323560118,7.38861270622611,0.0075187045149505,0.1193059533834457,-0.0200040210038423
1789064043731708400,2.9809777832031252,0.757373195773363,-0.2170189491152763,-0.34851357794106,-0.0747264474213123,6.448527320086956,7.387915371611714,0.0020364222582429,0.1053684502840042,-0.0307237394154071
1789064043741745200,2.9910144042968754,0.98200240069665,-0.3959989672154188,-0.0761643712699413,-0.0864213513276074,6.4483911264866585,7.387906603783368,-0.0092351408675313,0.116577424108982,-0.0653621479868888
1789064043751782100,3.0010515136718747,1.0808595191594212,-0.4314519733905792,0.2223386828333139,-0.0999851087125483,6.447482194948196,7.388529119595884,-0.0192722920328378,0.1089355796575546,-0.1072886139154434
1789064043761819100,3.01108837890625,1.0012602050047368,-0.2311415824919939,-0.265608500239253,-0.1158545766234397,6.44604017944634,7.389555540034174,-0.0219642147421836,0.1071262285113334,-0.1293936371803283
1789064043771856400,3.021125732421875,0.5253086897501722,0.0828694218665361,-0.5614344440877437,-0.1328091911562252,6.442976115700602,7.391942142909765,-0.0563132725656032,0.120822750031948,-0.115823820233345
1789064043781893400,3.0311625976562504,0.3276977305360138,-0.2040402250766754,0.7055775420844554,-0.1472347438691184,6.440636274576187,7.393707399016618,0.0039985366165637,0.0856983214616775,-0.1067770645022392
1789064043791930000,3.0411994628906247,0.5768071871234104,-0.5336036033540964,1.0552841292023658,-0.1603657906589098,6.4420443878084415,7.392207515847683,0.0180124267935752,0.0841672644019126,-0.1177849173545837
1789064043801967000,3.051236328125,0.7049146211963147,-0.0627040011942386,0.713957832416892,-0.1763945864505134,6.442652875095606,7.3913126128345725,0.0278557371348142,0.0906909480690956,-0.1643913090229034
1789064043812004400,3.061273681640625,0.8586194013297558,-0.7313070266246795,1.0685843402802944,-0.1934802526175975,6.447463490247726,7.386688460165262,0.0848494470119476,0.077983021736145,-0.194389671087265
1789064043822041300,3.0713105468750004,0.381921305491589,0.000930558848381,-0.5601373900145292,-0.2129803412489593,6.451742190480232,7.382415020629763,0.0383591763675212,0.0779595822095871,-0.2007615566253662
1789064043832078300,3.0813476562499997,0.0053882323769852,-0.1496732595950365,-0.5164952321648597,-0.232837408358138,6.452708405163884,7.380970667040348,-0.0065524703823029,0.1416022032499313,-0.161030888557434
1789064043842115000,3.09138427734375,-0.1683665984207764,-0.665904287865758,0.8138134603977203,-0.2497208664840087,6.453138613274693,7.380042446279525,0.0374906212091445,0.0520701929926872,-0.1339263021945953
1789064043852152300,3.101421630859375,0.0172402356742881,-0.6914806276708841,0.6622703152775764,-0.262496286502853,6.453875110855698,7.378955235564709,-0.0234255287796258,0.1034448444843292,-0.1096425279974937
1789064043862189300,3.1114584960937504,0.5734906464539468,-0.2740256154507398,0.6052443597197532,-0.2766095675293356,6.451215536257624,7.380765499857068,-0.0173220969736576,0.0622566640377044,-0.1375702917575836
1789064043872226300,3.1214956054687497,1.3704770368218422,-0.7317489251732826,0.7061591413646936,-0.2930862897515296,6.450898140871525,7.3804066034168,0.0028632646426558,0.1018845736980438,-0.1954505294561386
1789064043882263300,3.131532470703125,1.4205023198373614,0.1450000070869922,-0.3728063076764344,-0.3130343413461,6.449529190605879,7.380784204557537,-0.0133407386019825,0.0157680679112672,-0.2637499570846557
1789064043892299300,3.141568603515625,1.011256479166448,0.1876788728624582,-0.6114665952354669,-0.3335478082710877,6.4480000813424585,7.381220842409133,-0.0157563909888267,0.0561452656984329,-0.2967804074287414
1789064043902336000,3.151605224609375,0.3870614448590204,-0.0849269389182329,0.6955740344643593,-0.3524951583905145,6.446769662764668,7.381414903676509,0.0281993485987186,-0.0586638748645782,-0.2843325436115265
1789064043912373200,3.1616425781250004,-0.0356785950919613,-0.4685030624121427,0.6494201860547065,-0.3671457976967096,6.449816775375604,7.37803812071979,0.0499536879360675,-0.0214974265545606,-0.2682836651802063
1789064043922410200,3.1716794433593747,-0.6817063256967812,0.5245306545823812,-0.7732429650783539,-0.381768124223873,6.449928419056534,7.3771987472862,-0.0181116517633199,-0.0308283437043428,-0.2571625709533691
1789064043932447200,3.181716552734375,-0.3584376636493951,-0.384168828690052,0.4147872543156147,-0.3991774876536801,6.448083083450794,7.377890236681699,-0.0046886252239346,0.0668596476316452,-0.2393923103809356
1789064043942484200,3.19175341796875,-0.2517522627137601,-0.3921095585614442,0.7007090592652558,-0.4189234773375093,6.446447006681561,7.37822516772449,-0.0247113350778818,0.0437756329774856,-0.2193192690610885
1789064043952521200,3.2017905273437504,-0.0441193103747442,0.6945511211574077,-0.953961935800314,-0.4374143889263272,6.441815839749574,7.381196292489767,-0.0872735455632209,0.1251669228076934,-0.1911784559488296
1789064043962558200,3.2118273925781247,0.4749665228052064,0.7462140883773565,-0.9808633867293596,-0.4582071477167308,6.434744878450036,7.386101015666127,-0.0641948580741882,0.0559260733425617,-0.1767513006925583
1789064043972595200,3.221864501953125,0.8514850924704224,0.4052835129112005,0.4050800992935895,-0.4715551069265231,6.4324062063694,7.3872975319743155,-0.0059351823292672,0.0179718527942895,-0.1801444292068481
1789064043982632200,3.2319013671875,0.9132277743518352,0.9069926793545484,-0.0478688356339931,-0.4852641180010512,6.430187945798039,7.388340903547406,-0.0120479362085461,0.0039322013035416,-0.2030311077833175
1789064043992669400,3.2419387207031254,1.130796539369598,0.0295978504061698,1.5095201813310384,-0.4982782786792143,6.433100618374347,7.38493898614943,0.1096831262111663,-0.0351363010704517,-0.2562196552753448
1789064044002706200,3.2519753417968746,0.4478424055688083,0.2772533453255891,0.3406505894809961,-0.5129348362695425,6.440128325054049,7.377806650051474,0.1075043901801109,-0.0641692802309989,-0.2886926233768463
1789064044012743200,3.262012451171875,-0.1265524962484836,0.5914110646784305,-1.0214613545775413,-0.5279623460641131,6.446494352954626,7.371183432519436,0.0960641205310821,-0.0046123089268803,-0.2840341329574585
1789064044022780200,3.272049560546875,-0.8121091406978667,0.2401800444722175,-1.7224533224374057,-0.5451039254032075,6.451463958060741,7.365586635425687,0.0629655569791793,-0.0323464684188365,-0.2460087239742279
1789064044032817200,3.2820864257812503,-1.0499392610430718,0.1698725825369358,-1.019096963533759,-0.5583655945690349,6.452788484662771,7.363432087740302,0.005086307413876,0.0270723365247249,-0.1940204799175262
1789064044042854400,3.2921237792968747,-0.3977080361556261,-0.5735311245948076,-0.002584755796194,-0.5725422231553122,6.451744528567791,7.363257900217175,0.0013405712088569,0.0046378662809729,-0.1713244915008545
1789064044052891100,3.302160400390625,0.2459646557556465,-0.5815057567358016,0.3549783900409937,-0.5823500620728358,6.451639314627647,7.362581023868918,0.0099290022626519,-0.0490194298326969,-0.2110323160886764
1789064044062928100,3.312197509765625,1.0046519663348794,0.1182511163711547,-1.5542302606731653,-0.5946449685657397,6.44814621181488,7.364658414664864,-0.0664874762296676,-0.0421071946620941,-0.2869339883327484
1789064044072965000,3.3222343750000003,1.5114602094829082,0.3925391821503639,-1.6772271102666854,-0.6131856741130352,6.439913805520535,7.370339382910728,-0.0942990332841873,-0.0235717892646789,-0.3474094867706299
1789064044083002400,3.3322717285156247,1.1181350645866244,0.0732826783537864,-0.1551502297013998,-0.6316633608940988,6.4319128698945045,7.37576316152513,-0.0675561055541038,-0.0963349416851997,-0.35872682929039
1789064044093039400,3.34230859375,0.7172736789666115,0.2832581386983394,0.3764303433924913,-0.6461956710502504,6.42694092670083,7.378837746664881,-0.0125671830028295,-0.1395510733127594,-0.3385215699672699
1789064044103076000,3.352345458984375,0.4661051344249397,0.5120826764196157,-0.015201660785079,-0.6549478634350001,6.424817358675599,7.379915605029463,0.0043145949020981,-0.204916775226593,-0.3353121876716614
1789064044113113000,3.3623823242187503,0.3599086129847914,1.177351004469395,-1.4635498727947474,-0.6608299072109163,6.422144340074062,7.381717101493478,-0.0373534895479679,-0.1891868114471435,-0.3488333225250244
1789064044123150300,3.3724196777343747,0.4463102275654673,1.0843243457257747,-1.2664625355958938,-0.6734601831380278,6.415512354713678,7.3863412541627875,-0.0656898021697998,-0.1033733114600181,-0.362514466047287
1789064044133187300,3.38245654296875,0.2959682749286293,0.1932376760333776,1.320446639239788,-0.6887671309284865,6.411616516318917,7.388312261974811,0.0259481780230999,-0.1318944841623306,-0.377944141626358
1789064044143224300,3.39249365234375,-0.1497225786294788,0.3239063754290342,1.3553139544814825,-0.7017154598288238,6.412628323709964,7.386214997434616,0.0634926259517669,-0.1779344230890274,-0.3805916011333465
1789064044153260300,3.402529541015625,0.0048337037667632,0.7809557314127683,-0.0955430254787206,-0.713816743445769,6.41511663339436,7.382894328579306,0.0585231333971023,-0.133655771613121,-0.3685431778430938
1789064044163297300,3.4125666503906253,0.0560291265401989,0.7226216158658265,-0.6844312936812639,-0.7268545041952281,6.415989324575662,7.380863699534535,0.0329514630138874,-0.1616091132164001,-0.3536142706871032
1789064044173334000,3.4226032714843755,-0.0626954525616019,0.585578120741248,-0.0855003548920154,-0.7347232648089528,6.416563909593224,7.379585350161791,0.046993214637041,-0.206533208489418,-0.3257730901241302
1789064044183371300,3.432640625,0.0935835619740188,0.2198123792260885,-0.0280091199100017,-0.7397185888782143,6.418261361160874,7.37760908165276,0.0606512352824211,-0.2066138982772827,-0.2991851568222046
1789064044193408300,3.442677490234375,0.1802292875088751,0.151684599417448,-0.161455467325449,-0.7424176187038422,6.421595474019647,7.374436296835541,0.0688206404447555,-0.2335406094789505,-0.2929990291595459
1789064044203445200,3.4527145996093753,0.2762275824744254,0.4104787434667348,-1.1561270146548748,-0.7445931361120194,6.421824606600404,7.374017779162526,-0.003015729598701,-0.230826050043106,-0.3212924301624298
1789064044213482200,3.4627514648437505,0.7765262245327234,0.5033914204418659,-1.5476736786365508,-0.751985730581358,6.416898840636015,7.377554721117019,-0.0687715336680412,-0.1416378766298294,-0.345680832862854
1789064044223519200,3.47278857421875,1.0197433716785165,0.0501630840510129,-0.121947048279643,-0.7653594452869147,6.40909371984303,7.38296213311851,-0.0537734106183052,-0.1420551836490631,-0.382249504327774
1789064044233556200,3.482825439453125,1.0890383686356246,-0.2524368839770555,1.3436311154723166,-0.7770438917312771,6.404786962559819,7.385478499853611,0.0068143317475914,-0.2355831414461136,-0.4067721962928772
1789064044243593200,3.4928625488281253,0.8892486406102776,0.5445698185265064,-0.0719412006169557,-0.7848016662511974,6.400559700253606,7.388321614325046,-0.0395672842860221,-0.2574743032455444,-0.4125525653362274
1789064044253630200,3.5028994140625005,0.8565967363957315,0.9553203646719456,-0.8006137870848178,-0.7916540894292294,6.394429234674573,7.392897836199403,-0.0385791137814521,-0.260532796382904,-0.395835816860199
1789064044263667500,3.512936767578125,0.6875407309386878,0.5781786581397056,0.1464203952789306,-0.7993201670777053,6.388948172914981,7.396811210250854,-0.0059343525208532,-0.2196404784917831,-0.3749260306358337
1789064044273704200,3.522973388671875,0.3287400061305612,0.0763654467999935,1.8935557390302415,-0.8023430950954556,6.38887686124444,7.3965452527910465,0.0730791389942169,-0.3060317039489746,-0.3552937805652618
1789064044283741200,3.5330104980468753,0.2533171008776873,0.3945212958782911,0.6484890426844359,-0.803983555778861,6.3916930877089495,7.393933024466038,0.0751502811908721,-0.2433241158723831,-0.3444986641407013
1789064044293778200,3.5430473632812505,0.1280827745556831,0.5699450828015804,-0.4347913469463587,-0.8075871332287788,6.394637908989191,7.390994632926583,0.084890529513359,-0.2424487322568893,-0.3392756581306457
1789064044303815200,3.55308447265625,0.1110210920523852,0.4062643406420946,-0.898569134402275,-0.812522032347694,6.397756917792559,7.387752874526381,0.0663847550749778,-0.1956420838832855,-0.3235310614109039
1789064044313852400,3.56312158203125,-0.2952075927544385,0.3114367699563503,-0.749876118016243,-0.8165997301153838,6.398911933046579,7.386303844761848,0.0399448536336422,-0.2425643503665924,-0.2934168577194214
1789064044323889200,3.5731584472656253,-0.5516656220063567,-0.0758165807455778,-0.1773772590786218,-0.8161716408964246,6.4008490385890005,7.384672444167733,0.0680012553930282,-0.2394556403160095,-0.2539626657962799
1789064044333926100,3.5831953125000005,-0.6855766643241048,-0.3725660691797733,-0.1219593232393264,-0.8121459655769169,6.404008963924646,7.382375857663154,0.0640203654766082,-0.2739839851856231,-0.2224024534225464
1789064044343963100,3.593232421875,-0.7054661175992339,-0.0227723883002996,-1.1287018321126698,-0.8085670841768383,6.405863651880622,7.381159467610717,0.0203620996326208,-0.2078726142644882,-0.209839254617691
1789064044354000400,3.603269775390625,-0.8305477375775575,-0.1438467453986406,-1.2018980012267828,-0.8060386616777628,6.404085536292195,7.382978499731421,-0.0153962988406419,-0.2059372663497924,-0.2051102668046951
1789064044364037400,3.6133066406250003,-1.0515076794035731,-0.1519002879947424,-0.875032775992155,-0.8050459973786026,6.401515393543243,7.385316002768278,-0.013954197987914,-0.1637314856052398,-0.172354444861412
1789064044374074000,3.6233435058593755,-1.3692108162783083,-0.4446376181781292,-0.0462473719120025,-0.8015819745298475,6.3994660597980015,7.387468212366103,-0.0141351222991943,-0.1755087822675705,-0.1269099712371826
1789064044384111000,3.63338037109375,-1.6790546179547905,-0.0966916109919548,-0.1244756899744272,-0.7946046097978949,6.397781467711925,7.389680627718567,-0.0067003765143454,-0.1988905370235443,-0.0649233013391494
1789064044394148000,3.64341748046875,-1.5754066119536756,-0.0716921942919492,-0.3836789993464946,-0.7828819502349943,6.396424792405963,7.392105809038877,-0.0301409251987934,-0.1501923948526382,-0.0202406533062458
1789064044404185300,3.6534545898437503,-1.5503466972380875,0.0386304671674966,-0.2781733827799558,-0.7724777528595179,6.394589393672347,7.394788179990649,-0.0103941177949309,-0.1646528244018554,0.0158041659742593
1789064044414221300,3.6634904785156253,-1.8552083265878256,-0.1950619688510894,0.3338298035502433,-0.7571648137196898,6.394846583303809,7.39614894694984,-0.0028395263943821,-0.1773207485675811,0.0379877276718616
1789064044424258300,3.6735275878906255,-2.3859815288215875,0.4096376164674759,-0.6478238567739725,-0.7409954038809985,6.393935313677788,7.398574712792039,-0.0323902294039726,-0.1583268195390701,0.0981029942631721
1789064044434295300,3.683564697265625,-2.783066245447099,0.3319885595977306,-0.4132622367054224,-0.7238407093320042,6.392874990969896,7.401188694682717,-0.0247018504887819,-0.0641361325979232,0.1839100122451782
1789064044444332000,3.693601318359375,-3.206563460440933,0.1527554435193538,0.4203530717492103,-0.7043650244895369,6.394338633781671,7.401803027188778,0.0120617561042308,-0.0735520049929618,0.2737229764461517
1789064044454369300,3.7036386718750003,-2.989897854807973,-0.0099848029196262,0.7046621808052063,-0.6816101718459278,6.398013522902131,7.400757317528128,0.0142422197386622,-0.0024058260023593,0.3473166823387146
1789064044464406300,3.7136755371093755,-2.618507551409304,0.0754407331705093,0.6013701486349106,-0.6564608983464538,6.402669824275374,7.399003751859069,0.0453572645783424,-0.0662359371781349,0.3723235130310058
1789064044474443300,3.723712646484375,-1.9166092823594807,0.1698538778364658,-0.183272162336111,-0.6281278071790933,6.40851504317224,7.396403213971853,0.0365322791039943,-0.0079976450651884,0.3935151696205139
1789064044484480300,3.73374951171875,-1.5651688571862876,0.3080225775986909,-1.0403881733655929,-0.6020325215337797,6.413100032874941,7.39459879489839,0.022456407546997,-0.0281535144895315,0.4100611209869385
1789064044494517200,3.7437866210937503,-1.595290585336089,0.2900760020196438,-0.8603238671600818,-0.5722100685914978,6.416232485681772,7.394249835330247,-0.0133540844544768,-0.0293915700167417,0.4229216575622558
1789064044504554200,3.7538234863281255,-1.3508189811497926,0.0714291594415903,-0.5364163226872682,-0.5423960546839982,6.416857339581847,7.395953716638684,-0.0234139095991849,-0.0273683667182922,0.4433661997318268
1789064044514591200,3.763860595703125,-0.9926900911886244,-0.3319873905539512,0.1367173319101333,-0.5141605786722153,6.418048010671138,7.396937466979026,-0.0223937556147575,0.0505155622959136,0.4504960775375366
1789064044524628200,3.7738974609375,-0.8486366442367435,-0.4335223499238491,0.8397937048286199,-0.487776685343869,6.418128674691915,7.398654207769036,-0.0353210046887397,0.0093223210424184,0.4455287456512451
1789064044534665500,3.7839348144531253,-0.7533573842607438,-0.3411509402185678,0.9523135840713978,-0.4618495228070765,6.416587290468812,7.401654558628797,-0.0676248520612716,0.06601133197546,0.4645174741744995
1789064044544702200,3.7939714355468754,-0.9356748762205244,-0.2972410713434219,1.336118255624175,-0.4323120242860168,6.415173916539549,7.404663092795014,-0.0265762116760015,-0.0354380570352077,0.4948785603046417
1789064044554739200,3.804008544921875,-0.8886693794175982,0.2397276245296001,-0.0336181919634342,-0.3980644483778625,6.414506977063417,7.407160754829644,-0.0639113038778305,0.0178302451968193,0.5295010209083557
1789064044564776200,3.81404541015625,-0.8197025184363126,0.8785498442023992,-0.7306815882027149,-0.3639307811729609,6.410597110143304,7.4122998712837695,-0.076697401702404,0.0100058782845735,0.5426703691482544
1789064044574813200,3.8240825195312502,-0.4532750250767916,0.2682973009318113,0.4620417574435472,-0.3318733357202261,6.40883126951456,7.415330032759904,-0.0185796096920967,0.068505197763443,0.5459394454956055
1789064044584850400,3.8341196289062505,-0.3685006463717669,0.2729652927428483,1.1521288849294185,-0.2997807458888739,6.4120946552246805,7.413875742298364,0.051792025566101,0.011482385918498,0.5051262378692627
1789064044594887200,3.8441564941406248,-0.1246490007147193,0.4698632448494434,0.1339057816207408,-0.2727884748712182,6.4163102270931,7.41127111275792,0.0274232346564531,0.0985444635152816,0.4770203232765198
1789064044604924200,3.854193359375,-0.2711497677534819,0.33933775331676,0.4664940606772899,-0.2483921203645877,6.420690634134411,7.408334474784135,0.0545137114822864,0.0706497132778167,0.4671072363853454
1789064044614961200,3.86423046875,-0.4545798240650445,0.1184562835544347,0.477238157531619,-0.2237275433758273,6.426393229690194,7.404174432495236,0.0655766427516937,0.0847002863883972,0.4897468090057373
1789064044624998400,3.8742675781250004,-0.2822188039795495,0.0983159973233938,0.3199748811990022,-0.1976688451475463,6.432766856375336,7.399380183956026,0.0753286108374595,0.0950109809637069,0.5095452666282654
1789064044635035400,3.8843046875,-0.0282739083260297,-0.134750415751338,0.2643780816614627,-0.1693974758384749,6.438982662150264,7.394673029178381,0.0717464908957481,0.0127355512231588,0.4912525415420532
1789064044645072100,3.89434130859375,0.607713599377498,0.107782329326868,-0.705585725390911,-0.1409939680497162,6.445147614520788,7.389896900817751,0.0690811946988105,0.0331918224692344,0.4360718429088592
1789064044655109000,3.90437841796875,0.8026830676395446,0.0233183317452669,-1.577248732689023,-0.1152477698367089,6.4506029573172325,7.385581960228085,0.0659386664628982,-0.0056184218265116,0.3816693127155304
1789064044665146000,3.9144152832031254,0.4867211849415674,0.2863759784579276,-2.5163135436087845,-0.0945210072209127,6.454947708523273,7.382079505065083,0.0312379468232393,0.0852012336254119,0.3586199283599853
1789064044675183400,3.9244526367187498,0.0796846817500423,-0.1436158592522144,-1.7270108396112918,-0.0772905531551223,6.456676724272966,7.380768422466516,0.0125287119299173,0.0939120352268219,0.3560825288295746
1789064044685219300,3.9344885253906248,-0.1498861625602003,-0.6184305890291929,-0.5034440274119377,-0.0618511472245678,6.458187713357805,7.379591195380687,0.0197165831923484,0.0852487757802009,0.3597062826156616
1789064044695256300,3.944525634765625,-0.0617985219881869,-0.8739245224893093,0.1685714368104934,-0.0424989700307603,6.460045908445119,7.378101833605766,0.0122138559818267,0.0406688675284385,0.3453940451145172
1789064044705292800,3.95456201171875,0.2048400702174752,-0.496734885162115,-0.9554840308010576,-0.0266218005873146,6.458446656554937,7.379575997811555,-0.0686841905117034,0.1164232790470123,0.3443556725978851
1789064044715329500,3.9645988769531253,0.3909919892409816,-0.6409253294318914,0.1718330689549446,-0.0113612709130917,6.453298772272468,7.38411831741631,-0.0788203775882721,0.0436105169355869,0.3137624859809875
1789064044725366800,3.9746359863281246,0.2980419211312197,-0.4750713348865509,0.416821390491724,0.0051239405762345,6.4466591881275175,7.389922035259008,-0.0979040563106536,0.0188662875443696,0.2938716113567352
1789064044735403800,3.984673095703125,0.2544424151131883,-0.0633054742187261,0.4759615617245435,0.02328488841668,6.439961736315489,7.395723999536037,-0.0956173315644264,0.0075448271818459,0.2696816623210907
1789064044745440800,3.9947099609375,0.0931393527373205,0.1740443152636289,0.4181383183091878,0.037344594358711,6.433802629163861,7.401025028553605,-0.0552486032247543,0.0273161344230175,0.2615371942520141
1789064044755477800,4.004747070312501,-0.3293830898070707,0.3704091834068298,0.8019704623907804,0.0525535456843907,6.431816423782706,7.402658767235279,-0.014537826180458,0.0526220947504043,0.253673791885376
1789064044765514500,4.014783691406251,-0.6350563643332571,0.6563982083737849,0.3798720082789659,0.0646377457357943,6.432084134808182,7.402330265933275,0.0366776883602142,0.0297250375151634,0.2732136845588684
1789064044775551700,4.024821044921875,-1.111021506254375,0.6309890418291092,0.3270774066805839,0.0800184254827443,6.436245346140861,7.398562437832355,0.0667150542140007,0.0932259857654571,0.3033894002437591
1789064044785588700,4.03485791015625,-1.1514614339966327,0.611488807067275,-0.0987339304745197,0.0942717086349613,6.440931458130478,7.394315301781893,0.0646359249949455,0.0891699939966201,0.3588614463806152
1789064044795625700,4.04489501953125,-0.6014471959264949,0.2497515904158353,0.3752507782191038,0.1070445531042292,6.445633352211117,7.390043031290173,0.0740999653935432,0.1882018148899078,0.3662534654140472
1789064044805662700,4.05493212890625,0.2829308612390421,-0.4515343919545412,1.225167233133316,0.1197438665464054,6.451552805387974,7.3846806274741885,0.0882666483521461,0.0998349338769912,0.3421481251716614
1789064044815699700,4.064968994140624,0.9193916307438164,0.0545668719679117,-0.2344920619636774,0.1312138756556436,6.4560150454938405,7.380584882593155,0.0242311377078294,0.1300182193517685,0.2785447239875793
1789064044825736700,4.075006103515625,1.1697509047292172,0.060045595639944,-0.3982324253559112,0.1406255457292776,6.45577422247529,7.3806222919940945,-0.0038676082622259,0.0604753494262695,0.227176085114479
1789064044835773700,4.085042968750001,1.0668852082122116,-0.3464870405495167,0.0595773936063051,0.1493692899460904,6.455142938834428,7.381002815744281,-0.0114917382597923,0.0692294687032699,0.2066507041454315
1789064044845810700,4.095080078124999,0.4424485837012529,0.1323199737340211,-0.1942354548990726,0.160890216391813,6.453979155752062,7.3817784762918945,-0.0176292601972818,-0.0048040067777037,0.1898168623447418
1789064044855848000,4.105117187499999,0.1551631987808272,0.479733481478691,-1.1511100632756948,0.1707475570068694,6.4508817742586135,7.384264447888731,-0.0535429865121841,0.0638605877757072,0.2030805498361587
1789064044865884700,4.1151540527343755,-0.2835554046118632,0.4983171859174966,-0.917944866001606,0.1798564721411094,6.447411467799544,7.387077751743793,-0.0384947955608367,0.0719363614916801,0.2088692039251327
1789064044875921700,4.12519091796875,-0.3242919041479006,0.6402823553532362,-0.6925882966518402,0.1855778089299798,6.442963256219029,7.390816353750228,-0.0668562650680542,0.1334711909294128,0.2281887531280517
1789064044885958700,4.13522802734375,0.10998687190013,0.5377402647674083,0.0707090284734964,0.1886897121391259,6.439262063613533,7.393962250560522,-0.0285805109888315,0.1780474483966827,0.2206679880619049
1789064044895995600,4.145264892578124,0.3039046939510852,0.7122948676407337,-0.15662322486341,0.1903483295337296,6.436940927189588,7.395940857157111,-0.0292788930237293,0.1350607573986053,0.2033402621746063
1789064044906033000,4.1553022460937505,0.3810213244445621,1.089109241914749,0.015662264034152,0.1935870739929377,6.434669475126266,7.397833539035916,-0.0160357914865016,0.1200274750590324,0.1879746168851852
1789064044916069600,4.165338867187501,0.6997725821327417,0.4754787466436624,0.8025134832262992,0.1985019897697493,6.436132533416152,7.396430686500668,0.0626750960946083,0.0625986903905868,0.171492338180542
1789064044926106600,4.175375976562501,0.8139098334442824,0.8751742302894592,-0.3247697142601013,0.2028776293043978,6.440907492733001,7.392153739833831,0.0540243573486804,0.1139572188258171,0.1531218588352203
1789064044936143600,4.185412841796875,0.7267316815331578,0.959929904294014,-0.8084206614434719,0.2038645397162064,6.445485468173026,7.388135736364125,0.0834925994277,0.0802614539861679,0.1190827041864395
1789064044946179600,4.195448974609375,0.731065619084239,0.3678168288260698,-0.4535211818575859,0.2035707809340208,6.451617687317729,7.382789699161052,0.0654267817735672,0.1230595186352729,0.1007995754480362
1789064044956216800,4.2054860839843755,0.3823542535487562,0.3680629125416279,-0.4483405643492937,0.1998855713489465,6.456458697608113,7.378655960357189,0.0729713514447212,0.1086374372243881,0.102788396179676
1789064044966253800,4.215523193359376,0.7921886346973478,-0.3634498657882213,0.0375689754158258,0.1982625915233045,6.463725473740697,7.372335525164008,0.1110902428627014,0.0890341699123382,0.0898867100477218
1789064044976290800,4.22556005859375,1.1836061193414031,0.4734101236760616,-2.8302620041251183,0.1933590739233419,6.468278314739465,7.3684712509512895,-0.0048952861689031,0.190757617354393,0.0691048055887222
1789064044986327600,4.235596923828124,1.209277297823131,0.5436860214293002,-2.537141227582097,0.1831006234277971,6.464291875451803,7.372231480267644,-0.0718873739242553,0.1397026926279068,0.0350293926894664
1789064044996364800,4.245634033203125,1.5800279881440102,-0.6119879887610673,0.2666355051994323,0.1762686037169769,6.460573731711507,7.375656194019317,-0.0339646898210048,0.1029707565903663,0.0122712785378098
1789064045006401800,4.255671142578125,1.7434104780092834,-0.3301063991129398,0.1939145523816347,0.1719508501157164,6.457616635471582,7.378346748277544,-0.0402774475514888,0.0145239820703864,-0.0221878960728645
1789064045016438800,4.265708007812501,1.8531969867654143,0.3693032679915428,-1.2126876907885074,0.1651149579473771,6.45402182585001,7.381646958866715,-0.0666038915514946,0.0659515336155891,-0.0828351452946662
1789064045026475800,4.275745117187499,1.94777540499568,0.3911363296151161,-1.0337456666111946,0.1562789597366936,6.44924745105505,7.386011583817004,-0.0751481056213378,-0.0154391964897513,-0.1729021817445755
1789064045036512500,4.2857817382812495,1.4665572379171847,0.9264590118467808,-1.3928531192809344,0.1384556726105976,6.439900946038961,7.394518130877613,-0.1584583520889282,0.1307853311300277,-0.209920585155487
1789064045046549800,4.295819091796876,1.0180251695837823,0.0597983428806066,2.1465561021089554,0.1201184080803766,6.433425612545013,7.400472070845961,-0.010605240240693,0.0023437298368662,-0.238094687461853
1789064045056586800,4.30585595703125,1.0542844506405291,0.0174584998011589,1.785547199732065,0.104808409816306,6.4356631623387335,7.39875942170918,0.0407712720334529,0.0109999161213636,-0.2412483692169189
1789064045066623700,4.31589306640625,0.9193271872054783,1.6637006892174482,-1.157232345548272,0.0890806610642001,6.438128091147542,7.396821147122979,0.0009820467093959,-0.0019521015929058,-0.2574467658996582
1789064045076660700,4.325929931640625,1.0965578043550253,1.2646136928588152,-1.192100829833746,0.0710643721166532,6.43783232307136,7.397272982543706,0.0091134048998355,-0.0010257803369313,-0.2770051956176758
1789064045086697700,4.335967041015625,1.2257109846211969,0.4989624980837106,0.5574129334867001,0.053989757066546,6.441379201897979,7.394328745785355,0.0554774440824985,-0.0066144238226115,-0.2653898298740387
1789064045096734700,4.346003906250001,0.9340969593793154,0.4046703494489193,0.917646175315976,0.0392957078768871,6.447385164314508,7.389186122199892,0.1097348257899284,-0.0813642889261245,-0.2911505699157715
1789064045106771700,4.356041015624999,1.0014739938858896,0.1409054312497377,0.2504272977203131,0.0245909751797211,6.454670645147561,7.382885560750961,0.0796024873852729,-0.0302848648279905,-0.2994340658187866
1789064045116808700,4.366077880859375,1.061642339122668,0.2532376789659261,-0.3164332630693912,0.0082665962583152,6.461001601734757,7.377382871681451,0.0619042813777923,-0.0640836954116821,-0.3444172143936157
1789064045126846000,4.376115234375,0.8840489530753344,0.0991495255380868,-0.9151011670082808,-0.0142055475784407,6.461711211308836,7.37675217256248,-0.0126013765111565,0.0027712327428162,-0.365769624710083
1789064045136882700,4.38615185546875,0.6174181971162557,-0.3656739715784788,0.8755354648172855,-0.034280350233172,6.463256687185168,7.375332368892431,0.0334904827177524,-0.0819738209247589,-0.3828987181186676
1789064045146919700,4.39618896484375,0.3374173066481947,-0.41440439247787,0.4244979164689779,-0.0526569603930925,6.463952852755785,7.374613406968116,-0.0059890151023864,-0.1076874434947967,-0.3738817870616913
1789064045156956700,4.4062260742187505,-0.2071273774370551,0.14082652079463,-0.0937310076206922,-0.0659613042234443,6.463279483538866,7.375096806570887,-0.01793222874403,-0.1425876319408416,-0.3320794999599457
1789064045166993700,4.416262939453125,-0.3036152642841451,0.2421779402911663,-1.1413584845900535,-0.0766138731696875,6.461437070542574,7.376608380177616,-0.0364348068833351,-0.1041265279054641,-0.3075027763843536
1789064045177031000,4.426300292968751,-0.5098093246601522,0.6029103638142347,-1.2628425915330648,-0.0917337419894058,6.455794680741429,7.381374571666121,-0.0825225412845611,-0.041800133883953,-0.2849211990833282
1789064045187067600,4.436336914062499,-0.4726977741556242,-0.165498605236411,1.0630904190391302,-0.1046039824185427,6.452821802410483,7.383802675595879,-0.008204098790884,-0.078109934926033,-0.2896674871444702
1789064045197104600,4.4463740234374995,-0.4082078759253025,-0.016973346632719,0.6901520094156265,-0.1167207193329464,6.452737046736479,7.383694539046287,0.0174962375313043,-0.1034775823354721,-0.2737204432487488
1789064045207141600,4.456410888671876,-0.5871132944192737,0.6816203279137611,-0.8446616031259297,-0.1280048413481097,6.452202793729305,7.383974525031447,-0.042504247277975,-0.010442984290421,-0.2197810411453247
1789064045217177600,4.46644677734375,-0.7295707774166017,0.7716302691847086,-0.8096142551422119,-0.1375792642354033,6.450329985594749,7.385438752365112,0.0094305900856852,-0.0949823036789894,-0.1812183111906051
1789064045227214800,4.476484130859376,-0.1475554454571567,0.2465612699419259,-0.233873637804389,-0.1434897669208236,6.450469101804495,7.385203774565458,0.0063498457893729,-0.0397142469882965,-0.1668755859136581
1789064045237251800,4.486521240234374,0.3245134744767099,0.4358125066876411,-0.4595622155874967,-0.1512330745239742,6.451108568751812,7.38449124238193,0.0028159955982118,-0.0403367765247821,-0.198699340224266
1789064045247288600,4.4965578613281245,0.640557811293751,-0.1030757590711116,0.2355593989342451,-0.1609692912437021,6.452648199409246,7.382939921286701,0.0681667700409889,-0.119990587234497,-0.258386880159378
1789064045257325600,4.506594970703125,0.3725503236213698,-0.0125602063655853,-0.6179699857801199,-0.1714374572334811,6.457002887487411,7.37889619885385,0.0287761893123388,-0.0532685741782188,-0.2719112932682037
1789064045267362800,4.516632080078125,-0.4766041704770177,0.1613432391226291,-0.8394687106579541,-0.1825494923510588,6.4580258007943625,7.377734169337153,0.0173264611512422,-0.1102213412523269,-0.2378473281860351
1789064045277399800,4.526669189453125,-1.128056227685511,-0.3556429914295673,-0.2562637487888336,-0.1901014603668823,6.45771425062716,7.377816002401709,-0.0215971674770116,-0.0444025956094265,-0.1608232855796814
1789064045287436800,4.5367060546874995,-1.5618452657215296,-0.355065483802557,0.4035504055082797,-0.1925059459590353,6.45668783018887,7.378651868703961,-0.0016666040755808,-0.1124290525913238,-0.0983966514468193
1789064045297473800,4.5467431640625,-1.4747214012809098,-0.3784937056630849,-0.2146393605023622,-0.192540852875635,6.455276209825277,7.379886378934979,-0.0460900291800498,-0.0097495699301362,-0.0502323694527149
1789064045307510500,4.55677978515625,-1.3764897212401033,-0.01754968521595,-0.3086053459227085,-0.1947050451721996,6.451966646885872,7.382723063665628,-0.0327606387436389,0.0100742010399699,-0.0156168676912784
1789064045317547800,4.566817138671874,-1.4645729322321712,-0.3236602917134761,0.0681172584146261,-0.1973023133900947,6.45027270244956,7.384134684029221,-0.0177852492779493,0.0571556948125362,0.0264003854244947
1789064045327584800,4.57685400390625,-1.8499219106175004,0.1739110442727804,-0.0663555094391107,-0.1978688246990554,6.448600385323166,7.3855796221405265,-0.0348827429115772,0.0888864621520042,0.1020269691944122
1789064045337621800,4.586891113281251,-1.7179904978096483,-0.2828139020621776,0.8485539343893528,-0.1957246888098306,6.449379553002118,7.384955352762341,0.0505530908703804,0.0393078699707984,0.1395889818668365
1789064045347658800,4.596927978515625,-1.632610408296436,-0.3632879532247781,0.7318512165039778,-0.1881798811871558,6.453388788643479,7.381649296954274,0.041396077722311,0.0618065185844898,0.1829028874635696
1789064045357695700,4.606965087890625,-1.5449563825018704,-0.0452478394806385,-0.1793348228871822,-0.1796170738946646,6.457518435794115,7.378250302165746,0.0511711090803146,0.0569562278687953,0.1999114006757736
1789064045367732700,4.6170019531249995,-1.4724766910940408,-0.4587421313762664,-0.2853641710668802,-0.1735369867959991,6.4598085925579065,7.376390938034653,0.0098905144259333,0.1389256566762924,0.2350571304559707
1789064045377769700,4.6270390625,-1.8545738280765711,-0.5536410137325525,0.1752443387031555,-0.1661322634974494,6.46088469735682,7.375619369140267,-0.0085760783404111,0.1217908412218093,0.2830312252044678
1789064045387806700,4.637075927734376,-1.7997946285322308,-0.3962491425842046,-0.1177612870275974,-0.1585127101381309,6.458667021307349,7.377728908640146,-0.056243997067213,0.1910759061574936,0.3258047699928283
1789064045397843700,4.647113037109374,-1.5147960759073495,-0.7972212220370769,0.8783680578947066,-0.1506704904714599,6.454569522860646,7.381477447518706,-0.0714337676763534,0.216687798500061,0.3700394332408905
1789064045407880700,4.65714990234375,-1.3710042755663394,-0.6277484524726867,1.3752736234486105,-0.1406347610821947,6.450297252368927,7.385409526270627,-0.0583328790962696,0.1661697626113891,0.381475567817688
1789064045417917700,4.667187011718751,-1.354063077637553,-0.1805634878993034,0.6485188533008098,-0.1288455847548786,6.44544104450941,7.389863583070039,-0.0803116485476493,0.2046681195497512,0.403129905462265
1789064045427954700,4.677223876953125,-1.350664228979498,0.2802554497510194,0.3181856596946716,-0.1171309441016521,6.440418247911333,7.394435713291168,-0.0825774669647216,0.2197645157575607,0.4278783798217773
1789064045437991700,4.687260986328125,-1.4122567618004978,0.367588865289092,0.7652280009269714,-0.1062656320204492,6.435535152044892,7.398850022602081,-0.0458793379366397,0.2325946390628814,0.4458354711532593
1789064045448029000,4.697298095703125,-1.1833470300137996,0.3332464507043362,1.3159025660693644,-0.0948574543673545,6.434862367349862,7.399590027314424,0.0016018934547901,0.2340713590383529,0.4558801352977752
1789064045458065700,4.7073349609375,-0.9076886987946928,0.7323609195917844,0.907752557811141,-0.0844085775999352,6.436626454412937,7.39818132956028,0.0396194495260715,0.2798648476600647,0.4589088857173919
1789064045468102700,4.717371826171876,-0.744460961099714,0.4685469015538692,0.8362953413188458,-0.0751041627264814,6.441119089657068,7.394372000405192,0.0567563585937023,0.2988739609718323,0.4828384518623352
1789064045478139600,4.727408935546874,-0.7286598731167614,0.785995479145646,0.715021077734232,-0.0662149593241047,6.446289185771346,7.389950092309713,0.0727946460247039,0.3013772964477539,0.4999919533729553
1789064045488175600,4.73744482421875,-0.3860283024189993,0.0444067124813795,1.3672551521658896,-0.0560010968889575,6.454055143597722,7.383253225019573,0.1394029706716537,0.2965276837348938,0.5067893862724304
1789064045498212900,4.7474821777343745,0.0024330951987067,-0.0764238989889621,0.9327917219996452,-0.0440324084094259,6.466548129945993,7.372394561874866,0.1642694324254989,0.2617136240005493,0.491289734840393
1789064045508249900,4.757519042968751,0.5083224836358801,0.1676385398745536,-0.7666951508700847,-0.0345698803648119,6.477617805492877,7.362720140078664,0.139700710773468,0.2972891926765442,0.4314964413642883
1789064045518286600,4.767555908203125,0.7694266947258264,-0.255160755982995,-1.37301736895442,-0.0291693844445864,6.488015865388512,7.353583478420973,0.1257790029048919,0.2677837610244751,0.3815155029296875
1789064045528323600,4.777592773437499,0.3442151500947773,-0.2462017889797687,-2.1397733101010323,-0.0257863521268824,6.497162463918328,7.345515322777628,0.1227555125951767,0.2816303372383117,0.34755939245224
1789064045538360800,4.787630126953125,0.1696613509390503,-0.9020493777334688,-1.7309078470498322,-0.0237646895565674,6.504331040373444,7.339175598362088,0.0624208115041255,0.2817243635654449,0.3470050692558288
1789064045548397800,4.7976669921875,0.3997258422514423,-1.00479020576179,-1.5642986502230167,-0.0247339341642335,6.505917432782054,7.337766316086054,-0.0230011437088251,0.3308658003807068,0.3156881630420685
1789064045558434800,4.8077041015625,0.4671495654439553,-1.2309066535681483,-0.9892448461055756,-0.0269157854150747,6.502189936691522,7.341061265978217,-0.0735225230455398,0.253958910703659,0.2589276134967804
1789064045568471600,4.81774072265625,0.8500042062629014,-1.2010136196076868,-0.5865946043074131,-0.0307383233948959,6.495042403024435,7.347371179777383,-0.1322151273488998,0.2586181163787842,0.2081038504838943
1789064045578508500,4.82777783203125,0.7081822446901351,-0.7170213116407393,-0.2210153252750635,-0.0372072020318824,6.483156734919548,7.357831198993325,-0.1776106357574463,0.2418822199106216,0.1796793192625045
1789064045588545800,4.837815185546875,0.6732908179204911,-0.5078296951502561,0.3070604545682668,-0.0415208502801833,6.470888204976916,7.36860043028891,-0.1708230376243591,0.1891662776470184,0.1578818708658218
1789064045598582800,4.847852050781251,0.6915769276522099,0.5322890136241912,-0.7582774511367082,-0.047387061732728,6.458480558824538,7.379442142298817,-0.1527296304702758,0.1919982135295868,0.1272931843996048
1789064045608619800,4.857889160156249,0.4370618856942281,0.7604109560340643,0.260022809061408,-0.0497998036965727,6.448380020570754,7.388253809785843,-0.13235804438591,0.1241912171244621,0.1036504507064819
1789064045618656500,4.867925781249999,1.1530585669949651,1.0678180320829151,0.0407096115291118,-0.0578609450772404,6.440996924582123,7.394633281689882,-0.0731871575117111,0.229867622256279,0.0695903375744819
1789064045628693800,4.877963134765626,0.9900664646867662,1.1668161664515733,0.618413637894392,-0.0720397564874496,6.437018668600916,7.397972070723772,-0.0186490807682275,0.2222379297018051,0.0251054279506206
1789064045638730800,4.888,1.0685713346682488,1.0687526825845242,1.3941530959635973,-0.0851529844927601,6.440660824495554,7.394661923262476,0.0884239375591278,0.1613710522651672,-0.0137787805870175
1789064045648767700,4.898037109375,1.1489879565551877,1.143543427413702,0.4808481647223234,-0.1016742308432702,6.446524748092889,7.389341605022549,0.0835072100162506,0.223236545920372,-0.0231294054538011
1789064045658804700,4.9080739746093744,1.109620845676213,0.6148620828926563,1.4724766910940408,-0.1157278632375411,6.454317593926191,7.38232851139009,0.1229022517800331,0.1398272514343261,-0.0305900927633047
1789064045668841700,4.918111083984375,1.4586241068303585,0.4374363084971904,0.7863859397679567,-0.1277471950589213,6.465196715337037,7.372604405233264,0.1638278514146804,0.0869930610060691,-0.0623232536017894
1789064045678878700,4.928147949218751,1.5024822455182671,0.2368663898795843,-0.0413496629983186,-0.1389843543935101,6.475427601972222,7.36341689017117,0.1218525022268295,0.0889179110527038,-0.1011932641267776
1789064045688915700,4.938185058593749,1.6904845051161943,-0.0402788188964128,-0.4300830231249332,-0.1507135350287426,6.486068238452076,7.353814949089288,0.1407734602689743,0.0006303945556282,-0.1647283136844635
1789064045698952700,4.948221923828125,2.0404969433128834,0.3246253373533487,-2.4118507140934464,-0.1679319515968672,6.490768963488936,7.349292503228783,0.0019812288228422,0.1106385290622711,-0.2491879910230636
1789064045708989400,4.9582587890625,2.0132249055057763,0.1833008039087057,-1.999278797739744,-0.1949783639545552,6.489189585343003,7.350019648459553,-0.021568838506937,0.0950627699494361,-0.3126833736896515
1789064045719026400,4.968295654296876,2.0457465344041585,-0.5951297929406165,0.0869412013500928,-0.2203174609377048,6.488007682082056,7.350346396195888,-0.000516747473739,-0.0186666082590818,-0.385309100151062
1789064045729063200,4.97833251953125,1.9250706751041116,0.1042290207594633,-0.9516291089385748,-0.2449396418231539,6.484314672783017,7.352826522573828,-0.0809117257595062,-0.0273980498313903,-0.4156691431999206
1789064045739100400,4.98836962890625,1.6869935942605137,0.4270616294771432,-0.8573118258625269,-0.2694765555779449,6.476768495187163,7.358616796413064,-0.0955851078033447,-0.0713093131780624,-0.4472944736480713
1789064045749136400,4.99840576171875,1.6059211388133463,0.1745312219977378,0.3120867582976818,-0.2941978311900049,6.4681812841057775,7.365219555678963,-0.0916873067617416,-0.0525196455419063,-0.4737180769443512
1789064045759173400,5.008442626953125,1.2115617554984983,0.0984399159640073,1.6796160512298344,-0.318823848000355,6.462570458486676,7.369119485726952,-0.0299182496964931,-0.1508361250162124,-0.4818553924560547
1789064045769210400,5.018479736328125,0.713414080929011,0.6299719737410545,0.9790922854036092,-0.3378237320246174,6.461354068434238,7.369339265957474,0.039192646741867,-0.1648344844579696,-0.4970106482505798
1789064045779247400,5.028516601562501,0.5644601485844701,1.2544395048469303,-0.9614648587763308,-0.3585589154088869,6.461024982610344,7.368647776561975,-0.0188127681612968,-0.0984886884689331,-0.4712305963039398
1789064045789284400,5.038553710937499,0.4268984748046845,1.370154380738735,-0.5839987425953149,-0.3844013588042929,6.458436135160922,7.369615160289406,0.0048134657554328,-0.0634958148002624,-0.4669298529624939
1789064045799321300,5.0485905761718755,0.3947147726237773,0.3626630993247032,1.6709937688350676,-0.4071346937358379,6.460062859579921,7.3669672761291265,0.0990371629595756,-0.1398750841617584,-0.4759368300437927
1789064045809358300,5.058627685546876,0.8449755644459277,0.2912912230283022,1.1135790817826985,-0.4276362510273233,6.4684373046934605,7.358453130283951,0.1542429029941558,-0.1352499723434448,-0.4916041791439056
1789064045819395300,5.06866455078125,0.7416384510248899,0.7384358555912971,-0.6692576899468898,-0.450443674108386,6.477538310515881,7.349080321782827,0.1564890146255493,-0.1574771702289581,-0.5263585448265076
1789064045829432300,5.07870166015625,1.1122595236167312,0.0810112267792224,-0.6454010135412216,-0.4737558318411931,6.484937188595533,7.341085231375694,0.1090330779552459,-0.1408912688493728,-0.5441260933876038
1789064045839469300,5.0887385253906245,0.5989332768768072,-0.1469230841040611,-0.6531710630208254,-0.4962818441649899,6.491557483518124,7.333741882875561,0.13724946975708,-0.2283971309661865,-0.5395920276641846
1789064045849506300,5.098775634765625,0.3195060946434736,-0.7748387098371982,-0.250779764419794,-0.5125384573630988,6.498925966459512,7.326093998470902,0.1364686340093612,-0.249824658036232,-0.5216572284698486
1789064045859543300,5.108812500000001,0.3901663886044174,-1.017218894702196,-1.3418699510186909,-0.5266358832333237,6.505626925402879,7.319143448680639,0.0871840044856071,-0.3008509576320648,-0.5192500948905945
1789064045869580300,5.118849609374999,-0.3321808307668194,-0.1614034448772668,-2.624975578379631,-0.5408050226328894,6.502147266593575,7.321202134776115,-0.0986692160367965,-0.2086440622806549,-0.4991493225097656
1789064045879617500,5.12888671875,-0.2058968127287924,-1.1931751810669895,-0.396582320061326,-0.5568059805694967,6.491842730200291,7.329142864647507,-0.0939081162214279,-0.2143628746271133,-0.4781482517719269
1789064045889654300,5.138923583984376,-0.1135182791629806,-1.551824368575215,0.8734861310720443,-0.5712233956417069,6.484777614119649,7.33428548823297,-0.0459736138582229,-0.2772185504436493,-0.4863185584545135
1789064045899691300,5.14896044921875,-0.1920198977414518,-0.2687111424297094,-0.7859644994854926,-0.5810079267488792,6.475978221592307,7.341288060471415,-0.1327536851167678,-0.2577136754989624,-0.4808449447154999
1789064045909728300,5.15899755859375,0.0934392946651205,0.358284445849061,-1.87975809982419,-0.5966704830439761,6.4608502105653285,7.353351423230767,-0.1892843395471573,-0.21080182492733,-0.4616579413414001
1789064045919765500,5.169034912109375,-0.2497370869664475,-0.0159644618511199,0.6038531976222992,-0.6063396806757897,6.447238449320197,7.36449884018898,-0.1065067946910858,-0.2996789515018463,-0.4470843374729156
1789064045929802500,5.179071777343751,-0.4000666550457477,0.2213859121531248,1.1823749701112507,-0.6104359370134771,6.437636508238315,7.37255588991642,-0.0886652171611785,-0.3296592235565185,-0.4136017560958862
1789064045939839500,5.189108886718751,-0.1660060433018952,0.4887760351121425,1.4763830508828162,-0.6146534085780382,6.4301674875319,7.378721426808833,-0.0398156866431236,-0.2923727333545685,-0.4055858850479126
1789064045949876200,5.199145507812499,-0.1353239778555929,0.4629670555949211,1.605342608273029,-0.6185503429513425,6.426497859108448,7.3815925983309745,0.0049989256076514,-0.2935019135475158,-0.4250298738479614
1789064045959913200,5.2091826171874995,-0.1362440883751958,0.8997866934984922,0.9589397242128848,-0.6260099382422865,6.425123648145794,7.38215958456397,0.0453864596784114,-0.2653873264789581,-0.4219467639923095
1789064045969950500,5.2192197265625,-0.4870279493357985,0.6648574091613292,0.7431693138539791,-0.6337576297596097,6.429012472277879,7.37811235499978,0.1063789725303649,-0.225587710738182,-0.3859195113182068
1789064045979987500,5.2292568359375,-1.1402502310872078,0.7942559424906969,0.4054004172891378,-0.6368458050332964,6.43518502343297,7.372462366414069,0.130538210272789,-0.2941541671752929,-0.3036428689956665
1789064045990024400,5.239293701171874,-1.4243890981428324,0.3225830178707838,0.2060860516905784,-0.6335769394304603,6.443730148938298,7.365276838824152,0.1398190557956695,-0.2472596317529678,-0.1886971294879913
1789064046000061200,5.24933056640625,-1.671499818661064,-0.0814905347287654,0.4859603931695223,-0.6212474730808287,6.453358978027105,7.357893158313631,0.1437746435403823,-0.3116362392902374,-0.1149169132113456
1789064046010098400,5.259367675781251,-1.0472598127007484,-0.5789262616366148,0.0955436100006103,-0.6066846947211771,6.46222792865932,7.351321378707885,0.1100664883852005,-0.2802165150642395,-0.097580537199974
1789064046020134400,5.269403808593751,-0.7236739744629711,-0.6709399439454078,-0.6516618275016546,-0.5949325168028473,6.468349626410007,7.346897132524847,0.0639756843447685,-0.2335263937711715,-0.1245621442794799
1789064046030171400,5.279440673828125,-0.985262936862558,-0.7762351326316594,-0.8021610165268183,-0.5857821554133669,6.470245230898261,7.345963066545129,0.0155871156603097,-0.2475748360157013,-0.1386710554361343
1789064046040208400,5.289477783203125,-1.305640407513082,-0.7957447197437286,-0.9578127660095692,-0.5779977120822295,6.469553741502762,7.347188808947801,-0.0270086769014596,-0.1828977912664413,-0.087409570813179
1789064046050245400,5.2995146484374995,-2.267136830471456,-0.4999146842420101,-1.005915410399437,-0.5669994212711229,6.465517033332586,7.351597273039817,-0.0716126263141632,-0.1861511170864105,0.005497196689248
1789064046060282400,5.3095517578125,-2.2537018870979546,-0.4627350004047155,0.1033779568880796,-0.5490105774529278,6.459611024159193,7.358151516988873,-0.0816491469740867,-0.2158630937337875,0.0779140517115593
1789064046070319400,5.319588623046876,-1.5529473812557757,-0.7452566415220498,0.6962076561927795,-0.5276137883547694,6.455726876202226,7.363124044704437,-0.0371503941714763,-0.1912956982851028,0.0977221131324768
1789064046080356400,5.329625732421874,-1.5227844443127512,-0.276425662329793,0.5259855295658111,-0.5045058479571715,6.454064495947956,7.366200967931747,-0.0197694431990385,-0.2587045729160309,0.0874132588505745
1789064046090393300,5.33966259765625,-1.623895186921209,0.1448573837459087,-0.2885223428368568,-0.4827029257435351,6.452963841229677,7.368624980208277,-0.0280337631702423,-0.1598421782255172,0.1075225174427032
1789064046100430300,5.349699707031251,-2.446607993089408,0.1172585982024669,0.0376549001336097,-0.4617484370527788,6.452580394870043,7.370304311597347,-0.0029821065254509,-0.1649790108203888,0.177328810095787
1789064046110467300,5.359736572265625,-2.9730758993446824,0.1467857214599847,0.7344722126573324,-0.4374643290152773,6.453878617987036,7.370648594990373,0.0053013898432254,-0.1078704446554184,0.2752423286437988
1789064046120504300,5.369773681640625,-2.786718045952916,-0.2242430551499128,1.2177192552149294,-0.409391605817154,6.4578463525742285,7.368785723727941,0.07040985673666,-0.0991952940821647,0.3524743616580963
1789064046130541300,5.3798105468749995,-2.4432160125635565,-0.0932984614223241,0.7514321152865886,-0.3767045572239905,6.465615817531943,7.36371441181302,0.0924166217446327,-0.1212760955095291,0.3927389681339264
1789064046140578300,5.38984765625,-1.8860462401829656,0.1716015982866287,-0.6747539492756128,-0.3446014459986239,6.473205834269523,7.358616796413064,0.0690875574946403,-0.025181159377098,0.4306231141090393
1789064046150615600,5.399884765625,-1.5350772319138049,-0.0626116467356681,-0.736231623545289,-0.3141443484146148,6.479371371161937,7.354553200235962,0.0539328381419181,-0.0247574504464864,0.4423492848873138
1789064046160652300,5.409921630859374,-1.2687882020644845,-0.1083066454619169,-0.6711760907888412,-0.2857969364609569,6.483018203231692,7.352494514140487,0.0201555378735065,0.027517881244421,0.4623185098171234
1789064046170689300,5.41995849609375,-1.167939617523551,-0.5430249271720647,0.0632715719491243,-0.2546651362194679,6.487229098924994,7.349924955913424,0.0476694554090499,-0.019272793084383,0.4806972444057464
1789064046180726300,5.429995605468751,-1.2970200248144566,-0.3572510111480951,-0.6244727918028831,-0.2206045342507772,6.491345302072167,7.347391053521632,0.03184674680233,-0.0558497607707977,0.524042010307312
1789064046190763500,5.440032714843751,-1.2612450932085513,0.0357633872985839,-1.8671084616094824,-0.1839548656369559,6.4927750426143405,7.3471362019777295,-0.0371251292526721,0.0767791271209716,0.5790599584579468
1789064046200800500,5.450069824218749,-1.0824749184668063,-0.1441495277374982,-1.5738333712875845,-0.1518857114801183,6.488335014340281,7.351790165263414,-0.0962102487683296,0.0923158377408981,0.6159084439277649
1789064046210837200,5.4601064453124994,-0.6256235692732036,-0.7032926460176706,0.7583347342818975,-0.1207686064842622,6.482446540823578,7.35755998083651,-0.087881751358509,0.1250412911176681,0.6179021000862122
1789064046220874200,5.4701435546875,0.1282189133570529,-1.0217892713576555,1.759239623042941,-0.0878167786082252,6.4780246327281,7.361920514133572,-0.059337992221117,0.0690316706895828,0.5770879983901978
1789064046230911200,5.480180419921876,0.4130649971002713,-0.0972545055717229,-0.0899812996983528,-0.0596209952860139,6.4713675129264585,7.368055071365833,-0.1260642856359481,0.1380664110183715,0.5578674077987671
1789064046240948500,5.4902177734375,0.1047755761257838,0.4274690412342548,-0.2105290025740862,-0.0313035035465844,6.462593839362263,7.375925658610463,-0.1290311515331268,0.0948839634656906,0.5393610000610352
1789064046250985500,5.5002546386718745,-0.0608843251861399,0.5234352605611086,0.2773328403025865,-0.004058397414298,6.4517720010966055,7.385459210631251,-0.137965515255928,0.107682317495346,0.5616788268089294
1789064046261022200,5.5102915039062506,-0.1170034726639278,0.2775567121863365,1.7510592391967772,0.0252755736101302,6.4456608247399325,7.390750887298584,-0.0427090674638748,0.0948660522699356,0.567854642868042
1789064046271059200,5.520328369140625,0.107509750330029,0.6639934858083725,1.158401973849535,0.0536499717521248,6.443493417572975,7.392489255398511,-0.0053909923881292,0.1084859892725944,0.5380629301071167
1789064046281095200,5.530364501953125,0.3923388372726738,0.9767226336628198,0.4306137690007686,0.0770743713874835,6.443655914658308,7.392140295830369,0.0090183624997735,0.1562197208404541,0.5022190809249878
1789064046291132400,5.540401611328125,0.312779307139106,0.8591127378046512,0.8086977248191833,0.0957313419918995,6.444549064105749,7.391143686008453,0.0514667555689811,0.1994460225105285,0.4842891097068786
1789064046301169400,5.550438720703125,0.2396810089088976,0.2919301054537296,1.4430068509817122,0.1164565428382717,6.450889957565069,7.385313080158829,0.1127624362707138,0.1128047481179237,0.4831935167312622
1789064046311206400,5.5604755859375,0.3297822451924905,1.052251629638672,-0.5854927805453538,0.1363388722528703,6.457161877441406,7.379488904049992,0.0798031538724899,0.1686802506446838,0.4736692607402801
1789064046321243400,5.5705126953125,0.6037150677932426,0.3225292418569326,0.0135813661068677,0.1565936882416717,6.464134639063477,7.372979668286442,0.1303934603929519,0.1035124659538269,0.441299170255661
1789064046331280400,5.580549560546874,1.18986415682286,-0.1331289520293474,-0.2710837167799472,0.1763272568353451,6.474471908682585,7.363457806703447,0.1471737772226333,0.0640327036380767,0.3773766458034515
1789064046341317400,5.5905866699218745,1.4315540213361382,0.054547582745552,-1.9188819034665825,0.1909665710299275,6.483418600726127,7.355216048058867,0.1096171736717224,0.1365162283182144,0.3002930283546448
1789064046351354400,5.6006235351562506,1.2511907321840523,-0.514732314145565,-2.0763620374202727,0.1986480837095528,6.491258208310604,7.348094817876816,0.1067870333790779,0.115889772772789,0.2472604215145111
1789064046361391400,5.610660644531251,0.7299031511761248,-0.7103647763609886,-2.0358663609027863,0.2041348080249503,6.496102725732326,7.343661803865432,0.0276981424540281,0.1521128118038177,0.2264950573444366
1789064046371428400,5.620697753906249,0.3506375112924724,-1.1207347987562415,-1.4307885899215935,0.2087078150289133,6.494370202851295,7.34506465640068,-0.0499875992536544,0.1405123472213745,0.2330538779497146
1789064046381465300,5.630734619140625,0.5498950321372598,-1.3629191687881943,-0.5967337210059166,0.213256820102781,6.488605647975206,7.350027831766009,-0.1030253469944,0.1363108605146408,0.2359139919281005
1789064046391502300,5.640771728515626,0.498607401035726,-1.1109212607502936,-0.2648106278598308,0.2209998171786777,6.478871020424366,7.35838123409152,-0.1522624045610427,0.054752092808485,0.2180375158786773
1789064046401539300,5.65080859375,0.6065227090924978,-0.6165414142817258,-0.5808329720407724,0.2304005183337256,6.465276794835924,7.370040692225098,-0.2045308649539947,0.0508546791970729,0.191696435213089
1789064046411576300,5.660845703125,0.8569671040780842,0.0871294173985719,-1.0553069255560636,0.2340406466680578,6.448592202016711,7.38452865178287,-0.238149806857109,0.162256047129631,0.15119668841362
1789064046421613600,5.6708828125,0.6256422009084374,0.0393470910042524,0.923442878895998,0.2322302910441532,6.433826010039448,7.397455353373289,-0.1412257701158523,0.0969194322824478,0.1057738810777664
1789064046431650300,5.680919677734375,0.1166955574922263,0.0976917279452085,1.9829794048458336,0.2301643897566012,6.426956708791852,7.403488203796744,-0.0519179888069629,0.1283500492572784,0.1153079941868782
1789064046441687300,5.690956542968751,-0.6606080811537802,0.965819546854496,0.9456295762628316,0.2311480852980166,6.424781118318438,7.405345229840278,-0.0108489142730832,0.1250980794429779,0.1584281176328659
1789064046451724300,5.700993652343749,-1.204931304508075,1.4175380632042884,-0.1073170499026775,0.2321372059332206,6.42377164901495,7.406190448492765,0.0142585691064596,0.1515273004770279,0.2353066504001617
1789064046461761300,5.711030517578125,-0.9752882169455288,0.8691390417784451,0.7267693831950426,0.237275591734983,6.427040295422077,7.403190682154894,0.063321053981781,0.2249295115470886,0.2768129110336303
1789064046471798500,5.72106787109375,-0.5175939141217619,0.6281120250880717,1.003697734349966,0.239268025927525,6.431041932278871,7.399650817590952,0.0906773135066032,0.1487961262464523,0.2721688747406006
1789064046481835300,5.7311044921875,-0.0090499514886178,0.2088233676999807,1.427799929499626,0.2441305539299733,6.438976816931366,7.392588039597869,0.1112822592258453,0.2079609632492065,0.2339376956224441
