time,seconds_elapsed,z,y,x
1789225098568935000,0.048934814453125,-1.2054548169255257,0.6107616618365049,1.1075785261936486
1789225098578974000,0.058973876953125,-1.0188888737410307,0.7509832024753094,1.1968954436991364
1789225098589013000,0.069012939453125,-0.8231833462893963,0.8657032221108675,1.1739667688585818
1789225098599052000,0.079052001953125,-0.6875812821447849,0.8180629345357417,1.1683654417201876
1789225098609091000,0.089091064453125,-0.5304816719412804,0.7849246350437402,1.2562797258861362
1789225098619128800,0.09912890625,-0.2838759783357382,0.7433177824139594,1.2885353973247111
1789225098629168000,0.109168212890625,-0.76606971244812,1.9159107787013052,-0.9274193813115358
1789225098639207200,0.119207275390625,-2.6725246805399654,6.2934635996252295,-7.071573293957114
1789225098649246000,0.129245849609375,-1.8915128350257873,6.63930825061798,-5.258162520265579
1789225098659285000,0.139284912109375,-0.02018354085087776,3.0514708061456677,-2.033426128143817
1789225098669324000,0.149323974609375,-0.17569968125522137,1.3317799341589212,-0.985586615858972
1789225098679362000,0.159362060546875,-0.3294435512900352,0.5817746368050575,0.7150573180913925
1789225098689400800,0.16940087890625,-0.8432499827623366,0.1317225923627615,0.9042666153915226
1789225098699440000,0.179440185546875,-1.193924538129568,-0.4369768742918968,1.1395130028538405
1789225098709479200,0.189479248046875,-1.1681693346261977,-0.6636690761595964,1.4161299499720335
1789225098719518000,0.19951806640625,-1.047027172988653,-0.9314274479091167,2.1107741562403737
1789225098729556000,0.209555908203125,-0.92569562625885,-0.9672790980130433,2.8026868917182086
1789225098739595000,0.219594970703125,-0.3850806828379631,-0.5343798484236002,2.4597072747677564
1789225098749634000,0.229634033203125,1.3904185856103897,0.5320797547876834,0.3647647477790713
1789225098759673000,0.239673095703125,3.5358933222234246,1.721430409130454,-1.5724822489395738
1789225098769711900,0.2497119140625,3.599185352438688,2.215940603980422,-2.038625011961162
1789225098779751200,0.259751220703125,1.5091788205474614,1.7785615786284208,-1.0740949203953147
1789225098789789000,0.269788818359375,-0.5382125584542751,0.7317524323046207,0.2762935603827238
1789225098799828000,0.279827880859375,-1.3955553639769553,-0.5376642769217491,0.9984469742149114
1789225098809867000,0.289866943359375,-1.7063170111507175,-1.3031231639951466,0.8364499473586678
1789225098819906000,0.299906005859375,-1.6161416501849888,-0.9699316583484411,0.004895663087069988
1789225098829945000,0.309945068359375,-1.3284633569568396,-0.24531974544823168,-0.5750713397741317
1789225098839983900,0.31998388671875,-0.9181532480552792,0.09882394684553146,-0.4833478725835681
1789225098850022100,0.330022216796875,-0.49942836202979085,0.1057324110597372,-0.3759454824849963
1789225098860061000,0.34006103515625,0.3365358476385474,0.047856560674309725,-0.13807137686759233
1789225098870100000,0.350099853515625,1.116116783566773,-0.04331014941632747,0.092334584826231
1789225098880139000,0.360138916015625,1.355458331388235,-0.11951952887177467,0.23678777168542145
1789225098890178000,0.370177978515625,0.899199541260302,-0.2946487167626619,0.580537203964591
1789225098900217000,0.380217041015625,0.3672913436472416,-0.33700141932368277,0.7380553318411112
1789225098910254800,0.3902548828125,-0.4364198249310255,-0.1110696804344654,0.7083966911584139
1789225098920294100,0.400294189453125,-1.2345225059777498,-0.19544483068883417,1.1279685494020582
1789225098930333200,0.410333251953125,-1.678759142139554,-0.38252281504869456,1.787660246363282
1789225098940372000,0.4203720703125,-1.927884709611535,-0.500284102076292,1.8944559027403591
1789225098950411000,0.430410888671875,-2.0744845531105995,-0.40292905873954293,1.5730048115089534
1789225098960449000,0.440448974609375,-2.389908346876502,-0.1755278318196535,1.4540002464219928
1789225098970488000,0.450488037109375,-2.7251532779216765,-0.2345744795501232,1.6648998358741403
1789225098980526800,0.46052685546875,-1.9796280485913156,-0.8147855203002691,1.8201479729920624
1789225098990566000,0.47056591796875,-0.2958247748047113,-1.3482231194376946,1.650554499657452
1789225099000605200,0.480605224609375,0.7571054847478866,-1.5465397061705588,1.7454881610661743
1789225099010644000,0.49064404296875,1.3601216470241546,-1.5266297215640543,1.4325383561983704
1789225099020682000,0.500681884765625,2.0642013517662883,0.019615970095992086,1.4050167275443672
1789225099030721000,0.510720947265625,1.68684191083014,1.7001631646960973,1.5049290541484952
1789225099040760000,0.520760009765625,1.3160200549691914,1.3537427596420049,0.8307225096225738
1789225099050799000,0.530799072265625,0.9459893494859337,0.6945511211574077,0.38188510166704653
1789225099060838000,0.540837890625,0.26642946123331784,-0.5640110165774822,0.3780477154612541
1789225099070877200,0.550877197265625,0.41777445343285796,-1.278338266828656,1.2631561875268815
1789225099080915000,0.5609150390625,0.8298340363502502,-1.702213082963228,1.712209868581593
1789225099090954000,0.5709541015625,0.7045736257389187,-1.911642599862814,1.4893120905607937
1789225099100993000,0.580992919921875,-0.1200112579114735,-1.815574089205265,1.2164011583536862
1789225099111032000,0.591031982421875,-0.5167407313585282,-1.8773744195580482,0.7340864282101393
1789225099121071000,0.601071044921875,-1.0645312654972077,-1.9850059422373771,0.21489391978532074
1789225099131109000,0.611109130859375,-1.5828468449570237,-1.8891455213725565,-0.35481355486810207
1789225099141148200,0.621148193359375,-0.8261433651387691,-2.4747300718545913,-0.2853168247938156
1789225099151187000,0.63118701171875,0.904450447525829,-3.0391753881961105,0.4017591381773352
1789225099161226000,0.64122607421875,1.8667226771622896,-2.916680642905831,0.5655155759215355
1789225099171265000,0.65126513671875,1.72464586404562,-2.6340713235050437,0.43453065018355846
1789225099181304000,0.661303955078125,1.3844080931492149,-1.5614134501755237,-0.3660845982059836
1789225099191342000,0.671342041015625,1.5224351924836634,-0.5367173514604568,-1.2826125831469892
1789225099201380900,0.681380859375,0.5960463232636452,-0.06140636259913444,-2.1661007605344054
1789225099211420200,0.691420166015625,0.8179741602737456,0.019256489133834837,-2.814888786165416
1789225099221459000,0.701458984375,0.7426047387737781,-0.35424715315699573,-2.720609204751253
1789225099231498200,0.711498291015625,2.482270988753438,-0.3872714708805084,-2.8437752734318376
1789225099241536300,0.721536376953125,2.197605905866623,-0.22645956215560434,-2.1691709617599844
1789225099251575300,0.7315751953125,2.5766262657523153,0.2469271806448698,-2.0252251399010417
1789225099261614000,0.741614013671875,0.9828361481070518,0.2738578576683998,-1.313954354611039
1789225099271653000,0.751653076171875,1.483272810396552,0.17367723551690578,-1.2730220402419565
1789225099281692200,0.761692138671875,1.9691081158816812,-0.06320610549747943,-1.6886989368736742
1789225099291731200,0.771731201171875,0.9716238492190837,-0.0716951169013977,-1.7457994189724324
1789225099301769200,0.781769287109375,0.3508756308972835,0.3551122455537319,-2.068588188548386
1789225099311808000,0.79180810546875,0.2209019280284643,0.684287501296401,-2.0532944655656813
1789225099321847300,0.801847412109375,0.8367197042107581,0.8211153078436851,-1.8891396761536596
1789225099331886000,0.811885986328125,0.7208855858534574,0.7651525976032019,-1.919410018993914
1789225099341925000,0.821925048828125,0.44402913089096546,0.6132184073388576,-1.9964675397112965
1789225099351963100,0.831963134765625,0.1730178948253393,0.38394963298141954,-1.8914251567423344
1789225099362002200,0.842002197265625,-0.05353284361190162,0.26748013933002945,-1.632240259809792
1789225099372041200,0.852041259765625,0.30845337023138997,0.2946095537960529,-1.1515040310293436
1789225099382080000,0.862080078125,1.0831903732597827,0.5893149691820144,-0.40823885558545586
1789225099392119300,0.872119384765625,1.5091677146315574,0.7604857748359442,0.08646919992417097
1789225099402158300,0.882158447265625,1.7606921599388121,0.27130525057613847,0.4521989933431148
1789225099412196000,0.892196044921875,1.8310791168510914,0.23875088845193385,0.4926259885385632
1789225099422235100,0.902235107421875,0.7750748566806316,-0.3167588417619467,0.35217122366577386
1789225099432274200,0.912274169921875,-0.11072481251955031,-1.5453689088255167,0.2126172070249915
1789225099442313200,0.922313232421875,0.02532969896714203,-2.689228562581539,-0.14716770651489494
1789225099452352000,0.93235205078125,0.4698199902296066,-3.3104274472802877,-0.2733104529187083
1789225099462390300,0.942390380859375,0.7980407217264175,-3.2427503338485955,0.021201193460822103
1789225099472429000,0.952428955078125,1.1209984181284904,-2.8086884702205657,0.26320611527264115
1789225099482468000,0.962468017578125,1.2041232760608196,-2.2242308779418467,0.25874592099338767
1789225099492507100,0.972507080078125,0.7262883216798305,-1.1130044967651367,-0.004066226525604725
1789225099502546200,0.982546142578125,-0.45556233229637144,0.5660825621545315,-0.2167278572142124
1789225099512585200,0.992585205078125,-2.783293332201242,5.668503316566348,0.08697744170725345
1789225099522623000,1.002623046875,-0.7142939325034618,7.847243193921447,-1.8569430414259434
1789225099532662300,1.012662353515625,1.3202274435311554,7.951973149940371,-1.2655860450223086
1789225099542701300,1.022701416015625,1.9645003298252819,7.5666773630470034,0.3439429090246558
1789225099552740000,1.032739990234375,1.6597596965067087,4.767966681483387,-0.16553265363648534
1789225099562779100,1.042779052734375,0.8876695547252893,1.5927812328636646,0.5606662361942232
1789225099572817200,1.052817138671875,1.1092471169929952,-0.5555465550929307,1.1967179682403801
1789225099582856200,1.062856201171875,1.2731307613134384,-2.2633909219413995,2.0931457066997883
1789225099592895000,1.07289501953125,1.3642787667036056,-3.539094748613238,2.339680819287151
1789225099602934000,1.08293408203125,1.1231786847770213,-4.107263469392061,2.0154329369440673
1789225099612973300,1.092973388671875,0.10796170448176562,-3.626582477930188,1.47404496332407
1789225099623011000,1.103010986328125,-0.708720443220064,-2.4351444959193467,0.8582029294833541
1789225099633050000,1.113050048828125,-0.6344042571000754,-1.0269161128520965,0.4450713334202766
1789225099643089200,1.123089111328125,-0.32309038287103176,0.22857962304949758,0.17322160070389508
1789225099653128200,1.133128173828125,0.8406511984407902,1.6102303803145885,-0.43912353093177076
1789225099663167200,1.143167236328125,0.6171487325251102,2.0503098967969415,-0.5505563455902039
1789225099673206000,1.1532060546875,0.5159047189258039,2.414945757499337,-0.4838910395495593
1789225099683244300,1.163244384765625,0.6778986770421266,2.742195013615489,-0.8865721148774027
1789225099693283000,1.173282958984375,0.7600573202908039,1.9957471164822578,-0.7876485070496797
1789225099703322000,1.183322021484375,1.0663561428368091,0.8035960177659988,-0.9925751595720648
1789225099713361200,1.193361083984375,1.06346816631034,-0.28989772284328935,-1.0582830187574028
1789225099723400200,1.203400146484375,0.7454014568202197,-0.7821580929398536,-1.2601637277126312
1789225099733438200,1.213438232421875,-0.5182680870562791,-1.157394842633605,-1.2193551858536897
1789225099743477000,1.22347705078125,-0.19285072254240512,-1.5250199482798577,-1.2412749028474093
1789225099753516300,1.233516357421875,0.6236082108628005,-1.6964648947000502,-1.1403919776454567
1789225099763555000,1.24355517578125,0.3857072903037071,-1.6528087083250282,-0.2576794608056545
1789225099773594000,1.253593994140625,0.24972601758316157,-1.0064256980091333,-0.2153309960283339
1789225099783632100,1.263632080078125,0.31946050193607806,-1.2942296634435653,-0.45388913838714356
1789225099793671200,1.273671142578125,0.5918067859977484,-0.9449421785205602,-0.768166100205481
1789225099803710200,1.283710205078125,0.2675572962194681,-0.3335112391203642,-0.6083300507754087
1789225099813749000,1.2937490234375,0.45021695268042383,0.07382336110174656,-0.06037643502950668
1789225099823788300,1.303788330078125,0.5409574732482433,0.48777299554944037,0.12475450691580772
1789225099833827300,1.313827392578125,0.8275671873968095,0.7050637473434209,0.0022226444855332375
1789225099843865000,1.323864990234375,0.4695183769345283,0.5015080909132957,-0.24480682749003171
1789225099853904100,1.333904052734375,-0.8077420315295457,-0.43654199000597,-0.3251169202625751
1789225099863943200,1.343943115234375,-1.0415654004514217,-1.042133555728197,-0.33775194543004033
1789225099873982200,1.353982177734375,-0.25052494940850883,-0.6983148576050996,-0.08300853807628154
1789225099884021000,1.36402099609375,0.5466110420305281,-0.14910861144959925,0.34901246737390756
1789225099894059300,1.374059326171875,0.4948473909150809,0.6335901642382145,0.27322496659234163
1789225099904098000,1.38409814453125,0.45625323716998095,1.4193623560220003,-0.16211699997410178
1789225099914137000,1.39413720703125,0.7080020658176391,1.9336843358010052,-0.6393227165408432
1789225099924176100,1.404176025390625,0.9440857808869332,2.0596371125906705,-1.5563618658743799
1789225099934215200,1.414215087890625,0.08901267386190592,0.6408353130608797,-1.3892561177022755
1789225099944253200,1.424253173828125,0.09655008362941443,-0.5467734660506248,-1.331046213056892
1789225099954292000,1.4342919921875,0.2448690060060471,-1.011146296790242,-1.6156068126559258
1789225099964331300,1.444331298828125,-0.36943186280727386,-2.114838190808892,-0.7124310612410306
1789225099974370300,1.454370361328125,0.5251753822267056,-1.3449667479902505,-0.9883345263276249
1789225099984409000,1.4644091796875,0.18833119929134845,-1.7202642879605292,0.04294730745330453
1789225099994447000,1.474447021484375,1.0449819308966397,-1.351819682624936,0.25708156797774134
1789225100004486100,1.484486083984375,0.7735124296694994,-0.582025396695733,0.7132385051663964
1789225100014525200,1.494525146484375,1.3103279808074235,-0.17044833659827707,1.3513757382497191
1789225100024564200,1.504564208984375,1.4590180745840071,0.20560557469725607,1.431957049179077
1789225100034603000,1.51460302734375,-0.35524843915402887,-0.29506255826056,1.3800403994590043
1789225100044642300,1.524642333984375,-0.4464122266352176,-0.083550389868021,0.6841551801536232
1789225100054680000,1.53468017578125,-0.38091435693874953,0.17699907341599463,0.7797996932454406
1789225100064719000,1.544718994140625,-0.043387452436238524,4.385993317010999,2.5832763712912796
1789225100074758100,1.554758056640625,-1.1143611720710993,4.716631631043553,3.2335341772139072
1789225100084797200,1.564797119140625,0.662333955098316,1.8160820387274026,1.187729921273142
1789225100094836200,1.574836181640625,-0.4379676388949156,0.17565116593837737,1.6957291277714073
1789225100104874200,1.584874267578125,-1.870616908121854,0.036117607563734055,1.8776802706368267
1789225100114913300,1.594913330078125,-0.20022548909410834,-1.251898588192463,1.0621446626216173
1789225100124952000,1.6049521484375,-0.151025404856354,-1.7073153745383023,0.668363225325197
1789225100134991000,1.6149912109375,1.0290139619141816,-0.9935971960961818,-0.20751915323361753
1789225100145030100,1.625030029296875,0.7749244884245097,-0.8089964155048132,-0.4519796515040099
1789225100155068200,1.635068115234375,-0.6676064156085252,-0.954424292615056,0.0704245855089277
1789225100165107200,1.645107177734375,0.6971366076059639,0.04776654430329799,-0.8007453775752336
1789225100175146000,1.65514599609375,-1.8223909296132623,-1.5289730698198079,-0.30377675672248006
1789225100185185300,1.665185302734375,0.1568729618407786,-0.5025274970889091,-1.2849366421803832
1789225100195224000,1.67522412109375,-1.1217390073627234,0.051750645503401756,-0.567075664845109
1789225100205262000,1.685261962890625,-1.1595480751447378,-0.9285504311680793,0.2514228115636855
1789225100215301000,1.695301025390625,-2.089523132288456,-0.6361299118489027,-0.1419611508477479
1789225100225340200,1.705340087890625,0.0750732150323689,-0.5935667814075947,-0.18798837720304726
1789225100235379500,1.71537939453125,-1.4546601716354488,-0.6585188537895679,-0.44577568229734893
1789225100245418500,1.72541845703125,1.9144839607685804,1.856559595066309,-1.0447093245003372
1789225100255456500,1.73545654296875,-0.23416151483505962,1.6331600050032138,-1.138074202222377
1789225100265495600,1.74549560546875,0.16654767589792607,0.6534095479518175,-2.159024976929277
1789225100275534600,1.75553466796875,0.17458090635836124,2.4859604909211397,-1.9764216537654398
1789225100285573400,1.765573486328125,0.36090544200241564,2.595765850508213,-1.700779250767827
1789225100295612700,1.77561279296875,-0.5324357286185026,2.0169372040271756,-2.5659581567436454
1789225100305650400,1.785650390625,0.1426267020843923,2.225945865166187,-2.3462515759795903
1789225100315689500,1.795689453125,-1.0534762029975653,2.1905904741466045,-1.931195149333775
1789225100325728500,1.805728515625,-1.9923165575116872,2.0999474956691264,-1.0128767738446594
1789225100335767600,1.815767578125,-1.4957988222315906,0.6338368324756622,0.7230173371851444
1789225100345806600,1.825806640625,-0.3576709901258349,0.06786883661150932,1.3972209591016171
1789225100355844600,1.8358447265625,-0.5677037336155771,0.17164719099402426,1.1232609562329947
1789225100365883600,1.845883544921875,-0.3048667439162731,0.24185879133939742,0.3856061314841732
1789225100375922400,1.85592236328125,-0.5552341281428933,-0.1760199992507696,-0.3611125088818371
1789225100385961500,1.86596142578125,-0.18420710509866475,-0.847661953985691,-0.719844333172217
1789225100396000500,1.87600048828125,-0.17331074029207227,-1.0162263765335082,-1.0043082674637436
1789225100406038500,1.88603857421875,0.4959580555707216,-0.5891992338478564,-0.9816296218615025
1789225100416077600,1.89607763671875,0.6596157091155648,-0.21994623473882674,-0.7149991581633687
1789225100426116400,1.906116455078125,0.4436912772387266,-0.6822457663357258,-0.030175029239617287
1789225100436155600,1.91615576171875,0.9022533758729696,-1.3589473425477743,0.6338833019658923
1789225100446194400,1.9261943359375,1.0509861397475004,-1.0791852292716502,0.8429216275908052
1789225100456232400,1.936232421875,0.7405383808284998,-0.9136983144730328,0.33575792206861077
1789225100466271700,1.946271728515625,0.005540390731394291,-0.9925281055599451,0.17517927411030976
1789225100476310500,1.956310546875,-0.5413195845589042,-1.1066074892044067,-0.5581267808444798
1789225100486349600,1.966349609375,0.1859843439042568,-1.2348825714617966,0.45530514266490935
1789225100496388400,1.976388427734375,-0.6721735773935914,-0.9090729927599429,2.2626887650214136
1789225100506426600,1.986426513671875,-0.24148323602527377,-0.02065934166908264,3.472500754243135
1789225100516465400,1.99646533203125,-0.22124387333393095,-0.30980946101546286,2.8380589416116475
1789225100526504400,2.00650439453125,-0.8856576303809881,-0.17416764938235282,1.033821362195909
1789225100536543500,2.01654345703125,-0.2582932087898254,-1.168303190138936,0.4591480452960357
1789225100546582500,2.02658251953125,0.31655133649110795,-0.6272790813952684,-0.6520537494286894
1789225100556620500,2.03662060546875,-0.38914135640561576,2.0615467456042764,-0.7498746567115188
1789225100566659300,2.046659423828125,-0.0024137831434607503,0.11943009702265261,0.9263768865212798
1789225100576698600,2.05669873046875,-0.7432727742284536,1.2079752753138542,-0.8310776066705584
1789225100586737700,2.066737548828125,-1.34244073664397,1.300603290128708,-0.5691540420217439
1789225100596776400,2.0767763671875,-0.5601616476729512,0.011243863070011139,0.4477863645326346
1789225100606814700,2.086814697265625,-0.5440647916138172,1.3378373345017431,0.781349991427362
1789225100616853500,2.096853515625,-0.31844021897763014,0.26006138750612734,-0.5208937593847512
1789225100626892500,2.106892578125,-1.0189248218372464,-2.451616907292604,-2.1273086730644106
1789225100636931300,2.116931396484375,0.15552373918890952,-1.1903314820736646,-0.6411190984383225
1789225100646970600,2.126970703125,-0.8700742768019437,0.9342892670810222,-0.6772725079677998
1789225100657008400,2.13700830078125,-1.9346920515388248,-0.5143243178665637,-0.8226955627724528
1789225100667047400,2.14704736328125,-0.15110563048571346,1.0323340462476014,-0.9914470323249697
1789225100677086500,2.15708642578125,1.2050117493331431,2.652739199095964,3.337607130628824
1789225100687125500,2.16712548828125,2.8793688571214675,1.7088602658927439,4.215783465343714
1789225100697164500,2.17716455078125,1.0635808329045773,-0.46064299656152724,-0.1438809399291873
1789225100707202600,2.18720263671875,0.1049506130322814,0.5221300231814384,-0.09735372816249728
1789225100717241600,2.19724169921875,1.032603218577802,0.2855401121556759,-0.1700486697562039
1789225100727280600,2.20728076171875,0.23716098891198634,0.7387333772331476,-0.6967427859827876
1789225100737319400,2.2173193359375,0.5636652718797326,1.1773527580350638,-0.35839009818062184
1789225100747358500,2.2273583984375,0.21072510966807603,0.8555968386381864,-0.5761272055026143
1789225100757396500,2.237396484375,-0.2733668592810631,0.4911597153782844,-0.39150523599274456
1789225100767435500,2.247435546875,-0.6160436938926577,0.12753215493559836,0.7157852670397609
1789225100777474600,2.257474609375,0.2465963412553072,0.1434159527659416,0.9237280525129288
1789225100787513600,2.267513671875,0.7211345921784639,0.0258504805713892,0.8107081147935241
1789225100797552600,2.277552734375,0.9051397449642419,0.37922669611275195,0.5270389110762626
1789225100807590400,2.28759033203125,0.5468985537350177,0.6414671812236309,0.30868389105163513
1789225100817629700,2.297629638671875,0.7333481770634651,0.9559282674372196,0.39513175592683253
1789225100827668500,2.30766845703125,0.4632467493191361,1.0586679264217616,0.6423280358366668
1789225100837707500,2.31770751953125,0.24071926591545342,1.0837836629778146,0.9718263860538602
1789225100847746600,2.32774658203125,0.009493220010399818,1.0081079520076512,1.2457163924261927
1789225100857784600,2.33778466796875,0.15070318716466427,0.9225620044082402,1.2202908592686057
1789225100867823600,2.34782373046875,0.6248638369470835,0.8479723351091146,0.9971135336540639
1789225100877862400,2.3578623046875,0.853831582531333,0.7344622757852077,0.5750649100333451
1789225100887901400,2.3679013671875,0.406105058427155,0.5735884077399969,0.08963840454481542
1789225100897940700,2.377940673828125,0.7004071537092328,0.3135749510288238,0.08368811783827841
1789225100907978500,2.387978515625,0.3601245207577944,0.19264438631534575,0.2418828298021108
1789225100918017500,2.398017578125,-0.21778525731265544,-0.07692366520464419,0.4239144174925983
1789225100928056600,2.408056640625,-1.149518702431023,-0.33791794964671135,0.23049882760904727
1789225100938095600,2.418095703125,-0.6590174509614706,-0.5432219110488892,0.22013532757014034
1789225100948134400,2.428134521484375,-0.8425634618028998,-0.3410848892450332,-0.010392580002918839
1789225100958172700,2.438172607421875,-2.5387661984354257,-0.5418266572982072,0.25070063476897775
1789225100968211500,2.44821142578125,-1.9410957811012863,-0.5578109928935766,-0.7614104884654284
1789225100978250500,2.45825048828125,2.2037223429203032,-0.667461454179883,-0.7334398008696734
1789225100988289500,2.46828955078125,1.5349810780629514,-0.5590706375658512,-0.11122026788629591
1789225100998328300,2.478328369140625,-1.18089349938184,-0.5467758041381836,-0.07344700207002461
1789225101008366600,2.48836669921875,-2.016023011791706,-0.6903706206023693,0.12734043175578116
1789225101018405400,2.4984052734375,-0.7393196526885032,-0.47180502656698226,-0.12043167528063058
1789225101028444400,2.5084443359375,0.8113567148953675,-0.09615969607234001,0.046570977843180296
1789225101038483700,2.518483642578125,0.9461994851052761,0.23711831881403922,-0.05083491889797151
1789225101048522500,2.5285224609375,-0.15241232917010783,0.4436573749691248,-0.1416526694204658
1789225101058560500,2.538560546875,-0.992050843437016,0.5886994676321745,-0.16021774222403765
1789225101068599600,2.548599609375,-0.22355302705913782,0.7176280453622341,-0.21126265061087904
1789225101078638600,2.558638671875,0.9368553181767463,0.712107820636034,-0.09135945618376136
1789225101088677400,2.568677490234375,0.8530468618944287,0.6605471447467803,0.14123013315945862
1789225101098715600,2.578715576171875,-0.15918576882779598,0.5288502713471651,0.29290194616056975
1789225101108754700,2.588754638671875,-0.906704510062933,0.31651626517772674,0.3034060967791825
1789225101118793500,2.59879345703125,-0.5984694587573409,-0.005887304472923278,0.2618448368567973
1789225101128832500,2.60883251953125,-0.027898353011906147,-0.22960195183455942,0.19593699811995027
1789225101138871600,2.61887158203125,-0.06706628805696964,-0.367557301107049,0.2868241606168449
1789225101148909600,2.62890966796875,-0.40310149269700046,-0.5993576397687196,0.24836305866688488
1789225101158948400,2.6389482421875,-0.8088841873019933,-0.7778191869527101,0.06849478649012744
1789225101168987400,2.6489873046875,-0.9743144034773111,-0.9804489607095718,0.22511289678700266
1789225101179026700,2.659026611328125,-0.7131158286347985,-0.893930953207612,0.6011118630249053
1789225101189065500,2.6690654296875,0.06434592318236827,-0.6472054326146841,0.23513057906292378
1789225101199103500,2.679103515625,0.1499555836677551,-0.37576574200391766,0.2598310128163546
1789225101209142500,2.689142578125,-0.6367056659102439,-0.018849077376723287,0.02577792679183185
1789225101219181600,2.699181640625,-0.8679203136384487,0.20655191563665865,0.10777312310710549
1789225101229220600,2.709220703125,-0.1497638604879379,0.3787672619074583,0.03501008471325039
1789225101239259100,2.719259033203125,0.5245893990322947,0.4947907653570175,-0.006789660140126943
1789225101249297400,2.72929736328125,0.31815555681735275,0.7259265026301145,-0.12963380338996647
1789225101259336200,2.739336181640625,-0.1814753420472145,0.7176993570327759,-0.21820874342173335
1789225101269375200,2.749375244140625,-0.4796949030339718,0.9140116182059049,-0.6986486926693469
1789225101279414500,2.75941455078125,0.04498772723972797,0.7125391977906227,-0.48667584796249863
1789225101289452300,2.769452392578125,0.2650336229607463,0.46601007655262944,-0.5260790530681609
1789225101299491300,2.7794912109375,-0.20324030687063932,0.13984569306373595,-0.29075097867175936
1789225101309530400,2.7895302734375,-0.7639657259061932,-0.1155056170552969,-0.4635051810596138
1789225101319569400,2.7995693359375,-0.8407324469834566,-0.2338812365889549,-0.6457096410989761
1789225101329608200,2.809608154296875,-0.41649990345239635,-0.28284546624422074,-0.7484726809591055
1789225101339646500,2.819646484375,-0.04598667514920234,-0.31942250801324845,-0.7657843196354805
1789225101349685500,2.829685546875,-0.27940876979380846,-0.31876375184357164,-0.4762882363956421
1789225101359724300,2.839724365234375,-0.580119270813465,-0.3399012324184179,-0.31433753289915617
1789225101369763300,2.849763427734375,-0.46248511729687447,-0.2515261988729238,-0.12494955456387251
1789225101379802000,2.859802001953125,-0.044595513051748276,-0.07155716973543166,-0.1875868471974507
1789225101389840400,2.86984033203125,0.15292203225791454,0.17223697358071802,-0.279913906304352
1789225101399879200,2.879879150390625,0.07953940066099166,0.35754151852726934,-0.5453080331405624
1789225101409918200,2.889918212890625,-0.03255845377743244,0.47030631244182586,-0.6410301049806177
1789225101419957500,2.89995751953125,-0.0019447043269872665,0.45987902645170686,-0.6682622491687535
1789225101429996300,2.909996337890625,0.1888391488134861,0.3644125733405351,-0.4100969045422971
1789225101440034300,2.920034423828125,0.5101408947020769,0.24966975735127925,0.14226846323125064
1789225101450073300,2.9300732421875,0.7351596103996038,0.10433715730905532,0.589959441098012
1789225101460112400,2.9401123046875,0.5416507162094116,-0.06781681416332722,0.7286199794977903
1789225101470151400,2.9501513671875,-0.07983283064961433,-0.11805939319133758,0.78765274483338
1789225101480189400,2.960189453125,-0.38750206476598975,-0.10911387019157409,0.49288898685630406
1789225101490228500,2.970228515625,0.15792057119756936,-0.20142098248898982,0.3709364586839452
1789225101500267300,2.980267333984375,0.5065361482083797,-0.22712124093472957,0.32678255191985517
1789225101510306300,2.990306396484375,0.2557511230915785,-0.2665454888284206,0.29942389527522023
1789225101520345000,3.000344970703125,-0.12396306427717207,-0.3353992448240518,0.344419513560459
1789225101530383400,3.01038330078125,-0.4051297836542129,-0.2773421926528215,0.12530976617839187
1789225101540422100,3.020422119140625,-0.34557752448916434,-0.05962298631370067,-0.22165435383096335
1789225101550461200,3.030461181640625,0.30442367632389067,0.0880079537987709,-0.8692828341633081
1789225101560500500,3.04050048828125,0.29923282968252896,0.24624796620905398,-1.1744286872819065
1789225101570539300,3.050539306640625,0.01745353136509657,0.3546317685604095,-2.2109596006974575
1789225101580577300,3.060577392578125,-0.26648294498622416,0.22202011840343475,-1.955654760068655
1789225101590616300,3.0706162109375,-0.42696693693101406,0.43145548052191735,-2.2510966730356214
1789225101600655400,3.0806552734375,0.4191369739577174,0.3691314185559749,-1.5528250700503587
1789225101610694400,3.0906943359375,1.0256570527017117,0.19051731115877626,-1.3374749309301375
1789225101620733200,3.100733154296875,-0.28392098652124403,-0.01412029528915882,-0.9409918334595858
1789225101630771500,3.110771484375,-1.6549883904516696,0.022637363743782044,-0.8064666778314858
1789225101640810200,3.120810302734375,-1.0700409688293933,-0.3283218537837267,-0.30760793238319456
1789225101650849300,3.130849365234375,0.2654541864603758,-0.41211365119218824,0.3568064822509885
1789225101660888300,3.140888427734375,0.6378457758560776,-0.2404951017707586,1.0321502871785313
1789225101670926300,3.15092626953125,0.2873129670470953,-0.060575756993889805,1.7395150780059396
1789225101680965400,3.16096533203125,0.09809797065854071,-0.026742460975050925,1.8720866884134708
1789225101691004200,3.171004150390625,-0.5723594504669308,0.11860475211441517,1.8446107985973357
1789225101701043500,3.18104345703125,-1.2984060723453759,0.3193061881572008,1.7608898744679986
1789225101711082200,3.191082275390625,-1.1184651002585888,0.43650399608314033,1.7206081329621374
1789225101721120300,3.201120361328125,-0.34363486598879095,0.5272814145952462,1.9309769765384495
1789225101731159300,3.2111591796875,-0.03205634947419166,0.4998801974505186,2.067077199463546
1789225101741198300,3.2211982421875,-0.33331893141865726,0.5005237560510635,2.3959964346185325
1789225101751237400,3.2312373046875,-0.360156961722672,0.4701993449360132,2.494443657106161
1789225101761275400,3.241275390625,0.09624912792146205,0.38630642524063585,2.298539684472978
1789225101771314400,3.251314453125,0.2937222495675087,0.35723113740384577,1.8899970236353576
1789225101781353200,3.261353271484375,-0.46385056043118233,0.36835984966158863,1.168327447797358
1789225101791392300,3.271392333984375,-1.4404004678755997,0.4423094674915075,0.48122203953601417
1789225101801431300,3.281431396484375,-1.5667758539915084,0.5069394683122634,-0.16113412641659378
1789225101811469300,3.29146923828125,-0.8889128327846526,0.6149263803005218,-0.6189725138861686
1789225101821508400,3.30150830078125,-0.1931502900108695,0.618161708959937,-1.161869796090573
1789225101831547100,3.311547119140625,-0.14070289441496134,0.5584457836657762,-1.4566063372671603
1789225101841586400,3.32158642578125,-0.5241700045764446,0.48050212776362894,-2.1690216164171696
1789225101851625200,3.331625244140625,-0.8777467111259698,0.41722938677072524,-2.6321897475421427
1789225101861663200,3.341663330078125,-0.9158324038922786,0.4228869741410017,-2.8151167497023937
1789225101871702500,3.35170263671875,-0.5937348314508796,0.26667934434115886,-2.4921435634702442
1789225101881741300,3.3617412109375,-0.5423351913422346,-0.15049860450327396,-1.3325000651270151
1789225101891780400,3.3717802734375,-0.9833595874592661,-0.3965302976131439,-0.6116573685672134
1789225101901818400,3.381818359375,-1.3993337134718895,-0.5582072987347841,-0.2674513150943443
1789225101911857400,3.391857421875,-1.401689921209216,-0.5223591557621956,-0.4088968080375343
1789225101921896200,3.401896240234375,-1.1832803945183754,-0.3387561540365219,-0.8185004491701722
1789225101931935200,3.411935302734375,-0.9272071998655795,0.0432218866109848,-1.2696227531924844
1789225101941974500,3.421974609375,-0.5426248219385743,0.44371173550486565,-1.555336468349397
1789225101952012300,3.43201220703125,-0.5501473263978958,0.7558353186815977,-1.5789626970000563
1789225101962051300,3.44205126953125,-1.105791788907349,1.024199839630723,-1.1074155176516622
1789225101972090400,3.45209033203125,-1.41487761182338,1.1073252820849417,-0.3403777638889849
1789225101982129400,3.46212939453125,-1.0458771261706947,1.0195394466042518,0.28258312551360576
1789225101992167200,3.472167236328125,-0.9518401213407516,0.860164877206087,0.7484167129881679
1789225102002206200,3.482206298828125,-1.4247177455753086,0.8406301556527614,0.8062978971358388
1789225102012245500,3.49224560546875,-1.5886685368478297,0.7305015554606914,0.5855203261394053
1789225102022284300,3.5022841796875,-1.2311489378914235,0.5590250448584556,0.2365559356909245
1789225102032323300,3.5123232421875,-0.8848176724255085,0.3479629583209753,0.1102420339712873
1789225102042361300,3.522361328125,-0.9749722828641533,0.11184358741641044,0.23656145211625842
1789225102052400400,3.532400390625,-1.3487819223642348,0.0491997919768095,0.6561879996892065
1789225102062439200,3.542439208984375,-1.0910866794675589,0.030387539479136465,1.0130243656218052
1789225102072478200,3.552478271484375,-0.808099466665089,0.15505553715527057,1.3613970737874508
1789225102082516500,3.5625166015625,-1.312188221721351,0.37466158015429973,1.6744171674124895
1789225102092555300,3.57255517578125,-1.77942082580626,0.6748679310441017,1.7822504962742327
1789225102102594300,3.58259423828125,-1.2123860774934292,0.7678150948107242,1.7619634950488805
1789225102112633300,3.59263330078125,-0.5645780028104782,0.8073346197724341,1.4233485030487179
1789225102122672400,3.60267236328125,-0.585900776824355,0.8205132502973079,1.0643000870898365
1789225102132710100,3.612710205078125,-0.755176270250976,0.7115899342417716,0.6231286106523126
1789225102142749200,3.622749267578125,-0.7459592368334531,0.4908458271235227,0.2675951805444434
1789225102152788500,3.63278857421875,-0.9414709952786564,0.22632979829609393,0.35169728601109235
1789225102162827300,3.6428271484375,-1.0301850515201687,0.3335977483600378,0.6571214080817998
1789225102172866300,3.6528662109375,-0.18469839574694633,0.2216898635357618,0.7733298396442085
1789225102182904300,3.662904296875,-0.5963108194187283,-0.010638298392295837,0.711053197016567
1789225102192943400,3.672943359375,-3.531065755936503,0.1647054090321064,0.9178817376375198
1789225102202982400,3.682982421875,-3.7846865890011188,0.47102995054125785,1.2835605315215886
1789225102213021200,3.693021240234375,0.7226809448376298,0.2871089689075947,1.4556009596168995
1789225102223059500,3.7030595703125,3.9513127369627354,-0.09846388136148453,1.3197339609257877
1789225102233098000,3.713097900390625,0.6238765794754028,-0.18400982896089552,0.8080396262366324
1789225102243137000,3.723136962890625,-4.182672638380527,-0.10656243214309215,0.3458896226456389
1789225102253176000,3.733176025390625,-4.267359338802099,-0.0013426467806100845,-0.19280154963843524
1789225102263214000,3.743214111328125,-0.6175049986168741,0.08400573242008685,0.005484130499511957
1789225102273252900,3.7532529296875,1.5087608873963354,0.2665823137074709,0.628468364245072
1789225102283292200,3.763292236328125,0.15967238330096006,0.5597077664256096,0.9993874699354172
1789225102293331000,3.7733310546875,-1.6075731438040732,0.3081342212796211,1.1154308471292256
1789225102303370000,3.783369873046875,-2.002911601284146,0.10186462971568107,0.7337447021003812
1789225102313408300,3.793408203125,-1.3769219751775263,0.14246961182653903,0.6323358533281832
1789225102323447000,3.803447021484375,-0.10110855065137148,0.34677637888491153,0.46009237694144245
1789225102333486000,3.813486083984375,0.9891720731303095,0.6457797837257385,-0.05368921235054731
1789225102343524900,3.82352490234375,0.1878893007427454,0.6970084511816501,-0.5559383308894932
1789225102353563100,3.833563232421875,-2.1939880076304075,0.9830869079977274,-0.920554902369529
1789225102363602000,3.843601806640625,-2.8907112121298906,0.9522896186739206,-1.0241523472271858
1789225102373641000,3.853640869140625,-1.1111533159404992,0.546700400814414,-0.47854580606408414
1789225102383680000,3.863679931640625,0.14286182601451872,0.02620937701165676,-0.12961254140622913
1789225102393719000,3.873718994140625,-0.3507283313810825,-0.2984352495640516,0.27441762870931996
1789225102403757000,3.883757080078125,-0.49976943055242296,-0.9185936852991581,0.2700120506941341
1789225102413795800,3.8937958984375,-0.6939312356933951,-1.020473512583971,0.06586566182924435
1789225102423835100,3.903835205078125,-0.15344021091312168,-0.06538929475545882,-0.44377939391359683
1789225102433874200,3.913874267578125,2.1562352000802756,0.37420623760223387,-1.1375967939689755
1789225102443912000,3.923911865234375,1.4581108966112135,0.4495604615330696,-1.7135107220470904
1789225102453951200,3.933951171875,-3.4511522612661123,0.8763824370354414,-1.2682694388873874
1789225102463990000,3.943989990234375,-4.793404781861603,1.3783394407600165,-0.3602248393271118
1789225102474029000,3.954029052734375,-0.2754673386916518,1.2057318803012371,-0.13547778017781675
1789225102484067800,3.96406787109375,3.2433637895718217,0.7743284222275019,-0.2473660469861701
1789225102494106000,3.974106201171875,0.429288950137794,0.40539048041701314,-0.7211473785948008
1789225102504145000,3.984144775390625,-3.119434919825196,-0.3015729630678892,-1.1380348931252955
1789225102514184000,3.994183837890625,-1.7863345507174728,-1.0439525878489018,-2.072601223582029
1789225102524223000,4.004222900390625,2.1935893637016415,-0.8909165738224982,-3.2092887937515973
1789225102534261000,4.014260986328125,3.4806928285270926,-0.48903264022171494,-3.377415701664984
1789225102544300000,4.024300048828125,-0.8021455266967416,-0.010494506007432937,-3.4421550080791112
1789225102554338800,4.0343388671875,-3.9421740294784304,0.2902460978895426,-3.258594091929495
1789225102564378000,4.044378173828125,-4.38347168957889,0.6292775617361068,-2.8381413591980933
1789225102574417200,4.054417236328125,-2.213614499120414,1.5010317544490097,-2.409388415633142
1789225102584455000,4.064454833984375,1.1863014959052205,1.2090279992371797,-1.0397132697787135
1789225102594494200,4.074494140625,1.147116609725356,0.9631722472161054,-1.03099644096829
1789225102604533000,4.084532958984375,-1.626516621465981,1.3210206397354602,-1.665770773489773
1789225102614572000,4.094572021484375,-1.133024956008792,1.050745901250839,-2.4000008479543027
1789225102624610000,4.104610107421875,0.5520610510647297,0.5254799181312322,-3.091989279016852
1789225102634649000,4.114649169921875,-1.3867387280538677,0.22021043863296508,-3.115028501559794
1789225102644688100,4.124688232421875,-3.7600910769268867,0.43970659151673314,-1.291318013780564
1789225102654727000,4.134726806640625,-1.2985428504675627,0.13120704405605793,0.6127839614443481
1789225102664765200,4.14476513671875,2.047573457570374,-0.336049817687273,2.406150456625223
1789225102674804000,4.154803955078125,0.3433481580018997,-0.2409785013735294,2.6929686258926986
1789225102684843000,4.164843017578125,-4.074250842106342,-0.4779676408499479,2.661995687741041
1789225102694881800,4.1748818359375,-5.7671162510097025,-0.9026526043236255,2.4489653698705136
1789225102704921000,4.184921142578125,-3.613174130302667,-0.8911901300668716,1.6135365822531282
1789225102714958800,4.194958740234375,-0.2071814457118511,-0.4724176055073738,1.8119570677518844
1789225102724998000,4.204997802734375,3.703047877973318,0.7166904722511768,1.1317707181639969
1789225102735037200,4.215037109375,4.627179908177256,1.4311445637524127,0.2234307158537209
1789225102745076000,4.225075927734375,0.36280659944862126,1.3290320967555045,0.015632526483014227
1789225102755114000,4.235114013671875,-5.242174677538872,0.9787065009564161,0.07499386618584394
1789225102765153000,4.245153076171875,-5.390361497968435,0.8843477168262004,1.381641404914856
1789225102775192000,4.255192138671875,-0.8656178819149732,0.31967092981636525,3.2218747190803287
1789225102785231000,4.265231201171875,2.413890110966563,-0.5606523537993431,3.0197520180627704
1789225102795269000,4.27526904296875,-2.163528279697895,-0.024678514182567595,2.3734330128937957
1789225102805308200,4.28530810546875,-3.7783261140584945,0.5021908124804496,1.1264670587979257
1789225102815347000,4.295346923828125,2.37683785290122,0.6929904477119445,-1.3293833944112061
1789225102825386000,4.305385986328125,6.277781461846828,0.9610288054466247,-3.3582109427183866
1789225102835425000,4.315425048828125,2.5087261572197077,1.0528343979626893,-3.5290541238531468
1789225102845463000,4.325463134765625,-3.566585105346143,0.38614977337419987,-3.2961472852542992
1789225102855502000,4.335502197265625,-6.202259480133653,-0.15518705458045004,-3.0716289202943443
1789225102865540900,4.345540771484375,-4.726598021523654,0.4774298807114362,-2.6633564547002315
1789225102875580200,4.355580078125,0.7920411890506744,0.3341857773810625,-0.09707001585029065
1789225102885618000,4.365617919921875,5.057956758785248,0.3085743662625551,0.6197225285358726
1789225102895657000,4.375656982421875,1.584774159757793,0.8508353233247995,-0.6921591114543378
1789225102905696000,4.385696044921875,-3.114506231251359,-0.4554547802686691,-1.113048628167808
1789225102915735000,4.395735107421875,-5.836531732541323,-0.4461480227410793,-2.4017902155891058
1789225102925772800,4.405772705078125,-3.1476386855244636,0.685659958693385,-2.512654728840291
1789225102935812000,4.41581201171875,7.0511565288722515,0.41515842571556566,-1.736998419009894
1789225102945851100,4.42585107421875,7.2296870496392245,0.7513561274409294,-2.4880904886871575
1789225102955890000,4.435889892578125,-1.8612734718456863,0.8077174816101789,-1.2559607230648397
1789225102965929000,4.445928955078125,-5.119264921706915,0.5258429062247276,-0.887847249379754
1789225102975967000,4.455967041015625,-1.6850298929721117,0.5082371069073677,-0.45755266586337234
1789225102986006000,4.466006103515625,1.9591694901913403,0.6470850211054087,0.26466953888870776
1789225102996045000,4.476045166015625,1.4863614240616558,1.2991414008826017,-0.14420863751359284
1789225103006083800,4.486083740234375,-0.03423457029610872,1.0371581054031849,-0.3596900383306667
1789225103016122000,4.4961220703125,1.1948176875770091,-0.23552140501141547,-1.1006924199417232
1789225103026161000,4.506160888671875,1.3796727351903915,-1.7776672601372003,-0.874796409953013
1789225103036200000,4.516199951171875,0.761412826552987,-2.494484573638439,-0.3854425749529153
1789225103046239200,4.5262392578125,1.4011708657711743,-3.2859640371531245,0.5759085212506353
1789225103056277000,4.536277099609375,0.6946364613533019,-3.271998055642843,0.6393105877116322
1789225103066316000,4.54631591796875,0.18173516202718018,-2.2636726614922282,1.676358802999556
1789225103076355000,4.55635498046875,1.5858233765497802,-1.726210629144311,2.011797941442579
1789225103086394000,4.56639404296875,1.8179273743331432,-1.2657581867188215,1.351579444128275
1789225103096433000,4.576432861328125,-0.7708525628104805,-0.8011147223442793,1.5951356870353222
1789225103106471200,4.58647119140625,-2.7832161753118037,-0.380041519626975,1.0816424131654203
1789225103116510000,4.596510009765625,-0.32431086457669733,0.4521878874272108,1.1720868003308773
1789225103126549000,4.606549072265625,8.411040860009193,-0.25794483374357224,0.46418669705037024
1789225103136588000,4.616588134765625,5.804224038654565,-1.1311825430124998,0.03918232889659703
1789225103146626000,4.6266259765625,-3.37666839042902,-1.4848147791415451,-0.03439341411963105
1789225103156665000,4.6366650390625,-3.35330884989053,-1.1353268032103776,0.45790673999805
1789225103166703900,4.646703857421875,4.350968765380978,-0.2539122172266245,0.19417371477447448
1789225103176743000,4.656742919921875,5.967393324160575,1.3666957647174596,-0.6738878339655697
1789225103186781000,4.666781005859375,-2.5011943004101513,2.9638720176696776,-1.202857055517286
1789225103196820000,4.676820068359375,-6.861331291630863,3.130584674870968,-1.0941907098975032
1789225103206859000,4.68685888671875,-4.880329032076895,4.75901005256772,-0.5466116996176541
1789225103216898000,4.69689794921875,-4.144961331884563,5.181911055234075,2.0382553018659353
1789225103226936000,4.70693603515625,4.484627001981437,2.9847897180140017,5.6097834165722125
1789225103236975600,4.7169755859375,10.946771636271476,2.72824247610867,4.491154942445457
1789225103247014400,4.727014404296875,0.6020081542775034,3.6028900521755216,2.667926246833801
1789225103257053700,4.7370537109375,-4.389113494858146,0.7495990546405314,1.1105683556593955
1789225103267091500,4.747091552734375,-5.051101486063003,-0.39752164673805235,-2.7436151095464822
1789225103277130500,4.757130615234375,-4.499189780341088,-0.6724310592859983,-3.886974120303988
1789225103287169500,4.76716943359375,1.7318085952818392,-2.187761972722411,-4.246657911556959
1789225103297208600,4.77720849609375,7.308674661636352,-4.7770308624267575,-1.9182402445621787
1789225103307247600,4.78724755859375,2.603477447798848,-5.153280004033446,-0.9612126375809311
1789225103317285600,4.79728564453125,-4.140635577639937,-3.884768134692311,-1.5660875794664024
1789225103327324700,4.80732470703125,-5.252839863938092,-3.283309723252058,-1.7308068708933888
1789225103337363500,4.817363525390625,-0.735765467338264,-3.088436554971337,-2.5061411091625687
1789225103347402500,4.827402587890625,0.1703802397981286,-1.3455822495400904,-2.228390481839329
1789225103357440500,4.8374404296875,-0.06106792442500591,0.6695663175046443,-1.3809928778782485
1789225103367479600,4.8474794921875,-0.28000790473073717,0.9012555970072745,-0.8443569210909306
1789225103377518600,4.8575185546875,-1.3916694624543189,1.2498130140900612,-0.22730353869907557
1789225103387557600,4.8675576171875,0.15607026715576647,2.301262679696083,0.39076128575764596
1789225103397595600,4.877595703125,5.131990547767281,2.20788764590621,-0.06984002708662301
1789225103407634400,4.887634521484375,3.7748531772509213,2.5026620348751543,-1.0254106767252087
1789225103417673500,4.897673583984375,-1.5291843744829297,2.330664130747318,-1.0072226205404848
1789225103427712800,4.907712646484375,-4.000815311278402,1.9317577516525983,-1.466835324206203
1789225103437750500,4.91775048828125,-2.903958231715858,1.0372966370910406,-1.270475570629537
1789225103447789600,4.92778955078125,0.7125362751811742,-0.4057137210220098,0.09189005592912435
1789225103457828600,4.93782861328125,1.9334484812185166,-1.4154115725696086,0.6946249170459806
1789225103467867600,4.94786767578125,-0.7970937962651252,-1.9322826523095369,0.6500530771307647
1789225103477905400,4.957905517578125,-3.244018161827326,-1.7746259927451609,-0.32725780474878846
1789225103487944700,4.96794482421875,-1.647572268976271,-1.0836550681620836,-0.7518642230935394
1789225103497983500,4.9779833984375,2.246547339168191,-0.21859715821743012,-0.6716307757537812
1789225103508022500,4.9880224609375,2.355118480785191,0.49589901885986326,-0.19615100619681178
1789225103518061600,4.9980615234375,-1.5241069250881671,0.8310983571976422,0.8885409307323395
1789225103528099600,5.008099609375,-4.3102460021093485,0.8818681749701499,1.4927926261529325
1789225103538138600,5.018138671875,-2.3668872445121405,0.5645312410593033,2.880544038380682
1789225103548177400,5.028177490234375,2.0503025902733207,-0.0777647922039032,3.92228479539901
1789225103558216400,5.038216552734375,3.109278267470002,0.7260854925841093,4.25922571670711
1789225103568254500,5.04825439453125,2.7179244957119226,0.9643798694401979,3.3717730196028945
1789225103578293500,5.05829345703125,1.0217746583104133,1.1861118185520172,1.744447273711115
1789225103588332500,5.06833251953125,-1.6251260438904165,1.4676082082748412,0.7855893825627863
1789225103598371600,5.07837158203125,-4.1533918910995125,1.9440899944812058,0.6351872241713106
1789225103608409600,5.08840966796875,-2.5844240800216793,1.8190362123578785,2.6594845817029475
1789225103618448400,5.098448486328125,1.205036006991565,0.30980478484034535,4.223800183060765
1789225103628487700,5.10848779296875,-0.43782735364139075,-0.2648930454462767,4.7263630437240005
1789225103638526700,5.118526611328125,-3.59681277808845,-0.6744038206636905,5.762340707170963
1789225103648564500,5.128564453125,-1.365544256594777,-2.092814575049281,7.161004558557272
1789225103658603800,5.138603759765625,2.531072429062426,-2.5049054298877715,5.564406982275843
1789225103668642600,5.148642578125,0.44475627612173557,-1.1766367187201976,2.703385682749748
1789225103678681600,5.158681640625,-1.245532852552831,-0.3802688986420631,2.354938301912695
1789225103688719600,5.1687197265625,1.1244833376348018,0.006819616886973381,1.6287573861300944
1789225103698758700,5.178758544921875,2.226833753916621,0.1341015964537859,1.5365154480233787
1789225103708797400,5.18879736328125,-1.1052481835499406,0.35419045453369613,3.2591467573761936
1789225103718836500,5.19883642578125,-3.2159795235618946,0.22687632626295087,4.416410959367454
1789225103728874800,5.208874755859375,-2.517651806475222,0.14337971240878106,5.3313323858946555
1789225103738913500,5.21891357421875,-0.45539895842820405,0.7042454166978597,5.3736202065259215
1789225103748952600,5.22895263671875,3.3023861796438694,1.1434119099885225,5.019661222660541
1789225103758991400,5.238991455078125,5.332016861027479,0.8877847055375575,2.7076182057529685
1789225103769030700,5.24903076171875,0.7867413290768861,0.33379064058363433,1.0081693998713046
1789225103779068400,5.259068359375,-4.747307924336194,-0.37147768942117687,-0.08001395937018096
1789225103789107500,5.269107421875,-5.669138691860437,-0.18149989196658134,-0.8009443342134356
1789225103799146800,5.279146728515625,-2.152304582633078,0.4880371994435787,-0.9159505503792316
1789225103809185500,5.289185546875,3.2593750131741164,-0.6939215910822153,0.6621699236430227
1789225103819223600,5.2992236328125,0.6966872564032673,-0.9496978486150502,1.0158999941233544
1789225103829262600,5.3092626953125,-5.037861480739712,-1.9697826541423797,0.8394025135539471
1789225103839301600,5.319301513671875,-5.737594972971081,-1.9740122545361518,0.6755970490362495
1789225103849340700,5.329340576171875,-0.787500623011589,-0.9094687140792608,-0.776805772126466
1789225103859378700,5.339378662109375,10.12584571352005,-0.9485235441386699,-2.7237957258328795
1789225103869417700,5.349417724609375,5.487691406863927,0.527244589716196,-3.2250828674718734
1789225103879456500,5.35945654296875,-2.520215811744332,0.49527650304734705,-2.8462738122493025
1789225103889495600,5.36949560546875,-4.321823919439315,0.2430003625899553,-3.0947587437301873
1789225103899533600,5.379533447265625,-3.1472809581279755,1.1852145774513483,-3.4843490129470824
1789225103909572600,5.389572509765625,2.208001043152809,2.1907786901950836,-2.2365658972494304
1789225103919611400,5.399611328125,4.557542016066611,0.3437836268097162,0.4380408502615988
1789225103929650400,5.409650390625,-0.09297434403449296,0.09533435116410255,-0.057744625221192836
1789225103939688700,5.419688720703125,-3.901579568761587,-0.6479015981853008,-0.8935672344617545
1789225103949727500,5.4297275390625,-2.9347125586807725,-1.8139806825339793,-1.0744744212321937
1789225103959766500,5.4397666015625,0.42437808948159217,-1.0732201833873987,-0.7830033115923404
1789225103969805600,5.4498056640625,6.018975042837858,-0.16341010852456092,-0.6108095926314592
1789225103979843600,5.459843505859375,5.14967408849597,1.0460288096010684,-1.3227876494079827
1789225103989882400,5.46988232421875,0.14465572369396687,1.2670055564314127,-1.1523767222106456
1789225103999921700,5.479921630859375,-3.777097156785428,0.13501111251413822,-1.6263656686879693
1789225104009960700,5.489960693359375,-5.881065870794654,-0.05430032998621463,-0.558869562035799
1789225104019998500,5.49999853515625,-4.914985627177358,1.1812807451337575,0.8392718729116022
1789225104030037800,5.510037841796875,-1.7580942524001002,1.3370067288964986,1.6786869536861777
1789225104040076500,5.52007666015625,6.076157650262117,0.13448270472586155,0.7411866156041622
1789225104050115600,5.530115478515625,1.703020892214775,1.432423497647047,0.2600754160314798
1789225104060153600,5.540153564453125,-3.597575871415436,0.29301380903720853,0.7568129315420985
1789225104070192600,5.550192626953125,-2.087331467463076,-0.2568476861566305,0.2939100272245705
1789225104080231700,5.560231689453125,2.8486005016312,-0.8729735053747892,0.7295636900886893
1789225104090270500,5.5702705078125,3.9989366579249497,-0.9933511123806238,0.24550562340915202
1789225104100308700,5.580308837890625,-1.0974933316394686,-1.002407110017538,0.22809885379523037
1789225104110347500,5.590347412109375,-6.299591142594814,-0.8183809144437313,-0.6968564754903316
1789225104120386600,5.600386474609375,-5.670799318549037,0.47773149400651455,-0.5431310178950428
1789225104130425300,5.61042529296875,-0.5890431665033101,0.614629443180561,0.3166094964191317
1789225104140463600,5.620463623046875,6.9302423307716845,0.6404425143510103,-0.3349708633441478
1789225104150502700,5.630502685546875,4.52210771459192,1.924061351931095,-0.40186274468228217
1789225104160541400,5.64054150390625,-0.6931216728761792,0.3533487430125475,-0.7820574090443551
1789225104170580700,5.650580810546875,-3.82441917219162,-0.24607611677348612,-1.989181766617298
1789225104180618500,5.660618408203125,-2.66128900077641,0.5514134008109569,-2.226655620870739
1789225104190657500,5.670657470703125,4.5811207523137325,0.4604594566881656,-2.347102785981446
1789225104200696600,5.680696533203125,4.516539851331711,-0.16461188552975653,-3.108987175568938
1789225104210735600,5.690735595703125,-5.080821501544118,-0.4056225356072187,-2.6026097250536084
1789225104220773400,5.7007734375,-6.561176378667354,0.7594488330036401,-2.979358340615034
1789225104230812700,5.710812744140625,-2.8544167866945265,1.221882804635167,-2.6202514724671837
1789225104240851200,5.720851318359375,7.420101484945416,-0.9659335286229849,-1.501997676871717
1789225104250890200,5.73089013671875,5.539468355852365,-0.4575017759263515,-1.9743935089387
1789225104260928300,5.74092822265625,-0.5030287246093154,-0.08893032934069633,-1.2638340867884457
1789225104270967300,5.75096728515625,0.20100801777392624,-0.3802525320291519,-1.94987296179682
1789225104281006000,5.761006103515625,1.1045400352805852,-0.5774947675287723,-3.2376246613979336
1789225104291045000,5.771045166015625,1.6957900641784072,-0.8594716342449188,-3.0626860276430845
1789225104301083100,5.781083251953125,-3.911398951986432,-0.7294330494463444,-2.2271283529490233
1789225104311122200,5.7911220703125,-6.428426781344413,-0.3978513170838356,-1.572239380094409
1789225104321161000,5.801160888671875,-4.204715835623443,0.23692133493721484,-0.7504740839093923
1789225104331200000,5.811199951171875,2.4385762239336968,-0.680572280165553,1.2329133172154425
1789225104341238300,5.82123828125,6.4485273200869555,-1.0215724137365818,0.5218823320306837
1789225104351277000,5.831277099609375,1.773687835112214,0.3596820376873016,0.641073140404746
1789225104361316000,5.841316162109375,-0.6687143768504261,-1.2799988935172557,0.475443236938864
1789225104371355100,5.851355224609375,-1.71025698094815,-1.4336930791914462,-0.570246111574769
1789225104381393200,5.86139306640625,-0.6323378260895609,-1.0183218875080347,0.23361758068408817
1789225104391432000,5.871431884765625,2.362423835362494,-0.09644844988584518,1.1165334746088833
1789225104401471200,5.88147119140625,4.243151949262619,-0.07762099981904029,3.375513375174999
1789225104411510300,5.89151025390625,0.10542086089253425,0.6659428663104772,3.7171219960331916
1789225104421549000,5.901549072265625,-4.840338966993987,1.372577223971486,2.7781308348715306
1789225104431587300,5.91158740234375,-3.5940780924275515,1.0711579901605843,2.390210690823942
1789225104441626000,5.921626220703125,0.18309037602841852,0.8667062616735697,1.6041070751287043
1789225104451665200,5.9316650390625,2.92627820007354,1.6921078685343265,1.6193145811326801
1789225104461703200,5.941703125,6.318422099792957,1.563928647866845,0.697249274200201
1789225104471742200,5.9517421875,3.946713134212792,0.8983481851279735,-0.10317344729192554
1789225104481781200,5.96178125,-3.155539667907357,0.3460194230377674,-0.8344565815843641
1789225104491820000,5.971820068359375,-5.445056380230188,-0.2689858677178621,-1.3196489129908382
1789225104501858300,5.9818583984375,-4.529650677317381,-0.3077946140617132,-1.147958759637922
1789225104511897000,5.99189697265625,0.8190311950460076,-0.6321878962248564,0.16703275600112974
1789225104521936100,6.00193603515625,4.723834694290161,-1.3694471092522142,0.44009018400683997
1789225104531975000,6.011974853515625,2.1002228054791687,-1.2600287031561135,0.250464707121253
1789225104542013200,6.02201318359375,-2.9947300972700117,-2.2076415621906516,-0.6368284155070781
1789225104552052200,6.03205224609375,-5.114619141727686,-1.9145617021799086,-2.0147635132499038
1789225104562091000,6.042091064453125,-2.891456769800186,-0.9782552500575781,-3.204909555754065
1789225104572130300,6.05213037109375,1.897813396474719,-0.2667465643584728,-3.567245030559599
1789225104582168000,6.06216796875,5.281952561175823,0.022756606209278104,-2.8091625174731014
1789225104592207000,6.07220703125,2.5071228136762973,-0.5403484014391898,-2.4741163238704202
1789225104602246100,6.08224609375,-4.103040006478131,-0.021979776617884635,-2.021324625331163
1789225104612285200,6.09228515625,-2.3788249350652095,0.23259938008487224,-1.484570741252601
1789225104622323000,6.102322998046875,4.2822026876688,0.38520109434723854,-1.9301789580285549
1789225104632362200,6.1123623046875,5.091897022309899,1.5515759467720984,-2.5133403730168937
1789225104642401300,6.1224013671875,1.0463052884548902,2.6189579255253075,-2.670034325028956
1789225104652440000,6.132440185546875,-1.0298363842129707,2.1410832236558197,-3.456163367426395
1789225104662478300,6.142478271484375,-1.8126713535010814,1.8659277273923158,-3.483314993724227
1789225104672517000,6.15251708984375,-1.3637027203813195,2.07112589033246,-3.090445264445245
1789225104682556200,6.16255615234375,1.2372367333725094,1.156251517817378,-1.7366526743121444
1789225104692595200,6.17259521484375,1.560648311021924,-0.1614981374233961,-0.8463362583398818
1789225104702633200,6.18263330078125,-3.1254169168442485,-0.7137064880043268,-0.7860098729971796
1789225104712672300,6.19267236328125,-5.611854377627372,-0.5960621053546666,0.27480664629321544
1789225104722711000,6.2027109375,-0.6988976259291172,-1.1512152772158384,1.271932199178636
1789225104732750000,6.21275,3.359329133093357,-1.6449638400435447,-0.06759118871390819
1789225104742788000,6.2227880859375,-1.7066782456785439,-1.112463229495287,0.24778120365832
1789225104752827100,6.2328271484375,-6.563139787694811,-1.367588329643011,0.07283230423778295
1789225104762866200,6.2428662109375,-5.1982455194413655,-1.2681132254123686,-0.4770061754066497
1789225104772905200,6.2529052734375,-2.2464064693927766,-0.1945323920190334,0.8680535846292972
1789225104782943200,6.262943115234375,8.504078040146828,-0.4022340622127056,0.9154299605712294
1789225104792982000,6.27298193359375,7.959835553878546,1.898537034574151,0.01551934843212366
1789225104803021300,6.283021240234375,0.1294821199595928,1.5766361537486313,-0.08466814185157417
1789225104813060000,6.29306005859375,-5.644781664717197,-0.12979074751734732,-0.9364634693149476
1789225104823098000,6.30309814453125,-5.563122787684202,0.24047347446084022,-1.4104237011544405
1789225104833137200,6.31313720703125,-4.862633508649468,0.5724199484825134,1.3908546389400958
1789225104843176200,6.32317626953125,0.7144312951475381,0.41948564126491544,2.678597278451919
1789225104853215200,6.33321533203125,13.95762986152172,-0.7684814497649669,0.6269890124075115
1789225104863253000,6.3432529296875,4.832487084449827,1.1081687471717596,-0.6094200379692017
1789225104873292300,6.353292236328125,-5.847199257028103,-0.30513737755119796,-0.3648998454008251
1789225104883331000,6.3633310546875,-6.321800636315346,-1.064443002691865,-2.5304294549837705
1789225104893370000,6.3733701171875,-4.133927604433894,-0.07517009953558444,-3.2263603400617837
1789225104903408000,6.383408203125,2.628934545138478,-1.8838333864390848,-0.06775156690739095
1789225104913447200,6.393447265625,5.045543267413973,-0.619981910124421,0.2737625075351447
1789225104923486200,6.403486328125,0.21776567582935094,0.14386837270855904,0.8783432887796312
1789225104933525000,6.41352490234375,-2.7963708404392,-0.7130746198415756,0.6609140052977949
1789225104943563300,6.423563232421875,-3.381642087188363,-0.4266811057269573,0.32924854017458854
1789225104953602000,6.43360205078125,-3.011054332344234,-0.13391104231774806,0.18617299834415316
1789225104963641000,6.44364111328125,2.7223966726899147,1.2981202411413193,0.6744903299033641
1789225104973680400,6.453680419921875,8.240762619280815,0.5837035590410232,0.17947554653212427
1789225104983718100,6.46371826171875,1.1946765255406497,0.9143857122153043,-0.4427341226443648
1789225104993757200,6.473757080078125,-5.593930598402023,0.7462935833543538,0.2119547975935042
1789225105003796200,6.483796142578125,-5.54523992499113,0.45825347107648845,-0.4043100647691637
1789225105013835300,6.493835205078125,-1.8383038074076175,1.111334517726302,1.182214591917768
1789225105023873000,6.503873046875,4.108274692261219,0.7502852833390236,1.6515994786657393
1789225105033912000,6.513912109375,3.367833926588297,1.3841349752962588,1.7646943813174962
1789225105043951000,6.523951171875,1.1332067423164844,0.8610878372699021,3.29433760548383
1789225105053989000,6.533989013671875,1.0384081054642795,0.6916138986617326,2.115218714559078
1789225105064028200,6.544028076171875,1.570712024396658,0.2832774279206991,1.0301001497156916
1789225105074067200,6.554067138671875,-1.2805536047905683,-0.6362678590148687,0.43768199035394934
1789225105084106200,6.564106201171875,-5.290663106375932,-0.2621884626626968,0.5853021168114617
1789225105094144000,6.57414404296875,-4.736321250897646,-0.7354378428190946,2.340236845734715
1789225105104183300,6.584183349609375,-0.43487493357658386,-0.6134510470509529,3.1835812287822365
1789225105114222000,6.59422216796875,3.9009985540032384,-0.020721885511279105,4.2787662834793325
1789225105124261000,6.60426123046875,4.504732801420986,0.17068857509493826,3.574179505997896
1789225105134299100,6.614299072265625,1.074040267598629,-0.20479367379248142,2.1726232941709456
1789225105144338200,6.624338134765625,-3.0908550142899154,-0.3008715368002653,1.3506509311065078
1789225105154377200,6.634377197265625,-2.3100182330816983,0.2638105109065771,0.4783024988275021
1789225105164416000,6.644416015625,2.7126076846033333,-0.4712660973846912,0.507022506953217
1789225105174454300,6.654454345703125,3.0234514571025968,-0.7825631666094064,0.7537613619517535
1789225105184493000,6.6644931640625,-2.869669008623063,-0.7081921084970235,2.086402369919419
1789225105194532000,6.674531982421875,-4.332022949631512,-0.36072540926039215,2.9925112521767616
1789225105204571100,6.684571044921875,1.1531021138757467,-1.035143258449435,2.8662580311357972
1789225105214609200,6.694609130859375,3.4624092760786414,-0.5656780730068683,2.915878971134126
1789225105224648200,6.704648193359375,0.9658382515549659,-0.2452098553329706,2.348791908112168
1789225105234687000,6.71468701171875,-1.543292394812405,-0.10008008438646793,1.8152267370723187
1789225105244726000,6.72472607421875,-0.5925728019341826,-1.236558395719528,1.3809505000412463
1789225105254763800,6.734763671875,-1.2241390591293573,-2.2022575310647485,1.6990591489769518
1789225105264802800,6.744802734375,-3.370069430555403,-1.4157511797875164,2.5038538750082253
1789225105274841900,6.754841796875,2.3292516336008906,-1.4596294844806192,3.9155210003525016
1789225105284881000,6.764880859375,8.40573106316328,-1.0551982044845818,2.24489328835085
1789225105294919000,6.7749189453125,3.9477746259644624,0.15576105507612228,1.6398165402829645
1789225105304958000,6.7849580078125,-1.2387410004556179,0.11924188097417354,1.5379242919079958
1789225105314997000,6.7949970703125,-1.3355594526976347,0.18132395087778566,0.4183329275658354
1789225105325034800,6.80503466796875,1.3332301329672336,0.8643354408890008,2.3179496106028554
1789225105335074000,6.815073974609375,3.995476872859895,2.2682208263158796,0.3911996771749109
1789225105345112800,6.82511279296875,2.189555578140914,2.762648019057512,-1.4505109430015086
1789225105355152000,6.83515185546875,-2.644330267190933,1.8324732015579939,-0.8963763005331158
1789225105365190000,6.84518994140625,-5.47908841369152,-0.21840894216895101,-1.0542200801674275
1789225105375229000,6.85522900390625,-4.915380179452896,-1.1525286979019642,1.3285633101999759
1789225105385268000,6.86526806640625,-0.18119418701827525,-1.5341116017520426,2.2988098797164858
1789225105395306800,6.875306640625,8.240797690594196,-2.117892902204394,0.8798893491778522
1789225105405345000,6.885344970703125,5.075348038569093,-1.7823685696959495,-1.2406143931120632
1789225105415383800,6.8953837890625,-4.1043198171555995,-1.7355530425071715,-2.357449846342206
1789225105425422800,6.9054228515625,-4.866422964060306,-1.0981178932785987,-3.6496591098740696
1789225105435462000,6.9154619140625,1.3651707471072674,-1.240092999586463,-5.273348398959636
1789225105445500000,6.9255,3.2643788128107785,-0.8284779455661773,-3.539642737884819
1789225105455539000,6.9355390625,-1.6923486915528774,0.03280395297110081,-2.0580463362678882
1789225105465577700,6.94557763671875,-5.5350739202857016,1.790375935062766,-1.347877082479
1789225105475617000,6.955616943359375,1.21548053637743,2.4455051464140416,-0.06378967753909529
1789225105485654800,6.96565478515625,8.851016331595181,1.7641712342262268,-0.10987718271426856
1789225105495693800,6.97569384765625,3.3092706784605976,2.7675042269170285,-0.7689991900287568
1789225105505733000,6.985733154296875,-3.5811505140542983,2.382574935248494,-1.2724243666097521
1789225105515772000,6.99577197265625,-2.088644595888257,1.7895687103331088,-2.6420433252975344
1789225105525810000,7.005809814453125,3.681383743175864,2.095570595759153,-4.234109980151057
1789225105535849000,7.015848876953125,7.322503865024447,0.9450497305482626,-3.463287520217895
1789225105545888000,7.025887939453125,-0.2987175736367702,-0.7477893748700618,-2.385971591949463
1789225105555925800,7.03592578125,-7.639918540346622,-1.2814338947564363,-0.6359164152286947
1789225105565965000,7.045965087890625,-4.588724213054776,-2.463986559522152,2.1792311680033802
1789225105576003800,7.05600390625,3.537897940044105,-3.114083037403226,2.5457395445793867
1789225105586043000,7.06604296875,4.417759451366961,-2.528707161235809,1.942048405651003
1789225105596081000,7.076080810546875,-2.126809783631563,-1.570098276412487,0.9942691040083765
1789225105606120000,7.086119873046875,-4.28035676754117,-1.8291501946151256,0.606090966611728
1789225105616159000,7.096158935546875,-2.275585217604041,-0.9353963515400886,-0.49075128070786594
1789225105626197800,7.10619775390625,2.5513904099479316,-0.21225568023622035,0.44922092738039787
1789225105636236000,7.116236083984375,3.0597084731370208,0.924412600710988,0.40935616917759177
1789225105646274800,7.12627490234375,-0.18314064491093157,2.4989222638249395,0.8107694895919412
1789225105656313900,7.13631396484375,-1.1547875827446579,2.6069460006922482,0.952044411741197
1789225105666353000,7.146352783203125,-0.5580670134812593,2.7933506158351897,0.7865549396593123
1789225105676391000,7.156390869140625,-0.07163871053904294,2.3109528835833073,1.1493985101174562
1789225105686430000,7.166429931640625,-0.029006898775696753,2.1918992186576127,0.9670318452537059
1789225105696468700,7.17646875,2.288000170280039,1.0387947666943074,0.9659446345388889
1789225105706508000,7.186508056640625,3.4524531147316098,-0.09356149627268313,-0.4739064558256417
1789225105716545800,7.1965458984375,-0.8254875315785407,-1.1886936517387627,-1.3378610076382755
1789225105726584800,7.206584716796875,-5.790058735179901,-1.089044359984994,-2.1371949840456246
1789225105736624000,7.2166240234375,-3.6976816747650503,-1.2157973472416401,-2.1263950653508306
1789225105746662000,7.226661865234375,2.1787401696160433,-1.9410808757930993,-0.7364050804160535
1789225105756701000,7.236700927734375,3.103813864584267,-1.7124007149785756,-0.8496512281067669
1789225105766740000,7.246739990234375,-2.0477555361390114,-2.033223737439513,-0.06245302210785448
1789225105776779000,7.256779052734375,-4.898938455478847,-1.373951434934139,-0.45353243390396236
1789225105786816800,7.266816650390625,-0.0833241798967123,-0.21479016714990137,-1.4776637383431195
1789225105796855800,7.276855712890625,8.530469203466177,0.5400584785819054,-2.303644752527028
1789225105806894800,7.286894775390625,4.380677674946189,0.7834440410971641,-3.5693355730980634
1789225105816934000,7.296933837890625,-5.910303655716777,0.6913806744277476,-2.610082545152306
1789225105826972000,7.306971923828125,-6.648827774113416,1.1851263146460056,-2.940588172715902
1789225105837011000,7.317010986328125,-5.213650593844056,3.4938375567823647,-2.5735785686194896
1789225105847050000,7.327050048828125,-0.552507918049395,2.3407068013340235,-0.28478713836390523
1789225105857088800,7.3370888671875,12.96251875373125,-0.5891174007833003,0.30138573340009894
1789225105867127000,7.347126953125,5.430172114831209,1.3748913461327552,-0.5979162087887525
1789225105877165800,7.357165771484375,-6.0257718633711335,0.21172318079471586,-0.4062240086317062
1789225105887204900,7.367204833984375,-5.333830632451177,0.331627909591794,-1.2439327238798141
1789225105897243000,7.377242919921875,2.4623744481503964,-0.12827683582305907,-2.092448664346337
1789225105907282000,7.387281982421875,5.252775566530227,-1.244305648845434,-1.2107160984545946
1789225105917321000,7.397321044921875,-4.690847201445698,-0.11369944441616535,-0.3580433671021834
1789225105927359700,7.40735986328125,-6.168984402519464,-1.6649410446673631,1.2517784689441322
1789225105937398000,7.41739794921875,-3.8136633848994967,-1.3344944538146257,2.8776608841598033
1789225105947436800,7.427436767578125,4.492212342543899,-2.2489316039562226,2.1046885527163743
1789225105957475800,7.437475830078125,6.874098418745398,-2.1945126160264015,0.3539006047416478
1789225105967515000,7.447514892578125,-3.2830402586609124,-1.1592957078188657,0.41110173420328644
1789225105977553000,7.457552978515625,-6.788131030863523,-1.512204305848479,-1.0070441221684217
1789225105987592000,7.467592041015625,-4.032214365887642,0.091209964710474,-0.5352310584254563
1789225105997630700,7.477630615234375,4.767283083133399,-0.2610071439236402,1.0724964722227304
1789225106007670000,7.487669921875,7.744918545478582,0.7287316231787204,1.3274160398609935
1789225106017707800,7.497707763671875,-1.21256172632128,2.3659108006954193,2.00124878263846
1789225106027746800,7.507746826171875,-4.211436960572004,1.6873066057324408,2.876650830334425
1789225106037786000,7.5177861328125,-1.5770900349959731,1.9629852490872144,1.3882063163883984
1789225106047825000,7.527824951171875,1.700711738489568,2.2626415648788214,1.4897224249273537
1789225106057863000,7.53786279296875,4.776665243984759,2.714634221994877,1.4719329396061598
1789225106067902000,7.54790185546875,5.375829114747047,1.3273796533733606,0.4481498275501653
1789225106077941000,7.55794091796875,-1.9132599719315766,-1.0371943457603454,0.11186565311774611
1789225106087978800,7.567978759765625,-7.309324649977683,-1.1211375343382357,-0.7962427323937415
1789225106098018000,7.57801806640625,-5.797019221842288,-0.4949000709503889,-0.1722738715250045
1789225106108056800,7.588056884765625,-5.305860675507784,-1.309107499101758,1.6261965957313775
1789225106118096000,7.598095947265625,1.9643509844824671,-2.701371420317888,1.0878464554373175
1789225106128134000,7.6081337890625,12.912757236218452,-3.994308121341467,-0.726996177688241
1789225106138173000,7.6181728515625,2.1970544094637035,-0.9377502211898565,-0.7738629966728389
1789225106148212000,7.6282119140625,-4.100289246465265,-2.3932693477421996,0.21319610289148985
1789225106158250800,7.638250732421875,-6.262005800566077,-2.186170904138684,-1.6270440063409506
1789225106168289000,7.6482890625,-2.869596527908742,0.11491817255616188,-0.9843331817317753
1789225106178327800,7.658327880859375,4.875216511368751,1.1702888109982013,0.8068689750220626
1789225106188366800,7.668366943359375,6.746196261453628,2.348634087201953,-0.1713914626672864
1789225106198404900,7.67840478515625,0.17007424258887766,3.215591108766198,0.5371429929940029
1789225106208444000,7.68844384765625,-2.7665309979707002,3.625491760084033,0.43207087247390297
1789225106218483000,7.69848291015625,1.6931734519392252,3.405085506618023,-1.026860437142104
1789225106228521700,7.708521728515625,4.722699260519445,2.523338327679038,-1.1549901195794343
1789225106238560500,7.718560546875,1.8726462219923734,2.363905890613794,-1.3068093051619827
1789225106248599300,7.728599365234375,-2.1961852254137395,0.5753180080115795,-0.7974030814100056
1789225106258638300,7.738638427734375,-4.903124508991837,0.30007191085517404,-1.105812539434433
1789225106268677400,7.748677490234375,-0.16865794605016707,-1.5451158108472822,0.7618598396681249
1789225106278715400,7.75871533203125,3.3506910686075684,-3.2837036910057065,0.6406371601402759
1789225106288754400,7.76875439453125,-0.7295163438156247,-3.628939270189404,0.9343281377866863
1789225106298793200,7.778793212890625,-4.43123531127274,-4.420230517655611,1.4428529755942523
1789225106308832500,7.78883251953125,-1.8829478357762097,-3.9657437056362626,0.8952129558421671
1789225106318870300,7.798870361328125,2.989344020317495,-3.069152593308687,-0.3128973805608228
1789225106328909300,7.808909423828125,3.533182894220948,-2.0536434251338243,-0.7350448979787528
1789225106338948600,7.818948486328125,-2.6319199906900526,-0.880980286219716,-0.7034215330943465
1789225106348986400,7.828986328125,-5.47134934387207,0.6556874297559261,-0.11342618043273686
1789225106359025400,7.839025390625,0.35654841583669183,1.5002566784232854,1.575525269897282
1789225106369064400,7.849064453125,7.669046435153484,1.6624398755013943,1.3140543078541755
1789225106379103500,7.859103515625,3.8047570248663423,2.5376094296157357,1.6209028732374309
1789225106389141200,7.869141357421875,-1.4164040907382964,2.84560804181695,1.5015262599676846
1789225106399180300,7.87918017578125,0.49538317829221484,2.6335598668515683,0.6925126010671258
1789225106409219600,7.889219482421875,4.700372277899087,2.666058114874363,-0.9457868126511573
1789225106419258400,7.89925830078125,5.018927063167095,1.612871834734082,-1.4019969413317739
1789225106429296400,7.90929638671875,-1.8848454860910773,0.44863808599114413,-1.2466877216763794
1789225106439335400,7.91933544921875,-6.815410667455196,-0.0969400327950716,-1.3345267486490309
1789225106449374500,7.92937451171875,-4.330942460918426,-1.510397548687458,1.2734145466908813
1789225106459412200,7.939412109375,2.305740701892972,-3.3790614230453966,1.6803424658082424
1789225106469451500,7.949451416015625,2.2841543085068463,-3.5119735174536704,0.7169906242415308
1789225106479490300,7.959490234375,-4.153428423717617,-2.817170467361808,0.7276033498011529
1789225106489529300,7.969529296875,-2.6390368369579313,-3.001767740821838,0.14368771891202778
1789225106499567600,7.979567626953125,2.7175404648303982,-1.7674743674248456,-1.287476974312961
1789225106509606400,7.9896064453125,5.776939725887775,-0.8476181148439645,-1.8586689884357153
1789225106519645400,7.9996455078125,2.811188470342755,-0.060135612010955804,-1.7667329014077782
1789225106529684200,8.009684326171875,-3.085747754278779,0.9570201543271541,-1.5549848784327507
1789225106539722500,8.019722412109376,-5.041925076916813,2.257414185619354,-1.443681535372883
1789225106549761300,8.02976123046875,1.5654104108572005,3.6951673538565633,-0.8340037963155656
1789225106559800300,8.03980029296875,6.608568244439363,3.348175870916247,-1.0354629919230938
1789225106569838300,8.04983837890625,2.0997347297012805,4.01798710309267,-0.7850497957933694
1789225106579877400,8.05987744140625,-2.6491917357474564,2.8226035983264444,-0.9182062934167683
1789225106589916400,8.06991650390625,-2.6197952531322835,1.817532237535715,-1.6438355666659772
1789225106599955200,8.079955078125,1.0563099651187657,0.9022633127450942,-1.840074324211478
1789225106609993500,8.089993408203124,3.5084544034168124,-0.5716302594095468,-1.6850537122391163
1789225106620032300,8.1000322265625,0.8281041438177228,-2.3344436492860314,-1.301509299057722
1789225106630071300,8.1100712890625,-5.4259185490399595,-3.6240228565752504,-1.1620990017365664
1789225106640110600,8.120110595703125,-7.230766077047586,-3.208839880940318,-1.2132282274059951
1789225106650148400,8.1301484375,-2.1516113396719097,-3.1070985853433606,-0.6335151993058622
1789225106660187400,8.1401875,4.214657091662287,-3.280892725238204,-1.1477002548322082
1789225106670226400,8.150226318359374,1.0010679703682661,-2.0325456920474765,-1.3394152513429523
1789225106680264400,8.160264404296875,-5.654053350931406,-1.065298742738366,-0.8712279768817126
1789225106690303200,8.17030322265625,-4.650987192483246,0.024061843588948247,-1.276930153596401
1789225106700342500,8.180342529296874,2.495993516896665,0.8619359785318375,-1.065745755853504
1789225106710381600,8.190381591796875,6.323721375244856,2.2285317900061608,-0.8743497621640562
1789225106720419300,8.20041943359375,4.818493922671675,2.926034162184596,-0.4454202929884195
1789225106730458600,8.210458740234374,-1.5635788115158675,2.887419477108121,-0.7656802016738802
1789225106740497400,8.220497314453125,-5.448720747956633,2.59752409235239,-0.7284381931900977
1789225106750535400,8.230535400390625,-4.2125837925195695,2.6584172447323797,-0.19877795716691762
1789225106760574500,8.240574462890624,1.6939301155254243,2.2086516160160303,0.2217092623559758
1789225106770613500,8.250613525390625,5.476265757486224,0.9902350261867046,-0.021249790976056827
1789225106780652300,8.26065234375,2.5735110563412307,0.9084095604151486,0.08934384204503149
1789225106790690300,8.270690185546876,-0.1587114293143153,-0.15088964964747428,0.07176851093117147
1789225106800729600,8.2807294921875,0.33643443309068677,-1.266646659991145,-0.2953959184007719
1789225106810768400,8.290768310546875,0.4585951241210103,-2.8410914411753416,-0.5759408160850406
1789225106820807400,8.300807373046876,-5.0597348743736745,-2.7645693425089117,-0.03824137651836499
1789225106830845400,8.310845458984375,-6.362089392083883,-2.435312253701687,0.30736210439596323
1789225106840884500,8.320884521484375,-4.9531671815335745,-1.3001730820178985,2.0205105324693022
1789225106850923300,8.33092333984375,-0.9898805136606097,-2.067479058262706,4.081275041654706
1789225106860961500,8.34096142578125,7.504860666081309,-2.8099440232396122,1.6683957151658833
1789225106871000300,8.351000244140625,2.6323858546361327,-0.18294132294654844,1.1355954640839248
1789225106881039400,8.361039306640626,-2.061793413841724,-0.7587485757797956,1.3614808065481483
1789225106891078400,8.371078369140625,-1.3294997142672538,-0.02003624133467674,-0.5181589641259983
1789225106901116400,8.381116455078125,1.449620716163516,0.8305845624566077,-1.3149763911351562
1789225106911155500,8.391155517578126,1.9528040468126535,2.041019505882263,-1.367441760779172
1789225106921194200,8.4011943359375,-0.3069318597525358,3.44157019392848,-0.848415037375316
1789225106931233300,8.4112333984375,0.9325731108129024,4.173292815616727,0.4818005700763315
1789225106941271300,8.421271240234375,4.509836554300785,3.26258549965322,0.45748789353147146
1789225106951310300,8.431310302734374,0.5937997133806348,2.2749890052765607,-0.31627222728878257
1789225106961349400,8.441349365234375,-5.296210219109058,1.7746119642198084,0.5796163262600079
1789225106971387400,8.451387451171875,-2.9761498999625444,0.6892126827389001,0.2825169101432897
1789225106981426400,8.461426513671874,6.3861091500967735,-0.5393529606610536,0.17290190376285464
1789225106991465200,8.47146533203125,7.499216522714495,-2.4739158328622577,-0.4101781530849635
1789225107001504500,8.48150439453125,-5.110743761599063,-3.2300159399598836,-0.41028778747189787
1789225107011542300,8.491542236328126,-7.802546558582782,-2.9992741704404353,-0.5546113931346685
1789225107021581300,8.501581298828125,-6.217104582566023,-1.5993571041226387,1.3809898091383277
1789225107031620600,8.51162060546875,-3.4942981600314376,-1.0377128166764975,1.1728539853110909
1789225107041659400,8.521659423828124,8.381667466008663,-1.992059367880225,0.30416142692482095
1789225107051697400,8.531697509765625,6.061917527985573,0.15627718790471554,0.6569682633467018
1789225107061736400,8.541736328125,-3.681742055094242,1.3658692507654429,1.684162608618289
1789225107071775500,8.551775390625,0.05414367811977863,0.32975977763235564,2.138320042552799
1789225107081813200,8.561813232421875,3.5224151242300867,0.4840256257146597,1.2963118765451014
1789225107091852500,8.5718525390625,-1.9548641942128537,1.4981979923278093,0.44767742426544427
1789225107101891300,8.581891357421876,-5.33572682146132,2.0088392377674578,0.6734425013508647
1789225107111930400,8.591930419921875,-3.9122985311746596,1.0020575659275055,2.5458576180011034
1789225107121968400,8.601968505859375,-0.4931619951114058,0.7283411625564098,3.1464749024420975
1789225107132007400,8.61200732421875,10.083612837946415,0.14342004441916942,2.313769402308762
1789225107142046500,8.62204638671875,9.681149643152951,0.34848785897791384,0.9677019265349954
1789225107152084200,8.632084228515625,-0.6698749450623989,-0.4679115262597799,0.6149435506310313
1789225107162123500,8.64212353515625,-6.799764185512066,-1.6457617124229669,0.45024398681782185
1789225107172162300,8.652162353515624,-4.077532055734098,-0.6865040083020925,-0.843473635450378
1789225107182201300,8.662201416015625,3.1569033574759957,-0.30016251174807546,0.5839762750351801
1789225107192239400,8.6722392578125,4.25634490057379,0.27027824561595915,0.4136726806698367
1789225107202278400,8.6822783203125,-2.2707123508706686,-0.43313072025775906,0.9672221071287989
1789225107212317400,8.6923173828125,-6.304924904838204,-2.0124153426885605,2.1505875495821236
1789225107222356200,8.702356201171876,-4.844283320705593,-2.322264551192522,3.301911255608499
1789225107232394500,8.71239453125,1.7024182501465082,-2.457493690371513,3.410164709578454
1789225107242433000,8.72243310546875,11.756131039869784,-2.28260006480217,1.1263447475925088
1789225107252472000,8.73247216796875,4.722692246256768,0.11455927611589431,0.3473363508552313
1789225107262510000,8.742510009765626,-4.9312972950309515,0.8895002772837877,-0.21334033366777003
1789225107272549000,8.752549072265625,-3.7696570699125527,1.2869161255598067,-1.0229496203739195
1789225107282588200,8.762588134765625,2.0561229669898746,1.9279560212820768,1.0826287938542662
1789225107292627200,8.772627197265624,5.546725779634714,1.8608032239854335,1.7851706215046346
1789225107302665200,8.782665283203125,1.862372372998297,1.9124772971212862,2.584633631119132
1789225107312704000,8.7927041015625,-1.8359721495896577,1.227403613883257,3.7703456366986035
1789225107322743300,8.802743408203124,-0.521759728564322,0.20363982758224008,2.161929612329602
1789225107332781000,8.812781005859375,1.4652967164620756,-0.6374024160027504,1.7418356299079953
1789225107342820000,8.822820068359375,-1.4315472993344067,-0.08102934695780277,0.16999847393892706
1789225107352859100,8.832859130859376,-1.2784306212872265,0.13839900138676164,-0.5460816843941807
1789225107362898200,8.842898193359375,1.713112370379269,-1.1777759518831967,-0.5892788749553263
1789225107372936200,8.852936279296875,-0.2142813408449292,-1.177947216796875,-0.6053642597723752
1789225107382975000,8.86297509765625,-2.00279294334054,-1.414095813795924,1.5105533237710593
1789225107393014300,8.87301416015625,1.5575520985722542,-2.2533500049203634,1.7860393671631811
1789225107403052000,8.883052001953125,2.62231015856266,-2.8677351179510353,1.8000410045087336
1789225107413091000,8.893091064453126,-1.633717054364085,-2.606003751406073,1.3454041164942085
1789225107423130000,8.903130126953124,-6.164521577891707,-1.7332324906051157,0.4587169238697737
1789225107433169200,8.913169189453125,-5.116903453272581,0.2503904728412628,-0.40948622529804707
1789225107443207200,8.923207275390626,2.2699261689290404,1.0039753822475672,-0.7579759109068661
1789225107453246200,8.93324609375,9.288521613675355,1.3878028501540423,-1.334277303932607
1789225107463285200,8.94328515625,4.427332458615303,1.946635587310791,-1.05902718818821
1789225107473323000,8.953322998046875,-2.213397056977451,1.8315145856589077,-0.49884442466199397
1789225107483362300,8.9633623046875,-1.1950365910246967,1.6745915010660886,-1.0603824021894483
1789225107493401000,8.973401123046875,3.1369708687767384,1.9440788885653018,-2.130816535054892
1789225107503440100,8.983440185546876,3.5904584406256674,0.9832757085680961,-1.4962183628179133
1789225107513478100,8.99347802734375,-1.7292533578410743,1.192790565663576,-0.6105123632505536
1789225107523517200,9.00351708984375,-4.472612446799874,0.7143529692143201,-1.2071123018089682
1789225107533556200,9.01355615234375,-1.6801029579639435,-0.33368191951215265,-1.5181351572021842
1789225107543595000,9.023594970703124,1.0006196420788764,-0.8167565281122923,-1.1660240662258117
1789225107553633300,9.03363330078125,3.2675498440623283,-1.3060913661509752,-0.8428042848214506
1789225107563672000,9.043672119140625,1.0551502736896277,-2.0045780731916425,-1.2356439112231135
1789225107573711000,9.053711181640624,-4.6583252802863715,-2.183627064874768,-2.180867244772613
1789225107583749000,9.0637490234375,-4.298090577152371,-1.862482555374503,-1.2107814918410031
1789225107593788200,9.0737880859375,-0.3413736430585384,-1.930527333074808,-0.9807251473024486
1789225107603827200,9.0838271484375,-0.07544044090956449,-1.209907704681158,-0.8909332326963544
1789225107613866000,9.093865966796875,-4.023351260474324,0.304561038967967,-0.6129178169570862
1789225107623904300,9.103904296875,-1.2013617023929952,0.6847615485489368,-0.15366941655911504
1789225107633943000,9.113943115234376,4.711203468514978,0.6581956131845712,-0.9104258686736225
1789225107643982000,9.123982177734375,6.926252384352684,1.5437199725747108,-1.075396066121757
1789225107654020000,9.13402001953125,2.8861534026950597,2.625391173443198,-1.4054659326165915
1789225107664059100,9.14405908203125,0.6938090706184507,2.86599207367599,-2.2230504359856247
1789225107674098200,9.15409814453125,0.6201604815617203,1.6240467242211103,-3.322692470091581
1789225107684137200,9.16413720703125,-4.839642216901481,1.4085685748070478,-2.2143282003477216
1789225107694175200,9.17417529296875,-5.814108303809165,2.425859950223565,-2.022604728269577
1789225107704214000,9.184214111328124,-0.1391059806123376,0.3371960651129484,-2.0465052438169717
1789225107714253300,9.19425341796875,0.7034270860522985,-2.0755425377309322,0.07119922314323485
1789225107724291000,9.204291015625,-3.0072596162363885,-1.9037989006251095,0.31717114888988435
1789225107734330000,9.214330078125,-1.7820649105742572,-2.512579033255577,-0.5101001973655075
1789225107744369200,9.224369140625,2.13420047840476,-3.179073688229918,-2.0660843890339136
1789225107754408200,9.234408203125,2.1358596437886357,-2.4212977568745613,-2.856965594394505
1789225107764446200,9.2444462890625,-1.3296601655259728,-1.7427853318482636,-3.0930580772921443
1789225107774485000,9.254485107421875,-3.770346513481438,-0.966406991353631,-3.1255376206144687
1789225107784524300,9.264524169921875,0.3263791952833533,-0.35261692160665986,-1.555390828885138
1789225107794562000,9.27456201171875,4.397402599775791,-0.47659869058430193,-0.4065688400140032
1789225107804601000,9.28460107421875,0.029310557897388935,1.4575368961155413,-0.05786708255708217
1789225107814640000,9.29464013671875,-1.4742086294531822,1.953293291634321,0.12723255093451588
1789225107824679200,9.30467919921875,-1.2815040373831987,1.8657026864647863,-1.4579077752545475
1789225107834717000,9.314717041015625,-0.5886977140665054,3.567577331253886,-1.8257922624893486
1789225107844756200,9.324756103515625,4.91941922571063,3.793993054267764,-2.5326436239019037
1789225107854795300,9.334795166015626,5.848858130151033,2.297373271042108,-2.7139666979968546
1789225107864833000,9.3448330078125,-1.750446075734496,1.195890285244584,-1.6536869524642823
1789225107874872300,9.354872314453125,-5.298658196783065,-0.27815117094814773,-1.509350962243974
1789225107884911000,9.3649111328125,-2.2567878704145548,-1.4553396783322095,-0.2073070083202794
1789225107894950100,9.3749501953125,3.7253012108355756,-2.8339854085624214,0.7093436166197061
1789225107904988200,9.38498828125,1.3351678230315447,-3.350913771447539,1.265715078229457
1789225107915027200,9.395027099609376,-5.592493843597174,-3.2834453323304653,0.9903732656136155
1789225107925066200,9.405066162109375,-2.9817221471369266,-3.429449548023939,2.1869439343377945
1789225107935104300,9.415104248046875,5.386718757551908,-2.3638415932059287,0.008833587057888507
1789225107945143300,9.425143310546876,4.939635499787331,-1.5178379278212786,-0.8798433911442756
1789225107955182000,9.43518212890625,-4.470898920880257,-0.8923334548830986,-0.3408759957347065
1789225107965221000,9.44522119140625,-6.7008513913393015,0.6483698002189398,-1.329341016574204
1789225107975259100,9.455259033203125,-4.067258791261911,3.3976632476627824,-0.05407317016683519
1789225107985298200,9.465298095703124,10.594145946836472,1.6294032828181981,3.8789910125955935
1789225107995337200,9.475337158203125,9.693151046591996,3.119560007509589,3.159251381906867
1789225108005375200,9.485375244140625,-3.9190962284907696,3.8358904142767187,3.12599267090559
1789225108015414300,9.495414306640624,-6.103834177216887,2.018710643440485,3.8973447076708077
1789225108025453000,9.505453125,-2.288056284381449,3.5306571751356124,0.6911229002743959
1789225108035492000,9.5154921875,6.909984555640817,0.4180594078540802,1.3991517810337244
1789225108045530000,9.525530029296876,4.115240439620614,-0.27843524858653546,1.1716586380466818
1789225108055569200,9.535569091796875,-5.854781674981117,-1.2977104912966488,1.416703365945816
1789225108065608200,9.545608154296875,-6.046845046538114,-2.2932126442313194,2.150586965060234
1789225108075646200,9.555646240234376,2.120490809743106,-2.133811186826229,2.244673800381273
1789225108085685200,9.565685302734375,7.542137965074181,-2.5288299108326435,1.355237235983461
1789225108095724000,9.57572412109375,-0.4995730311974883,-1.252530456355214,1.2924404419392346
1789225108105763000,9.58576318359375,-6.103646545690298,-0.7970160548537969,1.5849642755024134
1789225108115801000,9.595801025390625,-1.3693372191369533,-0.8687070801019668,1.321392103396356
1789225108125840100,9.605840087890625,4.89683446893692,-0.9451333171784877,1.2757169784143567
1789225108135879000,9.61587890625,0.5368333790555596,0.6196306124687194,1.1031631939694284
1789225108145917200,9.625917236328124,-4.277160017326474,1.5353613095521925,1.7678361864745615
1789225108155956000,9.6359560546875,-1.9275088620364664,1.8601181643307207,0.94818532516025
1789225108165995000,9.6459951171875,3.474856085197627,2.7918098161339757,1.284967767971009
1789225108176034300,9.656034423828125,6.622768034705519,2.15374630587399,0.4298164080779999
1789225108186072000,9.666072021484375,1.536121188008785,1.3449632408589123,0.10706424418538808
1789225108196111000,9.676111083984376,-2.60192495765984,0.8710048356503247,0.5524068688277155
1789225108206150100,9.686150146484374,0.8685229557067156,-1.646395334151387,-0.25539050961825993
1789225108216188200,9.696188232421875,0.6679074443817138,-3.844901403728127,-0.046663186171278355
1789225108226227000,9.70622705078125,-6.873554813387989,-2.240838313871622,-0.9374192356698214
1789225108236266200,9.716266357421874,-5.683039791440963,-1.9020827443569897,0.24581088996604084
1789225108246305800,9.726305908203125,4.4645404917642475,-3.0079771168559786,2.8187410776793955
1789225108256343600,9.736343505859375,12.558628156483172,-2.971221211388707,0.5713137773388997
1789225108266382600,9.746382568359374,2.054011966185272,-0.3939817821741104,0.4408674885222688
1789225108276421600,9.756421630859375,-6.722418495503067,-1.417782977876067,0.21910426748935133
1789225108286459600,9.766459716796875,-6.090060503408313,-1.4188234268397093,-1.480621565235406
1789225108296498400,9.77649853515625,-0.651830754327774,-0.8814590096473693,0.5445555342728272
1789225108306537700,9.786537841796875,2.1355074693500993,0.4811661446303129,1.5361865083299577
1789225108316576800,9.79657666015625,1.700061165626347,2.0823843664497135,1.7297348577477036
1789225108326614500,9.806614501953124,1.994457953454554,2.1282138052105903,1.7185216820769011
1789225108336653800,9.81665380859375,1.6493971463158725,1.7027286312699317,0.0073879182942211625
1789225108346692600,9.826692626953125,-1.3919281133905053,1.493875452953577,0.06625610418524593
1789225108356730600,9.836730712890626,-1.0127549010306596,2.042963041165471,0.06710844669826328
1789225108366769700,9.846769775390625,6.519477171579003,1.3138520632803439,-0.5946195418635383
1789225108376808700,9.85680859375,5.390907441413402,1.3970979172438382,-1.7836384435012935
1789225108386847700,9.86684765625,-1.577545085287094,0.927279096058011,-1.8603680474385618
1789225108396885800,9.8768857421875,-5.598104669216275,-0.47451487004756926,-1.5563563129164277
1789225108406924800,9.8869248046875,-5.964002512678504,-1.7940058159977197,-1.0962713886290787
1789225108416963600,9.896963623046876,-3.8422818688794966,-1.5868781462997197,1.0227969870954752
1789225108427001600,9.907001708984374,4.729489066790044,-1.619824722611904,1.7349847410999237
1789225108437040600,9.91704052734375,7.30097592382729,-1.4972393764287233,-0.2383644464176148
1789225108447079700,9.92707958984375,-1.6496037748038768,-0.9661948099076747,-1.3365297590345144
1789225108457117400,9.937117431640624,-5.409904402828216,-1.360456578066945,-1.9945891786187886
1789225108467156700,9.94715673828125,-2.49289759670794,-1.260236792948842,-2.649638310471177
1789225108477195800,9.95719580078125,1.3662728631302714,-0.788632841911912,-0.5496563280105591
1789225108487234600,9.967234619140624,4.403507054130733,0.9894611192047595,0.3698352559763938
1789225108497272800,9.97727294921875,3.9060990920126435,1.8114637312769888,-1.3751450286328792
1789225108507311600,9.9873115234375,-2.05102184445858,1.9872826549977063,-1.7945890227131545
1789225108517350700,9.9973505859375,-4.576371511960029,2.668062440434098,-2.0597281518749893
1789225108527388700,10.007388671875,1.8984017177566885,3.531224745890498,-3.7168756200566886
1789225108537427700,10.017427734375,11.054051276773214,3.1343256149649616,-2.352192656466365
1789225108547466800,10.027466796875,5.392659838038683,3.4257331578493115,-1.872173343783617
1789225108557505500,10.037505615234375,-2.192624025800824,0.9895604879260063,-2.4157117734357714
1789225108567543800,10.047543701171875,-7.054416991972923,-0.876722628775239,-2.5957982914730904
1789225108577582600,10.05758251953125,-6.1995981519699095,-0.34303134713768957,-3.018600217679143
1789225108587621600,10.06762158203125,-5.988883855956792,0.09676935240328312,-1.7912598782904445
1789225108597659600,10.07765966796875,-1.070390220658481,-1.8682319126814602,0.7126607783436775
1789225108607698700,10.08769873046875,5.889003678056597,-3.5398230628877876,-0.8149767320234328
1789225108617737500,10.097737548828125,-3.7485207583814857,-3.0502146686047316,-1.055260675261542
1789225108627775700,10.107775634765625,-7.361220841431617,-5.109039880290627,-1.0581294356308877
1789225108637814800,10.117814697265626,-5.6824272125005715,-4.853866849347948,-0.48407889027185735
1789225108647853600,10.127853515625,-6.235128899556398,-1.7907558742910623,0.27138346691150217
1789225108657892600,10.137892578125,-0.5960723344877362,-1.6500468423962593,0.29293020414067433
1789225108667930600,10.1479306640625,13.330310448116064,-1.4998574499726294,-0.6809440360873937
1789225108677969700,10.1579697265625,1.1068947817131876,2.1937352019131184,0.17483632415784522
1789225108688008400,10.168008544921875,-7.411520119082927,3.3727649532496926,0.8671828662093728
1789225108698046700,10.178046630859376,-3.041683571624756,4.28529890011847,1.223975027674064
1789225108708085500,10.18808544921875,6.433098280286789,5.35215597821474,0.28936025496572254
1789225108718124500,10.19812451171875,5.482616003295779,5.505818599706888,0.44287393297385425
1789225108728163800,10.208163818359376,-1.445991419750452,5.5677182987809175,-0.01518754092818126
1789225108738201600,10.21820166015625,-3.4101346067011353,3.4458044704973694,-1.379483350098133
1789225108748240600,10.22824072265625,-2.38946469476223,2.0819763701707124,-2.3042700448185203
1789225108758279700,10.23827978515625,1.4522259302258491,-0.2995844195991754,0.40968342837058
1789225108768317700,10.248317626953124,4.077938590708375,-1.6620032376497984,2.1286602338038385
1789225108778356500,10.2583564453125,0.04692980121821165,-2.703497910952568,1.4290769636981189
1789225108788395500,10.2683955078125,-5.631878928524255,-3.54845352858901,1.2738869865082203
1789225108798433500,10.27843359375,-6.1252797008275985,-4.063804266893864,2.49553700530082
1789225108808472600,10.28847265625,-2.386969078554213,-4.513663419112563,3.6976699843272565
1789225108818511600,10.29851171875,1.3613035502851007,-2.487490769228339,0.5591431913454086
1789225108828550700,10.308550537109374,-0.07941782010793685,-1.2991489996671677,0.2201849388655275
1789225108838588700,10.318588623046875,-2.3935499182492492,-0.625341975852847,0.8833090214282274
1789225108848627500,10.32862744140625,-1.225782442422211,0.03957739262878895,0.2762919894801453
1789225108858666800,10.338666748046874,0.42657413822114465,0.9202619107723236,1.3667358044669031
1789225108868704500,10.34870458984375,3.7220284727752206,2.44414671754241,1.625192094863951
1789225108878743600,10.35874365234375,5.5916649915575976,3.3598873514980077,1.1488974287275224
1789225108888782800,10.368782958984376,1.8048735392317174,3.9243198083579536,0.4643403532421216
1789225108898821600,10.378821533203125,-3.240339765575528,3.104934685307741,0.44486108820307996
1789225108908859600,10.388859619140625,-3.7167864804685116,3.4241853438854215,-0.16665721895331517
1789225108918898700,10.398898681640626,0.4866112582936883,2.5239134972184893,-0.5343604861360043
1789225108928937700,10.408937744140625,4.560046692363917,0.9484136540234088,1.273097005174309
1789225108938975500,10.4189755859375,5.502125590407848,-0.5441092152774334,1.3780902883045374
1789225108949014800,10.429014892578126,2.3749235437124967,-2.7790947114676237,1.0268719814494252
1789225108959053800,10.4390537109375,-1.4587670224323868,-3.9109892021417614,0.5665992795050144
1789225108969092600,10.449092529296875,-0.40985973478555676,-4.337489106082916,-0.24623022962296381
1789225108979130600,10.459130615234375,1.866378686030209,-4.86749789981544,-0.3984020097691566
1789225108989169700,10.469169677734374,-0.17671967195272445,-4.234928310796618,-0.8359029079351574
1789225108999208700,10.479208740234375,-4.622432129128277,-2.758056599614024,-0.6081791710626333
1789225109009246500,10.48924658203125,-3.377055928441882,-1.5789461842566728,0.06756904994733631
1789225109019285800,10.49928564453125,3.9679502757698297,-0.89421444632411,1.3651903285905718
1789225109029324500,10.509324462890625,5.728083632782101,0.7476151873469352,0.8462535484924912
1789225109039362600,10.519362548828125,2.171665408924222,2.2422657163262367,0.11823898754194379
1789225109049401900,10.52940185546875,0.12947013726085424,0.5191103830993176,-0.6693569856029004
1789225109059440600,10.539440673828125,-5.521427672249079,0.458944375950098,-0.9749407186821103
1789225109069479700,10.549479736328125,-4.239681935064494,3.031298955732584,-0.9487688241366297
1789225109079517700,10.559517578125,10.8713800029397,1.8717746998548506,-0.5290562787806615
1789225109089556700,10.569556640625,11.847038222241402,0.4450415228039026,-0.5680680003507063
1789225109099595500,10.579595458984375,-3.033598172585666,-0.46940907134115695,-0.18156698411973193
1789225109109633800,10.5896337890625,-8.46569248765111,-1.7975567864775657,-0.3483552090415731
1789225109119672600,10.599672607421875,-5.084261997386813,-0.7921884885668754,-0.4942751074524596
1789225109129711600,10.609711669921875,4.429582867890596,-2.359873858618736,1.0531079542070627
1789225109139750000,10.61975,1.7503893771111965,-1.7059931860238313,-0.02367792230527848
1789225109149788700,10.62978857421875,-7.7454738412737845,-0.1765425618201494,0.16828914927039296
1789225109159827700,10.63982763671875,-6.253484055936336,1.60970547965765,0.163661745198071
1789225109169866500,10.649866455078126,-5.4424412292957305,3.805943604302406,1.115876325874403
1789225109179904800,10.65990478515625,1.6608225034326314,1.9166303251475094,1.7060371712960303
1789225109189943600,10.669943603515625,16.585397116446494,2.6408213822871445,0.04417633779160678
1789225109199982600,10.679982666015626,5.34467877420187,5.100770649117231,-0.43945612388700245
1789225109210020600,10.6900205078125,-4.411144124880432,3.3059605309993025,-0.06149740188345313
1789225109220059600,10.7000595703125,-3.6090500361099838,0.9250725259244441,-1.420047123415768
1789225109230098700,10.7100986328125,-4.010190165606141,0.3681143504679203,-2.312725884605199
1789225109240136200,10.72013623046875,-4.047302044904232,0.48213177479207514,-1.2620315674111247
1789225109250175200,10.73017529296875,2.1593986325472594,-1.760332678976655,0.8289182366795838
1789225109260214000,10.740214111328125,5.381089811754227,-3.2249095567315815,0.2872295630799606
1789225109270253000,10.750253173828124,-0.5850879991367459,-4.015537371852994,-0.4232214667923748
1789225109280291000,10.760291015625,-3.948023340028524,-4.852810033771395,-0.35364162501189855
1789225109290330000,10.770330078125,1.7154051574915647,-4.147197420373558,-0.925206600632891
1789225109300369200,10.780369140625,4.920182611298561,-3.338568084615469,-1.2471987399384379
1789225109310407200,10.7904072265625,0.5625023655802012,-2.532392571750283,-1.9405833015345035
1789225109320446200,10.8004462890625,-6.628322746223211,-0.9224047680199146,-2.326438037484884
1789225109330485000,10.810485107421876,-5.696160554298758,1.5422510690659283,-1.8886187210194765
1789225109340524300,10.820524169921875,2.6034172420442103,2.39513455709219,-2.070591345064342
1789225109350562000,10.83056201171875,5.092562208220363,2.817872478151321,-0.8800526499807834
1789225109360601000,10.84060107421875,0.19347323835492133,4.28102838319242,-0.04985536980871111
1789225109370640100,10.85064013671875,-0.20108751275092362,2.9610435162454842,-0.1853712900398299
1789225109380678100,10.86067822265625,1.095566162969172,1.4144213924884794,-0.8093175372179597
1789225109390717000,10.870717041015626,-2.4623645112782717,0.9301637115836143,-1.696782582347095
1789225109400756200,10.880756103515624,-3.123271429248154,1.3604986636430025,-1.159878037751466
1789225109410794200,10.890794189453125,5.820816277015209,0.12139525961577892,-0.21240677914470432
1789225109420833000,10.9008330078125,5.881004495996237,-0.5336000962227583,-1.126235368933901
1789225109430872300,10.910872314453124,-2.1991569347009063,-0.44377544839084143,0.1452230752531439
1789225109440911000,10.9209111328125,-4.464202053590118,-1.1928718142062424,0.9783869136132299
1789225109450949000,10.93094921875,-2.197035120241344,-2.307469133120775,1.2302080037795007
1789225109460988200,10.94098828125,-2.9357088762417436,-1.259723582729697,2.1344725733444094
1789225109471027200,10.951027099609375,-1.9695666733041404,0.2510837158024311,2.8658400979846714
1789225109481065000,10.96106494140625,4.351637750683724,-0.05748889689445495,2.4264850963845848
1789225109491104000,10.97110400390625,3.390992683857679,0.035680385190248486,1.1836478395912795
1789225109501143300,10.981143310546875,-3.555973110438883,0.6920388460755348,0.48233098715860395
1789225109511181000,10.99118115234375,-4.792001929326355,1.1885761628389357,-1.1988151597153394
1789225109521220000,11.00122021484375,2.022699713076651,0.8284025422424077,-1.3771356179282068
1789225109531259100,11.011259033203125,4.673092056785523,-1.0374024355530738,-0.6688954325057566
1789225109541298200,11.021298095703125,-3.9547389120191334,0.1939759271800518,0.42543530691694464
1789225109551336000,11.0313359375,-4.530199251110852,0.6742915924608707,1.5890736105173826
1789225109561375200,11.041375244140625,6.083398707431554,-0.8804548010408878,1.0490155703268944
1789225109571414300,11.051414306640625,6.217374631679058,-0.3642109132885933,1.0794717911280691
1789225109581452000,11.0614521484375,-0.9377095969185233,-0.14612345815896988,1.3256449385352431
1789225109591491300,11.0714912109375,-3.5131069053977724,-0.5820131217360496,0.8074153568584471
1789225109601530000,11.081530029296875,0.9380237774342298,0.046294718185067175,0.7640798538051545
1789225109611568000,11.091568115234375,3.2141730586618182,-0.09006079467535018,-0.2346299725970253
1789225109621607200,11.101607177734374,-2.9935926176726815,1.5682400813251733,-0.8811839190330356
1789225109631646200,11.111646240234375,-5.890946044296026,0.815928845116496,0.8368895808849484
1789225109641685200,11.121685302734376,-2.899299007733166,0.2839642411410808,1.0329305508360267
1789225109651723300,11.13172314453125,2.5352897544965147,0.46052433861792086,2.668532980555296
1789225109661762300,11.14176220703125,6.003368308383226,0.4585603450685739,2.0669848450049755
1789225109671801000,11.151801025390625,2.511922030651569,0.5867091705977916,0.7335675919678062
1789225109681839000,11.161839111328124,-2.6848785506784916,-1.6624340302824974,0.10065627683922648
1789225109691878100,11.171878173828125,-7.1448565568327895,-0.34762452014684675,-1.6021163397029041
1789225109701917200,11.181917236328125,-4.074281237244605,0.2230330948382616,0.1674193441659212
1789225109711955000,11.191954833984376,4.6799379771575325,-1.5856079802334309,0.5067611160706729
1789225109721994200,11.201994140625,2.743977513118088,0.0659744011670351,0.1350629888318479
1789225109732033300,11.212033203125,-3.0998458377361295,-0.0718733960777521,1.4843644050255418
1789225109742071000,11.222071044921876,-2.235968662008643,-0.037862405404448504,1.3727476121023297
1789225109752110300,11.2321103515625,3.429268346238136,0.1444178232848644,1.719319408325851
1789225109762149000,11.242149169921875,7.088911966770887,0.6092050800442695,1.642930288389325
1789225109772188200,11.252188232421876,1.7355319997191427,1.8955606491118668,1.217126769214496
1789225109782226200,11.26222607421875,-2.339739125345647,0.9865805953323841,0.5629341811262071
1789225109792265200,11.27226513671875,-4.979114692738652,1.164683246076107,-0.27998956535644826
1789225109802304000,11.282303955078126,-4.513130335149168,2.6227362750202414,-0.2348283081807196
1789225109812342300,11.29234228515625,5.285567244541645,1.5134458303421734,1.3472513517960905
1789225109822381300,11.30238134765625,11.30197272915244,0.6964443875581026,-0.4109521331321448
1789225109832420000,11.312420166015626,-0.2023646930798888,0.3958762176185846,-0.6057947601441294
1789225109842458400,11.322458251953124,-7.385624630326032,-3.0095179165571926,0.16780965865775943
1789225109852497200,11.3324970703125,-6.146046594524384,-2.3732529801517726,-1.1134328782450407
1789225109862536200,11.3425361328125,-0.4443137930512428,-3.1394302446275946,0.44447599787563086
1789225109872575000,11.352574951171874,6.487565783533453,-2.5246225222706795,-0.2716149741124362
1789225109882613200,11.36261328125,5.054480022585392,-0.6703834791064262,-1.0504309170175343
1789225109892652000,11.372652099609375,-0.06871522430777549,-1.0519903483539819,-0.932278365650028
1789225109902691000,11.382691162109374,-2.4283818699166178,-0.5967582709252834,-2.0462394324876367
1789225109912729300,11.392729248046875,-1.8979431603342294,-1.0066752888560295,-2.1265587314799426
1789225109922768100,11.40276806640625,-1.579880250236392,0.26727088049352166,-0.6601696897365152
1789225109932807200,11.41280712890625,1.956739924956858,0.7697627217471599,-0.11763561482131481
1789225109942845200,11.42284521484375,2.037895236381888,0.6514771185845136,-0.8415682402204722
1789225109952884200,11.43288427734375,-1.218761165483296,1.153834519803524,0.09714110832512378
1789225109962923000,11.442923095703126,0.7270572602257133,1.2411287723749875,0.03615004852861166
1789225109972962000,11.452962158203125,6.796434164306521,0.03173310886919498,-0.18575988749861716
1789225109983000000,11.463,3.371709014455974,-0.33273557857275005,-0.8243573585048317
1789225109993039000,11.4730390625,-6.2740387681871645,-0.7396984228730201,-0.8906587266039103
1789225110003078100,11.483078125,-6.858267812407016,-0.41712475735247134,-0.3342837578628212
1789225110013116200,11.4931162109375,0.645603550375998,-0.9218705150127411,1.6132763238817451
1789225110023155200,11.5031552734375,6.5761717032253735,-1.22191436881721,1.0196867461204528
1789225110033194000,11.513194091796874,-0.24657909785956142,0.6357154858291149,1.0755061023674906
1789225110043232300,11.523232177734375,-2.209353334544599,-0.6341968979597091,1.7545936969332396
1789225110053271000,11.53327099609375,-0.024838380919396875,-0.7191010405242443,0.5801208782486618
1789225110063310000,11.54331005859375,0.16777414895296097,-0.09912205300927161,0.23611469472944735
1789225110073348000,11.55334814453125,0.5465238752037287,1.8312404448926447,-0.4221457273196429
1789225110083387100,11.56338720703125,4.041247859431803,1.883678488138318,-1.3428051860421895
1789225110093426200,11.57342626953125,2.158709188978374,1.618866106712818,-1.8069973995178936
1789225110103465000,11.58346484375,-2.836941920280456,1.7676894714802502,-1.7237771183870731
1789225110113503200,11.593503173828125,-2.7055536744385957,1.2203063490986823,-0.9748543555729091
1789225110123542000,11.6035419921875,3.900273746860027,-0.4887748660683632,0.10905527187213301
1789225110133581000,11.6135810546875,2.65182354555577,-2.53012228873074,-0.3210986245319247
1789225110143619000,11.623619140625,-6.713999626725911,-1.9074059852063654,0.037728257630765434
1789225110153658000,11.633658203125,-6.64952920038104,-1.9631524223476646,-0.15073708943426609
1789225110163697200,11.643697265625,2.462630468738079,-2.737047129333019,-0.08997940000221133
1789225110173735200,11.653735107421875,5.627379279017448,-3.441044124227762,-0.8615104465961456
1789225110183774200,11.663774169921876,-3.0003993750780817,-1.1729670902967453,-0.2818138947067782
1789225110193813000,11.67381298828125,-2.6405150928169485,-0.4528466435968876,-0.9403006363250315
1789225110203851300,11.683851318359375,2.684926481473446,-1.4477508306384086,-2.78659880348742
1789225110213890000,11.69389013671875,1.5378654013276098,1.1087614523679017,-2.009064863216877
1789225110223929000,11.70392919921875,0.00009235445857048034,2.539759885647893,-1.2829150732249022
1789225110233968400,11.713968505859375,2.1495076453909276,2.795828988647461,-0.9159889096282422
1789225110244006400,11.72400634765625,2.467140055117011,3.6103321848750114,-0.20596772254053503
1789225110254045200,11.734045166015624,0.6849485955536365,3.988199867594242,-0.4188888078829273
1789225110264084200,11.744084228515625,-0.4547214975580573,3.630786359360814,-0.38084841556306925
1789225110274122200,11.754122314453125,-1.7188500372484325,2.557601831808686,-0.5026034118693322
1789225110284161300,11.764161376953124,-2.2736446049302814,0.9004688305437565,-0.8370625262990593
1789225110294200300,11.774200439453125,-2.696917948040366,0.061954644131660457,-0.6188844702765345
1789225110304238300,11.78423828125,0.1053901734933257,-1.959067783382535,-0.18697857910599558
1789225110314277400,11.79427734375,2.3167954721316693,-3.104472328492999,0.17532580644153056
1789225110324316200,11.804316162109375,0.6558496345803141,-3.2988737876087426,0.29596827492862937
1789225110334354400,11.8143544921875,-1.0342124073401093,-4.231610564550757,0.08536649937927722
1789225110344393200,11.824393310546874,-3.1198966921180484,-5.34245934458673,0.2455668520770967
1789225110354432300,11.834432373046875,-7.117761044636368,-3.2316309739410873,-0.05532967303395271
1789225110364471300,11.84447119140625,-2.718229908399284,-0.5876052426546812,1.0148821223177016
1789225110374509300,11.85450927734375,10.157985065102576,-0.14084230288565158,0.28456944049261507
1789225110384548400,11.86454833984375,5.465767744347453,1.1249755050659178,-0.8640282746359705
1789225110394587400,11.87458740234375,-7.493480609411001,1.8188012345582245,0.12945251027261837
1789225110404625400,11.88462548828125,-6.3016071585923426,2.8465222340524194,-0.08524548508180305
1789225110414664200,11.894664306640625,-3.2950176967024802,3.347390858018398,2.0150766708523036
1789225110424703200,11.904703125,10.651923597544432,0.3837234230101108,3.688722707761824
1789225110434741200,11.9147412109375,8.090873086586594,3.035399961310625,1.9274724755488335
1789225110444780300,11.9247802734375,1.2641297087341545,3.1550463314324615,2.763010422629118
1789225110454819300,11.9348193359375,1.1624240689724683,0.2720195363253355,1.1502861066069454
1789225110464857300,11.944857421875,-3.1655121958673,-0.16158172405362128,-0.6266293853148818
1789225110474896400,11.954896484375,-7.097613159620762,-1.071617424365878,-1.1682353125344962
1789225110484935200,11.96493505859375,-5.08913515638113,-2.4886855319708583,0.09314845849238336
1789225110494974500,11.974974365234376,-4.896532271119952,-3.5622231107443567,1.5715550510920584
1789225110505012200,11.98501220703125,-1.702356875348091,-4.676560317417979,4.586722517843544
1789225110515051300,11.99505126953125,12.217227625417708,-4.996214880621433,6.726921652141213
1789225110525090300,12.00509033203125,11.73683480324745,-0.10322130502164363,2.699637143871188
1789225110535128300,12.01512841796875,-1.4478940385013819,3.169102329313755,1.7327300940409303
1789225110545167000,12.0251669921875,-4.043391008940339,1.6361188548088073,0.5052917376378551
1789225110555206400,12.035206298828125,2.2789748600423336,1.4687451033502816,-0.27177557150162757
1789225110565244200,12.045244140625,2.7138515471845865,4.071787082341313,1.3634344248339534
1789225110575283200,12.055283203125,1.7304966359004377,5.906690725916624,1.0530853039838373
1789225110585322500,12.065322509765625,-0.3472475035279989,5.0188417229712,0.8924903990104794
1789225110595360300,12.0753603515625,-2.9278020486399527,3.6412902177184816,0.187117001195997
1789225110605399300,12.0853994140625,-1.5375681719467043,2.849991955989599,-1.2316698930256067
1789225110615438300,12.095438232421875,0.9362854093343019,-0.606561287537217,-0.02708469854146242
1789225110625477400,12.105477294921876,-3.030509851181507,-3.596304244044423,1.3645125754594802
1789225110635515100,12.11551513671875,-6.695163408830761,-4.484132204201817,0.8393009528756141
1789225110645554400,12.125554443359375,-1.6454752966970205,-5.61111320387125,1.5168611917436121
1789225110655593500,12.135593505859376,5.775892262661457,-5.2906426481097935,-0.8560217860519885
1789225110665631200,12.14563134765625,4.757783141121268,-2.5840771662801503,-1.7589425397925078
1789225110675670300,12.155670166015625,0.1857607642814517,-0.4324234487712383,-2.183252386343479
1789225110685709300,12.165709228515626,-3.442081066060066,-0.09566928220689296,-3.3262305810898543
1789225110695747300,12.175747314453124,-1.4494132108926772,-0.40830081490576264,-3.8356294252529737
1789225110705786000,12.1857861328125,-1.3503960795626044,0.8117921837031841,-3.360775532509386
1789225110715825400,12.195825439453126,-3.4216265993133184,2.5453888314455746,-1.6339431182049213
1789225110725863200,12.20586328125,0.6049810326084494,3.5771845330327747,-0.22426888371091336
1789225110735902200,12.215902099609375,6.279145735937356,2.9057565133094787,-0.4545992959504947
1789225110745941500,12.22594140625,3.2890842150002717,3.683974344190955,-1.6791978258177638
1789225110755979300,12.235979248046876,3.016456775909662,3.043057198065519,-2.2623820371598002
1789225110766018300,12.246018310546875,4.011616399016976,0.9634382046759128,-4.27750313167572
1789225110776057300,12.256057373046875,0.673860215306282,-1.0807926644682884,-4.842177580597997
1789225110786096400,12.266096435546874,-4.899349082106352,-1.6989590496033429,-4.8327565490409725
1789225110796134100,12.276134033203125,-4.703968841086327,-2.1310008055806158,-5.034337398266792
1789225110806173400,12.28617333984375,-1.6434218712985516,-3.4435061304271217,-2.7465391802996395
1789225110816212500,12.29621240234375,0.21861352483034133,-3.5978047117352485,-0.18154994165338575
1789225110826250200,12.306250244140625,0.3017074031025171,-3.345053939503431,1.5369899336673318
1789225110836289300,12.316289306640625,0.542407087534666,-3.162067608371377,1.0490665698617696
1789225110846328300,12.326328369140626,-0.047719782552123065,-2.936707531890273,-0.4261640595829114
1789225110856366300,12.336366455078124,-0.9206406809568405,-2.0494173318713904,-1.428455324668437
1789225110866405400,12.3464052734375,0.0282052270039916,-0.9147621443122624,-2.511734106864035
1789225110876444400,12.3564443359375,4.079132184407115,0.006233341431617736,-2.3420976711705324
1789225110886482200,12.366482177734374,4.051103775274753,1.1525877346128224,-0.62123819379583
1789225110896521200,12.376521240234375,-1.085015835121274,2.533812375420332,-0.7141305586352944
1789225110906560500,12.386560546875,-2.914599744978547,2.7291654361724853,0.025998876066133377
1789225110916599300,12.396599365234374,1.2218152923569083,3.6199855638831853,0.8304108863901346
1789225110926637300,12.40663720703125,5.857937508663535,4.27548945376575,1.0746861642867327
1789225110936676400,12.41667626953125,5.234207644182443,4.0594811429977415,0.423711223070696
1789225110946715400,12.42671533203125,-0.3969266034543514,0.8869868331581353,-0.12214834300540386
1789225110956753200,12.436753173828125,-6.993693935462832,-0.8317968608558177,-0.20492089863503352
1789225110966792400,12.44679248046875,-5.934387711137533,0.7014163307517767,-0.4737452373819425
1789225110976831200,12.456831298828124,6.4475938386291265,-1.0754086333423851,0.5316211973652243
1789225110986869200,12.466869140625,5.299452562031149,-1.5830086113899946,-0.9711275170695036
1789225110996908500,12.476908447265625,-5.706497823917865,-1.5136340463906526,1.1610972042828798
1789225111006947300,12.486947265625,-6.341594885587692,-2.0547066704511643,2.2792476856343447
1789225111016985300,12.4969853515625,6.378412165853381,-2.1526023965358734,3.8168954986885186
1789225111027024400,12.5070244140625,8.390558628472686,-3.3032389970809217,1.7300830866634844
1789225111037063400,12.5170634765625,-7.414770060789585,-1.3284317927747964,1.1404402737665922
1789225111047101200,12.52710107421875,-7.751778494375944,0.07518354353904724,2.0182479943647977
1789225111057140200,12.53714013671875,-5.86790536044836,3.1265935594081875,2.154756944221258
1789225111067179300,12.54717919921875,0.1157473168566823,1.550575245296955,0.9084406131405383
1789225111077218300,12.55721826171875,14.919792639434336,-0.5654290666818619,-0.6345873585820198
1789225111087256300,12.56725634765625,4.30719509010613,2.1435487369865176,0.17591796364840118
1789225111097295400,12.57729541015625,-7.051524777662753,-1.2025947513192892,-0.10291030284371226
1789225111107334400,12.58733447265625,-7.270655019843578,-1.7532365832358598,-0.9451535562489182
1789225111117372200,12.5973720703125,-6.410005573990941,1.9001532375991343,-1.757239535266906
1789225111127411500,12.607411376953126,5.835167458450794,1.3518594301134348,0.18379426824776454
1789225111137450200,12.6174501953125,19.428228679287432,-1.067117190337181,0.04633610964138061
1789225111147488300,12.62748828125,-1.7565967073187232,1.2326987976819277,0.7231582069605589
1789225111157527300,12.63752734375,-10.207409898006915,-0.8135089244931936,1.6252859106272457
1789225111167566300,12.64756640625,-5.8745233172833915,-1.141342702499032,2.2484628174006938
1789225111177604000,12.65760400390625,-3.5145044972360133,-1.0921312200844286,2.4996175526127216
