time,seconds_elapsed,z,y,x
1789225098562662100,0.042662109375,5.5081601943969725,7.692719571685791,0.1361702194213867
1789225098572701000,0.052700927734375,5.672911196136474,7.829338703918457,0.06239888076782226
1789225098582740000,0.062739990234375,5.829881042480468,7.949796974945068,-0.13856442108154296
1789225098592778000,0.072778076171875,5.907243683624268,7.9183730781555175,-0.3363853332519531
1789225098602817000,0.082817138671875,5.985504150390625,7.912088298797607,-0.4513070129394531
1789225098612855800,0.092855712890625,6.133944653320312,7.908048083496094,-0.6215946060180664
1789225098622895000,0.10289501953125,5.542576843261719,9.131036219024658,-3.0042741706848144
1789225098632934100,0.11293408203125,3.526509407806396,13.571382472991942,-9.2565821685791
1789225098642972000,0.122971923828125,4.204218115234375,13.985728997802733,-7.503727278137206
1789225098653011200,0.13301123046875,5.986551613616943,10.462661254882812,-4.305822048187256
1789225098663050000,0.143050048828125,5.762544120788574,8.794650885772704,-3.26883345413208
1789225098673089000,0.153089111328125,5.564872846221924,8.07668966293335,-1.5770307060241697
1789225098683128000,0.163128173828125,5.038447756195068,7.634510543823242,-1.3944728294372557
1789225098693166800,0.173166748046875,4.706401913452148,7.049277875518799,-1.1653776580810546
1789225098703205000,0.183205078125,4.7578772491455075,6.7930982978820795,-0.9181763366699218
1789225098713244000,0.193243896484375,4.885218849945068,6.495918016815185,-0.3003226707458496
1789225098723283000,0.203282958984375,4.974702136993408,6.443245580291748,0.2650081962585449
1789225098733322000,0.213322021484375,5.436334144592285,6.884826148986816,-0.23044190979003906
1789225098743361000,0.223361083984375,7.08698655166626,7.997830645751953,-2.460491118621826
1789225098753400000,0.233400146484375,9.07192936553955,9.270348828125,-4.4942157913208005
1789225098763438000,0.24343798828125,8.952967470550536,9.872041632843017,-5.020491243743896
1789225098773477000,0.25347705078125,6.678326255798339,9.545682019042967,-4.094384114074707
1789225098783516000,0.263515869140625,4.4659342842102046,8.597578161621094,-2.766350380706787
1789225098793555000,0.273554931640625,3.4798224754333495,7.403619721221923,-2.057217776489258
1789225098803594200,0.28359423828125,3.08358210067749,6.687753424835205,-2.225111167907715
1789225098813633000,0.293633056640625,3.1274259185791013,7.050026063537597,-3.0527567543029783
1789225098823671000,0.303671142578125,3.3960254173278805,7.790881839752196,-3.6195839973449706
1789225098833710000,0.3137099609375,3.801244048309326,8.144176222229003,-3.51154564743042
1789225098843749000,0.3237490234375,4.217236586761475,8.15809251937866,-3.3897406379699704
1789225098853788200,0.3337880859375,5.043984347534179,8.109759573364258,-3.1407436653137206
1789225098863827000,0.343826904296875,5.802497360992431,8.033594033050537,-2.902969512939453
1789225098873865200,0.353865234375,6.00794979095459,7.977928844451903,-2.755875748443603
1789225098883904000,0.363904052734375,5.50367106628418,7.828590515899657,-2.4164976631164548
1789225098893943000,0.373943115234375,4.911555068206787,7.816619507598877,-2.268356435394287
1789225098903981800,0.38398193359375,4.039766388702392,8.074295461273193,-2.3138462669372557
1789225098914021000,0.394021240234375,3.1693244476318356,8.019677735900878,-1.9197008186340332
1789225098924060200,0.40406005859375,2.6523265266418456,7.858368399047851,-1.2945149101257323
1789225098934098000,0.414097900390625,2.3344962562561036,7.762001782226562,-1.2259808876037597
1789225098944137200,0.42413720703125,2.121412308502197,7.87841983795166,-1.5867571502685547
1789225098954176000,0.434176025390625,1.7374422172546387,8.123825508117676,-1.7485153999328613
1789225098964215000,0.444215087890625,1.3290811965942382,8.08192697906494,-1.5861585998535155
1789225098974254000,0.454254150390625,1.9909283180236814,7.522581616210937,-1.4803648139953614
1789225098984292900,0.46429296875,3.574543078613281,7.019350354766845,-1.6922516609191893
1789225098994331100,0.4743310546875,4.512321941375732,6.8590884811401365,-1.6329951698303222
1789225099004370000,0.484369873046875,4.987570970916748,6.921786637115478,-1.9786580345153808
1789225099014409000,0.494408935546875,5.546617058563232,8.516474580383301,-2.0368670623779295
1789225099024448000,0.504447998046875,4.99280828704834,10.25271969680786,-1.9728221679687499
1789225099034487000,0.514487060546875,4.413860398101806,9.967510424041748,-2.687341725921631
1789225099044524800,0.52452490234375,3.819200560760498,9.370007472229004,-3.175010676574707
1789225099054564000,0.534564208984375,2.912695957183838,8.168567151641845,-3.214963916778564
1789225099064603100,0.54460302734375,2.8516438148498535,7.500734526062011,-2.3665187034606934
1789225099074642000,0.554641845703125,3.076698770904541,7.1112278434753415,-1.9545663803100586
1789225099084681000,0.564680908203125,2.7920880485534667,6.9247793891906735,-2.216132911682129
1789225099094720000,0.574719970703125,1.8357541229248047,7.034314115142822,-2.5285762283325193
1789225099104758000,0.584758056640625,1.3277344581604003,6.9804445777893065,-3.048417263793945
1789225099114797000,0.594797119140625,0.6747159553527832,6.878990282440185,-3.6028245857238765
1789225099124836000,0.604836181640625,0.03247136001586914,6.982838779449462,-4.208258330535888
1789225099134875100,0.614875244140625,0.6416460449218749,6.408230381011962,-4.172345305633545
1789225099144914000,0.624913818359375,2.231395947265625,5.855319435119629,-3.509450720977783
1789225099154952000,0.634951904296875,3.0639795745849607,5.987150164031982,-3.366247534179687
1789225099164991200,0.6449912109375,2.793734062194824,6.277147840118408,-3.5173815139770506
1789225099175030000,0.655030029296875,2.3324013298034667,7.356483876037597,-4.333804280090332
1789225099185069000,0.665069091796875,2.3605331993103027,8.38958189239502,-5.256170469665527
1789225099195107800,0.67510791015625,1.3335703247070312,8.877101205444335,-6.132149002075195
1789225099205147100,0.685147216796875,1.4561235221862792,8.974515285491943,-6.760327662658691
1789225099215185000,0.695184814453125,1.2741641960144041,8.621669815826415,-6.634781713104248
1789225099225224000,0.705223876953125,2.9110499435424804,8.610746270751953,-6.719626234436035
1789225099235263200,0.71526318359375,2.5290251411437987,8.793004872131347,-6.004508126068115
1789225099245302300,0.72530224609375,2.824409770965576,9.286210414123534,-5.820004960632324
1789225099255341000,0.735341064453125,1.1502642601013182,9.330952057647705,-5.070470203399658
1789225099265380000,0.745380126953125,1.5894506271362303,9.247454274749755,-4.991311911010742
1789225099275418000,0.755418212890625,2.0406080024719238,9.025840983581542,-5.370343961334228
1789225099285457200,0.76545703125,1.0298059890747069,9.032425038146972,-5.390245762634277
1789225099295496200,0.77549609375,0.4100070343017578,9.47370633163452,-5.6766521362304685
1789225099305535000,0.785534912109375,0.29074586410522457,9.815927531433104,-5.628019915008545
1789225099315574300,0.79557421875,0.9207201759338378,9.964816947174072,-5.432593204498291
1789225099325612000,0.805612060546875,0.8153753028869628,9.9215716796875,-5.429600452423095
1789225099335651000,0.815651123046875,0.539443561553955,9.784503634643555,-5.467608403778076
1789225099345690400,0.8256904296875,0.2567781280517578,9.573664250946045,-5.313780947113036
1789225099355729200,0.835729248046875,0.00852934341430664,9.480140748596192,-4.99280828704834
1789225099365768200,0.845768310546875,0.3404255485534668,9.533112460327148,-4.440795166778564
1789225099375807000,0.855806884765625,1.074547632598877,9.853486569976805,-3.6246716758728024
1789225099385845200,0.86584521484375,1.454926421356201,10.051606757354735,-3.0508114654541014
1789225099395884000,0.875884033203125,1.6704045707702635,9.58952583694458,-2.6027964797973633
1789225099405923000,0.885923095703125,1.719934617614746,9.580697218322753,-2.4883237129211424
1789225099415962000,0.895962158203125,0.6507739387512207,9.045293872070312,-2.5644892532348633
1789225099426001200,0.906001220703125,-0.24615385818481444,7.833079644012451,-2.6503812377929687
1789225099436039200,0.9160390625,-0.11821370697021484,6.702118634796142,-2.9671640449523924
1789225099446078000,0.926077880859375,0.3242646873474121,6.09040011062622,-3.061435735321045
1789225099456117200,0.9361171875,0.6578069061279297,6.1644707244873045,-2.7455507537841797
1789225099466156300,0.94615625,0.9971849914550781,6.603357816314697,-2.487874800109863
1789225099476195000,0.956195068359375,1.117942537689209,7.192630699920654,-2.47725053024292
1789225099486234000,0.966234130859375,0.7211036125183105,8.309376136779784,-2.722356925201416
1789225099496272100,0.976272216796875,-0.31483751831054685,9.993697004699706,-2.9131448699951172
1789225099506311200,0.986311279296875,-2.417545126342773,15.103072985076903,-2.5635914276123044
1789225099516350000,0.996349853515625,-0.09412205276489258,17.285836711120606,-4.445134657287597
1789225099526389200,1.00638916015625,2.1306898399353025,17.391929772186277,-3.7955578193664548
1789225099536428300,1.01642822265625,2.864063735961914,17.010952433013916,-2.139368820953369
1789225099546466000,1.026466064453125,2.5800515640258785,14.218714746856689,-2.6164135017395016
1789225099556505000,1.036505126953125,1.7993921852111816,11.05118595046997,-1.8637363548278807
1789225099566544100,1.046544189453125,1.9991583862304687,8.91226604232788,-1.1988964813232421
1789225099576583200,1.056583251953125,2.1287445510864256,7.2158245285034175,-0.26964696197509763
1789225099586622200,1.066622314453125,2.1836615516662596,5.952434239959716,0.013766659545898436
1789225099596660200,1.07666015625,1.923591396331787,5.395183803558349,-0.2721908012390137
1789225099606699300,1.08669921875,0.9258078544616699,5.8834513046264645,-0.7755717002868652
1789225099616738000,1.096738037109375,0.17178396911621094,7.078157933044433,-1.3536217636108399
1789225099626777000,1.106777099609375,0.3437175758361816,8.48475140838623,-1.7325041763305664
1789225099636816400,1.11681640625,0.7659948936462402,9.735422500610351,-1.9725228927612304
1789225099646855200,1.126855224609375,2.039111626434326,11.110292803955078,-2.5564088226318358
1789225099656893200,1.13689306640625,1.9048866958618162,11.54259584121704,-2.650231600189209
1789225099666932200,1.14693212890625,1.8596961395263671,11.901127539825438,-2.576011348724365
1789225099676971300,1.15697119140625,2.0528782859802246,12.223147663116455,-2.982127805328369
1789225099687010000,1.167010009765625,2.147000338745117,11.471667617034912,-2.8980314720153806
1789225099697049000,1.177049072265625,2.441936055755615,10.275015699768066,-3.1304186706542967
1789225099707087000,1.187087158203125,2.408716507720947,9.176675688171386,-3.2365117317199705
1789225099717126100,1.197126220703125,2.052579010772705,8.677484642028809,-3.491045295715332
1789225099727165200,1.207165283203125,0.7438485282897949,8.292616725158691,-3.5160347755432126
1789225099737204000,1.217203857421875,1.020229182434082,7.914183225250244,-3.6077626266479492
1789225099747243300,1.2272431640625,1.788319002532959,7.737461215209961,-3.5517981628417967
1789225099757281000,1.237281005859375,1.5025111793518064,7.781454670715331,-2.690334477996826
1789225099767320000,1.247320068359375,1.3121721473693846,8.430283320617676,-2.662801158905029
1789225099777359400,1.257359375,1.3157634498596191,8.144325859832763,-2.9219734886169433
1789225099787398100,1.267398193359375,1.5197195037841795,8.494777127838134,-3.2583588218688964
1789225099797437200,1.277437255859375,1.1309610092163085,9.105897101593017,-3.1227871528625486
1789225099807476000,1.28747607421875,1.2446855880737304,9.511714282989502,-2.6030957550048828
1789225099817514200,1.29751416015625,1.2638392013549804,9.922768780517577,-2.4498668487548825
1789225099827553000,1.307552978515625,1.4835072036743162,10.136152003479003,-2.6044424934387207
1789225099837592000,1.317592041015625,1.0639233627319336,9.929352835083007,-2.877830395507812
1789225099847631000,1.327631103515625,-0.2651578338623047,8.992322160339356,-2.965667668914795
1789225099857670100,1.337670166015625,-0.5327098693847656,8.394220658111571,-2.9581857887268064
1789225099867708200,1.347708251953125,0.23956980361938476,8.75230344390869,-2.655169641113281
1789225099877747000,1.357746826171875,1.0281599754333495,9.322422714233397,-2.1467010635375976
1789225099887786200,1.3677861328125,0.9817723182678222,10.13211178817749,-2.1166239051818847
1789225099897825300,1.3778251953125,0.9570821136474609,10.950330205535888,-2.4160487503051757
1789225099907864000,1.387864013671875,1.2285247268676758,11.501295862579346,-2.7274446037292477
1789225099917902300,1.39790234375,1.5285481224060058,11.659911722564697,-3.470395306396484
1789225099927941000,1.407941162109375,0.738012661743164,10.269179833221434,-3.134009973144531
1789225099937980200,1.417980224609375,0.8268973983764648,9.103353262329101,-2.9159879844665526
1789225099948019200,1.428019287109375,1.0455179374694823,8.6566850151062,-3.05170929107666
1789225099958058200,1.438058349609375,0.4870704002380371,7.568669998168945,-2.0033482391357422
1789225099968096300,1.44809619140625,1.4451999771118162,8.348880464172362,-2.15163910446167
1789225099978135000,1.458135009765625,1.1571475898742676,7.981370509338379,-1.010652375793457
1789225099988174000,1.468174072265625,2.050633721923828,8.356212706756592,-0.6985083343505859
1789225099998213000,1.478213134765625,1.8177976104736326,9.129539842987061,-0.16160861206054686
1789225100008252200,1.488252197265625,2.3973440498352048,9.541791441345215,0.5382464607238769
1789225100018290000,1.4982900390625,2.588281632232666,9.916484001159667,0.6612485710144043
1789225100028329200,1.5083291015625,0.816572403717041,9.412953464508057,0.6373065544128418
1789225100038368300,1.5183681640625,0.7659948936462402,9.62109937133789,-0.037110125732421874
1789225100048407000,1.528406982421875,0.8512883277893066,9.880720613861083,0.07990648040771484
1789225100058446000,1.538446044921875,1.165228020477295,14.094665173339843,1.911470750427246
1789225100068485400,1.5484853515625,0.08245031967163086,14.42835702972412,2.5851392425537107
1789225100078523100,1.558523193359375,1.8873790962219237,11.524938603973387,0.5491700057983399
1789225100088562200,1.568562255859375,0.8032546569824218,9.882216989898682,1.0535983680725096
1789225100098601200,1.578601318359375,-0.601992079925537,9.737966339874268,1.218050094604492
1789225100108640300,1.58864013671875,1.0966939979553223,8.443451429748535,0.36317046432495115
1789225100118679000,1.598678955078125,1.1800421432495116,7.980173408508301,-0.07407061386108398
1789225100128717300,1.60871728515625,2.3939023849487304,8.686163623046875,-0.988356372833252
1789225100138756000,1.618756103515625,2.1812673500061033,8.86138925704956,-1.274313833618164
1789225100148795100,1.628795166015625,0.7695861961364746,8.70845962600708,-0.7860463325500487
1789225100158834200,1.638834228515625,2.1658546768188476,9.70369932861328,-1.6817770286560059
1789225100168873000,1.648873046875,-0.32411504974365235,8.12098239364624,-1.2003928573608398
1789225100178911200,1.6589111328125,1.7146973014831541,9.136872085571289,-2.193537633514404
1789225100188950000,1.668949951171875,0.4991910461425781,9.67811129837036,-1.5031097297668456
1789225100198989000,1.678989013671875,0.5096656784057617,8.686762173461913,-0.7128735443115234
1789225100209028400,1.6890283203125,-0.33533787002563475,8.962544277191162,-1.121084927368164
1789225100219067100,1.699067138671875,1.8984522789001463,8.990376871490477,-1.1848305465698241
1789225100229105400,1.70910546875,0.45774142990112304,8.907178363800048,-1.4510358436584472
1789225100239144400,1.71914453125,3.910928411865234,11.405378158569336,-2.0470424194335934
1789225100249183500,1.72918359375,1.820790362548828,11.171195308685302,-2.124704335784912
1789225100259222500,1.739222412109375,2.274192301940918,10.18283893585205,-3.1172505615234374
1789225100269261600,1.749261474609375,2.3418284988403317,12.005873862457275,-2.8954876327514647
1789225100279299600,1.759299560546875,2.5781062751770016,12.108674896240233,-2.5719711334228514
1789225100289338600,1.769338623046875,1.7319056259155272,11.52389114074707,-3.3789667304992674
1789225100299377400,1.77937744140625,2.4480711975097655,11.728595382690429,-3.0912136184692383
1789225100309416400,1.78941650390625,1.2973580245971679,11.687744316864013,-2.6005519157409664
1789225100319455700,1.799455810546875,0.4156932632446289,11.58748712234497,-1.6115969924926756
1789225100329493500,1.809493408203125,0.9721955116271972,10.109366872406005,0.18106150054931638
1789225100339532500,1.819532470703125,2.1716905433654783,9.529670795440673,0.9002198242187499
1789225100349571600,1.829571533203125,2.027589530944824,9.617508068847656,0.6643909606933593
1789225100359610600,1.839610595703125,2.358438272857666,9.670479780578614,-0.03666121292114258
1789225100369649400,1.8496494140625,2.1754314834594726,9.235034353637694,-0.743100340270996
1789225100379687400,1.8596875,2.609380534362793,8.546701376342773,-1.0547954689025878
1789225100389726700,1.869726806640625,2.6768670936584473,8.36294639892578,-1.2835913650512694
1789225100399765500,1.879765625,3.393032665252685,8.77729292373657,-1.196502279663086
1789225100409804500,1.889804443359375,3.5966894439697263,9.13537570953369,-0.8631096984863281
1789225100419843300,1.89984326171875,3.4133833793640136,8.66356834487915,-0.11432312927246092
1789225100429881600,1.909881591796875,3.89446827545166,7.98002377090454,0.6081272216796875
1789225100439920400,1.91992041015625,4.056974713134766,8.255356961822509,0.870142665863037
1789225100449959400,1.92995947265625,3.759046244049072,8.416516661071777,0.41374797439575195
1789225100459998700,1.939998779296875,3.037643356323242,8.332719602966309,0.30361469802856444
1789225100470037500,1.95003759765625,2.5086744270324703,8.211812419128417,-0.3711012573242187
1789225100480075500,1.960075439453125,3.2525229553222657,8.07683930053711,0.6973112335205077
1789225100490114600,1.970114501953125,2.410811434173584,8.396016309356689,2.5471312911987303
1789225100500153600,1.980153564453125,2.855085479736328,9.279327084350586,3.775656018066406
1789225100510192600,1.990192626953125,2.897133646392822,8.98259571609497,3.150021196746826
1789225100520231400,2.0002314453125,2.2650644081115723,9.106944564819335,1.356764153289795
1789225100530269700,2.010269775390625,2.927210804748535,8.100033129119872,0.8068459594726562
1789225100540308500,2.02030859375,3.528005783843994,8.630498434448242,-0.2641103706359863
1789225100550347500,2.030347412109375,2.846256861114502,11.309161179351806,-0.3206733848571777
1789225100560386300,2.04038623046875,3.2604537483215332,9.355193349456787,1.4004583335876464
1789225100570425600,2.050425537109375,2.5623943267822265,10.42540149154663,-0.3000233955383301
1789225100580463400,2.06046337890625,2.0109797569274903,10.497077903747558,0.022296002960205077
1789225100590502400,2.07050244140625,2.8446108474731444,9.184756118774413,1.099387474822998
1789225100600541700,2.080541748046875,2.9109003059387204,10.488398922729491,1.4890437950134277
1789225100610580500,2.09058056640625,3.1956606658935547,9.382876306152344,0.25094226150512694
1789225100620619500,2.10061962890625,2.5561095474243163,6.6419643180847165,-1.2928688964843749
1789225100630657500,2.110657470703125,3.7886744895935056,7.875127810668944,0.24660277099609373
1789225100640696600,2.120696533203125,2.826504697418213,9.968108974456786,0.26919804916381834
1789225100650735600,2.130735595703125,1.8359037605285644,8.481908293914794,0.1876455551147461
1789225100660774400,2.1407744140625,3.6912604095458983,9.99070425262451,0.08289923248291015
1789225100670813400,2.1508134765625,5.0960582336425775,11.587936035156249,4.429572346496582
1789225100680851500,2.1608515625,6.809708071899414,10.627112981414795,5.305550878906249
1789225100690890500,2.170890380859375,5.035006091308594,8.44015940246582,0.9395745140075683
1789225100700929500,2.180929443359375,4.113837002563477,9.406668685150146,0.9816226806640624
1789225100710968600,2.190968505859375,5.073612593078613,9.1554271484375,0.9096469932556152
1789225100721007600,2.201007568359375,4.305223497772216,9.59581061630249,0.3865139305114746
1789225100731045400,2.21104541015625,4.651484912872315,10.024522351074218,0.7314286071777343
1789225100741084700,2.221084716796875,4.313154290771484,9.694721072387695,0.5240308883666992
1789225100751123500,2.23112353515625,3.841496563720703,9.323619815063475,0.715716658782959
1789225100761162500,2.24116259765625,3.5116952850341794,8.953715658569335,1.8251298530578612
1789225100771201500,2.251201416015625,4.386626354217529,8.964040653228759,2.031480108642578
1789225100781239600,2.261239501953125,4.870853639984131,8.842385281372069,1.9147627777099607
1789225100791278600,2.271278564453125,5.060444483947753,9.19358473739624,1.6274585784912108
1789225100801317400,2.2813173828125,4.702511335754394,9.456049094390869,1.4061445625305176
1789225100811356700,2.291356689453125,4.882824648284912,9.773729727172851,1.4899416206359863
1789225100821395700,2.301395751953125,4.600757765197754,9.8825162651062,1.7337012771606444
1789225100831433500,2.31143359375,4.361487236785888,9.916035088348387,2.058564514923096
1789225100841472500,2.321472412109375,4.109946424865722,9.850493817901611,2.3268647384643555
1789225100851511600,2.331511474609375,4.226813393402099,9.776872116851806,2.2958897544860837
1789225100861550600,2.341550537109375,4.671087438964843,9.716568162536621,2.067842046356201
1789225100871589400,2.35158935546875,4.866214874267578,9.618555532073975,1.6446669029235839
1789225100881627600,2.361627685546875,4.379144474029541,9.475651620483397,1.1566986770629881
1789225100891666400,2.37166650390625,4.629637822723389,9.235333628845215,1.148468608856201
1789225100901705500,2.38170556640625,4.244320993041992,9.134477883911133,1.3034931663513183
1789225100911744500,2.39174462890625,3.625120588684082,8.883236347198485,1.4812626396179198
1789225100921783600,2.401783447265625,2.656666017150879,8.638578865051269,1.2820949890136717
1789225100931821600,2.411821533203125,3.1151556350708005,8.447491645050048,1.2656348526000976
1789225100941860400,2.4218603515625,2.9097032051086424,8.659977042388915,1.0248679481506346
1789225100951899600,2.431899658203125,1.2114660400390624,8.461856855010986,1.27042325592041
1789225100961938700,2.441938720703125,1.8083704414367674,8.447342007446288,0.2480991470336914
1789225100971977500,2.4519775390625,5.938667580413818,8.34439133605957,0.2700958747863769
1789225100982015500,2.462015380859375,5.25437481842041,8.45991156616211,0.8860042518615722
1789225100992054500,2.472054443359375,2.535160282897949,8.474725688934326,0.9133879333496093
1789225101002093600,2.482093505859375,1.707065783691406,8.329577213287353,1.1017816764831543
1789225101012132400,2.49213232421875,2.9905075111389157,8.546551738739014,0.8429086219787597
1789225101022171400,2.50217138671875,4.5407530860900875,8.923488862609863,0.9994295555114745
1789225101032209700,2.512209716796875,4.670339250946045,9.260023833465576,0.8916904808044434
1789225101042248400,2.52224853515625,3.5685575744628903,9.469067565917967,0.7893383598327637
1789225101052287500,2.53228759765625,2.729240254974365,9.61526350479126,0.7582137382507323
1789225101062326500,2.542326416015625,3.4949358734130858,9.746645320892334,0.6943184814453125
1789225101072364500,2.552364501953125,4.6447512207031245,9.746794958496093,0.8010100929260253
1789225101082403300,2.5624033203125,4.5455414894104,9.702951140594482,1.0191817192077637
1789225101092442600,2.572442626953125,3.5194764404296874,9.578452654266357,1.1546037506103515
1789225101102481700,2.582481689453125,2.761412339782715,9.37195276107788,1.1486182464599608
1789225101112520400,2.5925205078125,3.0590415336608885,9.055169953918456,1.0926537826538085
1789225101122558700,2.602558837890625,3.6171897956848142,8.837596878051757,1.0142436782836914
1789225101132597500,2.612597412109375,3.565714459991455,8.705616511535643,1.0935516082763672
1789225101142636500,2.622636474609375,3.2207997833251953,8.47831699142456,1.0443208366394043
1789225101152675600,2.632675537109375,2.8124387626647946,8.301744618988037,0.8545803550720215
1789225101162714400,2.64271435546875,2.6506805130004882,8.098686390686035,0.999130280303955
1789225101172752600,2.652752685546875,2.9185318237304685,8.183680549621581,1.3617021942138672
1789225101182791400,2.66279150390625,3.7012861289978027,8.429235857391356,0.9843161575317382
1789225101192830500,2.67283056640625,3.7913679664611815,8.699631007385253,0.9998784683227538
1789225101202869500,2.682869384765625,3.0125042388916015,9.053972853088379,0.7589619262695312
1789225101212908500,2.692908447265625,2.7910405853271483,9.27603505706787,0.8336310905456542
1789225101222946300,2.7029462890625,3.515585862731933,9.446322650146485,0.752677146911621
1789225101232985300,2.7129853515625,4.190900368499755,9.562740705871581,0.7009025360107421
1789225101243024400,2.7230244140625,3.9821559112548828,9.795726454925537,0.5662286926269531
1789225101253063200,2.733063232421875,3.479972113037109,9.789441675567627,0.4656722229003906
1789225101263101400,2.743101318359375,3.178601979064941,9.987711500549317,-0.023942016601562498
1789225101273140500,2.753140380859375,3.69634808807373,9.789591313171385,0.18046295013427732
1789225101283179300,2.76317919921875,3.906588921356201,9.547477670288085,0.1345242057800293
1789225101293218300,2.77321826171875,3.429095327758789,9.225607184600829,0.36152445068359373
1789225101303257300,2.78325732421875,2.8630162727355954,8.973018909454344,0.18001403732299803
1789225101313295400,2.79329541015625,2.784007617950439,8.856151940917968,-0.01092354507446289
1789225101323334100,2.803334228515625,3.2070331237792966,8.808118270111084,-0.12015899581909179
1789225101333373200,2.813373291015625,3.5763387298583984,8.772354882812499,-0.1423053611755371
1789225101343412500,2.82341259765625,3.344101168823242,8.772803795623778,0.14335282440185546
1789225101353451300,2.833451171875,3.047818713378906,8.750208517456054,0.3007715835571289
1789225101363489300,2.8434892578125,3.1714193740844725,8.83654941482544,0.48497547378540035
1789225101373528300,2.8535283203125,3.5941456047058105,9.01491743850708,0.4173392768859863
1789225101383567400,2.8635673828125,3.7946599937438963,9.257779269409179,0.32097266006469727
1789225101393606400,2.8736064453125,3.7229835815429686,9.44258171005249,0.05282207412719726
1789225101403645200,2.883645263671875,3.6118028419494626,9.555109188079834,-0.044891281127929686
1789225101413683500,2.893683349609375,3.6424785507202144,9.54478419342041,-0.07407061386108398
1789225101423722200,2.90372216796875,3.831919757080078,9.450063590240479,0.18091186294555664
1789225101433761300,2.91376123046875,4.150198940277099,9.336787924194335,0.7293336807250976
1789225101443800300,2.92380029296875,4.369866942596436,9.193884012603759,1.1725602630615233
1789225101453839400,2.93383935546875,4.170848929595947,9.024194969940185,1.3070844688415526
1789225101463877000,2.943877197265625,3.5467104843139645,8.975263473510742,1.3621511070251464
1789225101473916400,2.95391650390625,3.238756295776367,8.984541004943846,1.0639233627319336
1789225101483955500,2.96395556640625,3.7825393478393554,8.89311242904663,0.9383774131774901
1789225101493994200,2.973994140625,4.1280525749206545,8.868871137237548,0.8906430175781249
1789225101504032300,2.9840322265625,3.874716111755371,8.830713548278808,0.8592191207885742
1789225101514071300,2.9940712890625,3.4952351486206052,8.762029888153076,0.8999205490112304
1789225101524110300,3.0041103515625,3.21765739364624,8.818892177581787,0.6769605194091797
1789225101534149400,3.0141494140625,3.2817022880554196,9.034968877410888,0.3275567146301269
1789225101544188200,3.024188232421875,3.9336733276367184,9.181913004302977,-0.32172084808349605
1789225101554226400,3.034226318359375,3.928884924316406,9.34007995147705,-0.6283282981872558
1789225101564265200,3.04426513671875,3.6463691284179687,9.448866489410399,-1.6666636306762694
1789225101574304300,3.05430419921875,3.3643022453308102,9.315689022064209,-1.4143746307373046
1789225101584343600,3.064343505859375,3.207482036590576,9.523834928894042,-1.7127520126342772
1789225101594382300,3.07438232421875,4.051887034606933,9.46233387374878,-1.016937155151367
1789225101604420400,3.08442041015625,4.651484912872315,9.286360051727295,-0.7995137168884277
1789225101614459400,3.09445947265625,3.338414939880371,9.082852910614013,-0.39863457641601563
1789225101624498400,3.10449853515625,1.9717747047424314,9.11756883468628,-0.25947160491943355
1789225101634537200,3.114537109375,2.562693601989746,8.764124814605712,0.2410661796569824
1789225101644575200,3.1245751953125,3.903296894073486,8.678083192443847,0.9088988052368163
1789225101654614300,3.1346142578125,4.281580756378173,8.847024047088622,1.5894506271362303
1789225101664653300,3.1446533203125,3.9368157173156737,9.024344607543945,2.3014263458251953
1789225101674692400,3.1546923828125,3.752013276672363,9.056217417144774,2.4369980148315427
1789225101684731100,3.164731201171875,3.086125939941406,9.19971987915039,2.4096143333435056
1789225101694769400,3.174769287109375,2.3657705154418944,9.398288979339599,2.323273435974121
1789225101704808200,3.18480810546875,2.5495254928588866,9.514258122253418,2.277933242034912
1789225101714847200,3.19484716796875,3.323600817108154,9.605686698150635,2.482637483978271
1789225101724886500,3.204886474609375,3.6318542808532714,9.579949030303954,2.6134207496643067
1789225101734925300,3.21492529296875,3.328538858032226,9.581744681549072,2.93693724899292
1789225101744963300,3.22496337890625,3.301155176544189,9.551966798400878,3.029862200927734
1789225101755002400,3.23500244140625,3.7542578407287595,9.469815753936768,2.826953610229492
1789225101765041400,3.24504150390625,3.9450457855224608,9.443928448486327,2.4097639709472656
1789225101775080200,3.255080078125,3.1809961807250975,9.458293658447266,1.6768389877319334
1789225101785118500,3.265118408203125,2.201318788909912,9.534159923553466,0.9777321029663085
1789225101795157500,3.275157470703125,2.0733786376953125,9.600000469207764,0.32456396255493164
1789225101805196300,3.2851962890625,2.7473464050292966,9.709984107971191,-0.14155717315673827
1789225101815235300,3.2952353515625,3.4356793823242184,9.716568162536621,-0.6917746421813964
1789225101825274000,3.305274169921875,3.478775012207031,9.661052611541747,-0.9958382530212402
1789225101835312400,3.3153125,3.0865748527526855,9.587131635284424,-1.7193360671997069
1789225101845351200,3.32535107421875,2.7257985900878903,9.527276593780517,-2.194136183929443
1789225101855390200,3.33539013671875,2.68135622177124,9.535805937194823,-2.384624853515625
1789225101865429500,3.345429443359375,2.9966426528930663,9.382427393341064,-2.064699656677246
1789225101875468300,3.35546826171875,3.0419828468322754,8.967631955718993,-0.9050082275390624
1789225101885506300,3.36550634765625,2.5987562644958495,8.722375923156738,-0.1822586013793945
1789225101895545300,3.37554541015625,2.1850082901000976,8.559719847869873,0.16415245132446288
1789225101905584400,3.38558447265625,2.188749230194092,8.593089033508301,0.024390929412841794
1789225101915623400,3.39562353515625,2.4161983879089353,8.773103070831299,-0.3847182792663574
1789225101925661400,3.405661376953125,2.6824036849975585,9.151087657928466,-0.8361749298095703
1789225101935700500,3.415700439453125,3.075352032470703,9.548225858306884,-1.1212345649719238
1789225101945739300,3.4257392578125,3.0741549316406247,9.85767642288208,-1.141585279083252
1789225101955778300,3.4357783203125,2.5248352882385254,10.123283169555663,-0.6651391487121582
1789225101965817000,3.445817138671875,2.220921315002441,10.204087475585936,0.10714052429199218
1789225101975855400,3.45585546875,2.5905261962890624,10.115801289367676,0.7353191848754882
1789225101985894100,3.46589404296875,2.68135622177124,9.957484704589843,1.2056301734924315
1789225101995933200,3.47593310546875,2.204461178588867,9.939378554534912,1.2669815910339355
1789225102005972500,3.485972412109375,2.0364181495666505,9.830741654205323,1.0489596023559569
1789225102016010200,3.49601025390625,2.388365793609619,9.661351886749268,0.7025485496520996
1789225102026049300,3.50604931640625,2.728492066955566,9.452607429504393,0.5790975265502929
1789225102036088300,3.51608837890625,2.6364649406433105,9.217077841186523,0.7083844161987304
1789225102046127400,3.52612744140625,2.2667104217529297,9.152733671569823,1.1297639083862303
1789225102056166400,3.53616650390625,2.530072604370117,9.131634769439696,1.4872481437683105
1789225102066204400,3.546204345703125,2.816927890777588,9.254786517333983,1.8351555725097655
1789225102076243500,3.556243408203125,2.316689381408691,9.472958143615722,2.146252150726318
1789225102086282200,3.5662822265625,1.852663172149658,9.772083713531494,2.250250285339355
1789225102096321300,3.5763212890625,2.4187422271728516,9.865607215881347,2.226158631134033
1789225102106359300,3.586359375,3.0609868225097654,9.907505744934081,1.8843863441467283
1789225102116398300,3.5963984375,3.031957127380371,9.923965881347655,1.5210662422180175
1789225102126437400,3.606437255859375,2.854337291717529,9.81862100830078,1.074547632598877
1789225102136476200,3.61647607421875,2.8568811309814452,9.600748657226562,0.7143699203491211
1789225102146515500,3.626515380859375,2.661005507659912,9.336638286590576,0.7930792999267577
1789225102156553200,3.63655322265625,2.5740660598754883,9.443629173278808,1.0896610305786132
1789225102166592300,3.64659228515625,3.413682654571533,9.334543360137939,1.195155541229248
1789225102176631300,3.65663134765625,2.9932009880065915,9.106196376800536,1.1222820281982422
1789225102186670300,3.66667041015625,0.06209960556030273,9.280673822784424,1.3162123626708984
1789225102196708000,3.6767080078125,-0.18046295013427732,9.583241057586669,1.6677110939025879
1789225102206747400,3.686747314453125,4.323479285430908,9.401132093811034,1.8287211555480956
1789225102216786400,3.696786376953125,7.53320588607788,9.023297144317626,1.6856676063537597
1789225102226825200,3.7068251953125,4.195688771820068,8.942043925476074,1.1653776580810546
1789225102236864000,3.716864013671875,-0.5989993278503417,9.01536635131836,0.689530078125
1789225102246902000,3.726902099609375,-0.66394204788208,9.113378981781006,0.1352723937988281
1789225102256941000,3.736941162109375,2.9933506256103515,9.196278214263916,0.3194762840270996
1789225102266979800,3.746979736328125,5.114314021301269,9.381379930114745,0.9298480697631836
1789225102277019100,3.75701904296875,3.759046244049072,9.677363110351562,1.2879308555603026
1789225102287057000,3.767056884765625,1.9912275932312011,9.426420848846435,1.3908815269470214
1789225102297096000,3.777095947265625,1.6008230850219725,9.21857421722412,0.996586441040039
1789225102307135200,3.78713525390625,2.2354361625671384,9.256133255767821,0.8821136741638184
1789225102317174000,3.797174072265625,3.5179800643920895,9.458144020843505,0.6958148574829102
1789225102327213000,3.807213134765625,4.606593631744384,9.758167416381836,0.16774375381469725
1789225102337251000,3.8172509765625,3.799149121856689,9.812186591339112,-0.34925416717529295
1789225102347290000,3.8272900390625,1.4149731811523436,10.09949079055786,-0.7282862174987793
1789225102357329200,3.8373291015625,0.7167641220092773,10.069563269805908,-0.8457517364501953
1789225102367368000,3.847367919921875,2.486827336883545,9.667935941314697,-0.3112462158203125
1789225102377406200,3.85740625,3.7255274208068845,9.153631497192382,0.028730419921875
1789225102387445000,3.867445068359375,3.2191537696838375,8.834155213165282,0.42317514343261714
1789225102397484000,3.877484130859375,3.069516165924072,8.214356258392334,0.4107552223205566
1789225102407522800,3.887522705078125,2.8924948806762694,8.105868995666503,0.19931728820800781
1789225102417562000,3.89756201171875,3.4543840827941894,9.05262611465454,-0.3181295455932617
1789225102427600000,3.907599853515625,5.766883611297607,9.491213931274414,-1.020229182434082
1789225102437639000,3.917638916015625,5.062389772796631,9.56917512283325,-1.603067649078369
1789225102447678200,3.92767822265625,0.16220716247558592,9.992499903869628,-1.1661258460998534
1789225102457717000,3.937717041015625,-1.1626841812133788,10.487650734710693,-0.26695348510742184
1789225102467755000,3.947755126953125,3.349937035369873,10.31721350402832,-0.047584757995605464
1789225102477794000,3.9577939453125,6.835894652557372,9.898826763916015,-0.15996259841918944
1789225102487833000,3.9678330078125,3.991433442687988,9.541791441345215,-0.6334159767150879
1789225102497872100,3.9778720703125,0.43679216537475585,8.837147965240478,-1.0519523544311522
1789225102507910000,3.987909912109375,1.7851766128540039,8.08881030883789,-1.9868881027221679
1789225102517949200,3.99794921875,5.773318028259277,8.238597550201415,-3.1203929512023922
1789225102527988000,4.007988037109375,7.06065033340454,8.640374516296387,-3.286789966583252
1789225102538027000,4.018027099609375,2.785503993988037,9.115922821044922,-3.3545758010864257
1789225102548066000,4.028066162109375,-0.3329436683654785,9.408165061187743,-3.1726164749145505
1789225102558104000,4.03810400390625,-0.7451952667236328,9.735572138214112,-2.7446529281616208
1789225102568143000,4.04814306640625,1.440261936187744,10.600926400756835,-2.302174533843994
1789225102578182000,4.058181884765625,4.83314496383667,10.31152727508545,-0.9154828598022461
1789225102588221200,4.06822119140625,4.782866728973389,10.069862545013427,-0.8898948295593261
1789225102598259000,4.078259033203125,2.0088848304748534,10.427646055603027,-1.5120879859924317
1789225102608298000,4.088298095703125,2.498798345184326,10.158597644042969,-2.2348376121520994
1789225102618337000,4.0983369140625,4.172943856048584,9.637260232543944,-2.90476516418457
1789225102628376000,4.1083759765625,2.235885075378418,9.330652782440184,-2.8986300224304196
1789225102638415000,4.1184150390625,-0.117465518951416,9.541492166137695,-1.0480617767333984
1789225102648453000,4.128453125,2.357241172027588,9.227103560638428,0.8779238212585448
1789225102658492200,4.1384921875,5.691316621398926,8.764124814605712,2.689586289978027
1789225102668531000,4.148531005859375,3.965845412445068,8.86722512359619,2.9905075111389157
1789225102678570000,4.158570068359375,-0.46193128280639645,8.634089736938476,2.9652187561035155
1789225102688608000,4.16860791015625,-2.1493945404052734,8.207173653411864,2.754828285217285
1789225102698647000,4.17864697265625,0.024390929412841794,8.210465680694579,1.9271826988220213
1789225102708686000,4.18868603515625,3.4569279220581053,8.618228150939942,2.1357775184631347
1789225102718724900,4.198724853515625,7.376984227752685,9.802909059906005,1.4682441680908203
1789225102728763100,4.20876318359375,8.289923248291014,10.5214688331604,0.5708674583435058
1789225102738802000,4.218802001953125,4.0149265464782715,10.423306565093993,0.37140053253173827
1789225102748841000,4.228841064453125,-1.5837643981933593,10.070161820220946,0.4381389038085937
1789225102758880300,4.23888037109375,-1.7185878791809082,9.970353538513184,1.7462708358764647
1789225102768919000,4.2489189453125,2.7967268142700195,9.409511799621582,3.5857658988952634
1789225102778957000,4.25895703125,6.054786360931396,8.537573482513427,3.3892917251586914
1789225102788996000,4.26899609375,1.4835072036743162,9.071031539916993,2.7443536529541013
1789225102799035100,4.27903515625,-0.10369885940551757,9.586981997680663,1.492635097503662
1789225102809074000,4.289073974609375,6.059574764251709,9.77447791519165,-0.962768342590332
1789225102819112000,4.29911181640625,9.941623118591307,10.049960743713378,-2.986766571044922
1789225102829151000,4.30915087890625,6.148758776092529,10.151415039062499,-3.1597476409912106
1789225102839190000,4.31918994140625,0.06584054565429687,9.488221179199218,-2.938134349822998
1789225102849229000,4.32922900390625,-2.5564088226318358,8.941744650268554,-2.71951381072998
1789225102859267000,4.33926708984375,-1.0549451065063475,9.563788169097899,-2.3063643867492676
1789225102869306000,4.34930615234375,4.470124137115478,9.417592230224608,0.26874913635253905
1789225102879345000,4.359344970703125,8.716839331817626,9.399336442565918,0.9952397026062011
1789225102889384000,4.369384033203125,5.220107807159423,9.950601374816895,-0.30615853729248044
1789225102899423200,4.37942333984375,0.5187935722351074,8.644714006805419,-0.7175123100280761
1789225102909461000,4.3894609375,-2.17079271774292,8.640524153900145,-1.9954174461364744
1789225102919500000,4.3995,0.5545569595336913,9.757119953155517,-2.0970213790893553
1789225102929539000,4.4095390625,10.74472813796997,9.489418280029296,-1.3060370056152344
1789225102939578000,4.419578125,10.902296534729004,9.833135855865478,-2.0368670623779295
1789225102949615900,4.429615966796875,1.8179472480773924,9.886257205200195,-0.7935282127380371
1789225102959655200,4.4396552734375,-1.4112322410583495,9.592368951416015,-0.4198831161499023
1789225102969694200,4.449694091796875,2.0362685119628905,9.56917512283325,0.01331774673461914
1789225102979733000,4.45973291015625,5.668571705627441,9.712527947235106,0.7426514274597168
1789225102989771000,4.46977099609375,5.173271237182617,10.373177967834472,0.3446154014587402
1789225102999810000,4.47981005859375,3.6270658775329587,10.120888967895507,0.1414075355529785
1789225103009849000,4.48984912109375,4.825962358856201,8.859443968200683,-0.584185205078125
1789225103019887900,4.499887939453125,4.987870246124268,7.325508892059326,-0.34237083740234375
1789225103029927000,4.509927001953125,4.358644122314453,6.612485710144043,0.1562216583251953
1789225103039965000,4.51996484375,5.000140529632568,5.820154598236083,1.120336739349365
1789225103050004000,4.53000390625,4.313154290771484,5.826439377593994,1.1825859825134277
1789225103060043000,4.54004296875,3.8239889640808102,6.825719295501709,2.2123919715881346
1789225103070082000,4.55008203125,5.242553447723388,7.3575313392639154,2.5450363647460934
1789225103080120000,4.5601201171875,5.4810757881164545,7.815422406768798,1.8843863441467283
1789225103090158800,4.570158935546875,2.9020716873168944,8.276306226348876,2.124704335784912
1789225103100198100,4.5801982421875,0.9081506172180175,8.690203838348388,1.6059107635498047
1789225103110237200,4.5902373046875,3.370437387084961,9.520842176818848,1.7000328163146972
1789225103120275000,4.60027490234375,12.070367669677733,8.824279131317137,1.0054150596618652
1789225103130314000,4.61031396484375,9.439439320373534,7.959822694396972,0.5952583877563477
1789225103140353000,4.62035302734375,0.28909985046386716,7.594108390808105,0.5184942970275879
1789225103150392000,4.63039208984375,0.371550170135498,7.920767279815673,0.9898527488708495
1789225103160430000,4.64043017578125,8.106467546081543,8.79120922088623,0.6965630455017089
1789225103170469000,4.65046923828125,9.72285294189453,10.41328084564209,-0.19826982498168944
1789225103180508200,4.660508056640625,1.2599486236572266,12.00916588973999,-0.7480383811950683
1789225103190547000,4.670546875,-3.0844799263000486,12.169727038574218,-0.647332273864746
1789225103200586000,4.6805859375,-1.068113215637207,13.782521131896972,-0.08439560852050781
1789225103210624000,4.6906240234375,-0.28580782318115233,14.184597373199463,2.516754857635498
1789225103220663000,4.7006630859375,8.328529750061035,11.994052491760254,6.087257720947266
1789225103230701800,4.710701904296875,14.731073902130126,11.763460944366454,4.9540521476745605
1789225103240741400,4.720741455078125,4.319289432525634,12.667571346282958,3.0966005722045895
1789225103250779600,4.730779541015625,-0.7332242584228515,9.841216286468505,1.4944307487487791
1789225103260818400,4.740818359375,-1.441608674621582,8.71399621734619,-2.39405202255249
1789225103270857500,4.750857421875,-0.9279027809143066,8.454674250030518,-3.5519478004455562
1789225103280896800,4.760896728515625,5.260210684967041,6.955754373168945,-3.904793270111084
1789225103290934500,4.7709345703125,10.790517244720458,4.384082514953613,-1.5701473762512206
1789225103300973600,4.7809736328125,6.0707975845336914,4.013280532836914,-0.611568886566162
1789225103311012600,4.7910126953125,-0.6402993064880371,5.269787491607666,-1.2312182037353514
1789225103321051600,4.8010517578125,-1.6961422386169434,5.850231756591796,-1.416619194793701
1789225103331089400,4.81108935546875,2.87289235458374,6.025008477783203,-2.2010195137023922
1789225103341128700,4.821128662109375,3.8156092582702636,7.753322801208496,-1.9240403091430662
1789225103351167700,4.831167724609375,3.6056677001953124,9.759663792419433,-1.0718541557312011
1789225103361206500,4.84120654296875,3.407248237609863,9.982623822021484,-0.5229834251403809
1789225103371245600,4.85124560546875,2.327014376068115,10.317961692047119,0.10504559783935546
1789225103381283600,4.86128369140625,3.895066825866699,11.360935790252684,0.7263409286499023
1789225103391322600,4.871322509765625,8.86168853225708,11.271452503204346,0.2641103706359863
1789225103401361400,4.881361328125,7.480982362365722,11.576114664459228,-0.6976105087280273
1789225103411400400,4.891400390625,2.1537340309143067,11.4140571395874,-0.6934206558227539
1789225103421438500,4.9014384765625,-0.340275910949707,11.024550457000732,-1.1635820068359375
1789225103431477500,4.9114775390625,0.7350199096679687,10.13869584274292,-0.965910732269287
1789225103441516500,4.9215166015625,4.324826023864746,8.705915786743164,0.4080617454528808
1789225103451555600,4.9315556640625,5.523423229980469,7.704690579986572,1.0205284576416016
1789225103461593600,4.941593505859375,2.7932851493835447,7.1875430213928215,0.9792284790039062
1789225103471632400,4.95163232421875,0.37454292221069335,7.334187873077392,-0.0017956512451171875
1789225103481671700,4.961671630859375,2.0014029502868653,8.013392956542969,-0.4370914405822754
1789225103491710700,4.971710693359375,5.905148757171631,8.875006278991698,-0.36930560607910157
1789225103501748500,4.98174853515625,6.009296529388427,9.591620763397216,0.09576806640624999
1789225103511787800,4.991787841796875,2.1300912895202635,9.926958633422851,1.175852290344238
1789225103521826600,5.00182666015625,-0.6420949577331543,9.9721491897583,1.7788918334960937
1789225103531865600,5.011865478515625,1.313967798614502,9.649680153656005,3.1664813331604003
1789225103541903600,5.021903564453125,5.737554640960693,9.004891719055175,4.204966303253173
1789225103551942700,5.031942626953125,6.796390325164794,9.809193839263916,4.528931715393066
1789225103561981700,5.041981689453125,6.400299588012695,10.050110381317138,3.616740882873535
1789225103572020500,5.0520205078125,4.693533079528808,10.276960988616942,1.9566613067626952
1789225103582058800,5.062058837890625,2.039410901641846,10.562020623779297,0.967856021118164
1789225103592097500,5.07209765625,-0.4912602531433105,11.039963130187987,0.7909843734741211
1789225103602136600,5.082136474609375,1.0594342346191405,10.922647248840331,2.7896938468933103
1789225103612175400,5.09217529296875,4.809801497650146,9.42926396331787,4.331110803222656
1789225103622214700,5.102214599609375,3.1352070739746094,8.86722512359619,4.817133740234374
1789225103632252400,5.11225244140625,-0.031124621582031248,8.460809391784668,5.826738652801513
1789225103642291500,5.12229150390625,2.1933879959106446,7.045237660217285,7.180809329223632
1789225103652330800,5.132330810546875,6.080374391174316,6.636876639556885,5.538835903167724
1789225103662369500,5.14236962890625,4.001758437347412,7.961917620849609,2.6330232757568357
1789225103672407600,5.152407470703125,2.3300071281433103,8.750507792663575,2.233191598510742
1789225103682446600,5.162446533203125,4.707000463867187,9.134028971099854,1.4555249717712402
1789225103692485600,5.172485595703125,5.802497360992431,9.262866947937011,1.3114239593505859
1789225103702524700,5.182524658203125,2.468721186828613,9.482086037445068,2.9786861404418943
1789225103712562700,5.192562744140625,0.3630208267211914,9.350704221343994,4.074482312774658
1789225103722601700,5.202601806640625,1.0685621284484863,9.261819484710692,4.9269677413940425
1789225103732640500,5.212640625,3.137900550842285,9.817274269866942,4.913949269866943
1789225103742679600,5.222679443359375,6.887818901062011,10.256909549713134,4.510526290130615
1789225103752717600,5.232717529296875,8.89371097946167,10.007613301849364,2.147748526763916
1789225103762756600,5.242756591796875,4.325574211883545,9.458443296051025,0.3854664672851562
1789225103772795600,5.252795654296875,-1.2105682144165038,8.748712141418457,-0.7757213378906249
1789225103782834400,5.26283447265625,-2.1218612213134764,8.928726178741455,-1.5696984634399413
1789225103792872700,5.272872802734375,1.3908815269470214,9.594164602661133,-1.7494132255554198
1789225103802911500,5.282911376953125,6.769305918884277,8.419958325958252,-0.2255038688659668
1789225103812950500,5.292950439453125,4.178779722595214,8.17126062850952,0.09202712631225586
1789225103822989600,5.302989501953125,-1.5420155067443846,7.143399928283691,-0.10893617553710937
1789225103833027600,5.313027587890625,-2.180369524383545,7.112724219512939,-0.2979284690856933
1789225103843066400,5.32306640625,2.8164789779663084,8.155548680114746,-1.7803882095336914
1789225103853105700,5.333105712890625,13.730447245788573,8.112153775024414,-3.763685009765625
1789225103863144700,5.343144775390625,9.088539139556884,9.583989245605467,-4.311209001922607
1789225103873182500,5.353182373046875,1.086518640899658,9.541641803741454,-3.9974189468383785
1789225103883221500,5.363221435546875,-0.6928221054077148,9.273042304992675,-4.302679658508301
1789225103893260500,5.373260498046875,0.5048772750854492,10.2019925491333,-4.721216036224365
1789225103903299600,5.383299560546875,5.858012911987305,11.207257971191405,-3.481917401885986
1789225103913337300,5.39333740234375,8.186822939300537,9.368361458587646,-0.8092401611328125
1789225103923376600,5.403376708984375,3.520374266052246,9.125499627685546,-1.3108254089355469
1789225103933415700,5.413415771484375,-0.28371289672851563,8.379406535339355,-2.1541829437255857
1789225103943454500,5.423454345703125,0.7143699203491211,7.199514029693603,-2.3439234252929686
1789225103953492700,5.43349267578125,4.107402585601807,7.924807495117187,-2.064101106262207
1789225103963531500,5.443531494140625,9.71028338317871,8.829666085052489,-1.9027917694091796
1789225103973570600,5.453570556640625,8.831312098693846,10.04173067550659,-2.6240450195312497
1789225103983609600,5.463609619140625,3.810222304534912,10.268730920410155,-2.457348728942871
1789225103993648600,5.473648681640625,-0.11626841812133788,9.139715200042724,-2.9240684150695797
1789225104003686700,5.483686767578125,-2.198774949645996,8.943689939117432,-1.8423381774902343
1789225104013725400,5.493725341796875,-1.194407353210449,10.164583148193358,-0.43664252777099605
1789225104023764700,5.5037646484375,1.9752163696289062,10.314968939971923,0.40237551651000975
1789225104033803500,5.513803466796875,9.78031378173828,9.124452164459228,-0.5355529838562011
1789225104043841500,5.523841552734375,5.3761798278808595,10.435127935791016,-1.0164882423400878
1789225104053880600,5.533880615234375,0.06808510971069336,9.298929610443114,-0.5186439346313476
1789225104063919600,5.543919677734375,1.5855600494384765,8.74676685256958,-0.9769839149475097
1789225104073958700,5.553958740234375,6.517914744567871,8.13310303955078,-0.5342062454223633
1789225104083996400,5.563996337890625,7.652467056274413,8.019827373504638,-1.0133458526611328
1789225104094035700,5.57403564453125,2.5499744056701656,8.013692231750488,-1.0274117874145507
1789225104104074500,5.584074462890625,-2.6259903083801266,8.188169677734374,-1.9446902984619139
1789225104114113500,5.594113525390625,-1.9556138435363768,9.467720827484131,-1.7872715393066405
1789225104124151600,5.604151611328125,3.150470109558105,9.595960253906249,-0.9171288734436035
1789225104134190600,5.614190673828125,10.656142676544189,9.629479077148437,-1.5536872398376464
1789225104144229600,5.624229736328125,8.220491400146484,10.926388188934325,-1.6062100387573242
1789225104154268400,5.634268310546875,2.9899089607238767,9.363872330474853,-1.9720739799499512
1789225104164306700,5.644306640625,-0.12629413757324218,8.760383874511719,-3.1630396682739255
1789225104174345500,5.654345458984375,1.0568903953552244,9.55106897277832,-3.3892917251586914
1789225104184384500,5.664384521484375,8.276455863952636,9.470863217163085,-3.499275363922119
1789225104194423600,5.674423583984375,8.173205917358398,8.863933096313476,-4.242375704193115
1789225104204461600,5.684461669921875,-1.4335282440185546,8.629002058410643,-3.717596627807617
1789225104214500600,5.69450048828125,-2.881870610809326,9.784204359436034,-4.068796083831787
1789225104224539400,5.704539306640625,0.840813695526123,10.242993252563476,-3.685723818206787
1789225104234578200,5.714578125,11.088445713806152,8.07025524597168,-2.532017893218994
1789225104244616000,5.724615966796875,9.18759923324585,8.591293382263183,-2.964769843292236
1789225104254655200,5.7346552734375,3.137451638031006,8.965985942077635,-2.2260089935302734
1789225104264694300,5.7446943359375,3.8456864166259765,8.675838628387451,-2.8847137252807618
1789225104274733000,5.754733154296875,4.741866025543213,8.48445213317871,-4.14391416091919
1789225104284771300,5.764771240234375,5.313930584716797,8.213308795166014,-3.9368157173156737
1789225104294810000,5.77481005859375,-0.30960020217895506,8.352471766662598,-3.0735563812255857
1789225104304849200,5.78484912109375,-2.812738037872314,8.68212340774536,-2.3792378997802732
1789225104314888200,5.79488818359375,-0.5626373901367188,9.310002793121336,-1.5152303756713865
1789225104324926200,5.80492626953125,6.0808233039855955,8.39616594696045,0.5137058937072754
1789225104334965200,5.81496533203125,10.06881508178711,8.067262493896484,-0.1541267318725586
1789225104345004000,5.825004150390625,5.36959577331543,9.460538222503661,-0.0025438392639160153
1789225104355043000,5.83504296875,2.921075662994385,7.825448126220703,-0.136619132232666
1789225104365081000,5.8450810546875,1.8990508293151855,7.6665329910278315,-1.143979480743408
1789225104375120100,5.8551201171875,3.008763298797607,8.071452346801758,-0.3037643356323242
1789225104385159200,5.8651591796875,6.024858840179443,8.986635931396483,0.6120177993774414
1789225104395198200,5.8751982421875,7.905504244232177,9.006537732696533,2.890100679016113
1789225104405236200,5.885236328125,3.7620389961242675,9.753229375457764,3.2472856391906735
1789225104415275000,5.89527490234375,-1.1801917808532714,10.459069952392577,2.3205799591064453
1789225104425314300,5.905314208984375,0.07481880187988281,10.155155979156493,1.9536685546875
1789225104435353000,5.91535302734375,3.8609494522094723,9.948356810760497,1.1950059036254883
1789225104445391000,5.92539111328125,6.600664339447021,10.77630167236328,1.2363058822631836
1789225104455430100,5.93543017578125,9.96002854385376,10.66197854309082,0.33039982910156246
1789225104465469200,5.94546923828125,7.55235949935913,10.01105496673584,-0.4613327323913574
1789225104475508200,5.95550830078125,0.4273649963378906,9.467720827484131,-1.1918635139465332
1789225104485546200,5.965546142578125,-1.867477294921875,8.85510447769165,-1.6693571075439453
1789225104495585300,5.975585205078125,-0.9466074813842773,8.814851962280272,-1.4788684379577637
1789225104505624000,5.9856240234375,4.395454972839355,8.494028939819335,-0.13587094421386717
1789225104515663000,5.9956630859375,8.27406166229248,7.767837648773193,0.16385317611694336
1789225104525701000,6.005701171875,5.627271726989746,7.886799543762207,-0.00613514175415039
1789225104535740200,6.015740234375,0.534355883026123,6.938695686340331,-0.8827122245788573
1789225104545779200,6.025779296875,-1.56416187210083,7.2237553215026855,-2.250998473358154
1789225104555818000,6.03581787109375,0.6853402252197265,8.150311363983153,-3.4198177963256833
1789225104565856300,6.045856201171875,5.4878094802856445,8.857349041748046,-3.749469437408447
1789225104575895000,6.05589501953125,8.86213744506836,9.151386933135985,-2.953247747802734
1789225104585934000,6.06593408203125,6.086659170532227,8.589048818206786,-2.5809493896484375
1789225104595973400,6.075973388671875,-0.49380409240722656,9.096021019744873,-2.0979192047119137
1789225104606011100,6.08601123046875,1.2674305038452147,9.336039736175536,-1.535431452178955
1789225104616050200,6.09605029296875,7.944709296417236,9.482235675048827,-1.9502268898010253
1789225104626089200,6.106089111328125,8.75320126953125,10.64910970916748,-2.5020903724670407
1789225104636128300,6.116128173828125,4.702960248565674,11.718270388031005,-2.627935597229004
1789225104646166000,6.126166015625,2.6249428451538086,11.240926432037353,-3.379864556121826
1789225104656205000,6.136205078125,1.8408418014526367,10.965892516326903,-3.3698388366699215
1789225104666244000,6.146244140625,2.278531792449951,11.175085886383055,-2.940678189086914
1789225104676283100,6.156283203125,4.848557637023926,10.271873310089111,-1.5517419509887695
1789225104686321200,6.166321044921875,5.135113648223877,8.967781593322753,-0.623090982055664
1789225104696360200,6.176360107421875,0.4417302062988281,8.417414486694335,-0.5243301635742187
1789225104706399200,6.186399169921875,-2.0274398933410644,8.527398125457763,0.5660790550231933
1789225104716438000,6.19643798828125,2.8865093765258787,7.970895877075195,1.5918448287963867
1789225104726476300,6.206476318359375,6.925228302001953,7.483526201629639,0.28655601119995117
1789225104736515000,6.21651513671875,1.8418892646789549,8.021772662353515,0.626981559753418
1789225104746554000,6.22655419921875,-3.008763298797607,7.7633485206604,0.47629649276733393
1789225104756593200,6.23659326171875,-1.595436131286621,7.842207537841796,-0.03860650177001953
1789225104766631200,6.246631103515625,1.408987677001953,8.89326206665039,1.3376105400085447
1789225104776670200,6.256670166015625,12.16852993774414,8.680327756500244,1.4146739059448241
1789225104786709000,6.266708984375,11.601104144287108,10.989235982513428,0.5358522590637207
1789225104796747300,6.276747314453125,3.7343560394287105,10.681132156372069,0.4477157104492187
1789225104806786000,6.2867861328125,-2.0588637901306153,8.981099340057373,-0.38576574249267576
1789225104816825000,6.2968251953125,-1.9642928245544433,9.344569079589844,-0.8322843521118164
1789225104826864000,6.306864013671875,-1.2063783615112305,9.652074355316161,1.992574331665039
1789225104836903200,6.316903076171875,4.390068019104004,9.490465743255614,3.292925108337402
1789225104846941200,6.326941162109375,17.593641262054444,8.317456567382813,1.2559084083557128
1789225104856980000,6.33697998046875,8.42788911895752,10.209923342132567,0.02424129180908203
1789225104867019300,6.347019287109375,-2.2719477378845214,8.805275155639649,0.25827450408935543
1789225104877057000,6.35705712890625,-2.72609786529541,8.037185335540771,-1.8966566276550292
1789225104887096000,6.367095947265625,-0.5000888717651367,9.010129035186766,-2.576011348724365
1789225104897135400,6.37713525390625,6.279841316986084,7.193528525543212,0.5976525894165039
1789225104907174100,6.387174072265625,8.693046952819824,8.457966277313233,0.9497498710632324
1789225104917212200,6.397212158203125,3.86229619064331,9.222913707733154,1.5556325286865234
1789225104927251200,6.407251220703125,0.8500912269592285,8.365639875793457,1.3322235862731933
1789225104937290200,6.417290283203125,0.28490999755859375,8.64396581878662,1.0001777435302734
1789225104947329000,6.4273291015625,0.6938695686340332,8.920795385742187,0.8616133224487305
1789225104957367300,6.4373671875,6.438307539367675,10.347889212799071,1.3557166900634765
1789225104967406000,6.447406005859375,11.937040564727782,9.640851535034178,0.8693944778442382
1789225104977445000,6.457445068359375,4.876689506530761,9.977386505889893,0.24660277099609373
1789225104987484200,6.467484130859375,-1.9015946685791014,9.80575217437744,0.8925883064270019
1789225104997522200,6.477522216796875,-1.8222867385864256,9.50602805404663,0.26485855865478514
1789225105007561200,6.487561279296875,1.895459526824951,10.155904167175292,1.834257746887207
1789225105017600000,6.49760009765625,7.828141603088379,9.800814133453368,2.300378882598877
1789225105027639000,6.50763916015625,7.0738184425354,10.440365251922607,2.4133552734375
1789225105037677000,6.517677001953125,4.831050037384033,9.9215716796875,3.9299323875427246
1789225105047716000,6.527716064453125,4.722862049865722,9.758915604400634,2.7310359062194824
1789225105057755100,6.537755126953125,5.227739324951171,9.363124142456055,1.624166551208496
1789225105067794200,6.547794189453125,2.3554455207824705,8.45332751159668,1.0114005638122558
1789225105077832200,6.557832275390625,-1.6519991455078125,8.827870433807373,1.1342530364990233
1789225105087871000,6.56787109375,-1.0800842239379882,8.349179739379883,2.8618191719055175
1789225105097910300,6.57791015625,3.2338182548522947,8.467543083953856,3.6801872268676754
1789225105107949300,6.58794921875,7.560589567565917,9.06534531097412,4.749048630523681
1789225105117987000,6.597987060546875,8.137741805267334,9.268852452087401,4.0158243721008295
1789225105128026400,6.6080263671875,4.689193589019775,8.901941047668457,2.583044316101074
1789225105138065200,6.618065185546875,0.5306149429321289,8.80482624282837,1.726967584991455
1789225105148104200,6.628104248046875,1.3178583763122558,9.368361458587646,0.8189666053771972
1789225105158142200,6.63814208984375,6.321440570831299,8.642020529937744,0.8147767524719238
1789225105168181200,6.64818115234375,6.610690058898926,8.340201483154296,1.031751277923584
1789225105178220000,6.658219970703125,0.7215525253295898,8.41412245941162,2.3249194496154786
1789225105188259000,6.668259033203125,-0.7248445526123046,8.756343659210204,3.1866824096679687
1789225105198297300,6.67829736328125,4.762964927673339,8.081627703857421,3.020435031890869
1789225105208336100,6.688336181640625,7.061697796630859,8.555829270172119,3.03255567779541
1789225105218375200,6.698375244140625,4.554669383239746,8.88084214553833,2.4253262817382812
1789225105228413200,6.7084130859375,2.0328268470764157,9.031227937316894,1.8463783927917479
1789225105238452000,6.718451904296875,2.964171292877197,7.902361854553222,1.3709797256469727
1789225105248490800,6.72849072265625,2.335992632293701,6.935254021453857,1.657386099243164
1789225105258529800,6.73852978515625,0.22655133209228515,7.707234419250488,2.4274212081909177
1789225105268567800,6.74856787109375,5.949291850280761,7.653664157104492,3.7989994842529295
1789225105278606800,6.75860693359375,12.02757131500244,8.0567878616333,2.088791310882568
1789225105288646000,6.76864599609375,7.5737576766967765,9.265111511993407,1.4339771568298338
1789225105298685000,6.778684814453125,2.404975567626953,9.220070593261719,1.2759598472595215
1789225105308723000,6.788722900390625,2.342277411651611,9.266757525634764,0.1039981346130371
1789225105318761700,6.79876171875,5.034706816101074,9.938181453704834,1.9508254402160643
1789225105328801000,6.808801025390625,7.691971383666992,11.342380727386473,-0.016160861206054686
1789225105338840000,6.818840087890625,5.849932481384277,11.849652204132079,-1.8959084396362305
1789225105348877800,6.8288779296875,0.9811737678527831,10.931775142669677,-1.3747206657409667
1789225105358917000,6.838917236328125,-1.8650830932617186,8.884134172821044,-1.5572785423278808
1789225105368956000,6.848955810546875,-1.2897265068054198,7.943512195587158,0.7927800247192383
1789225105378995000,6.858994873046875,3.4497453170776367,7.557746453094482,1.7289128738403319
1789225105389033000,6.869032958984375,11.843816337585448,6.982988417053222,0.277727392578125
1789225105399072000,6.879072021484375,8.661772693634033,7.323264328002929,-1.8694225837707519
1789225105409110800,6.88911083984375,-0.49634793167114255,7.359027715301513,-3.0219314079284665
1789225105419148800,6.899148681640625,-1.2216413970947264,7.979425220489501,-4.3454760131835934
1789225105429188000,6.90918798828125,5.031714064025879,7.827543052673339,-5.983858136749268
1789225105439227000,6.919226806640625,6.938845323944092,8.235455160522461,-4.256441638946533
1789225105449266000,6.929265869140625,2.0145710594177246,9.083451461029052,-2.7756279121398926
1789225105459304000,6.939303955078125,-1.7726070541381835,10.817751288604736,-2.0694880599975587
1789225105469343000,6.949343017578125,5.003731832122803,11.461641897583007,-0.7909843734741211
1789225105479381800,6.9593818359375,12.613552171325683,10.790816519927978,-0.840215145111084
1789225105489420800,6.9694208984375,7.042843458557129,11.805958023834227,-1.5019126289367675
1789225105499458800,6.979458740234375,0.143652099609375,11.423783583831787,-2.0159177978515626
1789225105509497900,6.989497802734375,1.6371850227355955,10.829722296905517,-3.393182302856445
1789225105519537000,6.999536865234375,7.3751885765075675,11.148899305725097,-4.984727856445312
1789225105529576000,7.009575927734375,10.94928274230957,10.026318002319336,-4.2031706520080565
1789225105539614000,7.019614013671875,3.284096489715576,8.352172491455077,-3.1102175941467283
1789225105549652700,7.02965283203125,-4.056974713134766,7.818864071655273,-1.3552677772521973
1789225105559692000,7.039692138671875,-0.992097312927246,6.630591860198974,1.4558242469787597
1789225105569731000,7.04973095703125,7.120655012512207,5.9856537879943845,1.8183961608886718
1789225105579768800,7.059768798828125,7.981669784545898,6.578966886901855,1.2214917594909667
1789225105589807900,7.069807861328125,1.443404325866699,7.535600087738037,0.27997195663452146
1789225105599847000,7.079846923828125,-0.6739677673339843,7.2629603736877435,-0.09950900650024413
1789225105609886000,7.089885986328125,1.3750199409484862,8.13983673171997,-1.186177285003662
1789225105619923700,7.099923828125,6.2307601829528805,8.851962088012694,-0.23822306518554687
1789225105629963000,7.109962890625,6.7544917961120605,9.982623822021484,-0.2745850028991699
1789225105640002000,7.120001953125,3.5212720916748044,11.552920835876463,0.12315174789428711
1789225105650039800,7.130039794921875,2.552518244934082,11.659462809753418,0.26051906814575193
1789225105660079000,7.1400791015625,3.137302000427246,11.850699667358398,0.09442132797241211
1789225105670118000,7.150117919921875,3.6031238609313965,11.37694701385498,0.4607341819763183
1789225105680157000,7.160156982421875,3.6236242126464844,11.267113012695312,0.28206688308715816
1789225105690195000,7.17019482421875,5.906196220397949,10.127772297668457,0.2807201446533203
1789225105700234000,7.18023388671875,7.0263833221435545,9.012972149658202,-1.1583446907043455
1789225105710272800,7.190272705078125,2.7201123611450195,7.928847710418701,-2.023100402832031
1789225105720311800,7.200311767578125,-2.2411223915100096,8.027309253692627,-2.820968106079101
1789225105730350000,7.21035009765625,-0.1375169578552246,7.896376350402831,-2.8075007217407224
1789225105740388900,7.220388916015625,5.72648145828247,7.176469838714599,-1.4103344154357909
1789225105750428000,7.230427978515625,6.630891135406494,7.414243991088867,-1.5087959587097166
1789225105760466700,7.240466796875,1.4876970565795897,7.091326042175292,-0.7055413017272949
1789225105770505000,7.2505048828125,-1.3111246841430664,7.73117643585205,-1.0817302375793456
1789225105780543700,7.260543701171875,3.54326881942749,8.875455191802978,-2.0986673927307127
1789225105790582800,7.270582763671875,12.14324118270874,9.636362406921386,-2.916436897277832
1789225105800622000,7.2806220703125,7.958924868774414,9.893739085388184,-4.176834433746338
1789225105810659800,7.290659912109375,-2.3527520439147946,9.809642752075195,-3.219602682495117
1789225105820699000,7.300698974609375,-3.075202394866943,10.29791025314331,-3.5378818656921385
1789225105830738000,7.310738037109375,-1.5973814201354979,12.590956893157959,-3.152714673614502
1789225105840776000,7.32077587890625,3.0692168907165525,11.436951692962646,-0.8432078971862792
1789225105850814700,7.330814697265625,16.527024422454833,8.531438340759276,-0.22789807052612304
1789225105860854000,7.34085400390625,8.946981966400147,10.515782604217529,-1.0944494338989257
1789225105870893000,7.35089306640625,-2.5086744270324703,9.353397698211669,-0.8860042518615722
1789225105880930800,7.360930908203125,-1.7975965339660644,9.466224451446532,-1.7178396911621092
1789225105890970000,7.37097021484375,5.969492926788329,9.017910190582274,-2.5591022994995116
1789225105901009000,7.3810087890625,8.705017961120605,7.923760031890868,-1.656787548828125
1789225105911048000,7.3910478515625,-1.2656348526000976,9.0657942237854,-0.7766191635131835
1789225105921086000,7.4010859375,-2.7277438789367676,7.509712782287597,0.859368758392334
1789225105931125000,7.411125,-0.3425204750061035,7.829488341522216,2.499546533203125
1789225105941164000,7.4211640625,7.952789727020263,6.919542073059081,1.7387889556884764
1789225105951202800,7.431202880859375,10.301501555633545,6.986878994750976,-0.00014963760375976562
1789225105961241000,7.441240966796875,0.13691840744018555,8.02506468963623,0.06209960556030273
1789225105971280000,7.45127978515625,-3.3268928443908687,7.6571058219909665,-1.3446435073852538
1789225105981319000,7.46131884765625,-0.5105635040283203,9.23772783050537,-0.8662520881652832
1789225105991357000,7.47135693359375,8.304587733459472,8.879645044708251,0.7463923675537109
1789225106001396000,7.48139599609375,11.26890866394043,9.874884747314452,1.0115502014160156
1789225106011434800,7.491434814453125,2.31130242767334,11.512219407653808,1.6885107208251953
1789225106021473800,7.501473876953125,-0.6765116065979003,10.829273384094238,2.5617957763671875
1789225106031511800,7.51151171875,1.9675848518371581,11.101314547729492,1.0773907470703123
1789225106041550800,7.52155078125,5.238064319610595,11.403881782531737,1.18108960647583
1789225106051590000,7.53158984375,8.272565286254883,11.871648931884765,1.1586439659118652
1789225106061629000,7.54162890625,8.79779327545166,10.512041664123535,0.1279401512145996
1789225106071667000,7.5516669921875,1.4381670097351074,8.173056279754638,-0.21921908950805663
1789225106081705700,7.561705810546875,-3.9975685844421385,8.103325156402587,-1.1308113716125487
1789225106091745000,7.5717451171875,-2.475903791809082,8.726116863250732,-0.5090671279907226
1789225106101784000,7.5817841796875,-1.929427262878418,7.891587947082519,1.2837410026550293
1789225106111821800,7.59182177734375,5.351339985656738,6.495319466400146,0.7420528770446777
1789225106121860900,7.60186083984375,16.27353832168579,5.212326651763916,-1.0637737251281738
1789225106131900000,7.61189990234375,5.547065971374511,8.272864561462402,-1.1091139190673827
1789225106141938000,7.62193798828125,-0.7185597732543945,6.805368581390381,-0.1322796417236328
1789225106151976700,7.631976806640625,-2.8080992721557614,6.985382618713379,-1.978508396911621
1789225106162016000,7.64201611328125,0.6477811866760254,9.261819484710692,-1.3485340850830076
1789225106172055000,7.652054931640625,8.411877895355223,10.309581986236571,0.43843817901611326
1789225106182092800,7.6620927734375,10.282048667144775,11.488576666259766,-0.5313631309509277
1789225106192132000,7.672132080078125,3.7180455406188964,12.351087814331054,0.1836053398132324
1789225106202171000,7.6821708984375,0.7990648040771484,12.754211518859863,0.08080430603027343
1789225106212210000,7.6922099609375,5.250334603118896,12.537236993408202,-1.3744213905334473
1789225106222248000,7.702248046875,8.242637765502929,11.6699374420166,-1.501613353729248
1789225106232287000,7.712286865234375,5.341613541412353,11.529727007293701,-1.6594810256958006
1789225106242326500,7.722326416015625,1.2373533454895018,9.754276838684081,-1.1550526634216307
1789225106252364300,7.7323642578125,-1.488295606994629,9.485826977539062,-1.4680945304870605
1789225106262403600,7.742403564453125,3.2118215270996093,7.653215244293213,0.39653964996337887
1789225106272442400,7.7524423828125,6.685359223175048,5.931634613037109,0.2829647087097168
1789225106282481400,7.7624814453125,2.589478733062744,5.5924061653137205,0.5858312187194824
1789225106292519400,7.77251953125,-1.084722989654541,4.791246434783935,1.0965443603515623
1789225106302558500,7.782558349609375,1.5071499450683592,5.229684613800049,0.5463268913269043
1789225106312597500,7.792597412109375,6.404938353729247,6.1167363288879395,-0.6643909606933593
1789225106322636300,7.80263623046875,6.9618895149230955,7.127388704681396,-1.0857704528808594
1789225106332674600,7.812674560546875,0.8358756546020507,8.285583757781982,-1.0482114143371581
1789225106342713300,7.82271337890625,-1.9406500831604003,9.798270294189452,-0.4565443290710449
1789225106352752400,7.83275244140625,3.921851956939697,10.629507183074951,1.2352584190368652
1789225106362791400,7.84279150390625,11.227608685302734,10.794707097625732,0.9843161575317382
1789225106372829400,7.852829345703125,7.358878077697754,11.672032368469237,1.3031938911437988
1789225106382868200,7.8628681640625,2.1467010635375976,11.97654489212036,1.1842319961547851
1789225106392907300,7.8729072265625,4.058471089172363,11.764358769989013,0.3711012573242187
1789225106402945300,7.8829453125,8.230217844390868,11.809698963928222,-1.2689268798828124
1789225106412984300,7.892984375,8.488193073272704,10.779593699645995,-1.7272668601989745
1789225106423023400,7.9030234375,1.537975291442871,9.632771104431152,-1.5728408531188964
1789225106433062400,7.9130625,-3.4012627334594723,9.09048442840576,-1.6588824752807616
1789225106443100400,7.923100341796875,-0.9210194511413574,7.678354361724853,0.942267990875244
1789225106453139200,7.93313916015625,5.684882204437256,5.821052423858642,1.3491326354980469
1789225106463178500,7.943178466796875,5.646874253082275,5.6946086486816405,0.39863457641601563
1789225106473217500,7.953217529296875,-0.7619546783447265,6.379200685882568,0.4192845657348633
1789225106483255300,7.96325537109375,0.8019079185485839,6.176441732788086,-0.1575683967590332
1789225106493294600,7.973294677734375,6.195296070861816,7.397185304260254,-1.5783774444580077
1789225106503333400,7.98333349609375,9.272743029785156,8.310573237609862,-2.136675344085693
1789225106513371400,7.993371337890625,6.3238347724914545,9.091831166839599,-2.037315975189209
1789225106523410400,8.003410400390624,0.4707599014282226,10.092158547973632,-1.8212392753601072
1789225106533449500,8.013449462890625,-1.4299369415283203,11.370811872100829,-1.7081132469177245
1789225106543488500,8.023488525390626,5.193921226501464,12.802245189666747,-1.089810668182373
1789225106553526500,8.033526611328124,10.20887587890625,12.466907319641113,-1.2740145584106444
1789225106563565600,8.043565673828125,5.663184751892089,13.1516489944458,-1.0051157844543457
1789225106573604400,8.053604248046875,0.8934861320495605,11.96472352142334,-1.1218331153869627
1789225106583643400,8.063643310546874,0.902763663482666,10.967688167572021,-1.8351555725097655
1789225106593681400,8.073681396484375,4.53910707244873,10.06791725616455,-2.0169652610778805
1789225106603720400,8.083720458984375,6.931213806152344,8.616881412506103,-1.8474258560180663
1789225106613759200,8.09375927734375,4.200327537536621,6.873004778289794,-1.4477438163757324
1789225106623797500,8.103797607421875,-2.0579659645080564,5.585223560333252,-1.2927192588806151
1789225106633836500,8.11383642578125,-3.8283284545898435,5.987898352050781,-1.3307272102355956
1789225106643875300,8.123875244140624,1.2791022369384766,6.079326927947998,-0.7344213592529296
1789225106653914400,8.133914306640625,7.651868505859374,5.903353105926513,-1.222539222717285
1789225106663952400,8.143952392578125,4.455310014343262,7.145494854736327,-1.3859434860229491
1789225106673991400,8.153991455078126,-2.149544178009033,8.093748349761963,-0.8967781593322753
1789225106684030200,8.1640302734375,-1.0863690032958984,9.159916276550293,-1.2835913650512694
1789225106694069500,8.174069580078125,6.101473293304443,9.981725996398925,-1.0474632263183594
1789225106704107300,8.184107177734376,9.937582903289794,11.34492456665039,-0.8322843521118164
1789225106714146300,8.194146240234375,8.42085615158081,12.04687456588745,-0.3850175544738769
1789225106724185300,8.204185302734375,2.027140618133545,12.012757192230223,-0.6926724678039551
1789225106734223400,8.214223388671876,-1.8501193328857422,11.719617126464843,-0.639700756072998
1789225106744262400,8.224262451171874,-0.609025047302246,11.77842470474243,-0.09771335525512695
1789225106754301200,8.23430126953125,5.274575894927978,11.337442686462401,0.34222119979858395
1789225106764340500,8.244340576171876,9.015515988922118,10.134805265045165,0.12345102310180664
1789225106774378200,8.254378173828124,6.077381639099121,10.066271242523193,0.25318682556152344
1789225106784417300,8.264417236328125,3.323900092315674,9.01491743850708,0.24435820693969726
1789225106794456600,8.27445654296875,3.7954081817626952,7.908048083496094,-0.1197100830078125
1789225106804495400,8.284495361328124,3.8889316841125487,6.344335124206543,-0.3995324020385742
1789225106814533400,8.294533447265625,-1.6434698020935057,6.426037255859375,0.1414075355529785
1789225106824572400,8.304572509765626,-2.9242180526733397,6.746860278320312,0.5051765502929687
1789225106834611500,8.314611572265624,-1.460163737487793,7.860762600708007,2.2363339881896973
1789225106844649200,8.324649169921875,2.5362077461242674,7.08055213470459,4.306270960998535
1789225106854688500,8.3346884765625,11.034276901245116,6.336404331207275,1.9090765487670898
1789225106864727600,8.3447275390625,6.169109490203857,8.960449350738525,1.3813047203063964
1789225106874766300,8.354766357421875,1.5050550186157226,8.373121755981446,1.6000748970031737
1789225106884804600,8.3648046875,2.2795792556762695,9.095422469329833,-0.2871545616149902
1789225106894843400,8.374843505859374,5.088725991058349,9.93429087600708,-1.0917559570312498
1789225106904882400,8.38488232421875,5.615450356292724,11.135282283782958,-1.1442787559509278
1789225106914920400,8.39492041015625,3.384802597045898,12.524068884277343,-0.6254851837158203
1789225106924959500,8.40495947265625,4.625148694610595,13.255647129058836,0.6965630455017089
1789225106934998500,8.41499853515625,8.156596143341064,12.363507735443115,0.6690297264099121
1789225106945037300,8.425037353515625,4.189703267669677,11.39610062713623,-0.10369885940551757
1789225106955075600,8.43507568359375,-1.7178396911621092,10.902595809936523,0.7930792999267577
1789225106965114400,8.4451142578125,0.5989993278503417,9.81847137069702,0.49545010604858397
1789225106975153400,8.4551533203125,9.910199221801758,8.609848445129394,0.38097733917236326
1789225106985192200,8.465192138671876,10.95466969604492,6.701520084381103,-0.206200617980957
1789225106995230500,8.47523046875,-1.6858172439575194,5.9570730056762695,-0.21622633743286132
1789225107005269200,8.485269287109375,-4.352209705352783,6.178536659240723,-0.3719990829467773
1789225107015308300,8.495308349609376,-2.69407541809082,7.551162398529052,1.5442600708007812
1789225107025346300,8.50534619140625,0.07915829238891602,8.093598712158203,1.3141174362182617
1789225107035385300,8.51538525390625,11.944522444915771,7.143399928283691,0.44502223358154297
1789225107045424400,8.52542431640625,9.62169792175293,9.292644831085205,0.8155249404907227
1789225107055463400,8.53546337890625,-0.08499415893554688,10.487650734710693,1.848174044036865
1789225107065501400,8.54550146484375,3.679289401245117,9.440636421203612,2.2819734573364254
1789225107075540200,8.555540283203126,7.136666236114501,9.599701194000243,1.4059949249267578
1789225107085579500,8.56557958984375,1.6365864723205565,10.62322240371704,0.5238812507629395
1789225107095617300,8.5756171875,-1.7536030784606933,11.137676485443114,0.7291840431213379
1789225107105656300,8.58565625,-0.314089330291748,10.124629907989501,2.590077283477783
1789225107115695400,8.5956953125,3.114856359863281,9.847052153015136,3.187729872894287
1789225107125734400,8.605734375,13.654431343078613,9.27678324508667,2.350058567047119
1789225107135772400,8.6157724609375,13.198186289215087,9.502736026763916,0.9917980377197265
1789225107145811200,8.625811279296874,2.826953610229492,8.694094416046141,0.5998971534729004
1789225107155850500,8.6358505859375,-3.2775124351501463,7.5062711174011225,0.38367081604003905
1789225107165889500,8.6458896484375,-0.5252279891967773,8.453477149200438,-0.9542389991760253
1789225107175927300,8.65592724609375,6.699125882720947,8.843283106994628,0.44098201828002925
1789225107185966600,8.665966552734375,7.753921351623535,9.430610701751709,0.25348610076904293
1789225107196005400,8.67600537109375,1.1918635139465332,8.74033243560791,0.7983166160583496
1789225107206043400,8.68604345703125,-2.8335376647949215,7.157615500640869,1.9762638328552244
1789225107216082400,8.69608251953125,-1.323544605255127,6.828562409973144,3.10917013092041
1789225107226121500,8.70612158203125,5.253776268005371,6.6808700950622555,3.1898247993469235
1789225107236160000,8.716159912109376,15.29670404434204,6.8590884811401365,0.8728361427307129
1789225107246198300,8.7261982421875,8.264784130859374,9.254337604522705,0.04997895965576172
1789225107256237000,8.736237060546875,-1.35347212600708,10.013748443603514,-0.5563526107788086
1789225107266276000,8.746276123046876,-0.15158289260864258,10.39382795715332,-1.402553260040283
1789225107276314400,8.756314453125,5.679495250701904,11.031583424377441,0.6757634185791015
1789225107286353200,8.766353271484375,9.146149617004394,10.973224758911131,1.3628992950439451
1789225107296392200,8.77639208984375,5.438578708648682,11.033079800415038,2.1422119354248044
1789225107306431000,8.786430908203124,1.7317559883117675,10.34983450164795,3.2981624244689938
1789225107316469200,8.79646923828125,3.034650604248047,9.328557855987547,1.6537947967529296
1789225107326508000,8.806508056640626,5.005677120971679,8.491485100555419,1.1945569908142089
1789225107336547000,8.816547119140624,2.1000141311645506,9.048735536956787,-0.41808746490478516
1789225107346585000,8.826585205078125,2.238877827453613,9.270947378540038,-1.1749544647216796
1789225107356624100,8.8366240234375,5.20948353729248,7.96087015762329,-1.2457330513000489
1789225107366663200,8.8466630859375,3.27511823348999,7.961917620849609,-1.2816460762023925
1789225107376702000,8.856701904296875,1.4924854598999022,7.7218989044189446,0.8126818260192871
1789225107386740200,8.866740234375,5.059247383117675,6.878691007232666,1.0688614036560058
1789225107396779000,8.876779052734374,6.125714585113525,6.261585529327392,1.0570400329589844
1789225107406818000,8.886818115234375,1.8842367065429686,6.515071630096435,0.5705681831359863
1789225107416857300,8.896857421875,-2.5987562644958495,7.366509595489502,-0.3477577911376953
1789225107426895000,8.90689501953125,-1.4908394462585448,9.323619815063475,-1.2452841384887694
1789225107436934100,8.91693408203125,5.924003095245361,10.064325953674317,-1.6112977172851561
1789225107446973200,8.92697314453125,12.930334978485106,10.452485897827147,-2.1939865463256836
1789225107457011200,8.93701123046875,8.064269741821288,11.012729086303711,-1.9244892219543457
1789225107467050000,8.947050048828125,1.4408604866027832,10.888679512786865,-1.3845967475891112
1789225107477089300,8.95708935546875,2.466775897979736,10.726023437499999,-1.9731214431762694
1789225107487128300,8.96712841796875,6.783222216033935,11.00030916519165,-3.05814370803833
1789225107497166000,8.977166015625,7.205948446655273,10.050708931732178,-2.4344541755676268
1789225107507205000,8.987205078125,1.8644845428466796,10.267683457183837,-1.5601216567993164
1789225107517244200,8.997244140625,-0.8900444671630859,9.79303297805786,-2.1627122871398923
1789225107527282200,9.0072822265625,1.8957588020324705,8.747963953399658,-2.47066647567749
1789225107537321200,9.0173212890625,4.566041841125488,8.269273258972168,-2.1158757171630858
1789225107547360300,9.0273603515625,6.801777278900146,7.791929302978515,-1.7944541442871094
1789225107557399000,9.03739892578125,4.5699324188232415,7.101351761627197,-2.1836615516662596
1789225107567437000,9.04743701171875,-1.1288660827636718,6.917147871398925,-3.123834616088867
1789225107577476400,9.057476318359376,-0.7384615745544433,7.226598435974121,-2.1531354804992673
1789225107587515100,9.06751513671875,3.2321722412109373,7.153425647735595,-1.919850456237793
1789225107597553200,9.07755322265625,3.511994560241699,7.869890494537353,-1.8171990600585937
1789225107607592200,9.08759228515625,-0.405368268585205,9.373898049926757,-1.5227122558593749
1789225107617631200,9.09763134765625,2.4543559768676757,9.740959091949462,-1.043273373413086
1789225107627670000,9.107669921875,8.385541677093505,9.708936644744872,-1.7785925582885742
1789225107637708300,9.117708251953125,10.60376951522827,10.594641621398925,-1.92808052444458
1789225107647747000,9.1277470703125,6.56325493850708,11.67652149658203,-2.2577321655273437
1789225107657786000,9.1377861328125,4.3525089805603026,11.924022093200684,-3.081187899017334
1789225107667824000,9.14782421875,4.2500072219848635,10.69370171508789,-4.180575373840332
1789225107677863200,9.15786328125,-1.2273276260375976,10.485106895446776,-3.073406743621826
1789225107687902200,9.167902099609375,-2.222866603851318,11.511920132446289,-2.8693010520935056
1789225107697941000,9.17794091796875,3.416825044250488,9.440037870788574,-2.861370259094238
1789225107707979300,9.187979248046876,4.228459407043457,7.042394545745849,-0.7083844161987304
1789225107718018000,9.19801806640625,0.5074211143493652,7.220014381408691,-0.4400841926574707
1789225107728057000,9.20805712890625,1.7353472908020018,6.611587884521484,-1.2502221794128416
1789225107738096000,9.21809619140625,5.654505770874023,5.945550910186768,-2.7865514572143555
1789225107748134100,9.228134033203125,5.658396348571777,6.704213561248779,-3.5549405525207516
1789225107758173200,9.238173095703125,2.2125416091918946,7.377283502960204,-3.7620389961242675
1789225107768212000,9.2482119140625,-0.18570026626586913,8.13953745651245,-3.7599440696716306
1789225107778250200,9.258250244140624,3.9469910743713377,8.741679174041748,-2.15148946685791
1789225107788289000,9.2682890625,8.040627000427246,8.611045545959472,-0.9651625442504882
1789225107798328000,9.278328125,3.6893151206970214,10.54002389602661,-0.5900210716247558
1789225107808367400,9.288367431640625,2.2001216880798338,11.03143378677368,-0.37978023834228514
1789225107818405000,9.298405029296875,2.4115596221923825,10.937760646820069,-1.936909143066406
1789225107828444200,9.308444091796876,3.109918318939209,12.638691288757324,-2.27913034286499
1789225107838483200,9.318483154296874,8.582315126037598,12.880954569244384,-2.9577368759155274
1789225107848521200,9.328521240234375,9.453654892730713,11.40881982345581,-3.1106665069580077
1789225107858560000,9.33856005859375,1.812560294342041,10.324845021820067,-2.0245967788696286
1789225107868599300,9.348599365234374,-1.7485153999328613,8.856750491333008,-1.8564041122436523
1789225107878638300,9.358638427734375,1.2782044113159179,7.686135517120361,-0.5354033462524413
1789225107888676000,9.368676025390625,7.217769817352295,6.324582960510254,0.4032733421325683
1789225107898715100,9.378715087890624,4.811297873687744,5.814917282104492,0.9928455009460448
1789225107908754200,9.388754150390625,-2.08130943069458,5.869834282684326,0.7465420051574707
1789225107918792200,9.398792236328125,0.5793968017578125,5.7049336433410645,1.959205146026611
1789225107928831000,9.4088310546875,8.962245001983643,6.765265703582763,-0.20425532913208005
1789225107938870300,9.418870361328125,8.511985452270507,7.612813091278076,-1.079635311126709
1789225107948909000,9.428908935546875,-0.8758288948059082,8.229768931579589,-0.522833787536621
1789225107958947000,9.438947021484376,-3.025073797607422,9.738864165496826,-1.4775216995239258
1789225107968986000,9.448986083984375,-0.316034619140625,12.457629788208006,-0.17941548690795897
1789225107979025200,9.459025146484375,14.334234976959229,10.69400099029541,3.7557542167663573
1789225107989063200,9.469063232421876,13.397653215026855,12.198906371307372,3.0473698005676266
1789225107999102200,9.479102294921875,-0.2346317626953125,12.923302011108397,3.0074165603637693
1789225108009141200,9.489141357421875,-2.418891864776611,11.105803675842285,3.7695208763122556
1789225108019179000,9.499178955078126,1.3805565322875977,12.624326078796386,0.5612906517028808
1789225108029218300,9.50921826171875,10.51488477859497,9.537152675628661,1.2678794166564942
1789225108039257000,9.519257080078125,7.658751835632324,8.864681284332274,1.039981346130371
1789225108049296100,9.529296142578126,-2.3223756103515623,7.849539780426025,1.2741641960144041
1789225108059334100,9.539334228515624,-2.491765377807617,6.844872908782959,1.9856910018920897
1789225108069373200,9.549373291015625,5.674257934570313,7.004386594390868,2.059013427734375
1789225108079412200,9.559412109375,11.072135214996337,6.618471214294433,1.164479832458496
1789225108089451000,9.569450927734374,3.034650604248047,7.893084323120116,1.0990881996154784
1789225108099489300,9.5794892578125,-2.529922966766357,8.333018878173828,1.3816039955139159
1789225108109528000,9.589528076171876,2.2315455848693846,8.250269283294678,1.1016320388793945
1789225108119567000,9.599567138671874,8.499565531158447,8.172757004547119,1.0416273597717285
1789225108129605000,9.609605224609375,4.149151477050781,9.733177936553954,0.8485948509216308
1789225108139644200,9.61964404296875,-0.6410474945068358,10.638635076904297,1.4859014053344726
1789225108149683200,9.62968310546875,1.73010997467041,10.954071145629882,0.6444891593933105
1789225108159721200,9.63972119140625,7.114669508361816,11.892298921203613,0.9636661682128905
1789225108169760300,9.64976025390625,10.218003772735596,11.271751778411865,0.10324994659423828
1789225108179799000,9.659799072265624,5.097704247283935,10.475829364013672,-0.22879589614868162
1789225108189838000,9.669838134765625,0.9370306747436523,10.009857865905762,0.19527707290649413
1789225108199876000,9.6798759765625,4.358494484710693,7.510012057495117,-0.643591333770752
1789225108209915100,9.6899150390625,4.114585190582275,5.326649781036377,-0.46312838363647457
1789225108219954200,9.6999541015625,-3.418321420288086,6.92702395324707,-1.3640963958740233
1789225108229992200,9.7099921875,-2.1766285842895505,7.245752049255371,-0.19303250885009765
1789225108240031700,9.72003173828125,7.991096953582764,6.131999364471435,2.377591886138916
1789225108250070500,9.730070556640625,16.06973190536499,6.174646081542968,0.12898761444091797
1789225108260109600,9.740109619140625,5.557241328430176,8.754099095153808,-0.01780687484741211
1789225108270147600,9.750147705078126,-3.190124074554443,7.718008326721191,-0.261117618560791
1789225108280186600,9.7601865234375,-2.507327688598633,7.696610149383544,-1.9738696311950683
1789225108290225700,9.7702255859375,2.9685107833862303,8.218546111297607,0.04115034103393554
1789225108300263700,9.780263671875,5.778106431579589,9.571868599700927,1.025316860961914
1789225108310302700,9.790302734375,5.353135636901855,11.168352194213867,1.2095207511901855
1789225108320341500,9.800341552734375,5.641038386535644,11.216236227416992,1.1887211242675781
1789225108330380800,9.810380859375,5.281309587097168,10.79635311126709,-0.5270236404418945
1789225108340418600,9.82041845703125,2.2475568084716797,10.584166989135742,-0.47330374069213865
1789225108350457600,9.83045751953125,2.6372131286621094,11.12839895401001,-0.48332946014404293
1789225108360496600,9.84049658203125,10.14438207168579,10.408642079925537,-1.1561001266479491
1789225108370534700,9.85053466796875,8.970774345397949,10.5091985496521,-2.353350594329834
1789225108380573700,9.86057373046875,1.9632453613281249,10.054000959014893,-2.440140404510498
1789225108390612500,9.870612548828126,-2.0795137794494627,8.660276317596436,-2.1441572242736817
1789225108400651800,9.88065185546875,-2.4358009140014647,7.337330262756347,-1.6801310150146482
1789225108410689500,9.890689453125,-0.28640637359619137,7.534103711700439,0.44502223358154297
1789225108420728600,9.900728515625,8.277054414367676,7.504774741363525,1.163282731628418
1789225108430767600,9.910767578125,10.825083531188964,7.637054383087158,-0.8002619049072265
1789225108440805600,9.9208056640625,1.8737620742797851,8.168567151641845,-1.895459526824951
1789225108450844700,9.9308447265625,-1.8604443275451659,7.764395983886718,-2.5502736808776856
1789225108460883700,9.9408837890625,1.0969932731628418,7.849539780426025,-3.192817551422119
1789225108470922800,9.9509228515625,5.000439804840088,8.304288458251953,-1.0806827743530272
1789225108480960500,9.96096044921875,8.05723677444458,10.07495022354126,-0.1541267318725586
1789225108490999800,9.970999755859374,7.552209861755371,10.900351245880126,-1.8932149627685546
1789225108501038600,9.98103857421875,1.599177071380615,11.074978329467772,-2.30471837310791
1789225108511076600,9.99107666015625,-0.89378540725708,11.743559143066406,-2.5540146209716794
1789225108521115600,10.00111572265625,5.5927054405212395,12.603526451873778,-4.18147319946289
1789225108531154700,10.01115478515625,14.707730435943603,12.224045488739012,-2.7971757270812985
1789225108541192400,10.0211923828125,8.980500789642333,12.542025396728516,-2.309207501220703
1789225108551231700,10.031231689453126,1.3326724990844725,10.130316136932372,-2.8507459892272946
1789225108561270800,10.041270751953125,-3.565714459991455,8.278550790405273,-3.020435031890869
1789225108571309600,10.0513095703125,-2.7085902656555176,8.812757035827635,-3.4120366409301757
1789225108581347600,10.06134765625,-2.472013214111328,9.243862972259521,-2.1555296821594236
1789225108591386600,10.07138671875,2.4254759193420408,7.287650578308105,0.36750995483398435
1789225108601425700,10.08142578125,9.31524010925293,5.642983675384521,-1.1426327423095703
1789225108611463400,10.09146337890625,-0.38052842636108397,6.154893917846679,-1.3602058181762695
1789225108621502700,10.101502685546874,-4.002356987762451,4.100519255828857,-1.327285545349121
1789225108631541800,10.111541748046875,-2.2559365142822263,4.332008628845214,-0.7059902145385741
1789225108641580500,10.12158056640625,-2.6913819412231446,7.351246559906006,0.08155249404907226
1789225108651618800,10.131618896484374,3.0225299583435055,7.46317548751831,0.13392565536499024
1789225108661657600,10.14165771484375,16.966809339904785,7.606827587127685,-0.8016086433410644
1789225108671696600,10.151696533203125,4.78181926574707,11.285368800354004,0.08813654861450194
1789225108681734700,10.161734619140624,-3.661482526397705,12.433837409210204,0.7995137168884277
1789225108691773700,10.171773681640625,0.7627028663635254,13.32373223876953,1.1626841812133788
1789225108701812700,10.181812744140625,10.222492900848389,14.396933132934569,0.23567922592163085
1789225108711851500,10.1918515625,9.222015882110595,14.571410578918456,0.39489363632202146
1789225108721889800,10.201889892578125,2.2361843505859373,14.656704013061523,-0.06329670639038086
1789225108731928600,10.211928466796875,0.2232593048095703,12.554445317840575,-1.4182652084350584
1789225108741967600,10.221967529296874,1.2123638656616211,11.203217755889892,-2.31743756942749
1789225108752005600,10.232005615234375,5.016899941253662,8.836250139617919,0.4138976119995117
1789225108762044700,10.242044677734375,7.588122886657715,7.49489865951538,2.140715559387207
1789225108772083700,10.252083740234376,3.516932601165771,6.468683972930908,1.4522329444885254
1789225108782121700,10.262121826171875,-2.165405764007568,5.62502716293335,1.30873048248291
1789225108792160800,10.272160888671875,-2.6300305236816404,5.098751710510253,2.530072604370117
1789225108802199600,10.282199462890626,1.1397896278381348,4.636820427703857,3.7294179985046383
1789225108812238600,10.292238525390625,4.912153618621826,6.653636051177978,0.5998971534729004
1789225108822276600,10.302276611328125,3.499873914337158,7.830835079956055,0.26979659957885743
1789225108832315600,10.312315673828126,1.2190975578308105,8.491485100555419,0.9346364730834961
1789225108842354400,10.3223544921875,2.429067221832275,9.139565562438964,0.3280056274414062
1789225108852392700,10.332392822265625,4.123862722015381,10.003124173736571,1.412130066680908
1789225108862431700,10.342431640625,7.439532746124267,11.518803462219237,1.659181750488281
1789225108872470500,10.352470458984374,9.298929610443114,12.438775450134276,1.1679214973449705
1789225108882509800,10.362509765625,5.494543172454834,13.010391096496582,0.4704606262207031
1789225108892547600,10.372547607421875,0.44053310546874996,12.19456688079834,0.4326023124694824
1789225108902586600,10.382586669921874,-0.05027823486328125,12.51957975616455,-0.1967734489440918
1789225108912625700,10.392625732421875,4.116680117034912,11.633874779510498,-0.5743091232299804
1789225108922663700,10.40266357421875,8.12786572341919,10.082881016540528,1.222539222717285
1789225108932702500,10.412702392578124,8.997110563659668,8.6183777885437,1.3124714225769043
1789225108942741800,10.42274169921875,5.816862570953369,6.40329234008789,0.9419687156677246
1789225108952779500,10.432779541015625,1.9636942741394041,5.278466472625732,0.46148236999511716
1789225108962818600,10.442818603515626,3.0151977157592773,4.850802201080322,-0.3673603172302246
1789225108972857600,10.452857666015625,5.298068998718262,4.318092331695556,-0.5355529838562011
1789225108982896600,10.462896728515625,3.2695816421508788,4.9449242538452145,-0.9898527488708495
1789225108992934700,10.4729345703125,-1.1296142707824706,6.404040528106689,-0.771232209777832
1789225109002973400,10.482973388671875,0.17567454681396483,7.559991017150878,-0.10070610733032226
1789225109013012700,10.4930126953125,7.555202613830566,8.231115670013427,1.1909656883239745
1789225109023050500,10.503050537109376,9.325415466308593,9.868749605560302,0.6605003829956054
1789225109033089500,10.513089599609375,5.755960066223144,11.368118395233154,-0.08678981018066406
1789225109043128800,10.52312890625,3.708019821166992,9.64683703918457,-0.8906430175781249
1789225109053166600,10.53316650390625,-1.910872200012207,9.573514613342285,-1.2176011817932129
1789225109063205600,10.54320556640625,-0.604535919189453,12.135460027313231,-1.2140098793029785
1789225109073244700,10.55324462890625,14.4548428855896,10.995969674682616,-0.8087912483215332
1789225109083283700,10.56328369140625,15.359102925109863,9.596858079528808,-0.850989052581787
1789225109093321500,10.573321533203124,0.45325230178833004,8.691700214385985,-0.47539866714477536
1789225109103360800,10.58336083984375,-4.948964469146728,7.351695472717284,-0.6552630668640136
1789225109113399800,10.59339990234375,-1.5345336265563965,8.343643148040771,-0.8204629814147949
1789225109123437600,10.6034375,7.969549138641357,6.779182000732422,0.7115268058776855
1789225109133476600,10.6134765625,5.275174445343017,7.438485282897949,-0.3769371238708496
1789225109143515600,10.623515625,-4.208258330535888,8.962843552398681,-0.1924339584350586
1789225109153554700,10.6335546875,-2.6604069572448727,10.727220538330078,-0.1984194625854492
1789225109163592700,10.6435927734375,-1.750610326385498,12.88379768371582,0.7507318580627441
1789225109173631700,10.6536318359375,5.393088877105712,10.977414611816405,1.3281833709716797
1789225109183670800,10.6636708984375,20.280833350372312,11.716175461578368,-0.3458125022888183
1789225109193708500,10.67370849609375,8.999355127716063,14.19177997817993,-0.848445213317871
1789225109203747800,10.683747802734375,-0.788440534210205,12.407950103759765,-0.5089174903869629
1789225109213786600,10.69378662109375,-0.02289455337524414,10.039785386657714,-1.9015946685791014
1789225109223824600,10.70382470703125,-0.4477157104492187,9.491213931274414,-2.810942386627197
1789225109233863700,10.71386376953125,-0.5035305366516113,9.612121115112304,-1.7673697380065916
1789225109243902200,10.723902099609376,5.654356133270263,7.387907772827148,0.31379005508422847
1789225109253941000,10.73394091796875,8.81709652633667,5.945550910186768,-0.22939444656372068
1789225109263979300,10.743979248046875,2.840271356964111,5.1590556648254395,-0.9371803123474121
1789225109274018000,10.75401806640625,-0.48976387710571284,4.30926371307373,-0.8705915786743164
1789225109284057000,10.76405712890625,5.205892234802246,5.002235456085205,-1.4493898300170898
1789225109294095000,10.77409521484375,8.425046004486083,5.804741925048828,-1.7821838607788085
1789225109304134100,10.784134033203125,4.097676141357422,6.599018325805663,-2.4793454566955564
1789225109314173200,10.794173095703124,-3.0262708984374997,8.182633086395263,-2.8685528640747067
1789225109324211200,10.804211181640625,-2.028337718963623,10.620977839660643,-2.431012510681152
1789225109334250200,10.814250244140625,6.296600728607177,11.464335374450682,-2.6001030029296874
1789225109344289000,10.8242890625,8.77729292373657,11.891251457977294,-1.3967173934936523
1789225109354328000,10.834328125,3.8597523513793943,13.36203946533203,-0.5636848533630371
1789225109364366000,10.844365966796875,3.4329859054565426,12.054655721282959,-0.7050923889160156
1789225109374405000,10.854405029296874,4.686799387359619,10.525060135650634,-1.328632283782959
1789225109384444200,10.864444091796875,1.1207856521606445,10.044573789978028,-2.205658279418945
1789225109394482200,10.874482177734375,0.462230558013916,10.474033712768554,-1.6678607315063476
1789225109404521200,10.884521240234376,9.374346962738036,9.247454274749755,-0.7202057868957519
1789225109414560000,10.89456005859375,9.395146589660644,8.608052793884276,-1.6276082160949705
1789225109424598300,10.904598388671875,1.29601128616333,8.705017961120605,-0.3585316986083984
1789225109434637000,10.914636962890626,-0.9663596450805664,7.95473501586914,0.47165772705078124
1789225109444676000,10.924676025390625,1.3144167114257812,6.835146464538574,0.7275380294799805
1789225109454715100,10.934715087890625,0.6042366439819336,7.8721350585937495,1.6361375595092773
1789225109464753200,10.944753173828126,1.5949872184753418,9.373449137115477,2.3690625427246093
1789225109474792200,10.954792236328124,7.914632138061523,9.06549494857788,1.9298761756896972
1789225109484831000,10.9648310546875,6.944830828094482,9.16201120300293,0.6829460235595702
1789225109494869200,10.974869140625,0.004339490509033203,9.815179343414306,-0.03037643356323242
1789225109504908000,10.984907958984374,-1.21939683303833,10.306140321350098,-1.725022296142578
1789225109514947000,10.994947021484375,5.577592042541504,9.952546663665771,-1.9092261863708495
1789225109524985000,11.004985107421875,8.21016640548706,8.093897987365722,-1.1969511924743652
1789225109535024000,11.015024169921874,-0.4011784156799316,9.318532136535644,-0.10848726272583008
1789225109545063200,11.025063232421875,-0.9515455223083495,9.788394212341307,1.0443208366394043
1789225109555102200,11.035102294921876,9.654019644165038,8.236502623748779,0.4993406837463379
1789225109565140200,11.04514013671875,9.763255094909667,8.762029888153076,0.5237316131591797
1789225109575179000,11.055178955078125,2.6123732864379883,8.978106587982177,0.7637503295898437
1789225109585218300,11.06521826171875,0.07122749938964844,8.527996675872803,0.232387198638916
1789225109595256000,11.075256103515626,4.530577729034423,9.151686208343506,0.16759411621093748
1789225109605295000,11.085295166015625,6.791601921844482,9.02045402984619,-0.8436568099975585
1789225109615334100,11.095334228515625,0.5716156463623047,10.682927807617187,-1.4993687896728514
1789225109625372200,11.1053720703125,-2.316839019012451,9.92680899581909,0.21398177337646482
1789225109635411200,11.1154111328125,0.6926724678039551,9.387814347076416,0.4100070343017578
1789225109645450200,11.1254501953125,6.124068571472168,9.565134907531737,2.0383634384155274
1789225109655489300,11.1354892578125,9.55750338973999,9.575609539794922,1.420509772491455
1789225109665527000,11.145527099609374,6.022315000915527,9.719411277008057,0.06928221054077148
1789225109675566000,11.155566162109375,0.8102876243591308,7.475146495819091,-0.5767033248901366
1789225109685605000,11.165605224609376,-3.6215292861938475,8.77849002456665,-2.288108599090576
1789225109695643100,11.17564306640625,-0.5280711036682129,9.339182125854492,-0.5330091445922851
1789225109705682000,11.185681884765625,8.216151909637452,7.534103711700439,-0.19782091217041015
1789225109715721200,11.19572119140625,6.267122120666504,9.190591985321044,-0.5714660087585449
1789225109725759000,11.205759033203124,0.43245267486572264,9.048585899353027,0.7698854713439941
1789225109735798000,11.215798095703125,1.3295301094055174,9.069385526275635,0.6546645164489746
1789225109745837300,11.22583740234375,7.011120286560058,9.24446152267456,0.9913491249084472
1789225109755876000,11.2358759765625,10.666018758392333,9.709984107971191,0.9009680122375487
1789225109765914000,11.2459140625,5.3022588516235345,10.998513513946532,0.4522048385620117
1789225109775953200,11.255953125,1.2083236503601074,10.094702387237549,-0.22685060729980466
1789225109785992200,11.2659921875,-1.416619194793701,10.26663599395752,-1.0758943710327147
1789225109796030000,11.276030029296875,-0.9180266990661621,11.711835971069336,-1.031003089904785
1789225109806069200,11.2860693359375,8.853907376861573,10.612747771453856,0.5472247169494628
1789225109816108300,11.2961083984375,14.79272459487915,9.82535470046997,-1.2159551681518554
1789225109826146000,11.30614599609375,3.228730576324463,9.546729482269287,-1.4181155708312987
1789225109836185300,11.316185302734375,-3.959560633087158,6.142473996734619,-0.6528688652038573
1789225109846224100,11.32622412109375,-2.6864439002990723,6.765564978790283,-1.9402011703491209
1789225109856262100,11.33626220703125,3.042132484436035,5.98849690246582,-0.3898059577941894
1789225109866301200,11.34630126953125,9.974992304229735,6.602759265899658,-1.107767180633545
1789225109876340200,11.35634033203125,8.538471308135986,8.45841519012451,-1.8854338073730468
1789225109886379300,11.366379150390625,3.4214638099670407,8.073996186065674,-1.7721581413269043
1789225109896417000,11.3764169921875,1.075744733428955,8.523956460571288,-2.8853122756958007
1789225109906456300,11.386456298828126,1.6359879219055176,8.103325156402587,-2.9569886878967284
1789225109916495000,11.3964951171875,1.97910694732666,9.367762908172606,-1.4878466941833495
1789225109926533000,11.406533203125,5.513846423339843,9.871293444824218,-0.9419687156677246
1789225109936572200,11.416572265625,5.5844753723144525,9.757868141174315,-1.6575357368469237
1789225109946611200,11.426611083984374,2.333448793029785,10.25885483856201,-0.7095815170288086
1789225109956649000,11.43664892578125,4.285620971679688,10.344597185516356,-0.7600093894958496
1789225109966688300,11.446688232421875,10.321552994537353,9.14854381866455,-0.978031378173828
1789225109976727300,11.456727294921874,6.859537393951416,8.798840738677978,-1.6115969924926756
1789225109986766000,11.46676611328125,-2.7837083427429197,8.391527181243896,-1.670853483581543
1789225109996804400,11.476804443359375,-3.332130160522461,8.700828108215331,-1.1086650062561034
1789225110006843100,11.486843017578124,4.179827185821533,8.193556631469725,0.8460510116577148
1789225110016882200,11.496882080078125,10.090362896728514,7.902511492156982,0.26755203552246093
1789225110026920200,11.506920166015625,3.262847949981689,9.763255094909667,0.33907881011962887
1789225110036959200,11.516959228515624,1.316362000274658,8.488043435668946,1.030404539489746
1789225110046998300,11.526998291015625,3.5244144813537597,8.394819208526611,-0.13377601776123046
1789225110057036300,11.537036376953125,3.7401919059753417,9.005789544677734,-0.47719431838989257
1789225110067075300,11.547075439453126,4.123713084411621,10.934019706726074,-1.1387421646118163
1789225110077114000,11.557114013671875,7.598896794128417,10.99462293624878,-2.0528782859802246
1789225110087153200,11.567153076171875,5.692364084625244,10.740388647460938,-2.5008932716369627
1789225110097191200,11.577191162109376,0.6883329772949218,10.893767191314696,-2.4001871643066406
1789225110107230200,11.587230224609375,0.8090905235290526,10.351330877685546,-1.6397288619995116
1789225110117269000,11.59726904296875,7.372345462036132,8.659378491973877,-0.543932689666748
1789225110127307300,11.607307373046876,6.081721129608154,6.6346320755004875,-0.9641150810241699
1789225110137346000,11.617345947265624,-3.2812533752441406,7.256376319122314,-0.6039373687744141
1789225110147385000,11.627385009765625,-3.19236863861084,7.191283961486816,-0.7947253135681152
1789225110157423400,11.63742333984375,5.923554182434081,6.417058999633789,-0.718260498046875
1789225110167462100,11.647462158203124,9.096769207763671,5.712116248321533,-1.4559738845825194
1789225110177501200,11.657501220703125,0.5072714767456055,7.9670052993774405,-0.8541314422607421
1789225110187539200,11.667539306640625,0.9163806854248047,8.66940421142578,-1.4911387214660643
1789225110197578200,11.677578125,6.279242766571045,7.66114603729248,-3.3150714736938474
1789225110207617000,11.687616943359375,5.159803852844238,10.207379502868651,-2.5258827514648434
1789225110217656000,11.697656005859375,3.6483144172668456,11.628487825775146,-1.7887679153442382
1789225110227694000,11.707694091796874,5.812971993255615,11.879130812072754,-1.408987677001953
1789225110237733400,11.7177333984375,6.130951901245117,12.694506114959717,-0.679953271484375
1789225110247772200,11.727772216796875,4.3357495689392085,13.078625843811034,-0.8729857803344726
1789225110257810400,11.737810546875,3.164835319519043,12.734459355163574,-0.8194155181884765
1789225110267849200,11.74784912109375,1.8564041122436523,11.679364611053465,-0.9285013313293456
1789225110277888300,11.75788818359375,1.2508207298278808,10.04247886352539,-1.252017830657959
1789225110287926300,11.76792626953125,0.7870937957763672,9.220070593261719,-1.0200795448303221
1789225110297965300,11.77796533203125,3.559280043029785,7.211185762786865,-0.5710170959472656
1789225110308004400,11.78800439453125,5.7429415946960445,6.076783088684081,-0.194079972076416
1789225110318042400,11.79804248046875,4.061912754058838,5.890334634399414,-0.06120177993774414
1789225110328081400,11.808081298828125,2.3657705154418944,4.96033692703247,-0.25902269210815426
1789225110338120200,11.8181201171875,0.3107973030090332,3.8386534492492674,-0.08289923248291015
1789225110348159200,11.8281591796875,-3.604769874572754,5.9187657791137696,-0.3708019821166992
1789225110358197200,11.838197265625,0.8649053497314453,8.53577783126831,0.7059902145385741
1789225110368236300,11.848236328125,13.741370790863037,8.98274535369873,-0.015263035583496093
1789225110378275300,11.858275390625,9.032275400543213,10.255562811279296,-1.1517606361389159
1789225110388313300,11.868313232421874,-3.916315365600586,10.945541802215576,-0.14784195251464843
1789225110398352400,11.878352294921875,-2.6671406494140624,11.9511064994812,-0.3452139518737793
1789225110408391200,11.88839111328125,0.37978023834228514,12.43593233566284,1.760785683441162
1789225110418429400,11.898429443359374,14.309095859527588,9.479542198181152,3.4406174232482907
1789225110428468200,11.90846826171875,11.722310603332518,12.141744806671142,1.6876128952026366
1789225110438507300,11.91850732421875,4.867561612701416,12.272228797149657,2.512714642333984
1789225110448545300,11.928545166015626,4.722413137054443,9.405621221923827,0.8779238212585448
1789225110458584300,11.938584228515625,0.34267011260986324,8.991274697113036,-0.9237129280090332
1789225110468623400,11.948623291015625,-3.6361937713623043,8.098536753082275,-1.4800655387878416
1789225110478662100,11.958662109375,-1.645864003753662,6.688501612854004,-0.21263503494262695
1789225110488700400,11.968700439453125,-1.4055460121154784,5.597942756652832,1.2981062126159668
1789225110498739200,11.9787392578125,1.8685247581481932,4.453664000701904,4.3454760131835934
1789225110508778200,11.9887783203125,15.815198341369628,4.123713084411621,6.499060406494141
1789225110518816300,11.998816162109375,15.344887352752684,9.012523236846924,2.4639327835083007
1789225110528855300,12.008855224609375,2.195482922363281,12.269684957885742,1.4577695358276366
1789225110538894300,12.018894287109376,-0.34386721343994137,10.71285532836914,0.19422960968017577
1789225110548932400,12.028932373046874,6.0233624641418455,10.526257236480712,-0.6055833824157715
1789225110558971400,12.038971435546875,6.477213316345215,13.120524372863768,1.0058639724731444
1789225110569010200,12.04901025390625,5.473144995117187,14.962712912750243,0.66394204788208
1789225110579048400,12.05904833984375,3.357418915557861,14.088829306793212,0.46686932373046874
1789225110589087200,12.069087158203125,0.7261912910461426,12.7302695022583,-0.2702455123901367
1789225110599126300,12.079126220703126,2.0424036537170407,11.967566635894775,-1.7049708572387694
1789225110609165300,12.089165283203124,4.421791191101074,8.546701376342773,-0.5163993705749511
1789225110619203300,12.099203369140625,0.39145197143554683,5.580135881805419,0.8610147720336914
1789225110629242400,12.109242431640626,-3.2773627975463864,4.693084166717529,0.32187048568725585
1789225110639281200,12.11928125,1.79400523147583,3.5576340293884274,0.9929951385498046
1789225110649319400,12.1293193359375,9.248950650787354,3.866186768341064,-1.3666402351379394
1789225110659358200,12.139358154296875,8.257302250671387,6.5628060256958,-2.2671593345642087
1789225110669397200,12.149397216796874,3.7146038757324216,8.70217484664917,-2.709338453674316
1789225110679435300,12.159435302734375,0.12240355987548827,9.023895694732666,-3.872471547698974
1789225110689474300,12.169474365234375,2.146401788330078,8.698433906555175,-4.390516931915283
1789225110699513000,12.17951318359375,2.2758383155822752,9.906607919311522,-3.9131729759216305
1789225110709551400,12.18955126953125,0.23912089080810545,11.626692174530028,-2.180968074798584
1789225110719590400,12.19959033203125,4.272153587341308,12.656498163604736,-0.7612064903259277
1789225110729629200,12.209629150390626,9.929053559875488,11.993154666137695,-0.9720458740234375
1789225110739667500,12.21966748046875,6.909815628814697,12.783989402008055,-2.179621336364746
1789225110749706200,12.229706298828125,6.592434271240234,12.161347332763672,-2.75183553314209
1789225110759745300,12.239745361328126,7.528118207550048,10.105177019500731,-4.760421088409424
1789225110769784300,12.249784423828125,4.138527207183838,8.080729878234862,-5.32485412979126
1789225110779822300,12.259822265625,-1.4604630126953124,7.472303381347656,-5.314828410339355
1789225110789861000,12.269861083984376,-1.274313833618164,7.044339834594727,-5.504419254302978
1789225110799900400,12.279900390625,1.7845780624389647,5.733664063262939,-3.19236863861084
1789225110809938400,12.2899384765625,3.649960430908203,5.579387693786621,-0.6003460662841796
1789225110819977200,12.299977294921876,3.7406408187866207,5.830329955291748,1.1414356414794922
1789225110830016300,12.310016357421874,3.993827644348144,6.009595804595947,0.6766612442016601
1789225110840054300,12.32005419921875,3.4262522132873534,6.227468155670166,-0.7722796730041503
1789225110850093300,12.33009326171875,2.5948656867980957,7.100005023193359,-1.744175909423828
1789225110860132000,12.340132080078124,3.601328209686279,8.213458432769775,-2.792387323760986
1789225110870170400,12.35017041015625,7.688230443572998,9.120860861968994,-2.603544667816162
1789225110880209200,12.360209228515625,7.672219219970703,10.262595778656005,-0.8774749084472656
1789225110890248200,12.370248291015624,2.5597008499145506,11.634772605133056,-0.9569324760437011
1789225110900286200,12.3802861328125,0.7627028663635254,11.81748011932373,-0.1984194625854492
1789225110910325200,12.3903251953125,4.911405430603027,12.703783646392822,0.62563482131958
1789225110920364300,12.4003642578125,9.508122980499268,13.37550684967041,0.8843582382202148
1789225110930403300,12.4104033203125,8.812308123016356,13.188459844970703,0.2524386375427246
1789225110940441300,12.42044140625,3.131316496276855,10.0357451713562,-0.27084406280517576
1789225110950480100,12.430480224609376,-3.4606688621520996,8.315212003326415,-0.34760815353393554
1789225110960519400,12.44051953125,-2.4034791915893554,9.848997441864013,-0.6313210502624511
1789225110970557200,12.45055712890625,9.919626390838623,8.09464617538452,0.3719990829467773
1789225110980596200,12.46059619140625,8.715492593383788,7.608323963165283,-1.1142015975952149
1789225110990635500,12.470635498046875,-2.287958961486816,7.677007623291015,1.0342951171875
1789225111000673300,12.48067333984375,-2.8854619132995603,7.122001750946045,2.1628619247436522
1789225111010712300,12.49071240234375,9.816077169036864,7.031022087860107,3.699041564941406
1789225111020751400,12.50075146484375,11.788749699401855,5.895123037719726,1.6168343086242676
1789225111030789400,12.510789306640625,-4.020463137817383,7.871386870574951,1.0290578010559082
1789225111040828200,12.520828125,-4.308066612243652,9.2565821685791,1.9035399574279783
1789225111050867200,12.5308671875,-2.3383868339538574,12.275221549224852,2.0302830078125
1789225111060905200,12.5409052734375,3.6713586082458494,10.689062949371337,0.7817068420410156
1789225111070944300,12.5509443359375,18.41694735794067,8.595632872772216,-0.7580641006469726
1789225111080983300,12.5609833984375,7.744943095397948,11.326968054199218,0.04519055633544922
1789225111091022300,12.571022216796875,-3.6358944961547848,7.988702751922607,-0.25752631607055665
1789225111101060400,12.581060302734375,-3.821594762420654,7.42516753616333,-1.1219827529907227
1789225111111099100,12.59109912109375,-2.8859108261108397,11.049689574432373,-1.9499276145935058
1789225111121138400,12.601138427734375,9.351901322174072,10.504110871124267,-0.0143652099609375
1789225111131176200,12.61117626953125,22.87435229873657,8.112004137420653,-0.14948796615600585
1789225111141215200,12.62121533203125,1.6533458839416504,10.425251853942871,0.5240308883666992
1789225111151254500,12.631254638671875,-6.783371853637695,8.373570668792723,1.4157213691711426
1789225111161292300,12.641292236328125,-2.4064719436645507,8.028805629730224,2.0217536643981933
1789225111171331300,12.651331298828126,-0.025887305450439452,8.06965669555664,2.2514473861694335
1789225111181370400,12.661370361328125,7.081898873138427,6.919691710662842,1.5358803649902344
1789225111191408400,12.671408447265625,3.4587235733032227,9.639205521392821,0.7835024932861328
1789225111201447200,12.681447265625,2.5219921737670896,8.24188957748413,0.48826750106811523
1789225111211486500,12.691486572265624,6.183474700164795,8.039579537200927,-1.2011410453796385
1789225111221524200,12.701524169921875,6.562506750488281,8.19116242980957,-2.485480598449707
1789225111231563300,12.711563232421875,2.941875289916992,9.034669602203369,-3.362207318878174
1789225111241602000,12.72160205078125,2.9466636932373045,7.946654585266113,-4.3442789123535155
1789225111251641000,12.73164111328125,-0.22864625854492185,8.291718899536132,-2.672976515960693
1789225111261678800,12.741678955078125,-0.9564835632324218,10.364947899627685,-0.8690952026367187
1789225111271718100,12.75171826171875,7.831134355163574,10.704924535369873,-0.3371335212707519
1789225111281757000,12.7617568359375,10.896460668182373,10.557082582855225,-0.3275567146301269
1789225111291795000,12.771794921875,2.6644471725463865,11.476156745147705,0.3130418670654297
1789225111301834000,12.781833984375,2.3144448173522947,10.301950468444824,0.7296329559326171
1789225111311873000,12.791873046875,6.801478003692626,9.790339501190186,-0.6166565650939941
1789225111321910800,12.801910888671875,3.5850177108764645,9.847800341033935,-0.7709329345703124
1789225111331949800,12.81194970703125,-0.8993219985961913,10.824036067962647,-1.2063783615112305
1789225111341989000,12.821989013671875,1.016338604736328,10.430938082885742,-1.2508207298278808
1789225111352027000,12.83202685546875,3.4873043556213377,10.031256043243408,-0.8364742050170898
1789225111362066000,12.84206591796875,3.5775358306884764,9.588029460906982,0.08020575561523437
1789225111372105000,12.85210498046875,2.942473840332031,8.419509413146972,0.3585316986083984
1789225111382143000,12.86214306640625,1.4212579605102538,6.835445739746094,0.184503165435791
1789225111392181800,12.872181640625,-0.7992144416809082,5.583427909088134,0.20679916839599607
1789225111402221000,12.882220947265624,0.22520459365844725,6.495020191192626,1.0607809730529785
1789225111412258800,12.8922587890625,8.206724740600585,7.560140654754639,0.15068506698608397
1789225111422297900,12.9022978515625,9.654767832183838,8.147617887115478,-1.1640309196472167
1789225111432337200,12.912337158203124,1.1375450637817381,8.516025667572022,-0.6829460235595702
1789225111442376000,12.9223759765625,-3.712209674072265,9.05262611465454,-1.0708066925048827
