time,seconds_elapsed,z,y,x
1789225098568935000,0.048934814453125,6.713614426800608,7.081957909849286,-0.9714082337070256
1789225098578974000,0.058973876953125,6.691800069877505,7.078355501443148,-1.134496562931314
1789225098589013000,0.069012939453125,6.653064388769865,7.0840937528342005,-1.3125310438096522
1789225098599052000,0.079052001953125,6.594824381247163,7.100310143619775,-1.5047507749721407
1789225098609091000,0.089091064453125,6.515986406853795,7.1271636637538665,-1.7075867388255894
1789225098619128800,0.09912890625,6.41782063165605,7.1647308856040235,-1.9101300033427773
1789225098629168000,0.109168212890625,6.308646555709839,7.2151254403233525,-2.0768547893732783
1789225098639207200,0.119207275390625,6.1990340883463615,7.277918873366713,-2.185008874621987
1789225098649246000,0.129245849609375,6.095730950260162,7.346420162662863,-2.2455649040021
1789225098659285000,0.139284912109375,6.006734569945931,7.411190448737144,-2.2723959200434387
1789225098669324000,0.149323974609375,5.938243802043795,7.462870367091893,-2.283246546012163
1789225098679362000,0.159362060546875,5.894316982033849,7.494915026128291,-2.292088024115562
1789225098689400800,0.16940087890625,5.8816977389574046,7.50278795146048,-2.2987394448287786
1789225098699440000,0.179440185546875,5.900326451581716,7.486255334332585,-2.304890660934895
1789225098709479200,0.189479248046875,5.926046583771705,7.456766789519786,-2.3343062866419553
1789225098719518000,0.19951806640625,5.932246022933721,7.427345464724302,-2.411096826986223
1789225098729556000,0.209555908203125,5.900397763252258,7.410524678304791,-2.5376786954596637
1789225098739595000,0.219594970703125,5.821414827430248,7.419205997410416,-2.690149184557795
1789225098749634000,0.229634033203125,5.6965685505777595,7.465750890964269,-2.8252558664008975
1789225098759673000,0.239673095703125,5.5360354587942355,7.548919003516435,-2.9217335423812267
1789225098769711900,0.2497119140625,5.353782118111848,7.6561010288625955,-2.981866231782734
1789225098779751200,0.259751220703125,5.169146850728988,7.767119855892658,-3.0202889014184473
1789225098789789000,0.269788818359375,5.00414684266448,7.865825729316472,-3.042643648828566
1789225098799828000,0.279827880859375,4.875377839410305,7.941283998143673,-3.055664750704169
1789225098809867000,0.289866943359375,4.7898994040891525,7.990876588830352,-3.0615611152663824
1789225098819906000,0.299906005859375,4.743567568764091,8.019957137364148,-3.0576524173900483
1789225098829945000,0.309945068359375,4.724489066545665,8.036201000678538,-3.0445126575708388
1789225098839983900,0.31998388671875,4.71939700410366,8.045351690861581,-3.028197482585907
1789225098850022100,0.330022216796875,4.716664948791265,8.052360108318924,-3.0137951554849742
1789225098860061000,0.34006103515625,4.7074482076346875,8.061902428168057,-3.0026719961851835
1789225098870100000,0.350099853515625,4.686380285164714,8.076903597944975,-2.995303805504739
1789225098880139000,0.360138916015625,4.652491459566354,8.097447788801789,-2.9926635201290246
1789225098890178000,0.370177978515625,4.604471525023877,8.12323864814043,-2.997034867081046
1789225098900217000,0.380217041015625,4.54426401682049,8.15362209596634,-3.0064117672353983
1789225098910254800,0.3902548828125,4.476186213633418,8.185365141707658,-3.02224295809567
1789225098920294100,0.400294189453125,4.403846953609586,8.215122566589713,-3.047669075775146
1789225098930333200,0.410333251953125,4.331085376520455,8.240890045052767,-3.0821748642280697
1789225098940372000,0.4203720703125,4.262381258128583,8.262285884302853,-3.120436790344119
1789225098950411000,0.430410888671875,4.1958968616127965,8.281348896691203,-3.159761961777508
1789225098960449000,0.440448974609375,4.127350564131141,8.299353339937328,-3.202515646354854
1789225098970488000,0.450488037109375,4.054234474515915,8.316501458615065,-3.2510584357276557
1789225098980526800,0.46052685546875,3.9705560743540524,8.337367136511206,-3.300512494726479
1789225098990566000,0.47056591796875,3.870367853417992,8.36757405872643,-3.3428061605766413
1789225099000605200,0.480605224609375,3.755216164366901,8.405628187310695,-3.3784833308964966
1789225099010644000,0.49064404296875,3.627449323892593,8.448416358679532,-3.411196390713751
1789225099020682000,0.500681884765625,3.482415706796944,8.496859194809199,-3.4418840821832415
1789225099030721000,0.510720947265625,3.305966668479144,8.552556532111764,-3.477751222117245
1789225099040760000,0.520760009765625,3.097840343132615,8.613767664399743,-3.5180642355442044
1789225099050799000,0.530799072265625,2.8732109190136192,8.675456351071595,-3.5568954859808084
1789225099060838000,0.540837890625,2.646266203689575,8.732577583697438,-3.5930113399788737
1789225099070877200,0.550877197265625,2.4338696536779403,8.779073961934447,-3.6296751832485197
1789225099080915000,0.5609150390625,2.246864880684763,8.81344092643857,-3.6667762488916513
1789225099090954000,0.5709541015625,2.087514422814548,8.836422573575376,-3.7054452945038676
1789225099100993000,0.580992919921875,1.955765380836278,8.849887619826196,-3.744977094425261
1789225099111032000,0.591031982421875,1.8444751895189284,8.857818412825464,-3.7825036920040844
1789225099121071000,0.601071044921875,1.739246928589046,8.863995640155672,-3.817718797770142
1789225099131109000,0.611109130859375,1.615318204972893,8.871983716300129,-3.8534444834068413
1789225099141148200,0.621148193359375,1.4677891177996991,8.882960452866554,-3.8870284808397293
1789225099151187000,0.63118701171875,1.326945207478851,8.894494238793849,-3.9112095668941733
1789225099161226000,0.64122607421875,1.1972571896836162,8.903829637894034,-3.9317628178402777
1789225099171265000,0.65126513671875,1.0690882712144405,8.911219163623452,-3.951912164160609
1789225099181304000,0.661303955078125,0.9479932366542517,8.9178984952569,-3.967719974145293
1789225099191342000,0.671342041015625,0.8380982260223477,8.926299243855476,-3.973557594257593
1789225099201380900,0.681380859375,0.7375237091824411,8.93850756804347,-3.9660482415407894
1789225099211420200,0.691420166015625,0.6381492888472974,8.955259965401888,-3.9454394610151646
1789225099221459000,0.701458984375,0.5315597129689529,8.975918138027192,-3.9141728006139394
1789225099231498200,0.711498291015625,0.4287786990607157,8.998016572588682,-3.875850376482308
1789225099241536300,0.721536376953125,0.3314195275381207,9.019465018808841,-3.8353371643081307
1789225099251575300,0.7315751953125,0.24778372440896926,9.039283233478665,-3.794779528470337
1789225099261614000,0.741614013671875,0.16742833118997513,9.057094199979305,-3.7565158487886188
1789225099271653000,0.751653076171875,0.10617773454128764,9.073778208276629,-3.7182901630297303
1789225099281692200,0.761692138671875,0.07150012405226007,9.089047089079022,-3.681645024460554
1789225099291731200,0.771731201171875,0.05818224945347756,9.10412132409215,-3.6444466359227894
1789225099301769200,0.781769287109375,0.059131462769978674,9.118594086080789,-3.6080639476820826
1789225099311808000,0.79180810546875,0.06984405024119186,9.131639445614814,-3.5747251571819185
1789225099321847300,0.801847412109375,0.08400032559260726,9.143701054808497,-3.543453528344631
1789225099331886000,0.811885986328125,0.09448943390571511,9.156420251128077,-3.5101907256901264
1789225099341925000,0.821925048828125,0.09541445806245319,9.171285227304697,-3.4711408640667796
1789225099351963100,0.831963134765625,0.08376046155528165,9.189714617964626,-3.4223557903707027
1789225099362002200,0.842002197265625,0.062061931297881526,9.212661778309942,-3.3605683194994924
1789225099372041200,0.852041259765625,0.03197241578409448,9.238502906531094,-3.2892911357492207
1789225099382080000,0.862080078125,-0.008642656179226469,9.264172769838572,-3.2164328202873467
1789225099392119300,0.872119384765625,-0.054241763632814397,9.291120397996902,-3.1372806653782725
1789225099402158300,0.882158447265625,-0.09028758916854858,9.31822117089033,-3.054995473140478
1789225099412196000,0.892196044921875,-0.11114399691284634,9.3419474989146,-2.9809499937206505
1789225099422235100,0.902235107421875,-0.12430085399732924,9.362053298354148,-2.916660476900637
1789225099432274200,0.912274169921875,-0.13542861640700138,9.378448552837968,-2.862998152557015
1789225099442313200,0.922313232421875,-0.14354315020903013,9.391346028333901,-2.8199957539156078
1789225099452352000,0.93235205078125,-0.14555537594743073,9.400826973384618,-2.7881252824023366
1789225099462390300,0.942390380859375,-0.1402332402097527,9.40721988929212,-2.7667519472450017
1789225099472429000,0.952428955078125,-0.12381395639637484,9.412045702013373,-2.7510809153825044
1789225099482468000,0.962468017578125,-0.08618031824650242,9.416860993340611,-2.7359961589753627
1789225099492507100,0.972507080078125,-0.005185156686091795,9.422380633544922,-2.7182904064148663
1789225099502546200,0.982546142578125,0.14072477745320647,9.427615027067064,-2.6964170127809046
1789225099512585200,0.992585205078125,0.36574846158679575,9.434569083988666,-2.650568869319558
1789225099522623000,1.002623046875,0.6201718797385692,9.438593517199157,-2.5881916158616542
1789225099532662300,1.012662353515625,0.8104623964041471,9.439956037724018,-2.529971482083201
1789225099542701300,1.022701416015625,0.8995635522671044,9.444273900923132,-2.48331143771708
1789225099552740000,1.032739990234375,0.9202919405844062,9.450746896329521,-2.4508805558420717
1789225099562779100,1.042779052734375,0.9117227766163647,9.458404717606305,-2.424402591022104
1789225099572817200,1.052817138671875,0.8899114153679459,9.467811428377031,-2.39561430343315
1789225099582856200,1.062856201171875,0.8556138628382235,9.479215450444817,-2.3627925225444137
1789225099592895000,1.07289501953125,0.8193828580278902,9.491528404051065,-2.32591401361078
1789225099602934000,1.08293408203125,0.8004130038157105,9.5024478574723,-2.287623738183081
1789225099612973300,1.092973388671875,0.8178460038494318,9.510032613512873,-2.2496165174804625
1789225099623011000,1.103010986328125,0.8805046315319836,9.513303598007559,-2.211824985355139
1789225099633050000,1.113050048828125,0.9781219790667295,9.511668690282105,-2.1775756558813155
1789225099643089200,1.123089111328125,1.0890852765172718,9.506842877560853,-2.1457444934651253
1789225099653128200,1.133128173828125,1.1984607202544808,9.50006242364049,-2.117285291700065
1789225099663167200,1.143167236328125,1.2877378172062337,9.492285944420098,-2.099675254599005
1789225099673206000,1.1532060546875,1.3437911283396184,9.486181197804212,-2.0921203091748057
1789225099683244300,1.163244384765625,1.3749797550685703,9.480952649500965,-2.0955556904509662
1789225099693283000,1.173282958984375,1.3869430184543132,9.475920500552654,-2.1103828188352285
1789225099703322000,1.183322021484375,1.375579912918806,9.471420266523957,-2.137843511082232
1789225099713361200,1.193361083984375,1.345248633671552,9.466573995536566,-2.17822885909304
1789225099723400200,1.203400146484375,1.3071772616915405,9.459642150446772,-2.2308814218722284
1789225099733438200,1.213438232421875,1.2621164692156015,9.450010983270406,-2.2966795896895227
1789225099743477000,1.22347705078125,1.2130796127155423,9.439203173530101,-2.3664877238005397
1789225099753516300,1.233516357421875,1.1647107916701585,9.433926109910011,-2.4114060390658674
1789225099763555000,1.24355517578125,1.1168039621133357,9.43426337904036,-2.4326550171911716
1789225099773594000,1.253593994140625,1.0624460567209868,9.436710187670588,-2.44747045513764
1789225099783632100,1.263632080078125,0.9963030940540134,9.438555523276328,-2.4680843502297996
1789225099793671200,1.273671142578125,0.9279128639169036,9.439719306358695,-2.490192721663415
1789225099803710200,1.283710205078125,0.8634037860620767,9.439408340713381,-2.51445710208714
1789225099813749000,1.2937490234375,0.7944690007194877,9.437891506409645,-2.5427196122363207
1789225099823788300,1.303788330078125,0.7228819473024457,9.434995784968137,-2.5746213556706903
1789225099833827300,1.313827392578125,0.6559396509513259,9.431087087091804,-2.606664845663309
1789225099843865000,1.323864990234375,0.5944048761995508,9.427844159647822,-2.6330235680177805
1789225099853904100,1.333904052734375,0.5425839419389143,9.428864150345325,-2.6405507486522195
1789225099863943200,1.343943115234375,0.5088552753383293,9.436354213839769,-2.620433843296766
1789225099873982200,1.353982177734375,0.490094899158366,9.450617716991902,-2.5721608107760545
1789225099884021000,1.36402099609375,0.4815489699354395,9.471532494726777,-2.49571382317245
1789225099894059300,1.374059326171875,0.4869247446896508,9.498521039417385,-2.3898485795132816
1789225099904098000,1.38409814453125,0.5008291322058066,9.530967264991999,-2.253931750331074
1789225099914137000,1.39413720703125,0.5205226245174184,9.56761035773456,-2.08812159492746
1789225099924176100,1.404176025390625,0.5844620127255097,9.600273440930247,-1.9140331482611594
1789225099934215200,1.414215087890625,0.648999622555077,9.628343935638666,-1.7447538554422557
1789225099944253200,1.424253173828125,0.7303472416818142,9.650126143857836,-1.5849416252791881
1789225099954292000,1.4342919921875,0.8006487853329628,9.667830727374554,-1.436102332290262
1789225099964331300,1.444331298828125,0.8565020438496023,9.683508188977838,-1.2909171778947115
1789225099974370300,1.454370361328125,0.920024667950347,9.693847212162613,-1.1633045050688087
1789225099984409000,1.4644091796875,0.9688163175176828,9.701634797298908,-1.0535996101815253
1789225099994447000,1.474447021484375,1.0056519371576607,9.708032973903418,-0.9555899023283272
1789225100004486100,1.484486083984375,1.0442848885431886,9.711565239682793,-0.8748471172269433
1789225100014525200,1.494525146484375,1.0870157767668365,9.712239777943491,-0.8131292775258422
1789225100024564200,1.504564208984375,1.1292636307138948,9.710878426462411,-0.7707084050994366
1789225100034603000,1.51460302734375,1.171820915936306,9.708016022768616,-0.7427339181113988
1789225100044642300,1.524642333984375,1.2124073394771664,9.704650345727801,-0.7212653058860451
1789225100054680000,1.53468017578125,1.232202684728056,9.703720955923199,-0.6998932128377259
1789225100064719000,1.544718994140625,1.2086154729135334,9.708671271806955,-0.6718054747335612
1789225100074758100,1.554758056640625,1.1968114917427302,9.711724814158677,-0.6483948615949601
1789225100084797200,1.564797119140625,1.2250449219278992,9.708855980724096,-0.638559842409566
1789225100094836200,1.574836181640625,1.241222149746865,9.706565823960304,-0.6421307596988975
1789225100104874200,1.584874267578125,1.2686246820658444,9.701848732310532,-0.6596301029670983
1789225100114913300,1.594913330078125,1.296919340918958,9.695351186984777,-0.6989742713619023
1789225100124952000,1.6049521484375,1.3310672558449208,9.687488198524713,-0.7424337661210447
1789225100134991000,1.6149912109375,1.3648887152954936,9.679760819143056,-0.7808371465343982
1789225100145030100,1.625030029296875,1.4063424231901764,9.670384503510594,-0.8223341090489178
1789225100155068200,1.635068115234375,1.4371926117449998,9.662883918622136,-0.8564709180589765
1789225100165107200,1.645107177734375,1.4687180692128836,9.655933953353761,-0.8810316510807722
1789225100175146000,1.65514599609375,1.4982760260000825,9.649954294422269,-0.8966161006383597
1789225100185185300,1.665185302734375,1.5578243396423757,9.639400167182087,-0.9086009182687849
1789225100195224000,1.67522412109375,1.620929907374829,9.62636123738885,-0.9360339918565005
1789225100205262000,1.685261962890625,1.669213899680972,9.615313773673773,-0.9642964289404451
1789225100215301000,1.695301025390625,1.7541854083932935,9.598674189040064,-0.9791237034551799
1789225100225340200,1.705340087890625,1.82337920999825,9.583944821941852,-0.9968422424320131
1789225100235379500,1.71537939453125,1.9124013092756271,9.565696048545837,-1.005260015230626
1789225100245418500,1.72541845703125,1.9964443049661813,9.548818563503026,-1.0023330218680202
1789225100255456500,1.73545654296875,2.0549524619057773,9.538035888203979,-0.9866302796930074
1789225100265495600,1.74549560546875,2.1076447721734644,9.529428803378343,-0.9582255115289241
1789225100275534600,1.75553466796875,2.167247446351498,9.519913371536136,-0.919066052051261
1789225100285573400,1.765573486328125,2.2172009793050584,9.512909045732021,-0.8711919557202606
1789225100295612700,1.77561279296875,2.264341646794975,9.506953936719894,-0.8130085006903857
1789225100305650400,1.785650390625,2.3054442031644284,9.502648933002352,-0.7449619694244116
1789225100315689500,1.795689453125,2.350834227594733,9.497153842717408,-0.6693567664071917
1789225100325728500,1.805728515625,2.408009820756316,9.487539042153953,-0.5987202551806345
1789225100335767600,1.815767578125,2.467994041597843,9.475529455408454,-0.5419559097010642
1789225100345806600,1.825806640625,2.5293618257522583,9.461802543351054,-0.4970011714154854
1789225100355844600,1.8358447265625,2.5952929722994567,9.445859708809852,-0.4588700320722535
1789225100365883600,1.845883544921875,2.663305016773939,9.428621573761104,-0.4222672713400796
1789225100375922400,1.85592236328125,2.730665319341421,9.411053768366575,-0.3819878313891589
1789225100385961500,1.86596142578125,2.793587347200513,9.394362745806575,-0.3349511357303709
1789225100396000500,1.87600048828125,2.8501778339505193,9.379172775459288,-0.2792829879896715
1789225100406038500,1.88603857421875,2.8970743174210187,9.366492742106319,-0.21487263953527436
1789225100416077600,1.89607763671875,2.9370734425932166,9.355321359750628,-0.14811055858926847
1789225100426116400,1.906116455078125,2.9696921021252867,9.345814695736765,-0.08414805436707101
1789225100436155600,1.91615576171875,2.9922148995786904,9.338971113452315,-0.025756039187009444
1789225100446194400,1.9261943359375,3.005988573387265,9.33454219109416,0.027220999456325078
1789225100456232400,1.936232421875,3.0185075709596276,9.33021439102292,0.07799002492767758
1789225100466271700,1.946271728515625,3.032102381069958,9.325247124004363,0.1284354056519456
1789225100476310500,1.956310546875,3.049994011591375,9.318419908332825,0.18702546872133388
1789225100486349600,1.966349609375,3.0665386114180087,9.311721871998905,0.24200610912190748
1789225100496388400,1.976388427734375,3.0829847193062303,9.305088717594742,0.28444248964469876
1789225100506426600,1.986426513671875,3.096568131239712,9.299985841497778,0.303155336888507
1789225100516465400,1.99646533203125,3.118377227465808,9.292404592588543,0.31196218206994236
1789225100526504400,2.00650439453125,3.1507217462316155,9.281112214201688,0.32294275456126775
1789225100536543500,2.01654345703125,3.1855037212774158,9.268335734736919,0.3476978776440024
1789225100546582500,2.02658251953125,3.2114541550919413,9.257777515843511,0.38794337879270313
1789225100556620500,2.03662060546875,3.2353982175201175,9.247614433747529,0.4292014179848134
1789225100566659300,2.046659423828125,3.2628675314649938,9.235764421477914,0.47408159319683907
1789225100576698600,2.05669873046875,3.30566710101068,9.217426216232775,0.5310543207300826
1789225100586737700,2.066737548828125,3.353420201310515,9.19647402909696,0.591450044981949
1789225100596776400,2.0767763671875,3.404772202885151,9.173511671182514,0.6516010372251272
1789225100606814700,2.086814697265625,3.4549650975525377,9.150561588227749,0.7076938035860657
1789225100616853500,2.096853515625,3.51410059261024,9.122814334124326,0.7718358747594058
1789225100626892500,2.106892578125,3.5750346615225075,9.093581809899211,0.834439922710508
1789225100636931300,2.116931396484375,3.633151042665541,9.0654598772645,0.8877218694344162
1789225100646970600,2.126970703125,3.6965786819592115,9.033819707375764,0.9464706301968544
1789225100657008400,2.13700830078125,3.7705961043283343,8.996232027259468,1.0103411909524351
1789225100667047400,2.14704736328125,3.8423657477706668,8.95836962185502,1.0743461186774075
1789225100677086500,2.15708642578125,3.8910470688313246,8.935198005104064,1.0919653619982301
1789225100687125500,2.16712548828125,3.930339214777946,8.91825271552205,1.0897675596930085
1789225100697164500,2.17716455078125,3.971425550664961,8.900804152593016,1.0834557461977004
1789225100707202600,2.18720263671875,4.00888609727025,8.884538077446818,1.0789762626960873
1789225100717241600,2.19724169921875,4.041009374500811,8.869886451759934,1.0796955168813467
1789225100727280600,2.20728076171875,4.06806250886023,8.857077239069342,1.0832567895594984
1789225100737319400,2.2173193359375,4.087819640992581,8.847169008517264,1.0898185592278837
1789225100747358500,2.2273583984375,4.102428888842463,8.839123649227618,1.1001580208040773
1789225100757396500,2.237396484375,4.114862546218931,8.832459515163302,1.1072217486452312
1789225100767435500,2.247435546875,4.127738686665892,8.826183503633738,1.109344512952864
1789225100777474600,2.257474609375,4.140029720701277,8.820625284984708,1.1077520561296492
1789225100787513600,2.267513671875,4.149719047805666,8.81653480080068,1.1040546629164367
1789225100797552600,2.277552734375,4.155305031244456,8.814358041283487,1.1004196674149482
1789225100807590400,2.28759033203125,4.155612782019377,8.814581913167238,1.0974607445441187
1789225100817629700,2.297629638671875,4.149476763482392,8.817801459735632,1.0948098647091538
1789225100827668500,2.30766845703125,4.137510723617672,8.82384775416255,1.0913731682587415
1789225100837707500,2.31770751953125,4.12076767860949,8.832250840848683,1.0867380558039992
1789225100847746600,2.32774658203125,4.100452912594378,8.84238645041585,1.0811483460381626
1789225100857784600,2.33778466796875,4.076110206237435,8.854310112443565,1.0755989682827145
1789225100867823600,2.34782373046875,4.04622418653965,8.868596411949396,1.0707287318978458
1789225100877862400,2.3578623046875,4.012383291736245,8.884092671766876,1.0696020659554748
1789225100887901400,2.3679013671875,3.973039123341441,8.902062628221511,1.0670601263877004
1789225100897940700,2.377940673828125,3.929230376753211,8.921758093294502,1.0647803448874502
1789225100907978500,2.387978515625,3.884196180023253,8.941833497595786,1.0616104096144436
1789225100918017500,2.398017578125,3.842906138257682,8.96016001240313,1.0573481490600853
1789225100928056600,2.408056640625,3.806184427320957,8.97649623017609,1.0515960152741521
1789225100938095600,2.418095703125,3.7741730860322713,8.990713556098937,1.0454995250299572
1789225100948134400,2.428134521484375,3.7522663746505973,9.001061347112058,1.035260382023081
1789225100958172700,2.438172607421875,3.7502319462135434,9.003682343265414,1.0197224019557236
1789225100968211500,2.44821142578125,3.7494662225380537,9.005152415817976,1.0095094893686474
1789225100978250500,2.45825048828125,3.7349455297544596,9.011852205717563,1.0035356756560503
1789225100988289500,2.46828955078125,3.719393740357458,9.01898161920607,0.9972244466826319
1789225100998328300,2.478328369140625,3.716053490018844,9.02150090855062,0.9868347892891615
1789225101008366600,2.48836669921875,3.7230885032221672,9.019947833889722,0.9744413177926092
1789225101018405400,2.4984052734375,3.7298274560883637,9.018356765305995,0.9633402972593903
1789225101028444400,2.5084443359375,3.729396078933775,9.019648558682203,0.9528585776682943
1789225101038483700,2.518483642578125,3.7241397658407687,9.022905514651537,0.942525472767651
1789225101048522500,2.5285224609375,3.7209696113720536,9.025409021905064,0.9309908100575208
1789225101058560500,2.538560546875,3.721290513889491,9.026563452637195,0.9184313343442976
1789225101068599600,2.548599609375,3.7184883159503337,9.02901669100821,0.9055809859257191
1789225101078638600,2.558638671875,3.7078961947873235,9.03468713786006,0.8923694760445505
1789225101088677400,2.568677490234375,3.692494335255027,9.042403411325811,0.8779515129830687
1789225101098715600,2.578715576171875,3.678661916996538,9.049601213875412,0.8617017313845455
1789225101108754700,2.588754638671875,3.6681168498456476,9.055436495900153,0.8452121496807783
1789225101118793500,2.59879345703125,3.6575104078963396,9.06105667386949,0.8308087996665388
1789225101128832500,2.60883251953125,3.6450881486967206,9.067197660842538,0.8183065340332687
1789225101138871600,2.61887158203125,3.632781040309369,9.073173228120803,0.8067275207247585
1789225101148909600,2.62890966796875,3.623901276022196,9.077674631193279,0.7959578510377555
1789225101158948400,2.6389482421875,3.621323242227733,9.079563805940747,0.786085568581894
1789225101168987400,2.6489873046875,3.6249952087387443,9.079135351395607,0.7740173835169524
1789225101179026700,2.659026611328125,3.6316473601043224,9.077610918307304,0.7605901850584894
1789225101189065500,2.6690654296875,3.636940498076379,9.076441290006041,0.7491855784688144
1789225101199103500,2.679103515625,3.641412675054371,9.07539674938917,0.7400474555063993
1789225101209142500,2.689142578125,3.6492096125409006,9.072821930465102,0.7331840725429356
1789225101219181600,2.699181640625,3.658960898965597,9.069483141431212,0.725858040503785
1789225101229220600,2.709220703125,3.6653497232198715,9.067555388239025,0.7176670621983706
1789225101239259100,2.719259033203125,3.6663109694674607,9.067951109558344,0.7076924153465777
1789225101249297400,2.72929736328125,3.664000062176585,9.069798783251642,0.6958622768212109
1789225101259336200,2.739336181640625,3.6614477473452687,9.07174231853485,0.6838810393873602
1789225101269375200,2.749375244140625,3.658296882098913,9.07369988234341,0.6747067491330206
1789225101279414500,2.75941455078125,3.651360360834002,9.077052115380763,0.6671388711620122
1789225101289452300,2.769452392578125,3.641555298395455,9.081469347301125,0.6606033319134265
1789225101299491300,2.7794912109375,3.632335342368483,9.085761491537093,0.6522753562901169
1789225101309530400,2.7895302734375,3.626981706380844,9.088523941987752,0.6435190722521394
1789225101319569400,2.7995693359375,3.624740357194841,9.090033177506923,0.6347861690897494
1789225101329608200,2.809608154296875,3.6235327349707482,9.090963736355304,0.6283137582052498
1789225101339646500,2.819646484375,3.6223256972685456,9.091777390825747,0.6234790315251797
1789225101349685500,2.829685546875,3.6235102308779954,9.09156813198924,0.6196411338627338
1789225101359724300,2.839724365234375,3.6279379841923713,9.090109165352583,0.6151090433910489
1789225101369763300,2.849763427734375,3.633904199120402,9.088074444654584,0.6099249552840367
1789225101379802000,2.859802001953125,3.638741117757559,9.086474608242511,0.6049261971486732
1789225101389840400,2.86984033203125,3.6417382537469267,9.08554229582846,0.6008865663690492
1789225101399879200,2.879879150390625,3.643443888621032,9.08504077604711,0.5981301438003778
1789225101409918200,2.889918212890625,3.64436158798784,9.084802875638008,0.5961388969179242
1789225101419957500,2.89995751953125,3.6444232550472018,9.084905166968703,0.5941917083729058
1789225101429996300,2.909996337890625,3.6430806082665916,9.085651601421832,0.5910088405530899
1789225101440034300,2.920034423828125,3.6400580455750227,9.087118166843057,0.5870652905590832
1789225101450073300,2.9300732421875,3.6347076244577763,9.089546855294705,0.5826007854308932
1789225101460112400,2.9401123046875,3.6291982133865353,9.092011784103512,0.5784645258763804
1789225101470151400,2.9501513671875,3.6265430227026343,9.09332286670208,0.5744983256591484
1789225101480189400,2.960189453125,3.6262586528033016,9.093655459657311,0.57103455853872
1789225101490228500,2.970228515625,3.624618776641786,9.094532827013731,0.5674407718304544
1789225101500267300,2.980267333984375,3.621516426712274,9.095992378172278,0.5638605021908879
1789225101510306300,2.990306396484375,3.6189652809247375,9.097259037107229,0.559795262045972
1789225101520345000,3.000344970703125,3.6191985051587223,9.097429132977128,0.5555010354507715
1789225101530383400,3.01038330078125,3.622787177300453,9.096234370234608,0.5516507166981697
1789225101540422100,3.020422119140625,3.627280104805529,9.0945912792027,0.5492111415263266
1789225101550461200,3.030461181640625,3.6292499435737726,9.093905050504206,0.547561949547194
1789225101560500500,3.04050048828125,3.6296520946338773,9.093833154311776,0.546100498692505
1789225101570539300,3.050539306640625,3.628915012530982,9.094234136328101,0.5442959334885701
1789225101580577300,3.060577392578125,3.6307851903170345,9.093668903660774,0.5412800927987322
1789225101590616300,3.0706162109375,3.634448681260645,9.092379448372125,0.5383447334665805
1789225101600655400,3.0806552734375,3.632750352910161,9.093203624236583,0.5358879879642278
1789225101610694400,3.0906943359375,3.6258278601706024,9.095842740568518,0.537961250574328
1789225101620733200,3.100733154296875,3.62233621866256,9.096973205903172,0.5423572935761883
1789225101630771500,3.110771484375,3.6267628029331562,9.094932055464387,0.5469951459772885
1789225101640810200,3.120810302734375,3.632734863080084,9.092446668389439,0.5486741851054132
1789225101650849300,3.130849365234375,3.637842999874055,9.090196843636035,0.5520922864532097
1789225101660888300,3.140888427734375,3.643734688261151,9.087518564337492,0.5573003034250811
1789225101670926300,3.15092626953125,3.6495027502685784,9.084919780015944,0.5619111947540193
1789225101680965400,3.16096533203125,3.6539153060138223,9.082959878119826,0.5649113629506901
1789225101691004200,3.171004150390625,3.658485098147392,9.081114542514085,0.5650034251483157
1789225101701043500,3.18104345703125,3.6641762955263255,9.078982791182398,0.5623835980387404
1789225101711082200,3.191082275390625,3.66799088537842,9.077754126170277,0.5573251090727747
1789225101721120300,3.201120361328125,3.6672353908360003,9.078404699033499,0.5516604709072038
1789225101731159300,3.2111591796875,3.663910922588408,9.080068832853437,0.5463435502007603
1789225101741198300,3.2211982421875,3.661857497189939,9.081220925498009,0.5409408874396234
1789225101751237400,3.2312373046875,3.661312138266861,9.081768622508644,0.5354187630172819
1789225101761275400,3.241275390625,3.6580087128072973,9.083509913218021,0.528413889223896
1789225101771314400,3.251314453125,3.651323828215897,9.086697311082482,0.5197669838445261
1789225101781353200,3.261353271484375,3.64484615663439,9.089933224263786,0.5085115034019574
1789225101791392300,3.271392333984375,3.6417195490464565,9.091849871540068,0.49650999036505816
1789225101801431300,3.281431396484375,3.6401547839477657,9.0930610008955,0.4856980524389073
1789225101811469300,3.29146923828125,3.6362592378139493,9.095058312192558,0.47741530419681216
1789225101821508400,3.30150830078125,3.6288293800741434,9.098405284532904,0.47009504431132226
1789225101831547100,3.311547119140625,3.6194779066219924,9.102607996919751,0.4607681938437745
1789225101841586400,3.32158642578125,3.61074485732913,9.106629507520795,0.4496856222826987
1789225101851625200,3.331625244140625,3.6035453012138605,9.110047207009792,0.4380534905474633
1789225101861663200,3.341663330078125,3.597188625663519,9.112919547575713,0.4304917500562966
1789225101871702500,3.35170263671875,3.590376899822056,9.115748048999905,0.42744387026038017
1789225101881741300,3.3617412109375,3.584317745913565,9.118130560222268,0.42749180105533446
1789225101891780400,3.3717802734375,3.5821158519551157,9.118905636247993,0.42939869412258264
1789225101901818400,3.381818359375,3.5843417113110423,9.117926562082767,0.43160365682095286
1789225101911857400,3.391857421875,3.5904391514033076,9.115448773792385,0.43328773745037613
1789225101921896200,3.401896240234375,3.5994784901663657,9.11185922486782,0.43378209683857855
1789225101931935200,3.411935302734375,3.609610592602193,9.107866355839372,0.43344785991553214
1789225101941974500,3.421974609375,3.617977146670222,9.104515291845798,0.43410197644270954
1789225101952012300,3.43201220703125,3.6243022580385205,9.101841104200481,0.4373774179168045
1789225101962051300,3.44205126953125,3.630627369406819,9.09908449896872,0.44227651506997645
1789225101972090400,3.45209033203125,3.6357989268258213,9.096762778022885,0.4475184708440676
1789225101982129400,3.46212939453125,3.636403614720702,9.096263011807203,0.4527362054923549
1789225101992167200,3.472167236328125,3.6331963431119916,9.097320411905645,0.4572134239716455
1789225102002206200,3.482206298828125,3.6291792164251206,9.09874781436026,0.46068369389809666
1789225102012245500,3.49224560546875,3.62508668641448,9.10024009874463,0.46343934928178787
1789225102022284300,3.5022841796875,3.6195147315010425,9.102326257368922,0.4659926139611751
1789225102032323300,3.5123232421875,3.6133097393810747,9.104644471183418,0.46885552911162376
1789225102042361300,3.522361328125,3.6114372235074637,9.105233669248223,0.4718228179519996
1789225102052400400,3.532400390625,3.615492636378109,9.103533879593014,0.4735760182948783
1789225102062439200,3.542439208984375,3.621159283837676,9.10124722996056,0.47422385121174154
1789225102072478200,3.552478271484375,3.625027649703622,9.099731564700603,0.47375864485278724
1789225102082516500,3.5625166015625,3.6288773108690977,9.098296563461423,0.4718348737159744
1789225102092555300,3.57255517578125,3.632083997955918,9.097215782487392,0.467999935195595
1789225102102594300,3.58259423828125,3.6311283046662806,9.097791536548733,0.4641951360851526
1789225102112633300,3.59263330078125,3.6255648253202435,9.100171125161648,0.4610377680327743
1789225102122672400,3.60267236328125,3.617857904204726,9.103452631050347,0.456766155128181
1789225102132710100,3.612710205078125,3.6095132697075605,9.107031074059009,0.45141894888132805
1789225102142749200,3.622749267578125,3.6028400755539534,9.109902830103039,0.446774849402532
1789225102152788500,3.63278857421875,3.6024765029385684,9.110309657338261,0.44138216004613784
1789225102162827300,3.6428271484375,3.6042505268737672,9.110030840396881,0.4325396224968135
1789225102172866300,3.6528662109375,3.598381342579424,9.112853496602177,0.42182566505242136
1789225102182904300,3.662904296875,3.58951180742532,9.116834675192832,0.41122872158382084
1789225102192943400,3.672943359375,3.5931653614968058,9.115968413752316,0.39833062503337857
1789225102202982400,3.682982421875,3.604223054344952,9.112210522523522,0.38415045278314497
1789225102213021200,3.693021240234375,3.600798340593278,9.11402254038155,0.3731200132681057
1789225102223059500,3.7030595703125,3.5818928568542003,9.121759856635332,0.3659335723627358
1789225102233098000,3.713097900390625,3.5718121923446655,9.126053754436969,0.3573379953118041
1789225102243137000,3.723136962890625,3.5836733105301857,9.121929367983341,0.3436404920119792
1789225102253176000,3.733176025390625,3.603417583180964,9.114721628561615,0.32807405303511766
1789225102263214000,3.743214111328125,3.6108556242272254,9.112273650887609,0.3139922996580601
1789225102273252900,3.7532529296875,3.605552841643989,9.114797616407275,0.30137968725180253
1789225102283292200,3.763292236328125,3.599373568487167,9.117654759404063,0.2885433856248855
1789225102293331000,3.7733310546875,3.598801029296219,9.118286627566814,0.2754506980841048
1789225102303370000,3.783369873046875,3.603734686306119,9.11670958750844,0.2628416841407306
1789225102313408300,3.793408203125,3.6123584300056097,9.113664228463172,0.24977787563456222
1789225102323447000,3.803447021484375,3.619088615043461,9.111367057436704,0.2357224622751586
1789225102333486000,3.813486083984375,3.6174215586140748,9.112387048134208,0.2214329478989355
1789225102343524900,3.82352490234375,3.611259821113944,9.11517755563557,0.20668412718158213
1789225102353563100,3.833563232421875,3.6089608965218063,9.116403298038243,0.1922686483381316
1789225102363602000,3.843601806640625,3.607475334139168,9.117274820175766,0.17840077517377212
1789225102373641000,3.853640869140625,3.597980360563099,9.121235540500283,0.16729955371115357
1789225102383680000,3.863679931640625,3.582665594792366,9.127422120180725,0.15834301612703128
1789225102393719000,3.873718994140625,3.56988210106492,9.132590462729334,0.1487575147232972
1789225102403757000,3.883757080078125,3.5692853042155503,9.132949943691491,0.14074314422695897
1789225102413795800,3.8937958984375,3.5864261163696645,9.126341923728585,0.13345158071299082
1789225102423835100,3.903835205078125,3.607824293707311,9.11801424036622,0.12564983005402608
1789225102433874200,3.913874267578125,3.6106484112173316,9.11700769367218,0.11736762066804803
1789225102443912000,3.923911865234375,3.604278583924472,9.119614076778292,0.11044307296872138
1789225102453951200,3.933951171875,3.6133591314807534,9.116117466834186,0.10214357452122494
1789225102463990000,3.943989990234375,3.6307203083872794,9.109311293950677,0.09327131768707185
1789225102474029000,3.954029052734375,3.6254046663224697,9.111482792770863,0.08789304044852032
1789225102484067800,3.96406787109375,3.592530862985551,9.124497757166624,0.08740338463489897
1789225102494106000,3.974106201171875,3.562144200289249,9.136399791884422,0.0877313562139403
1789225102504145000,3.984144775390625,3.556227085199952,9.138720928308366,0.08608250216152519
1789225102514184000,3.994183837890625,3.571511163571477,9.132762896686792,0.08571311172670684
1789225102524223000,4.004222900390625,3.5797286645576354,9.129513539502025,0.0888958699486684
1789225102534261000,4.014260986328125,3.5799575048774477,9.1294071565181,0.09062580814696848
1789225102544300000,4.024300048828125,3.5876489361628887,9.126416742530465,0.08757926179161295
1789225102554338800,4.0343388671875,3.609230361112952,9.11791954782009,0.08597767181387171
1789225102564378000,4.044378173828125,3.6382764228552578,9.106294576478003,0.09348844930278137
1789225102574417200,4.054417236328125,3.6538764353081583,9.099894061785935,0.10721380872391163
1789225102584455000,4.064454833984375,3.646843467931449,9.10249869132638,0.12423033691123127
1789225102594494200,4.074494140625,3.635750119248032,9.106690297797321,0.14110166620789094
1789225102604533000,4.084532958984375,3.6354011596798896,9.106624831345677,0.1536827144321054
1789225102614572000,4.094572021484375,3.631823301193118,9.107851742792128,0.16516329060113055
1789225102624610000,4.104610107421875,3.620883097244799,9.111780314412712,0.18722404176704585
1789225102634649000,4.114649169921875,3.6226238034322855,9.11044175928533,0.21639842433044687
1789225102644688100,4.124688232421875,3.642625265714526,9.101784990099071,0.24325614571562035
1789225102654727000,4.134726806640625,3.655784314756095,9.09589651658237,0.2651398232815787
1789225102664765200,4.14476513671875,3.6437434560894966,9.100175801336764,0.2834359064180404
1789225102674804000,4.154803955078125,3.622497546704113,9.10820420949161,0.29753881218098105
1789225102684843000,4.164843017578125,3.6123195592999457,9.112057962310313,0.3032230318298563
1789225102694881800,4.1748818359375,3.6177214183434843,9.109825673213601,0.30586291534677146
1789225102704921000,4.184921142578125,3.637565351976454,9.101655810761452,0.3136461531015113
1789225102714958800,4.194958740234375,3.6641090755090113,9.090645756447314,0.3238205237764865
1789225102724998000,4.204997802734375,3.673936642040312,9.086218587654828,0.33647352299205957
1789225102735037200,4.215037109375,3.662743047852814,9.090324269407986,0.34743677902240305
1789225102745076000,4.225075927734375,3.652120239290595,9.094275052860379,0.35576804258134215
1789225102755114000,4.235114013671875,3.658409987084567,9.091455319264531,0.363145110687986
1789225102765153000,4.245153076171875,3.6717742033094165,9.086006990730763,0.364629467494227
1789225102775192000,4.255192138671875,3.6623449884459376,9.089840869805217,0.3638910702170804
1789225102785231000,4.265231201171875,3.6408965422257777,9.09822583631277,0.36953974362853914
1789225102795269000,4.27526904296875,3.6470354833722114,9.095710054099559,0.370920786190778
1789225102805308200,4.28530810546875,3.6746272546529766,9.084791185200213,0.3661680021731183
1789225102815347000,4.295346923828125,3.682737495872378,9.081488636523485,0.3666151979513466
1789225102825386000,4.305385986328125,3.66384165674448,9.088931353744863,0.37144418901037424
1789225102835425000,4.315425048828125,3.6400323266118764,9.09857947205603,0.3693063367314636
1789225102845463000,4.325463134765625,3.6324250664785502,9.102070821303128,0.35801282583344723
1789225102855502000,4.335502197265625,3.6458509497627616,9.096931704849004,0.35211499996650963
1789225102865540900,4.345540771484375,3.671652622756362,9.086357119342685,0.3569918852878734
1789225102875580200,4.355580078125,3.678082655803859,9.083406452843546,0.3658191522028297
1789225102885618000,4.365617919921875,3.6588822807714343,9.090761491781473,0.3755171375377103
1789225102895657000,4.375656982421875,3.635333355140686,9.099764882448316,0.38600050109662115
1789225102905696000,4.385696044921875,3.6332998034864663,9.100168787074088,0.39553635467235
1789225102915735000,4.395735107421875,3.6657390147984024,9.086671592119336,0.40637284251786765
1789225102925772800,4.405772705078125,3.70219535279721,9.071459994462131,0.4156334228161722
1789225102935812000,4.41581201171875,3.6935710245758293,9.074259269791842,0.4309613403294235
1789225102945851100,4.42585107421875,3.6726097773507234,9.08177914390266,0.4512233532439917
1789225102955890000,4.435889892578125,3.6792201354011893,9.078539139068127,0.4624325103268027
1789225102965929000,4.445928955078125,3.7080326806485653,9.066526045191287,0.4679641332298517
1789225102975967000,4.455967041015625,3.721298112674057,9.060938600447773,0.4708704491306096
1789225102986006000,4.466006103515625,3.709402215436101,9.065442926129698,0.47798188857100904
1789225102996045000,4.476045166015625,3.686909520860016,9.074035982429981,0.48882403897233306
1789225103006083800,4.486083740234375,3.6613001555681226,9.083730277970433,0.5010974642857909
1789225103016122000,4.4961220703125,3.631144379018247,9.094965373212098,0.5165072148635983
1789225103026161000,4.506160888671875,3.608197218672931,9.103176152196527,0.5324255725506692
1789225103036200000,4.516199951171875,3.597231295761466,9.106970283782482,0.5416641967454925
1789225103046239200,4.5262392578125,3.5989699561223385,9.106118635389208,0.5444281815661117
1789225103056277000,4.536277099609375,3.618517537157237,9.098437433236837,0.5432754678670316
1789225103066316000,4.54631591796875,3.642253509792685,9.089391372472047,0.5360330955233424
1789225103076355000,4.55635498046875,3.656729778912663,9.083741383886336,0.5332382406404241
1789225103086394000,4.56639404296875,3.6631484137833117,9.08118059348762,0.5328068269532173
1789225103096433000,4.576432861328125,3.672924250127375,9.077420364171266,0.5295685026191175
1789225103106471200,4.58647119140625,3.6913665002688765,9.070245357975363,0.5242683503843844
1789225103116510000,4.596510009765625,3.694747959400713,9.068653704869746,0.5279458698533475
1789225103126549000,4.606549072265625,3.659326225146651,9.08222338053882,0.5412282895462587
1789225103136588000,4.616588134765625,3.6352146971970796,9.091004652887582,0.5560759857945143
1789225103146626000,4.6266259765625,3.6657685331538317,9.07892316994965,0.5528877111472189
1789225103156665000,4.6366650390625,3.724858727765083,9.056094083026052,0.5319459358075633
1789225103166703900,4.646703857421875,3.755498780700564,9.045122022634745,0.5023893672598525
1789225103176743000,4.656742919921875,3.755459617733955,9.046585080924629,0.47561800898388024
1789225103186781000,4.666781005859375,3.7611432163283225,9.045293287548422,0.4548186743222177
1789225103196820000,4.676820068359375,3.776851365330815,9.03914236370325,0.44685843603275716
1789225103206859000,4.68685888671875,3.812215524178743,9.023510494807361,0.46221601803191004
1789225103216898000,4.69689794921875,3.8591532164424653,9.002685733443498,0.4784995923021808
1789225103226936000,4.70693603515625,3.843902163557708,9.009262189224362,0.47747448703814294
1789225103236975600,4.7169755859375,3.7843016813367605,9.035218468257785,0.46289713216386735
1789225103247014400,4.727014404296875,3.717281278248131,9.064680709585547,0.42867436190340663
1789225103257053700,4.7370537109375,3.6558892364352937,9.091616647306084,0.3838622834915295
1789225103267091500,4.747091552734375,3.6094922269195315,9.111517279562353,0.3495629408635199
1789225103277130500,4.757130615234375,3.571286707165837,9.127104724794625,0.3350263198584318
1789225103287169500,4.76716943359375,3.5284017974242565,9.143516345891356,0.3418647510437295
1789225103297208600,4.77720849609375,3.4818422908231614,9.16111337738037,0.34809286831095815
1789225103307247600,4.78724755859375,3.4673204289957877,9.166561121392249,0.34964382408000527
1789225103317285600,4.79728564453125,3.5003362711519,9.154555041778087,0.33486941226366906
1789225103327324700,4.80732470703125,3.556697333060205,9.133541479843855,0.3141877126323059
1789225103337363500,4.817363525390625,3.608657529661059,9.11344444823265,0.3051216319927946
1789225103347402500,4.827402587890625,3.64522872621119,9.098904466226696,0.30435019096257165
1789225103357440500,4.8374404296875,3.666735624620318,9.090097474914788,0.30913864908181127
1789225103367479600,4.8474794921875,3.6872561423406003,9.081367640492319,0.3213733863526955
1789225103377518600,4.8575185546875,3.7186835462614893,9.068148677957057,0.332349136538431
1789225103387557600,4.8675576171875,3.738995974189043,9.059672526034712,0.33557956982702014
1789225103397595600,4.877595703125,3.7296976922288536,9.063564857298136,0.3339503611899912
1789225103407634400,4.887634521484375,3.7061291851148006,9.073452045062183,0.32780013146456327
1789225103417673500,4.897673583984375,3.6829181131362914,9.083392424318195,0.31380189165249467
1789225103427712800,4.907712646484375,3.660538815806806,9.092792120826244,0.30325331737026573
1789225103437750500,4.91775048828125,3.6389778491228815,9.10139862112999,0.30456476529501375
1789225103447789600,4.92778955078125,3.6122897486835717,9.111630092287063,0.3161717991216108
1789225103457828600,4.93782861328125,3.589974164240062,9.120100983512401,0.3259034675303846
1789225103467867600,4.94786767578125,3.59037894564867,9.119825673702358,0.32917543840575963
1789225103477905400,4.957905517578125,3.618561084038019,9.108813865822553,0.3254622265689075
1789225103487944700,4.96794482421875,3.648975219263136,9.097048609226942,0.3147728921091184
1789225103497983500,4.9779833984375,3.6586017102643846,9.09360343720913,0.30232522447360677
1789225103508022500,4.9880224609375,3.6541780486032365,9.095721160015463,0.2919190178041346
1789225103518061600,4.9980615234375,3.6541982146084306,9.095860276225208,0.2873113778782077
1789225103528099600,5.008099609375,3.668151044376194,9.09028101478815,0.2860991342779249
1789225103538138600,5.018138671875,3.6808547508656977,9.085148912596702,0.285937331312336
1789225103548177400,5.028177490234375,3.6872520506873725,9.08265592673719,0.2826813251910731
1789225103558216400,5.038216552734375,3.6871123499557372,9.083108346679806,0.2697060717511922
1789225103568254500,5.04825439453125,3.6823750923007723,9.08573051187694,0.24496797286849467
1789225103578293500,5.05829345703125,3.671758421218395,9.090849170064926,0.21221405131788923
1789225103588332500,5.06833251953125,3.6645369455322623,9.094411246460675,0.1822665654901415
1789225103598371600,5.07837158203125,3.662131053434312,9.095872551184891,0.15579713103650136
1789225103608409600,5.08840966796875,3.643858022379875,9.103610451960563,0.1302092286577448
1789225103618448400,5.098448486328125,3.604765782919526,9.119459762999416,0.10731082109129056
1789225103628487700,5.10848779296875,3.573034719876945,9.132118169042467,0.09077077870876528
1789225103638526700,5.118526611328125,3.565688156506419,9.13521262792647,0.06439777666719164
1789225103648564500,5.128564453125,3.5589319602444767,9.138052235266565,0.019804597136424854
1789225103658603800,5.138603759765625,3.5493022543728348,9.141783238488435,-0.025570766297576483
1789225103668642600,5.148642578125,3.557002161225676,9.138554339569806,-0.07036225629586261
1789225103678681600,5.158681640625,3.575539688435197,9.130776106783747,-0.12174676733403465
1789225103688719600,5.1687197265625,3.5825168339714404,9.127209938734769,-0.17323245089147238
1789225103698758700,5.178758544921875,3.5756633148148653,9.128765351483226,-0.22509147040648383
1789225103708797400,5.18879736328125,3.573968785856664,9.127894998389483,-0.28046070826584474
1789225103718836500,5.19883642578125,3.579000058022141,9.123827310559154,-0.3419285735275596
1789225103728874800,5.208874755859375,3.5862136426627633,9.118439772301912,-0.40436460796799506
1789225103738913500,5.21891357421875,3.593299509270489,9.113028268647193,-0.4596707539958879
1789225103748952600,5.22895263671875,3.585432721418142,9.113497639724612,-0.5091349325299263
1789225103758991400,5.238991455078125,3.5616944106951354,9.119828596311807,-0.5598694963259622
1789225103769030700,5.24903076171875,3.538832590545714,9.12465265546739,-0.6227029325861484
1789225103779068400,5.259068359375,3.536739417658746,9.120190415361524,-0.6957072323899716
1789225103789107500,5.269107421875,3.547277178286016,9.110227239751815,-0.768754202291742
1789225103799146800,5.279146728515625,3.5431858173191544,9.106126818695664,-0.8334626751761883
1789225103809185500,5.289185546875,3.509930321188271,9.113879917040467,-0.8876737194437533
1789225103819223600,5.2992236328125,3.4820924661919475,9.120957308080792,-0.9238727947458625
1789225103829262600,5.3092626953125,3.4958462662562724,9.11318316694796,-0.9483386160258204
1789225103839301600,5.319301513671875,3.5572254485875368,9.086736474049092,-0.9735255181219428
1789225103849340700,5.329340576171875,3.6039793087169527,9.065016809672116,-1.0035824374072253
1789225103859378700,5.339378662109375,3.604600947746634,9.060676734641193,-1.039889137802273
1789225103869417700,5.349417724609375,3.6008474404320117,9.056744655889272,-1.0861261344507336
1789225103879456500,5.35945654296875,3.6067341603830454,9.046365300694108,-1.151145134589076
1789225103889495600,5.36949560546875,3.6290021062925457,9.03004194240272,-1.2079209147781134
1789225103899533600,5.379533447265625,3.6521582332134246,9.016778556203842,-1.236867169407755
1789225103909572600,5.389572509765625,3.650011868834495,9.016479280996322,-1.2453515046365558
1789225103919611400,5.399611328125,3.629280630972981,9.02457724725604,-1.2472808652639389
1789225103929650400,5.409650390625,3.613348317825794,9.030164691999554,-1.2530806375838814
1789225103939688700,5.419688720703125,3.617866672033071,9.027308133524656,-1.2606157092638313
1789225103949727500,5.4297275390625,3.6490827712908387,9.013494712227583,-1.2694490040607749
1789225103959766500,5.4397666015625,3.6830244961202143,8.998027678504586,-1.2810977946698665
1789225103969805600,5.4498056640625,3.6913077558189626,8.993075609055161,-1.291982030647248
1789225103979843600,5.459843505859375,3.681637717936933,8.995701281383633,-1.301257370123267
1789225103989882400,5.46988232421875,3.66556687310189,9.001725363978743,-1.3049718606017529
1789225103999921700,5.479921630859375,3.6608281541422008,9.004703503006697,-1.297702600251138
1789225104009960700,5.489960693359375,3.6822906288877126,8.997989684581755,-1.2834686154544352
1789225104019998500,5.49999853515625,3.7205782739669084,8.983302403059602,-1.2759144006825982
1789225104030037800,5.510037841796875,3.733310329768061,8.977962211075425,-1.2763112910456955
1789225104040076500,5.52007666015625,3.704155546954274,8.989968875211476,-1.2767394533298908
1789225104050115600,5.530115478515625,3.673159227927029,9.002704438143969,-1.2765636583715676
1789225104060153600,5.540153564453125,3.665661565648019,9.005916970449686,-1.275456866173446
1789225104070192600,5.550192626953125,3.6728918091624974,9.00361570776999,-1.2708939421720802
1789225104080231700,5.560231689453125,3.6693139506757255,9.006075960403681,-1.2637697893805802
1789225104090270500,5.5702705078125,3.6535303983494636,9.013179654929042,-1.258851622200757
1789225104100308700,5.580308837890625,3.6474680295705793,9.016100510811805,-1.2555107873402536
1789225104110347500,5.590347412109375,3.673601126475632,9.006550007656216,-1.2478338229715824
1789225104120386600,5.600386474609375,3.715185182751715,8.989989333477617,-1.2441405214115977
1789225104130425300,5.61042529296875,3.73951415284425,8.981331979769468,-1.233738369862735
1789225104140463600,5.620463623046875,3.725900930294394,8.989037147319316,-1.2187164495587348
1789225104150502700,5.630502685546875,3.6983833932936188,9.00232625248134,-1.204347294075042
1789225104160541400,5.64054150390625,3.683030633600056,9.010523002940415,-1.1900165709055959
1789225104170580700,5.650580810546875,3.6981250346183776,9.006459991285205,-1.1738579016566275
1789225104180618500,5.660618408203125,3.7181796883925795,8.999656156489252,-1.1626362504184244
1789225104190657500,5.670657470703125,3.695335696160793,9.0104049295187,-1.1521726510059087
1789225104200696600,5.680696533203125,3.6566663582876324,9.028544981843233,-1.133388528624177
1789225104210735600,5.690735595703125,3.647292965264618,9.034624594017863,-1.1149869027540087
1789225104220773400,5.7007734375,3.679306352379918,9.024756110954284,-1.089437816281989
1789225104230812700,5.710812744140625,3.695230189959705,9.02110986340642,-1.065472345739603
1789225104240851200,5.720851318359375,3.6683439365997907,9.036188774594663,-1.0300202163472771
1789225104250890200,5.73089013671875,3.648130585132539,9.048794573667644,-0.9903762612883001
1789225104260928300,5.74092822265625,3.640480362640321,9.054915686896443,-0.9621748336765915
1789225104270967300,5.75096728515625,3.644678106591105,9.056090575894713,-0.9348408365491777
1789225104281006000,5.761006103515625,3.6373259902626276,9.061946900707483,-0.906289353390783
1789225104291045000,5.771045166015625,3.6181402282774444,9.072779844889045,-0.874129616607353
1789225104301083100,5.781083251953125,3.6017987498074766,9.081904816108942,-0.8464278821460902
1789225104311122200,5.7911220703125,3.615688743472099,9.079974140307307,-0.8069986658163368
1789225104321161000,5.801160888671875,3.6420781532257793,9.073080873662233,-0.7647562917619943
1789225104331200000,5.811199951171875,3.6422470800518987,9.076738227126002,-0.7192074965734034
1789225104341238300,5.82123828125,3.620287469439208,9.088833738589287,-0.6760090639032423
1789225104351277000,5.831277099609375,3.5959082304641603,9.10085560029447,-0.6436169796686619
1789225104361316000,5.841316162109375,3.589790039844811,9.105448188781738,-0.61206236917153
1789225104371355100,5.851355224609375,3.6093075180023906,9.100225485697388,-0.573733332636021
1789225104381393200,5.86139306640625,3.6411008326262233,9.089774234309791,-0.5373818432511761
1789225104391432000,5.871431884765625,3.662434712556004,9.08308379676044,-0.5045156752314418
1789225104401471200,5.88147119140625,3.6623522949695584,9.084158147993683,-0.48541265962626784
1789225104411510300,5.89151025390625,3.656617842970788,9.087287093669175,-0.46983642990775404
1789225104421549000,5.901549072265625,3.6601477706626055,9.08649331294298,-0.457550802699849
1789225104431587300,5.91158740234375,3.6688963097855445,9.08399681995213,-0.4365421361364424
1789225104441626000,5.921626220703125,3.677858783920109,9.081650549086929,-0.4091011349705979
1789225104451665200,5.9316650390625,3.6743855548515914,9.084193219307064,-0.38300866233687847
1789225104461703200,5.941703125,3.6416064440608023,9.098049895223975,-0.3668494085660204
1789225104471742200,5.9517421875,3.605646072885394,9.112706197085975,-0.35815932163204994
1789225104481781200,5.96178125,3.582904664245248,9.121701404446362,-0.3574068227643147
1789225104491820000,5.971820068359375,3.5775782085254786,9.124090345409511,-0.349708194553107
1789225104501858300,5.9818583984375,3.5830434881940483,9.122646576341985,-0.3309096417872235
1789225104511897000,5.99189697265625,3.576423485532403,9.126216251522303,-0.3029036636823788
1789225104521936100,6.00193603515625,3.550226968002319,9.137284173503518,-0.2762369713572785
1789225104531975000,6.011974853515625,3.527048629249632,9.14682824691832,-0.2565998488754034
1789225104542013200,6.02201318359375,3.5290859802961347,9.146337248530983,-0.24588373600654304
1789225104552052200,6.03205224609375,3.550456977365911,9.138316439160704,-0.23623494184194133
1789225104562091000,6.042091064453125,3.5767972872808573,9.128566614040732,-0.21490835016947238
1789225104572130300,6.05213037109375,3.589996083810925,9.124095606106518,-0.18222449818039313
1789225104582168000,6.06216796875,3.580185176153481,9.128631495970486,-0.1440850750660058
1789225104592207000,6.07220703125,3.5795360645949836,9.129396635124087,-0.10683320277533494
1789225104602246100,6.08224609375,3.609235621809959,9.118000211840867,-0.07659457024759612
1789225104612285200,6.09228515625,3.6462554389104245,9.103439187046884,-0.050860761158703825
1789225104622323000,6.102322998046875,3.6625066087484357,9.097034580701589,-0.020047906656295526
1789225104632362200,6.1123623046875,3.6613039549604056,9.097533762395381,0.011250134122237795
1789225104642401300,6.1224013671875,3.656655252371728,9.099311877983808,0.04209874606626108
1789225104652440000,6.132440185546875,3.654779521627724,9.099843208381532,0.0762986788738286
1789225104662478300,6.142478271484375,3.653513154953718,9.099964788934589,0.11347622098638675
1789225104672517000,6.15251708984375,3.6422345128312705,9.103959411528706,0.14976706622517666
1789225104682556200,6.16255615234375,3.6113206113904712,9.115621207749843,0.18491066852444782
1789225104692595200,6.17259521484375,3.5744653372019526,9.12927914622426,0.22324518495267257
1789225104702633200,6.18263330078125,3.5671474154040217,9.131120390176772,0.26167970942296087
1789225104712672300,6.19267236328125,3.584414484286308,9.12346023081243,0.2912724817952141
1789225104722711000,6.2027109375,3.585406710194051,9.122111154291034,0.3199128122808412
1789225104732750000,6.21275,3.565899168908596,9.128490626195072,0.35414719991385935
1789225104742788000,6.2227880859375,3.5485675103574987,9.134236476370692,0.37920035609509795
1789225104752827100,6.2328271484375,3.554376488897204,9.1309374348253,0.4034642250621691
1789225104762866200,6.2428662109375,3.6028096804156897,9.110321932297945,0.4383997832344845
1789225104772905200,6.2529052734375,3.6553941463947295,9.087794458669423,0.4695571015097201
1789225104782943200,6.262943115234375,3.6644524821192026,9.082562987756729,0.4992440915040672
1789225104792982000,6.27298193359375,3.6412685904085635,9.090698947939277,0.5203330202294514
1789225104803021300,6.283021240234375,3.6048739194691177,9.104496002623438,0.5323838523007929
1789225104813060000,6.29306005859375,3.5859175823256373,9.11089008757472,0.5506977998875081
1789225104823098000,6.30309814453125,3.5988302553907037,9.104096774172783,0.5781394221078604
1789225104833137200,6.31313720703125,3.656254854877293,9.079654406833647,0.6017196927249431
1789225104843176200,6.32317626953125,3.6756367239564653,9.07098068651259,0.6143277568202465
1789225104853215200,6.33321533203125,3.6360122773155568,9.085938017147779,0.6289193959482013
1789225104863253000,6.3432529296875,3.595402034507692,9.101755179482698,0.63366140284352
1789225104873292300,6.353292236328125,3.575251519143581,9.110412533190846,0.6231743494901806
1789225104883331000,6.3633310546875,3.595702771019935,9.101628338232636,0.6337729003939777
1789225104893370000,6.3733701171875,3.633839024929702,9.085299134722352,0.6503489182721823
1789225104903408000,6.383408203125,3.6509067718476054,9.077361911982297,0.6654041563238948
1789225104913447200,6.393447265625,3.6475036854058502,9.077948187437652,0.6759873635280877
1789225104923486200,6.403486328125,3.6445299302920695,9.079044750502705,0.6772890937764198
1789225104933525000,6.41352490234375,3.646461775137484,9.078714495635031,0.6713095809753984
1789225104943563300,6.423563232421875,3.666552084746957,9.070646924513579,0.670929276420921
1789225104953602000,6.43360205078125,3.7049236087173223,9.054705843538045,0.6754401779741048
1789225104963641000,6.44364111328125,3.7159108666777607,9.049768387135863,0.6812262870948761
1789225104973680400,6.453680419921875,3.696277945446968,9.057147975993155,0.689918931312114
1789225104983718100,6.46371826171875,3.682012688729167,9.063000209152698,0.6893367475099861
1789225104993757200,6.473757080078125,3.6923353453010317,9.059458006501197,0.6806334357682615
1789225105003796200,6.483796142578125,3.722952601882815,9.047773413926363,0.6691684772934764
1789225105013835300,6.493835205078125,3.7337633342325685,9.04456964944899,0.6520431549694389
1789225105023873000,6.503873046875,3.7198672030881044,9.050528850114345,0.6487794769983738
1789225105033912000,6.513912109375,3.705984515947103,9.05622969210446,0.6486608921200037
1789225105043951000,6.523951171875,3.6978432950675484,9.060483842417597,0.6355948551241308
1789225105053989000,6.533989013671875,3.684453652140498,9.067301121217012,0.6158171916604042
1789225105064028200,6.544028076171875,3.6570273005545135,9.079846714535355,0.5940664014928042
1789225105074067200,6.554067138671875,3.635999125573039,9.089595370611548,0.5737185734583065
1789225105084106200,6.564106201171875,3.6386633763462304,9.09005831194818,0.5489508466223254
1789225105094144000,6.57414404296875,3.656236734698713,9.084617582198977,0.521582289638184
1789225105104183300,6.584183349609375,3.6686931884288785,9.08099413100481,0.49660592502020295
1789225105114222000,6.59422216796875,3.659591305823624,9.0860671964854,0.4702822739791125
1789225105124261000,6.60426123046875,3.6330087115854024,9.098163292470574,0.44164493916817005
1789225105134299100,6.614299072265625,3.615153613682091,9.106734721460938,0.41042113152798265
1789225105144338200,6.624338134765625,3.6214696649610993,9.105697195106744,0.3763165808197111
1789225105154377200,6.634377197265625,3.6278763171330093,9.104550363159179,0.3406641065496951
1789225105164416000,6.644416015625,3.6088328862279653,9.113286627322434,0.3077542455187067
1789225105174454300,6.654454345703125,3.587238309535384,9.122763480719923,0.2779898429065943
1789225105184493000,6.6644931640625,3.591221533952653,9.122313398864865,0.23851698836451396
1789225105194532000,6.674531982421875,3.6071778124973175,9.117068483948707,0.1941710478933528
1789225105204571100,6.684571044921875,3.609862521536648,9.116770962306857,0.15417711035292594
1789225105214609200,6.694609130859375,3.599288520552218,9.121507343178987,0.11667673406074754
1789225105224648200,6.704648193359375,3.58883113168478,9.12605141634941,0.07653431426060851
1789225105234687000,6.71468701171875,3.576119241888821,9.131307437181473,0.031151644302986094
1789225105244726000,6.72472607421875,3.55674351028949,9.138919081228972,-0.009970750419743126
1789225105254763800,6.734763671875,3.5601313991621133,9.137510967996716,-0.041673063433519564
1789225105264802800,6.744802734375,3.596621054908633,9.122986183559894,-0.07643253438656683
1789225105274841900,6.754841796875,3.6200396321579813,9.113293057063222,-0.1165216987626627
1789225105284881000,6.764880859375,3.621840251839161,9.111986066117883,-0.15610194093566387
1789225105294919000,6.7749189453125,3.6259827584713697,9.109350456917285,-0.20583938345313071
1789225105304958000,6.7849580078125,3.6437165680825707,9.100828712287544,-0.2619644994474016
1789225105314997000,6.7949970703125,3.6778368643492456,9.085434159278869,-0.31433471988756206
1789225105325034800,6.80503466796875,3.7014763908728954,9.073846597337722,-0.36712420691940933
1789225105335074000,6.815073974609375,3.696494218546152,9.074159316548705,-0.40736050184834743
1789225105345112800,6.82511279296875,3.660376610982418,9.087003600552677,-0.4453974601021036
1789225105355152000,6.83515185546875,3.625504327304661,9.099301356589793,-0.478344401740469
1789225105365190000,6.84518994140625,3.6140056126907467,9.102542530468106,-0.5030584621604531
1789225105375229000,6.85522900390625,3.625653380386531,9.096040893489121,-0.5357832489481196
1789225105385268000,6.86526806640625,3.630939504095912,9.091858054846524,-0.5698970058761537
1789225105395306800,6.875306640625,3.6030189392521974,9.100881319257617,-0.6021619200671091
1789225105405345000,6.885344970703125,3.586424947325885,9.105632897698879,-0.628808044528216
1789225105415383800,6.8953837890625,3.6079721777454017,9.094580757808684,-0.6644814885210245
1789225105425422800,6.9054228515625,3.64478156696558,9.077543113768101,-0.6958168302442878
1789225105435462000,6.9154619140625,3.6665433169186112,9.067636052259802,-0.7105095916591584
1789225105445500000,6.9255,3.674466511133313,9.063933106088637,-0.7167989741269498
1789225105455539000,6.9355390625,3.706919750970602,9.050646923536062,-0.717581575872004
1789225105465577700,6.94557763671875,3.762466866147518,9.02737476902008,-0.7216109044533222
1789225105475617000,6.955616943359375,3.7882510034844277,9.016136751168967,-0.727194769000262
1789225105485654800,6.96565478515625,3.762535839730501,9.02664528570175,-0.7303378893315792
1789225105495693800,6.97569384765625,3.7335730723574754,9.038454965960979,-0.7329135119732468
1789225105505733000,6.985733154296875,3.724802613663673,9.041208064061403,-0.7434935043070465
1789225105515772000,6.99577197265625,3.7258296186238526,9.040153586572409,-0.7511388314284384
1789225105525810000,7.005809814453125,3.693805125592649,9.053329879009723,-0.7506180224247276
1789225105535849000,7.015848876953125,3.6267788772851226,9.081268271771073,-0.7398832779206335
1789225105545888000,7.025887939453125,3.5828140633523464,9.09996186632514,-0.7242458560667931
1789225105555925800,7.03592578125,3.582943534950912,9.100297381889819,-0.7193513620235026
1789225105565965000,7.045965087890625,3.59662690012753,9.094577835199237,-0.7234069210246205
1789225105576003800,7.05600390625,3.582756780207157,9.099736240875721,-0.7273433836907148
1789225105586043000,7.06604296875,3.5639103331789372,9.107673463615775,-0.7205565730948
1789225105596081000,7.076080810546875,3.5702144017592072,9.105698364150523,-0.7142971473738551
1789225105606120000,7.086119873046875,3.6063892924681302,9.09211056830287,-0.7055999731119722
1789225105616159000,7.096158935546875,3.6506048662915824,9.075233667781948,-0.6954260042957962
1789225105626197800,7.10619775390625,3.6793691884830593,9.064217183727026,-0.6874439925659448
1789225105636236000,7.116236083984375,3.694783615235984,9.058211221310495,-0.6839410990115254
1789225105646274800,7.12627490234375,3.704412736585736,9.053998572051524,-0.6876177416976541
1789225105656313900,7.13631396484375,3.70730524315685,9.05251622453928,-0.691525270530209
1789225105666353000,7.146352783203125,3.695369598430395,9.057350220566988,-0.6921336116869002
1789225105676391000,7.156390869140625,3.6747625714704393,9.065992961227893,-0.6886643281411379
1789225105686430000,7.166429931640625,3.6526311114221808,9.0752137940377,-0.6849649621665478
1789225105696468700,7.17646875,3.61819546559602,9.08897694645226,-0.6852244898855686
1789225105706508000,7.186508056640625,3.573930207411945,9.106533645930886,-0.6844380887482315
1789225105716545800,7.1965458984375,3.54559989272356,9.117541362157464,-0.6852393951937555
1789225105726584800,7.206584716796875,3.548936343669891,9.11635302915573,-0.6837730489682405
1789225105736624000,7.2166240234375,3.5601647169098256,9.112174866688251,-0.6811056563898921
1789225105746662000,7.226661865234375,3.547741288666427,9.117551883551478,-0.6739293350197374
1789225105756701000,7.236700927734375,3.5270772708222267,9.126645875111222,-0.6591447306029499
1789225105766740000,7.246739990234375,3.5354523004576563,9.124549195092916,-0.6430883526846766
1789225105776779000,7.256779052734375,3.5878134790748355,9.1051272862643,-0.628197730610147
1789225105786816800,7.266816650390625,3.6265929993242025,9.09024535895288,-0.6210036543875932
1789225105796855800,7.276855712890625,3.6127725637644525,9.096304512861371,-0.6127922178160399
1789225105806894800,7.286894775390625,3.5782471938282248,9.11029504429102,-0.6074989337135106
1789225105816934000,7.296933837890625,3.557551319541037,9.118262077647447,-0.6095199912123381
1789225105826972000,7.306971923828125,3.573625671507418,9.112783938497305,-0.5972935468457639
1789225105837011000,7.317010986328125,3.6162691737085577,9.097119336375593,-0.5791360684623942
1789225105847050000,7.327050048828125,3.6217245165050027,9.096244307106733,-0.558420758822374
1789225105857088800,7.3370888671875,3.564505960984528,9.120556910586357,-0.5292838404588401
1789225105867127000,7.347126953125,3.5168092670470474,9.140890673562884,-0.49653322511017317
1789225105877165800,7.357165771484375,3.517097728599608,9.141675101938842,-0.479780243229866
1789225105887204900,7.367204833984375,3.5362343907460567,9.134596541854739,-0.4739069672822952
1789225105897243000,7.377242919921875,3.5071187708988782,9.146187610927223,-0.46665367168579247
1789225105907282000,7.387281982421875,3.4522423945903777,9.168065680736303,-0.44607141384091226
1789225105917321000,7.397321044921875,3.425212348845601,9.179493668201566,-0.4185757598783821
1789225105927359700,7.40735986328125,3.4412408158436416,9.17465382695496,-0.3924096374865621
1789225105937398000,7.41739794921875,3.4711432021543382,9.163982795336842,-0.37811431442406024
1789225105947436800,7.427436767578125,3.4605770922154186,9.168473092493414,-0.3658995239626616
1789225105957475800,7.437475830078125,3.427403136888146,9.181391610777377,-0.35405016928017136
1789225105967515000,7.447514892578125,3.4199586661010977,9.184360397455096,-0.3490020555777475
1789225105977553000,7.457552978515625,3.4612373096898197,9.169309543317556,-0.33759931215159594
1789225105987592000,7.467592041015625,3.5216508618593214,9.146517865794896,-0.3310210297398269
1789225105997630700,7.477630615234375,3.537304358065128,9.140651019588113,-0.32610410466901957
1789225106007670000,7.487669921875,3.5239895339399574,9.146151955091952,-0.31586583844497795
1789225106017707800,7.497707763671875,3.5238644462555646,9.146309776002168,-0.312738025280647
1789225106027746800,7.507746826171875,3.5349253539741037,9.141966778361796,-0.31485512703247365
1789225106037786000,7.5177861328125,3.5446745945721863,9.138328714120387,-0.31081549625284965
1789225106047825000,7.527824951171875,3.5373522888600823,9.141239633131027,-0.30863270885366945
1789225106057863000,7.53786279296875,3.495899750009179,9.157014125367999,-0.31328890062905845
1789225106067902000,7.54790185546875,3.4219638684436675,9.184660841706394,-0.32020967633556574
1789225106077941000,7.55794091796875,3.351426689405739,9.210250625514984,-0.33108466956056654
1789225106087978800,7.567978759765625,3.31175635779649,9.224463859784603,-0.3345686026861891
1789225106098018000,7.57801806640625,3.3211154300332066,9.221017518723011,-0.3367932199331
1789225106108056800,7.588056884765625,3.3764337048903106,9.200696615228056,-0.3424556296089664
1789225106118096000,7.598095947265625,3.386989293435216,9.196691471239923,-0.34579350532740355
1789225106128134000,7.6081337890625,3.360780208684504,9.206634773105382,-0.3367774743746966
1789225106138173000,7.6181728515625,3.3500109773889184,9.210613613608478,-0.33525092239454385
1789225106148212000,7.6282119140625,3.381729473210871,9.198636760088801,-0.34547578114774075
1789225106158250800,7.638250732421875,3.4539065284103154,9.171553522852063,-0.35146439057067036
1789225106168289000,7.6482890625,3.5173774223238228,9.14690072763264,-0.3642008668186143
1789225106178327800,7.658327880859375,3.536661383986473,9.13929317523837,-0.36843072294071316
1789225106188366800,7.668366943359375,3.535852113430202,9.139943748101592,-0.3599716682836413
1789225106198404900,7.67840478515625,3.5479712980300184,9.135496121042966,-0.3535376531807706
1789225106208444000,7.68844384765625,3.5655955097869034,9.12871975877583,-0.3512665664436295
1789225106218483000,7.69848291015625,3.557161443440616,9.13215148679018,-0.34756098992396145
1789225106228521700,7.708521728515625,3.51993821272254,9.146598529815673,-0.3466232341498136
1789225106238560500,7.718560546875,3.46896731941998,9.165820532158017,-0.352671720533818
1789225106248599300,7.728599365234375,3.4335382786422968,9.178958246150613,-0.35764958201162517
1789225106258638300,7.738638427734375,3.4148286097362637,9.185755066683887,-0.36228195452000944
1789225106268677400,7.748677490234375,3.3804797654107213,9.198331055140494,-0.36532011663950975
1789225106278715400,7.75871533203125,3.33466815456748,9.215338304042815,-0.35767237836532295
1789225106288754400,7.76875439453125,3.318994492356479,9.221344850981234,-0.3484969555998221
1789225106298793200,7.778793212890625,3.346512613879144,9.211476367917657,-0.3463085787100717
1789225106308832500,7.78883251953125,3.390097780844569,9.195428319436312,-0.34888599145002663
1789225106318870300,7.798870361328125,3.415594333411753,9.185888337674736,-0.35149358013253656
1789225106328909300,7.808909423828125,3.4287063284412023,9.18103212981522,-0.3507255549021065
1789225106338948600,7.818948486328125,3.467795937553048,9.166565213045477,-0.3447898812428117
1789225106348986400,7.828986328125,3.5306995529726146,9.142582279911636,-0.34311811210568993
1789225106359025400,7.839025390625,3.56530383336395,9.129250504651665,-0.34026688739303496
1789225106369064400,7.849064453125,3.55856225014925,9.132267222124337,-0.32973807725720106
1789225106379103500,7.859103515625,3.554121052831411,9.134422938853502,-0.3177088724957779
1789225106389141200,7.869141357421875,3.563105154275894,9.13093685030341,-0.31729419074766335
1789225106399180300,7.87918017578125,3.5630873263582585,9.130798318615556,-0.3214114168081432
1789225106409219600,7.889219482421875,3.5298452742308375,9.14364026453197,-0.323140030699037
1789225106419258400,7.89925830078125,3.46926601010561,9.166721864911914,-0.3252698823345825
1789225106429296400,7.90929638671875,3.422821069794893,9.184133602961897,-0.3261530949098989
1789225106439335400,7.91933544921875,3.4141476417347785,9.187425045722723,-0.3243556900991127
1789225106449374500,7.92937451171875,3.409922717516124,9.18875191041231,-0.3311466288808733
1789225106459412200,7.939412109375,3.3791415025442837,9.200113846904038,-0.33120979377757753
1789225106469451500,7.949451416015625,3.3627199445754288,9.20658216613531,-0.31835601129289715
1789225106479490300,7.959490234375,3.3914734531119466,9.196371153244376,-0.30831874753367156
1789225106489529300,7.969529296875,3.4409444632455704,9.178209473609924,-0.301256115671061
1789225106499567600,7.979567626953125,3.4777556060314176,9.164659671685099,-0.29090045187873764
1789225106509606400,7.9896064453125,3.495803011636436,9.158190767931938,-0.27800633738366887
1789225106519645400,7.9996455078125,3.5126465944096443,9.151966778850555,-0.2705830920477398
1789225106529684200,8.009684326171875,3.5565073634460567,9.135138393646479,-0.2662543421284295
1789225106539722500,8.019722412109376,3.6119881353884935,9.113397686481475,-0.2644316384796053
1789225106549761300,8.02976123046875,3.628510815644264,9.107077835810184,-0.25580687186680734
1789225106559800300,8.03980029296875,3.6003076344668865,9.118731448724866,-0.23855156648755071
1789225106569838300,8.04983837890625,3.563450022190809,9.133662475875019,-0.22006595212835817
1789225106579877400,8.05987744140625,3.5426778677970168,9.142119923096894,-0.20362685850281267
1789225106589916400,8.06991650390625,3.5225589166149494,9.150157099080085,-0.19131993277855217
1789225106599955200,8.079955078125,3.4827971073299646,9.165653943419455,-0.17689099166532976
1789225106609993500,8.089993408203124,3.4227588182136413,9.18851108739376,-0.1623720524474047
1789225106620032300,8.1000322265625,3.372223685979843,9.207449596619606,-0.14623435292122886
1789225106630071300,8.1100712890625,3.367952876792848,9.209245832386612,-0.13062029367666692
1789225106640110600,8.120110595703125,3.4024379147186874,9.196738232991098,-0.11749904676168225
1789225106650148400,8.1301484375,3.4307132843494412,9.186425513291358,-0.10090616908022201
1789225106660187400,8.1401875,3.437211414197087,9.184245246642828,-0.07483894048561342
1789225106670226400,8.150226318359374,3.4542417517140507,9.178040546783805,-0.04652826207946054
1789225106680264400,8.160264404296875,3.5045091729223725,9.159046507978438,-0.025550216699892186
1789225106690303200,8.17030322265625,3.5646178969264026,9.135853848439455,-0.006661208600757527
1789225106700342500,8.180342529296874,3.605479484146833,9.119789433345199,0.018282530676788884
1789225106710381600,8.190381591796875,3.6138618203058837,9.11639277664423,0.04206535981989
1789225106720419300,8.20041943359375,3.6023622289091346,9.120840403702855,0.06040276591400615
1789225106730458600,8.210458740234374,3.590718845127523,9.125337130600213,0.07300771103703882
1789225106740497400,8.220497314453125,3.5986014150708914,9.122093034112453,0.08873744625025429
1789225106750535400,8.230535400390625,3.603558745217323,9.120008044531941,0.1010646475775633
1789225106760574500,8.240574462890624,3.5806457794025537,9.128792239490151,0.12051202877415343
1789225106770613500,8.250613525390625,3.539250231435895,9.14457023885846,0.14470090540940872
1789225106780652300,8.26065234375,3.50387058275789,9.157861097586155,0.16384292871756478
1789225106790690300,8.270690185546876,3.482611229369044,9.165806503632664,0.17258962294328956
1789225106800729600,8.2807294921875,3.458974040932953,9.174694743487239,0.17568589019188657
1789225106810768400,8.290768310546875,3.4303359754696485,9.185425980859995,0.1764084323127754
1789225106820807400,8.300807373046876,3.416265364541113,9.190606598368287,0.1796489486039616
1789225106830845400,8.310845458984375,3.437871631671488,9.182173116543888,0.1978145189622417
1789225106840884500,8.320884521484375,3.493003444045782,9.160935682725906,0.2158235835845582
1789225106850923300,8.33092333984375,3.526087967523932,9.148030608445405,0.22499579147966578
1789225106860961500,8.34096142578125,3.529416235163808,9.146348354446888,0.24068083360120654
1789225106871000300,8.351000244140625,3.5367236355677245,9.143391842728853,0.24570934755401685
1789225106881039400,8.361039306640626,3.5668487247183918,9.13187091628313,0.2385941452539526
1789225106891078400,8.371078369140625,3.609078969943523,9.11545871066451,0.2310044755762443
1789225106901116400,8.381116455078125,3.6391052748948334,9.103706898072362,0.22322047063652425
1789225106911155500,8.391155517578126,3.662646309480071,9.094262777900695,0.2231630596271716
1789225106921194200,8.4011943359375,3.691734456798434,9.082498690348864,0.2229298536594957
1789225106931233300,8.4112333984375,3.692575583797693,9.08235431344211,0.21476258502323178
1789225106941271300,8.421271240234375,3.6467592967793343,9.100922820311784,0.21154185114474966
1789225106951310300,8.431310302734374,3.5959032620280977,9.12111103733778,0.212573367883265
1789225106961349400,8.441349365234375,3.5783708202078937,9.127982676672936,0.2134628823352046
1789225106971387400,8.451387451171875,3.575149227812886,9.12925868795812,0.21293326897053047
1789225106981426400,8.461426513671874,3.5240900717049835,9.149201405790448,0.20807541714319958
1789225106991465200,8.47146533203125,3.455453173330426,9.17543591724336,0.2039775351040065
1789225107001504500,8.48150439453125,3.4249268099024888,9.187088945636154,0.1940614317727275
1789225107011542300,8.491542236328126,3.4503362687081096,9.177810245159268,0.18261221885634585
1789225107021581300,8.501581298828125,3.5230285799533125,9.150518918129801,0.16327020686352625
1789225107031620600,8.51162060546875,3.5734567446812986,9.1313115288347,0.14126345090717077
1789225107041659400,8.521659423828124,3.562854978907108,9.135459296163916,0.14086087058880364
1789225107051697400,8.531697509765625,3.5597803937673564,9.1363670586586,0.15855664061140268
1789225107061736400,8.541736328125,3.59674760389775,9.12178148394525,0.1640114719511941
1789225107071775500,8.551775390625,3.6251460153862833,9.110876643571258,0.14365344218309037
1789225107081813200,8.561813232421875,3.61425081962347,9.115674983763695,0.10968303924850188
1789225107091852500,8.5718525390625,3.5914503742724655,9.125023826867341,0.07620381279776338
1789225107101891300,8.581891357421876,3.5821237430006265,9.128836663153766,0.05574151437100954
1789225107111930400,8.591930419921875,3.5982092008829114,9.122572342061996,0.04421955131224822
1789225107121968400,8.601968505859375,3.608018062713742,9.118710405936836,0.0412547649562126
1789225107132007400,8.61200732421875,3.570818212871253,9.133362616145611,0.03628907569010043
1789225107142046500,8.62204638671875,3.51703693832308,9.154247583264112,0.024096113468019757
1789225107152084200,8.632084228515625,3.496828555291891,9.162005942305923,-0.015046353775647002
1789225107162123500,8.64212353515625,3.522251750361919,9.152032829824089,-0.06657316621120553
1789225107172162300,8.652162353515624,3.5523040665373204,9.13998115750253,-0.11076533632618374
1789225107182201300,8.662201416015625,3.542222525244951,9.143445618742703,-0.14299425675515084
1789225107192239400,8.6722392578125,3.497575866527855,9.16033187161386,-0.16018656163448466
1789225107202278400,8.6822783203125,3.462575864817202,9.173462571343778,-0.1689055458693765
1789225107212317400,8.6923173828125,3.4713875323042274,9.17003084332943,-0.17432378979213534
1789225107222356200,8.702356201171876,3.5207384231895205,9.150826961165667,-0.19274108815547078
1789225107232394500,8.71239453125,3.551358017858863,9.138364369955658,-0.22033983716629443
1789225107242433000,8.72243310546875,3.5405730044722556,9.141688545942307,-0.2535085500628687
1789225107252472000,8.73247216796875,3.542091884602606,9.13977949745059,-0.2973573364005424
1789225107262510000,8.742510009765626,3.577825461284816,9.124248166319727,-0.34301224057842045
1789225107272549000,8.752549072265625,3.6180741773039102,9.106911247071624,-0.37960363966636357
1789225107282588200,8.762588134765625,3.6233722837120292,9.103627403095365,-0.4068653022099286
1789225107292627200,8.772627197265624,3.59942383736968,9.112422119447588,-0.42227128992807117
1789225107302665200,8.782665283203125,3.5762063356503844,9.120603672337532,-0.44242154956385493
1789225107312704000,8.7927041015625,3.5677278456404804,9.122430887764692,-0.47218328529484566
1789225107322743300,8.802743408203124,3.5564100405514236,9.124917443883419,-0.5081348886419087
1789225107332781000,8.812781005859375,3.540379819987714,9.12888693203628,-0.5472786025611683
1789225107342820000,8.822820068359375,3.531561722759902,9.12976488391459,-0.5880859388437122
1789225107352859100,8.832859130859376,3.5173081564798947,9.132548377153277,-0.6288727803274988
1789225107362898200,8.842898193359375,3.4963708746522664,9.138644940462708,-0.6564541032794863
1789225107372936200,8.852936279296875,3.4893992820739745,9.139864253124594,-0.6762818164300173
1789225107382975000,8.86297509765625,3.4952784032404423,9.135994718214869,-0.6978715708170086
1789225107393014300,8.87301416015625,3.5016952845454212,9.13204101215303,-0.7171779635071754
1789225107403052000,8.883052001953125,3.50340471881181,9.129320647278428,-0.7430009715497493
1789225107413091000,8.893091064453126,3.5179537609070537,9.121075381502509,-0.774835860292986
1789225107423130000,8.903130126953124,3.5657656056568023,9.099742086094617,-0.8064746419422328
1789225107433169200,8.913169189453125,3.626064007014036,9.073229342222213,-0.8357979131907224
1789225107443207200,8.923207275390626,3.654076926316321,9.060349986904859,-0.85332180637829
1789225107453246200,8.93324609375,3.6418133648097513,9.064683632194996,-0.8597092423930763
1789225107463285200,8.94328515625,3.636936990945041,9.06609349899292,-0.8654619607008993
1789225107473323000,8.953322998046875,3.654257543580234,9.057163758084178,-0.8857523229271173
1789225107483362300,8.9633623046875,3.661812196743488,9.05143135191202,-0.912739040986821
1789225107493401000,8.973401123046875,3.646251054996252,9.056230276626348,-0.9273270999182015
1789225107503440100,8.983440185546876,3.6154900060296056,9.06743322316408,-0.9382357396844774
1789225107513478100,8.99347802734375,3.593737608426809,9.07489289152026,-0.9496091474182903
1789225107523517200,9.00351708984375,3.582568271897733,9.07868059336543,-0.9555999853309244
1789225107533556200,9.01355615234375,3.575861759996414,9.08164587291181,-0.9525312454100697
1789225107543595000,9.023594970703124,3.5654224913075563,9.08602920256257,-0.9498516509372741
1789225107553633300,9.03363330078125,3.534227142576873,9.09802066912949,-0.9516498594656586
1789225107563672000,9.043672119140625,3.514782437394559,9.10592983481884,-0.94801756737791
1789225107573711000,9.053711181640624,3.5294594897836444,9.100776105317474,-0.9429675905119627
1789225107583749000,9.0637490234375,3.5596292948588726,9.089080991348624,-0.9423539886582643
1789225107593788200,9.0737880859375,3.5735458842694756,9.083952980810404,-0.9391253089353442
1789225107603827200,9.0838271484375,3.5874344166293737,9.079797614696622,-0.9262657542970031
1789225107613866000,9.093865966796875,3.617982699628174,9.06933701095879,-0.9097943658370524
1789225107623904300,9.103904296875,3.6557179715216157,9.056198712444305,-0.8896039568539709
1789225107633943000,9.113943115234376,3.674337624056637,9.050740447038411,-0.8681666165497154
1789225107643982000,9.123982177734375,3.677517130875587,9.050921648824215,-0.852684458322823
1789225107654020000,9.13402001953125,3.6771012435510753,9.051130323138832,-0.8522662329107522
1789225107664059100,9.14405908203125,3.6586996176809072,9.058029435002803,-0.8581373899664729
1789225107674098200,9.15409814453125,3.6298464481621977,9.06965440634489,-0.8578829768139868
1789225107684137200,9.16413720703125,3.6123142986029384,9.076537736117839,-0.8590785432741045
1789225107694175200,9.17417529296875,3.591241992218792,9.086060182222724,-0.8466962507586926
1789225107704214000,9.184214111328124,3.5559313171237705,9.102842974719405,-0.8148650883425027
1789225107714253300,9.19425341796875,3.5250320287302133,9.11793708347678,-0.7795836393419653
1789225107724291000,9.204291015625,3.514680730585754,9.12381386655569,-0.757255341547355
1789225107734330000,9.214330078125,3.517412201376259,9.124166333255172,-0.7401219820473343
1789225107744369200,9.224369140625,3.520305000208318,9.124624013894795,-0.7204670681804418
1789225107754408200,9.234408203125,3.5225364125221965,9.12551131812334,-0.6979747389305383
1789225107764446200,9.2444462890625,3.542201774717867,9.120068834808468,-0.6689809188321233
1789225107774485000,9.254485107421875,3.584645954954624,9.105944447866081,-0.634406522122398
1789225107784524300,9.264524169921875,3.6206115868270397,9.094295511126518,-0.5960986745053902
1789225107794562000,9.27456201171875,3.6432246929123995,9.087643652021884,-0.558593667703867
1789225107804601000,9.28460107421875,3.6600045627996325,9.08248641538918,-0.5321539890676736
1789225107814640000,9.29464013671875,3.674330609793961,9.07814049513936,-0.5070127162115649
1789225107824679200,9.30467919921875,3.6930636595755812,9.07205796035528,-0.47900140434447674
1789225107834717000,9.314717041015625,3.698616325266659,9.071113957503437,-0.45333808037564155
1789225107844756200,9.324756103515625,3.6628964848488565,9.08696209949851,-0.4250933250788599
1789225107854795300,9.334795166015626,3.604797054840624,9.111446552413701,-0.39669984549377113
1789225107864833000,9.3448330078125,3.563006370076537,9.128954736575484,-0.3709097168074921
1789225107874872300,9.354872314453125,3.5501425045892594,9.134901077759265,-0.3470530404018238
1789225107884911000,9.3649111328125,3.5349922817304726,9.14147461093068,-0.328096337932162
1789225107894950100,9.3749501953125,3.492468314255774,9.158567784550785,-0.30607025622082873
1789225107904988200,9.38498828125,3.476130050656199,9.165831053552031,-0.2728695407507941
1789225107915027200,9.395027099609376,3.5111844129025935,9.153279030492902,-0.24383126045614478
1789225107925066200,9.405066162109375,3.561118948894739,9.134383191365004,-0.2277388065774925
1789225107935104300,9.415104248046875,3.575525952170789,9.129106127744912,-0.21308893445627763
1789225107945143300,9.425143310546876,3.572349660222232,9.130651019099354,-0.19979186518350614
1789225107955182000,9.43518212890625,3.5950700260743496,9.122101801940799,-0.18195779180191457
1789225107965221000,9.44522119140625,3.675777885992825,9.090493780755995,-0.14818070121603086
1789225107975259100,9.455259033203125,3.751224464382231,9.059966540545224,-0.12534231674112378
1789225107985298200,9.465298095703124,3.7400887378618117,9.064597707477212,-0.12323671363084576
1789225107995337200,9.475337158203125,3.7045021684348582,9.079346363797784,-0.11188148087454028
1789225108005375200,9.485375244140625,3.6844641735345123,9.08741101230979,-0.11857621100652031
1789225108015414300,9.495414306640624,3.6849414356574415,9.08709244787991,-0.12782399575533346
1789225108025453000,9.505453125,3.668612524408102,9.093668319138883,-0.12983226683782412
1789225108035492000,9.5154921875,3.604900515215099,9.11909326777458,-0.13127238264353944
1789225108045530000,9.525530029296876,3.54351139601171,9.14311594839692,-0.13167731018261983
1789225108055569200,9.535569091796875,3.5324060646295545,9.147250271722674,-0.14253915166510267
1789225108065608200,9.545608154296875,3.5550796687304973,9.138084968492388,-0.1648959266355261
1789225108075646200,9.555646240234376,3.553767124827206,9.138197196695208,-0.18566040917951612
1789225108085685200,9.565685302734375,3.529997249922156,9.147301125127077,-0.19075745832389218
1789225108095724000,9.57572412109375,3.53422334318459,9.145614194953442,-0.19335229712268337
1789225108105763000,9.58576318359375,3.5737232866629958,9.130033763983846,-0.20336026172218843
1789225108115801000,9.595801025390625,3.600882804006338,9.118976947918533,-0.2197600462506525
1789225108125840100,9.605840087890625,3.602731062221527,9.117890321725607,-0.23408954557739198
1789225108135879000,9.61587890625,3.6123178057342766,9.113546739563345,-0.25456830651517953
1789225108145917200,9.625917236328124,3.636112522819638,9.103273767352103,-0.2819347080748528
1789225108155956000,9.6359560546875,3.6576188367068765,9.093952396777272,-0.30369622056586665
1789225108165995000,9.6459951171875,3.6398134231641888,9.100489689591527,-0.3213015997581184
1789225108176034300,9.656034423828125,3.595235738030076,9.118005472537874,-0.32656646148376167
1789225108186072000,9.666072021484375,3.5615830592751503,9.130866123154759,-0.3358601038014516
1789225108196111000,9.676111083984376,3.5389556324034928,9.138853030255436,-0.35712975938860325
1789225108206150100,9.686150146484374,3.4899718212649224,9.156407391646503,-0.38820075108725577
1789225108216188200,9.696188232421875,3.446677746200561,9.171551769286394,-0.4164651974651962
1789225108226227000,9.70622705078125,3.455233393099904,9.167862267118691,-0.4266771236715838
1789225108236266200,9.716266357421874,3.506411207151413,9.14783596265614,-0.4388433622835204
1789225108246305800,9.726305908203125,3.5265561695575713,9.139975896805524,-0.44114919154047966
1789225108256343600,9.736343505859375,3.511102872098982,9.145866708409786,-0.44232616289798166
1789225108266382600,9.746382568359374,3.503229362244904,9.148080292806029,-0.458674399902299
1789225108276421600,9.756421630859375,3.5322947132095694,9.135791304597259,-0.4802218129849061
1789225108286459600,9.766459716796875,3.5827328148096798,9.115433576223253,-0.4932480659596622
1789225108296498400,9.77649853515625,3.6203415377140042,9.100005120944976,-0.5034052297715097
1789225108306537700,9.786537841796875,3.642599254490435,9.090702455070614,-0.5108696473680436
1789225108316576800,9.79657666015625,3.653074471275508,9.085967827764152,-0.5202140700249
1789225108326614500,9.806614501953124,3.6465801408201455,9.088021837684511,-0.5298005943419412
1789225108336653800,9.81665380859375,3.63191214852035,9.093623310953378,-0.5344115587361157
1789225108346692600,9.826692626953125,3.6394852141231295,9.090292705225943,-0.5395598814100027
1789225108356730600,9.836730712890626,3.649968029692769,9.085435328322648,-0.5504378703096882
1789225108366769700,9.846769775390625,3.6249051923677325,9.094789432123303,-0.5614805117191747
1789225108376808700,9.85680859375,3.5798669039845463,9.11210063240826,-0.569712041230686
1789225108386847700,9.86684765625,3.540790446615219,9.126721862956881,-0.5797723570719361
1789225108396885800,9.8768857421875,3.518591182027757,9.134790603122115,-0.5878008382920176
1789225108406924800,9.8869248046875,3.528201306416094,9.131336078754067,-0.5838596263855695
1789225108416963600,9.896963623046876,3.55587578754425,9.120983027043938,-0.5777747535139321
1789225108427001600,9.907001708984374,3.547565347577631,9.124600633019208,-0.5717020094715058
1789225108437040600,9.91704052734375,3.524107607361674,9.13429375951588,-0.5618974584896117
1789225108447079700,9.92707958984375,3.5233658490836617,9.134762546071409,-0.5589297677904367
1789225108457117400,9.937117431640624,3.5494600752830503,9.124852561953663,-0.5556844291936606
1789225108467156700,9.94715673828125,3.5898908698707817,9.109777157896756,-0.5431792044183239
1789225108477195800,9.95719580078125,3.634167233970761,9.092922469207643,-0.5310264828750864
1789225108487234600,9.967234619140624,3.653729428052902,9.08548851981461,-0.5239619147837161
1789225108497272800,9.97727294921875,3.646110769742727,9.088887514603137,-0.5180698610704392
1789225108507311600,9.9873115234375,3.65019920810014,9.087695674470066,-0.5101292773295194
1789225108517350700,9.9973505859375,3.6825863969638943,9.075496702632307,-0.4942864325640723
1789225108527388700,10.007388671875,3.6943034305036067,9.072301121461392,-0.4645974332757294
1789225108537427700,10.017427734375,3.6536791591703888,9.089719289252162,-0.4449830340823158
1789225108547466800,10.027466796875,3.587840951603651,9.116292238879204,-0.4370340843718499
1789225108557505500,10.037505615234375,3.5252962326243518,9.140755649006366,-0.4350342157915234
1789225108567543800,10.047543701171875,3.488702239720523,9.155272834658621,-0.4246367769503966
1789225108577582600,10.05758251953125,3.491007594053447,9.155787798443436,-0.39343645978365094
1789225108587621600,10.06762158203125,3.5168706418454647,9.147093619856237,-0.36426980386897917
1789225108597659600,10.07765966796875,3.495865555478632,9.155881906467675,-0.3451508235096931
1789225108607698700,10.08769873046875,3.426236138935387,9.18280615375042,-0.32765604681875554
1789225108617737500,10.097737548828125,3.3679920397594567,9.205108586451411,-0.3049450881158002
1789225108627775700,10.107775634765625,3.3588635614082216,9.209558551597596,-0.26915610971823334
1789225108637814800,10.117814697265626,3.4264904059574004,9.185874893671274,-0.22191134253302588
1789225108647853600,10.127853515625,3.5437469583332537,9.142001265153288,-0.18983100939504802
1789225108657892600,10.137892578125,3.618601708309352,9.11322174539268,-0.1590045853083022
1789225108667930600,10.1479306640625,3.6364988917887207,9.106685037100315,-0.12066455245474353
1789225108677969700,10.1579697265625,3.6749241917729374,9.091633013918996,-0.08669981207596138
1789225108688008400,10.168008544921875,3.7500367159023877,9.061071871438623,-0.06766914475436787
1789225108698046700,10.178046630859376,3.804386145727336,9.03843275412917,-0.06129084189410787
1789225108708085500,10.18808544921875,3.789394328300655,9.04477715471983,-0.05368101534435991
1789225108718124500,10.19812451171875,3.7394004633367057,9.065593148255347,-0.0479802418529056
1789225108728163800,10.208163818359376,3.6821757703363893,9.088985714280605,-0.04810911066327244
1789225108738201600,10.21820166015625,3.6333936192497607,9.108640847343207,-0.03878178070511203
1789225108748240600,10.22824072265625,3.6018288526847955,9.121241385719179,-0.01316749949279474
1789225108758279700,10.23827978515625,3.5646740110278126,9.135834559217095,0.004214198755718826
1789225108768317700,10.248317626953124,3.5101842959493395,9.156901897165179,0.012055415773269487
1789225108778356500,10.2583564453125,3.47000279994756,9.172182468405365,0.02315601732302457
1789225108788395500,10.2683955078125,3.466473164516687,9.173480691522359,0.034843559906771404
1789225108798433500,10.27843359375,3.495248592624068,9.162555392882227,0.034535596786008683
1789225108808472600,10.28847265625,3.526758121870458,9.15048267777264,0.031747872613486834
1789225108818511600,10.29851171875,3.5508500683367252,9.141126820406317,0.04075405345903709
1789225108828550700,10.308550537109374,3.57929144218415,9.129984079623222,0.049611669846484435
1789225108838588700,10.318588623046875,3.6126474760800598,9.116827660930156,0.05132754298681393
1789225108848627500,10.32862744140625,3.6548493719935413,9.099987585288286,0.05171357859575655
1789225108858666800,10.338666748046874,3.697288583794236,9.082862847486139,0.045394353545550256
1789225108868704500,10.34870458984375,3.7175042733490464,9.074656160154937,0.03398964877446415
1789225108878743600,10.35874365234375,3.7072649111464617,9.07888809863627,0.019024104008422
1789225108888782800,10.368782958984376,3.6896693409621713,9.086070703616738,0.006120264987071277
1789225108898821600,10.378821533203125,3.680872578783333,9.08963161096871,-0.012258775733597576
1789225108908859600,10.388859619140625,3.666508537866175,9.095394412279129,-0.0301161774751381
1789225108918898700,10.398898681640626,3.6300685664802788,9.109960697770118,-0.03994867819317151
1789225108928937700,10.408937744140625,3.5678190310552713,9.134466777995229,-0.05055777789044659
1789225108938975500,10.4189755859375,3.4949846809908744,9.162487003821134,-0.06561884746132418
1789225108949014800,10.429014892578126,3.4419390272408723,9.182387051555514,-0.08490326578170061
1789225108959053800,10.4390537109375,3.422461004310846,9.189455674767494,-0.10511694604251533
1789225108969092600,10.449092529296875,3.425057742805779,9.188290722641348,-0.12113013327303342
1789225108979130600,10.459130615234375,3.4316906049489972,9.185590816032885,-0.13715095582073553
1789225108989169700,10.469169677734374,3.446301314103603,9.179852564641832,-0.1539498409356922
1789225108999208700,10.479208740234375,3.4928172738239165,9.162096543198823,-0.16305303871519863
1789225109009246500,10.48924658203125,3.5527304752558466,9.13893720140755,-0.16827513901134952
1789225109019285800,10.49928564453125,3.5872523380607366,9.125330116337537,-0.17422471333183348
1789225109029324500,10.509324462890625,3.597331833526492,9.121133833691477,-0.18575312896426766
1789225109039362600,10.519362548828125,3.5842946572989223,9.125852678906917,-0.20502874292368067
1789225109049401900,10.52940185546875,3.5785502684280273,9.127727825129032,-0.2212859589099884
1789225109059440600,10.539440673828125,3.610554595454037,9.114569652870298,-0.2426604813774116
1789225109069479700,10.549479736328125,3.6351457236140963,9.104160487058758,-0.2652410551663488
1789225109079517700,10.559517578125,3.5834622981280084,9.124194390305876,-0.2797349695408717
1789225109089556700,10.569556640625,3.5120652873903513,9.151817141246795,-0.28292096089953556
1789225109099595500,10.579595458984375,3.486850474373996,9.161109870249032,-0.2938316282261163
1789225109109633800,10.5896337890625,3.516727726243436,9.14925167467296,-0.30690785782244057
1789225109119672600,10.599672607421875,3.5497286630913614,9.135831636607646,-0.3261878739623353
1789225109129711600,10.609711669921875,3.539965978489816,9.139055859351158,-0.34158114832937714
1789225109139750000,10.61975,3.5247850682318207,9.14447846892178,-0.3532592015655711
1789225109149788700,10.62978857421875,3.537214926216006,9.139385529696941,-0.3607231077054515
1789225109159827700,10.63982763671875,3.5930768064305183,9.117514474150537,-0.3620812077835202
1789225109169866500,10.649866455078126,3.6918309029102323,9.077854079413413,-0.36514446781165893
1789225109179904800,10.65990478515625,3.7322657891511914,9.060783117625117,-0.37785380032435056
1789225109189943600,10.669943603515625,3.6954356494039295,9.075354079291223,-0.389988803547807
1789225109199982600,10.679982666015626,3.654676353514194,9.0910093290627,-0.4089890894308686
1789225109210020600,10.6900205078125,3.6227038829311726,9.101989572760463,-0.4474201250361278
1789225109220059600,10.7000595703125,3.58615489821285,9.11471227621138,-0.48154758169595147
1789225109230098700,10.7100986328125,3.5624744551569223,9.123099580806493,-0.49821653855461623
1789225109240136200,10.72013623046875,3.5437715082526204,9.129989340320229,-0.5053382436607032
1789225109250175200,10.73017529296875,3.4949575007230043,9.148240451803803,-0.5151282181279734
1789225109260214000,10.740214111328125,3.4360070068433877,9.17045988239646,-0.5166240096436813
1789225109270253000,10.750253173828124,3.4253590638399123,9.174592452156544,-0.513958772489801
1789225109280291000,10.760291015625,3.458259462922811,9.162073746845126,-0.5169499536624178
1789225109290330000,10.770330078125,3.4904870773106813,9.149432291936874,-0.5241832293841987
1789225109300369200,10.780369140625,3.504862808665633,9.143309425142407,-0.5349851573729887
1789225109310407200,10.7904072265625,3.535173483516276,9.131410897555947,-0.538762191693671
1789225109320446200,10.8004462890625,3.602051847785711,9.105037854415178,-0.5421148631224408
1789225109330485000,10.810485107421876,3.6678228353351354,9.078726770594715,-0.5423937165964394
1789225109340524300,10.820524169921875,3.6931826097801324,9.069200232836604,-0.5295115482674911
1789225109350562000,10.83056201171875,3.6847304232552647,9.073378979825973,-0.5166647435128688
1789225109360601000,10.84060107421875,3.666279113024473,9.08101108213961,-0.513829483554326
1789225109370640100,10.85064013671875,3.6340734182074663,9.093611620515585,-0.5197210988761857
1789225109380678100,10.86067822265625,3.591233224390447,9.110638158640265,-0.519314710032381
1789225109390717000,10.870717041015626,3.583150163438916,9.114410078394412,-0.508875587473996
1789225109400756200,10.880756103515624,3.585501695001125,9.113534464603662,-0.5079826572222634
1789225109410794200,10.890794189453125,3.553530393461883,9.126058430612087,-0.5077990077510476
1789225109420833000,10.9008330078125,3.514141509142518,9.141651721063255,-0.5013728836936876
1789225109430872300,10.910872314453124,3.4951676363423463,9.148793409511446,-0.5037547007963061
1789225109440911000,10.9209111328125,3.4978421162486075,9.147606830075382,-0.5067290769645943
1789225109450949000,10.93094921875,3.5114515394061803,9.142615013137458,-0.5026699742995202
1789225109460988200,10.94098828125,3.539945520223677,9.131857472279668,-0.4983349407698959
1789225109471027200,10.951027099609375,3.5645538917794823,9.122364836791157,-0.4967775917926803
1789225109481065000,10.96106494140625,3.5629943873777985,9.122985014516114,-0.4966089572275057
1789225109491104000,10.97110400390625,3.5538381442368028,9.126330817812681,-0.5007018525643274
1789225109501143300,10.981143310546875,3.5603123086869712,9.123139912816882,-0.5127073841892182
1789225109511181000,10.99118115234375,3.5726050962880254,9.11756532755494,-0.5262071364272386
1789225109521220000,11.00122021484375,3.5548923294648525,9.124143536901473,-0.5320905319100245
1789225109531259100,11.011259033203125,3.5370743487015366,9.131299253875017,-0.5280557599686085
1789225109541298200,11.021298095703125,3.553560204078257,9.124556209355593,-0.5339225696427747
1789225109551336000,11.0313359375,3.578653728802502,9.114103204402326,-0.5447528834758326
1789225109561375200,11.041375244140625,3.570620936733484,9.116957424789666,-0.5496748500479385
1789225109571414300,11.051414306640625,3.5458807554915546,9.12624021691978,-0.5557402510341256
1789225109581452000,11.0614521484375,3.5500822988346217,9.124229461619258,-0.5618945358801632
1789225109591491300,11.0714912109375,3.584334697048366,9.110009797608852,-0.5750281216869131
1789225109601530000,11.081530029296875,3.5925542438611386,9.105391490158437,-0.5964856645289808
1789225109611568000,11.091568115234375,3.5774291554436086,9.110515409043431,-0.609026764335297
1789225109621607200,11.101607177734374,3.5652082640349865,9.114687726292013,-0.6181847975745797
1789225109631646200,11.111646240234375,3.57410614850074,9.110879566180705,-0.6229078075084835
1789225109641685200,11.121685302734376,3.591971767798066,9.103850690457225,-0.622923589599505
1789225109651723300,11.13172314453125,3.5887794014975425,9.104611153435707,-0.6301696152050048
1789225109661762300,11.14176220703125,3.554134496834874,9.117048610204458,-0.6464749994482845
1789225109671801000,11.151801025390625,3.5103929702639576,9.132702106410264,-0.6642853814270347
1789225109681839000,11.161839111328124,3.4951658827766776,9.13758111062348,-0.6773596017293632
1789225109691878100,11.171878173828125,3.5233269783779977,9.126114544713497,-0.6859922593876719
1789225109701917200,11.181917236328125,3.546210133576393,9.11614903101623,-0.7004284887582063
1789225109711955000,11.191954833984376,3.536213640218973,9.11971052289009,-0.704582028241083
1789225109721994200,11.201994140625,3.5231446075484154,9.1246181686759,-0.706529070655629
1789225109732033300,11.212033203125,3.5322982203409072,9.120458710908888,-0.7144789336815476
1789225109742071000,11.222071044921876,3.565499063675105,9.107247931680083,-0.7180829495228827
1789225109752110300,11.2321103515625,3.581852232582867,9.100043699389696,-0.7279701372869313
1789225109762149000,11.242149169921875,3.5771064993605015,9.100779612448811,-0.7419624222822487
1789225109772188200,11.252188232421876,3.566726559643447,9.102952864834666,-0.7649218575872481
1789225109782226200,11.26222607421875,3.54806248344481,9.108121207383274,-0.7897846422955394
1789225109792265200,11.27226513671875,3.562495497944951,9.101952163359522,-0.7959048787415027
1789225109802304000,11.282303955078126,3.5951036360830066,9.089100280570984,-0.7961747086588293
1789225109812342300,11.29234228515625,3.568340132319927,9.099300772067904,-0.8000266348466276
1789225109822381300,11.30238134765625,3.490751573465764,9.128909728389978,-0.8050030350197106
1789225109832420000,11.312420166015626,3.4310949771434065,9.150852680128812,-0.8123207376219331
1789225109842458400,11.322458251953124,3.426064289499819,9.151992497813701,-0.820678596926853
1789225109852497200,11.3324970703125,3.459602986486256,9.138817958942056,-0.826768219038844
1789225109862536200,11.3425361328125,3.486446277487278,9.127927147093414,-0.8342819556698202
1789225109872575000,11.352574951171874,3.4874265206962822,9.127381788170338,-0.8361522065211087
1789225109882613200,11.36261328125,3.4839912855505943,9.128798669230937,-0.8350028172902763
1789225109892652000,11.372652099609375,3.4901790342748162,9.125986534419654,-0.8398797756768762
1789225109902691000,11.382691162109374,3.504126603345573,9.120714146974683,-0.8390728432081639
1789225109912729300,11.392729248046875,3.533931082239747,9.110000445258617,-0.8304299564167856
1789225109922768100,11.40276806640625,3.5589874898239966,9.100492027679085,-0.8276770044468342
1789225109932807200,11.41280712890625,3.5571059138610956,9.101529554033279,-0.8243330277811736
1789225109942845200,11.42284521484375,3.5465801359325644,9.106391607111691,-0.8159674966264515
1789225109952884200,11.43288427734375,3.552209958513081,9.105019149714709,-0.8067226253539324
1789225109962923000,11.442923095703126,3.558563419193029,9.103467828619479,-0.7961594380244612
1789225109972962000,11.452962158203125,3.525118830230832,9.116810709795356,-0.7922714176099747
1789225109983000000,11.463,3.4878283794954417,9.131577486294507,-0.7872396339878439
1789225109993039000,11.4730390625,3.4903304254442453,9.131225604116915,-0.7801947569776326
1789225110003078100,11.483078125,3.5261379441455003,9.117952281045913,-0.7743811753280461
1789225110013116200,11.4931162109375,3.53422334318459,9.115426561960577,-0.7672253852892666
1789225110023155200,11.5031552734375,3.5141909012421966,9.124425860974192,-0.7521346375327557
1789225110033194000,11.513194091796874,3.5094270478412506,9.127540193602442,-0.7364272922478616
1789225110043232300,11.523232177734375,3.5257150425583124,9.122239749106765,-0.7241891574434935
1789225110053271000,11.53327099609375,3.5492525700122117,9.113919664528966,-0.713896822944656
1789225110063310000,11.54331005859375,3.5724177570223805,9.104911013165117,-0.7133090131193399
1789225110073348000,11.55334814453125,3.577189209207892,9.102779846355318,-0.7165963642269373
1789225110083387100,11.56338720703125,3.5576489346966147,9.11094561715424,-0.7100730268727987
1789225110093426200,11.57342626953125,3.533654603385925,9.121521956226228,-0.6938958721190691
1789225110103465000,11.58346484375,3.5252746053144333,9.126078304356335,-0.6764100459195673
1789225110113503200,11.593503173828125,3.5146439057067034,9.131024528586863,-0.6648745064266026
1789225110123542000,11.6035419921875,3.472071715176105,9.14815335804224,-0.6529880346041173
1789225110133581000,11.6135810546875,3.429896999530494,9.164753779709338,-0.643016383427009
1789225110143619000,11.623619140625,3.4327462514817713,9.163782304328679,-0.6416655533399432
1789225110153658000,11.633658203125,3.4571605617702006,9.15443579931259,-0.6439881510686128
1789225110163697200,11.643697265625,3.460923713696003,9.154106128966808,-0.6282810980446636
1789225110173735200,11.653735107421875,3.4693896364852783,9.153160372549294,-0.5944634014537558
1789225110183774200,11.663774169921876,3.507670851823687,9.139972389674186,-0.5723174744887277
1789225110193813000,11.67381298828125,3.5568960705026984,9.122250855022669,-0.5508380120757967
1789225110203851300,11.683851318359375,3.594316285097599,9.108896867930888,-0.5284726336738095
1789225110213890000,11.69389013671875,3.621938451516628,9.09861805050075,-0.5168177786501125
1789225110223929000,11.70392919921875,3.648222062808275,9.088727940127253,-0.5058527690540999
1789225110233968400,11.713968505859375,3.663464347864687,9.083301238903402,-0.49299869430847465
1789225110244006400,11.72400634765625,3.663812138389051,9.084173930084704,-0.47398547587860373
1789225110254045200,11.734045166015624,3.650801265646517,9.090425976216792,-0.4540969724515453
1789225110264084200,11.744084228515625,3.6195568170771,9.10367241128087,-0.43856710262540727
1789225110274122200,11.754122314453125,3.57525385723114,9.12176219472289,-0.4258978829273954
1789225110284161300,11.764161376953124,3.524465627019107,9.142010032981634,-0.4149553408915177
1789225110294200300,11.774200439453125,3.4840117438167333,9.158116533651947,-0.40119507455378767
1789225110304238300,11.78423828125,3.4538895772755143,9.17025296164751,-0.38403851684127
1789225110314277400,11.79427734375,3.4261458303034305,9.18125483265519,-0.3694057419853285
1789225110324316200,11.804316162109375,3.4060631194785236,9.189208422008155,-0.35717005486637354
1789225110334354400,11.8143544921875,3.3999829227820038,9.191947491583228,-0.3443891184221953
1789225110344393200,11.824393310546874,3.430693995127082,9.181112209314108,-0.32846612109262496
1789225110354432300,11.834432373046875,3.5129911700636147,9.150396753054856,-0.3154723090827465
1789225110364471300,11.84447119140625,3.583134673608839,9.12338307392299,-0.30889183471389114
1789225110374509300,11.85450927734375,3.5833854334995148,9.123587072062492,-0.2998324395434931
1789225110384548400,11.86454833984375,3.5665076561957596,9.130587306213378,-0.2877323615029454
1789225110394587400,11.87458740234375,3.57716553607136,9.126739983135462,-0.27729440798833965
1789225110404625400,11.88462548828125,3.6344665091782806,9.104583680906892,-0.2599685033245943
1789225110414664200,11.894664306640625,3.6747982273057103,9.088541477644442,-0.2542909143459052
1789225110424703200,11.904703125,3.657171677461266,9.095818775171042,-0.24810513838306067
1789225110434741200,11.9147412109375,3.6314375167459247,9.106344845360518,-0.23985952554726972
1789225110444780300,11.9247802734375,3.603431903967261,9.117182465717196,-0.2502958898929879
1789225110454819300,11.9348193359375,3.5599890680819746,9.133602270120381,-0.2723622670820914
1789225110464857300,11.944857421875,3.5081820162162183,9.152857005688547,-0.2970835061615333
1789225110474896400,11.954896484375,3.461419388258457,9.170154761970043,-0.31183018972072746
1789225110484935200,11.96493505859375,3.4432717371493577,9.177187729346752,-0.30578345690239217
1789225110494974500,11.974974365234376,3.490986551265418,9.160165867397188,-0.2734488384760916
1789225110505012200,11.98501220703125,3.570881925757229,9.130224902641773,-0.24124630373055114
1789225110515051300,11.99505126953125,3.597969839169085,9.119927965033053,-0.22786133697861805
1789225110525090300,12.00509033203125,3.6080525495052336,9.115744541868567,-0.23570421423241494
1789225110535128300,12.01512841796875,3.643376668603718,9.100582628571987,-0.27496037555020303
1789225110545167000,12.0251669921875,3.6995240877613425,9.076736473560333,-0.3110621279576793
1789225110555206400,12.035206298828125,3.744387604099512,9.05751213313043,-0.3338077743815258
1789225110565244200,12.045244140625,3.763362061421573,9.048737290522455,-0.3575704158281907
1789225110575283200,12.055283203125,3.7426483592167497,9.05602101778984,-0.38914332916699346
1789225110585322500,12.065322509765625,3.7046672958686946,9.069988168343901,-0.42562103874739254
1789225110595360300,12.0753603515625,3.6539930474251507,9.088978700017929,-0.45736247705351557
1789225110605399300,12.0853994140625,3.5799715334028,9.117574095383286,-0.47330092768054455
1789225110615438300,12.095438232421875,3.485505781766772,9.15326266387999,-0.4893146355008706
1789225110625477400,12.105477294921876,3.4219618226170536,9.176440125849842,-0.5034978399584069
1789225110635515100,12.11551513671875,3.417800611284375,9.177216370919346,-0.5174304306557401
1789225110645554400,12.125554443359375,3.4394805281728504,9.168747233259678,-0.5238661262590438
1789225110655593500,12.135593505859376,3.4730580958649515,9.156829416450858,-0.5106184490859508
1789225110665631200,12.14563134765625,3.499519109550118,9.14688319197595,-0.5082167217064648
1789225110675670300,12.155670166015625,3.5288425269290804,9.134597710898518,-0.5260861038634553
1789225110685709300,12.165709228515626,3.5644846259355543,9.119565561461448,-0.5462408935438842
1789225110695747300,12.175747314453124,3.595814999222755,9.106734721460938,-0.5548873970644548
1789225110705786000,12.1857861328125,3.6262343951448797,9.09481456656456,-0.5523975164774805
1789225110715825400,12.195825439453126,3.660747782382369,9.081304512128233,-0.5470249565936625
1789225110725863200,12.20586328125,3.667172554732859,9.07931246152818,-0.5369376431476325
1789225110735902200,12.215902099609375,3.6499078239381313,9.087397568306326,-0.5174465780729428
1789225110745941500,12.22594140625,3.6207311215534803,9.100015057817101,-0.500423437481746
1789225110755979300,12.235979248046876,3.575977787591517,9.118290134698151,-0.48945353251490736
1789225110766018300,12.246018310546875,3.5165018085330724,9.141739399346708,-0.4829179567337036
1789225110776057300,12.256057373046875,3.4646669918775554,9.161522542703151,-0.4826764030627906
1789225110786096400,12.266096435546874,3.438886361671984,9.171262430950998,-0.48207189783100035
1789225110796134100,12.276134033203125,3.429654422946274,9.175340055653452,-0.4700818560361862
1789225110806173400,12.28617333984375,3.428000225998461,9.177170193690062,-0.4458295313764363
1789225110816212500,12.29621240234375,3.431346613816917,9.177192405521868,-0.4187960880981758
1789225110826250200,12.306250244140625,3.4389334156841036,9.175383894795178,-0.3955542921878397
1789225110836289300,12.316289306640625,3.451420849074423,9.171663412967323,-0.3724053256601095
1789225110846328300,12.326328369140626,3.473972288100421,9.164175687560439,-0.3461156134212389
1789225110856366300,12.336366455078124,3.515506660015881,9.149422355064749,-0.31572051169015464
1789225110866405400,12.3464052734375,3.5731223981603977,9.128219992560147,-0.2806531255654059
1789225110876444400,12.3564443359375,3.609097966904938,9.114628105059266,-0.2614470331782475
1789225110886482200,12.366482177734374,3.6211154446959495,9.110008044043182,-0.2562367511840537
1789225110896521200,12.376521240234375,3.6447166850358244,9.100959645190834,-0.24280189914209765
1789225110906560500,12.386560546875,3.6773023190811274,9.088314683151244,-0.22441837518420069
1789225110916599300,12.396599365234374,3.689589845985174,9.083798082509636,-0.2047760285379365
1789225110926637300,12.40663720703125,3.6501854718357323,9.10001798042655,-0.19032779820235446
1789225110936676400,12.41667626953125,3.5781007710948582,9.128978117451071,-0.17127256726166232
1789225110946715400,12.42671533203125,3.5282433919921514,9.148758338198066,-0.14869567413399926
1789225110956753200,12.436753173828125,3.5330247810497877,9.147009448704123,-0.1426871453010477
1789225110966792400,12.44679248046875,3.530907642765343,9.147581111112236,-0.1575758128805086
1789225110976831200,12.456831298828124,3.472032844470441,9.170054808726906,-0.1596220413532108
1789225110986869200,12.466869140625,3.416039739091694,9.191333159077168,-0.14307398006101138
1789225110996908500,12.476908447265625,3.418539154691994,9.190642838725447,-0.1268019774975255
1789225111006947300,12.486947265625,3.4561332645490763,9.176709590440987,-0.11638570609176531
1789225111016985300,12.4969853515625,3.4376650031834837,9.183624484395981,-0.11785386068187653
1789225111027024400,12.5070244140625,3.3981907786682246,9.198362034800649,-0.11324874150659889
1789225111037063400,12.5170634765625,3.394307215233147,9.199818078827857,-0.11138246357752941
1789225111047101200,12.52710107421875,3.443711589871347,9.181398040518165,-0.1147080552031286
1789225111057140200,12.53714013671875,3.529517941972613,9.148627405294775,-0.12447393640875816
1789225111067179300,12.54717919921875,3.5556107068672773,9.138487119552492,-0.12673380763214082
1789225111077218300,12.55721826171875,3.4971541339844463,9.161061354932189,-0.12347677859757095
1789225111087256300,12.56725634765625,3.4377477130308747,9.18341990173459,-0.13072733424771577
1789225111097295400,12.57729541015625,3.415629989247024,9.191297503241897,-0.15461601322684437
1789225111107334400,12.58733447265625,3.4490602574229237,9.17840411939919,-0.17682917847549542
1789225111117372200,12.5973720703125,3.524095040141046,9.149536336833238,-0.19268800626136362
1789225111127411500,12.607411376953126,3.516733279201388,9.152250856488942,-0.19815951474132015
1789225111137450200,12.6174501953125,3.4461236194491383,9.179120743235945,-0.1958240940636955
1789225111147488300,12.62748828125,3.4099422989994284,9.192552471739052,-0.19912735512647778
1789225111157527300,12.63752734375,3.4240374598473307,9.187079008764028,-0.20956463278764859
1789225111167566300,12.64756640625,3.4680504968360064,9.170147163185476,-0.22670920780142767
1789225111177604000,12.65760400390625,3.488616899524629,9.161787915641069,-0.24817022124221547
1789225111187643400,12.667643310546875,3.476829138836264,9.1658725546062,-0.26231309368936345
1789225111197682400,12.677682373046874,3.47109322553277,9.167849407637119,-0.2691693345259875
1789225111207720200,12.68772021484375,3.4845319682985543,9.162686910307407,-0.2712739238561131
1789225111217759500,12.697759521484375,3.492483219563961,9.159543936106562,-0.27513894698750224
1789225111227798300,12.70779833984375,3.4904520059973,9.15973390572071,-0.2939512725504115
1789225111237836300,12.717836181640624,3.4883716925919055,9.159880036193131,-0.31341767810788
1789225111247875000,12.727875,3.497966034889221,9.15583397567272,-0.3245705384261906
1789225111257913900,12.737913818359376,3.5358339932516216,9.140818777370452,-0.33717838332578537
1789225111267953000,12.747952880859375,3.580321077492833,9.123136405685543,-0.3465161935787648
1789225111277991200,12.7579912109375,3.5831922490149735,9.1221357042104,-0.3431645085306838
1789225111288030000,12.768030029296876,3.56987362549752,9.127848821160196,-0.32979484894573685
1789225111298069000,12.778069091796874,3.5745009930372236,9.126209821781515,-0.3250086375825107
1789225111308107000,12.78810693359375,3.5774516595363615,9.124868928566574,-0.3301557181473821
1789225111318146000,12.79814599609375,3.56237596321851,9.130430069825053,-0.3393001977853477
1789225111328184800,12.808184814453124,3.55336789637655,9.133449125385283,-0.35223270806204526
1789225111338223000,12.81822314453125,3.5549162948623296,9.132234488898515,-0.3677466131340712
1789225111348262000,12.828261962890625,3.5437826141685247,9.136147862949967,-0.377863298805058
1789225111358301000,12.838301025390624,3.522722290483117,9.144289668351412,-0.37784137923419475
1789225111368339000,12.8483388671875,3.4877485922574993,9.157616182914376,-0.3795412054220214
1789225111378378000,12.8583779296875,3.4425276407837866,9.174522309529781,-0.38406511258725073
1789225111388417000,12.8684169921875,3.4197713268354533,9.183197783416508,-0.38003494375571606
1789225111398454800,12.878454833984375,3.4473566683754324,9.173056913152337,-0.37567978075351566
1789225111408494000,12.888494140625,3.492492279653251,9.155655696496368,-0.3832042579742148
1789225111418532900,12.898532958984376,3.505235441370308,9.150380386441945,-0.39273649482075124
1789225111428571000,12.90857080078125,3.4920559340626,9.155029673552512,-0.4016873515827581
1789225111438610000,12.91860986328125,3.507983278773725,9.148814452299476,-0.40449802508931604
1789225111448649000,12.92864892578125,3.567898233771324,9.12566037120521,-0.40349078427553176
