time,seconds_elapsed,z,y,x
1789225098555132000,0.0351318359375,-0.931355893611908,0.9417603611946106,-0.08200192451477051
1789225098565171000,0.0451708984375,-1.0198500156402588,1.1196000576019287,-0.0044109937734901905
1789225098575210000,0.0552099609375,-1.0785107612609863,1.3224658966064453,0.12730363011360168
1789225098585249000,0.0652490234375,-1.0898152589797974,1.5316262245178223,0.30375349521636963
1789225098595288000,0.0752880859375,-1.1019662618637085,1.7433207035064697,0.499071329832077
1789225098605327000,0.0853271484375,-1.112316608428955,1.8997899293899536,0.7020925879478455
1789225098615365000,0.095365234375,-1.0556421279907227,1.9774261713027954,0.8948649764060974
1789225098625404200,0.105404052734375,-0.3842960000038147,2.0844085216522217,0.9393317699432373
1789225098635443000,0.11544287109375,0.3851926922798157,2.0589349269866943,0.8911709189414978
1789225098645482000,0.12548193359375,0.6243994235992432,1.6381125450134277,0.8948953747749329
1789225098655521000,0.13552099609375,0.6970552206039429,1.2258988618850708,0.795074999332428
1789225098665560000,0.14556005859375,0.5285122990608215,0.8176493048667908,0.6287928223609924
1789225098675597800,0.155597900390625,0.2638457715511322,0.4854508638381958,0.3935398459434509
1789225098685637000,0.16563720703125,-0.012615926563739777,0.08525604009628296,0.08111109584569931
1789225098695676200,0.17567626953125,-0.28373822569847107,-0.2546789050102234,-0.22637800872325897
1789225098705715000,0.18571484375,-0.551416277885437,-0.14487968385219574,-0.307611882686615
1789225098715754000,0.19575390625,-0.8454609513282776,0.34144148230552673,-0.15489158034324646
1789225098725792000,0.2057919921875,-1.0507432222366333,0.9326145052909851,0.1829541027545929
1789225098735831000,0.2158310546875,-1.0187270641326904,1.3617613315582275,0.658642590045929
1789225098745870000,0.2258701171875,-0.7005727291107178,1.3726813793182373,1.2352046966552734
1789225098755908900,0.235908935546875,-0.2924979031085968,1.2359267473220825,1.7097067832946777
1789225098765948200,0.2459482421875,0.08113746345043182,1.1395817995071411,1.9761323928833008
1789225098775987000,0.255987060546875,0.268232524394989,1.0790084600448608,1.9614756107330322
1789225098786025000,0.26602490234375,0.2724171280860901,0.8216472268104553,1.7432665824890137
1789225098796064300,0.276064208984375,0.11453510075807571,0.4325157403945923,1.3909876346588135
1789225098806103000,0.28610302734375,-0.053524211049079895,0.0159470085054636,0.9894620776176453
1789225098816142000,0.29614208984375,-0.10856402665376663,-0.29163238406181335,0.6248497366905212
1789225098826180900,0.306180908203125,-0.08669707924127579,-0.4512113928794861,0.36532124876976013
1789225098836220000,0.316219970703125,-0.04067126289010048,-0.4139889180660248,0.1996728926897049
1789225098846258000,0.3262578125,-0.0067636300809681416,-0.3082462549209595,0.14614948630332947
1789225098856297000,0.336296875,-0.003358778776600957,-0.23294669389724731,0.21183262765407562
1789225098866336000,0.3463359375,-0.016413327306509018,-0.17262902855873108,0.3423416316509247
1789225098876375000,0.356375,-0.03954820707440376,-0.11617746949195862,0.4773029088973999
1789225098886414000,0.3664140625,-0.06034243479371071,0.011506720446050167,0.6083102226257324
1789225098896453000,0.376453125,-0.05331968143582344,0.1191444993019104,0.7095558643341064
1789225098906491100,0.3864912109375,-0.05762414634227753,0.259194016456604,0.7433931827545166
1789225098916530200,0.3965302734375,-0.10962316393852234,0.39717984199523926,0.7370809316635132
1789225098926569000,0.40656884765625,-0.14304983615875244,0.5462060570716858,0.6749392747879028
1789225098936608000,0.41660791015625,-0.1891896277666092,0.5348546504974365,0.6169763803482056
1789225098946647000,0.42664697265625,-0.21646332740783691,0.5055587887763977,0.6042296886444092
1789225098956685000,0.43668505859375,-0.24720712006092072,0.5434121489524841,0.6174789071083069
1789225098966723800,0.446723876953125,-0.3145749866962433,0.5714296698570251,0.658249020576477
1789225098976763100,0.45676318359375,-0.36321255564689636,0.4783812165260315,0.823161244392395
1789225098986802200,0.46680224609375,-0.35228481888771057,0.29426997900009155,1.1000077724456787
1789225098996841000,0.476841064453125,-0.37466681003570557,0.10057001560926437,1.3333702087402344
1789225099006880000,0.4868798828125,-0.42830154299736023,-0.08809656649827957,1.5568312406539917
1789225099016918000,0.49691796875,-0.536841094493866,-0.4246743321418762,1.888702630996704
1789225099026957000,0.50695703125,-0.6070592999458313,-0.4310520589351654,2.280954122543335
1789225099036996000,0.51699609375,-0.5981342792510986,-0.31979796290397644,2.589688539505005
1789225099047035000,0.527034912109375,-0.49912673234939575,-0.15952575206756592,2.6631553173065186
1789225099057074200,0.53707421875,-0.4425465166568756,-0.10556583851575851,2.638261079788208
1789225099067113000,0.547113037109375,-0.5094600319862366,-0.30185920000076294,2.5090763568878174
1789225099077151000,0.55715087890625,-0.5881732106208801,-0.6286908388137817,2.331878185272217
1789225099087190000,0.56718994140625,-0.6502773761749268,-0.844010055065155,2.1059300899505615
1789225099097229000,0.57722900390625,-0.6649577617645264,-0.9686422944068909,1.8487166166305542
1789225099107268000,0.58726806640625,-0.6277901530265808,-0.9749749898910522,1.6357886791229248
1789225099117307000,0.597306884765625,-0.5457991361618042,-0.7768898606300354,1.5021713972091675
1789225099127345200,0.60734521484375,-0.4543520510196686,-0.2729330062866211,1.551039695739746
1789225099137384000,0.617384033203125,-0.3837391436100006,-0.053221143782138824,1.7188060283660889
1789225099147423000,0.627423095703125,-0.3436338007450104,-0.6248518824577332,1.8210258483886719
1789225099157462000,0.6374619140625,-0.38565340638160706,-1.1227740049362183,1.9339507818222046
1789225099167501000,0.6475009765625,-0.3847000002861023,-1.2685598134994507,1.9965028762817383
1789225099177540000,0.6575400390625,-0.32519352436065674,-1.4096125364303589,1.9659316539764404
1789225099187577900,0.667577880859375,-0.18626467883586884,-1.379412293434143,1.8321595191955566
1789225099197617200,0.6776171875,0.0011057445080950856,-1.2354356050491333,1.6505720615386963
1789225099207656000,0.687656005859375,0.17789329588413239,-0.9275049567222595,1.5138717889785767
1789225099217695000,0.697695068359375,0.3241674304008484,-0.6658467054367065,1.4915952682495117
1789225099227734000,0.707734130859375,0.39356034994125366,-0.7098703980445862,1.4473811388015747
1789225099237772300,0.717772216796875,0.4233595132827759,-0.8208693265914917,1.414171814918518
1789225099247811000,0.72781103515625,0.4230399429798126,-0.8157107830047607,1.2300446033477783
1789225099257850000,0.73785009765625,0.41233643889427185,-0.4017391800880432,1.064280390739441
1789225099267889200,0.74788916015625,0.41279423236846924,-0.5710490942001343,0.8727615475654602
1789225099277928200,0.75792822265625,0.3943001627922058,-0.6416279673576355,0.6010927557945251
1789225099287967200,0.76796728515625,0.40938618779182434,-0.5340871214866638,0.33177047967910767
1789225099298005000,0.7780048828125,0.39446449279785156,-0.31335845589637756,0.09624876827001572
1789225099308044300,0.788044189453125,0.360628217458725,-0.19971178472042084,-0.05397295206785202
1789225099318083000,0.7980830078125,0.33858925104141235,-0.11945529282093048,-0.11293374001979828
1789225099328122000,0.8081220703125,0.36765071749687195,-0.00008335694292327389,-0.10912515223026276
1789225099338161200,0.8181611328125,0.4358398914337158,0.1264524757862091,-0.04408809915184975
1789225099348199200,0.82819921875,0.5477989315986633,0.31565994024276733,0.027542944997549057
1789225099358238200,0.83823828125,0.6952483057975769,0.4568905830383301,0.07725324481725693
1789225099368277000,0.848277099609375,0.7880480289459229,0.53370201587677,0.1433345228433609
1789225099378316300,0.85831640625,0.7855553030967712,0.6120705604553223,0.23905253410339355
1789225099388355300,0.868355224609375,0.8748177886009216,0.685759961605072,0.2630302906036377
1789225099398394000,0.87839404296875,0.870913028717041,0.49629712104797363,0.20081059634685516
1789225099408432000,0.88843212890625,0.7795817852020264,0.37125876545906067,0.07931586354970932
1789225099418471200,0.89847119140625,0.6664238572120667,0.533925473690033,-0.03760489821434021
1789225099428510200,0.90851025390625,0.5491352677345276,0.7198811769485474,-0.10300254821777344
1789225099438549000,0.918549072265625,0.4345408082008362,0.7086168527603149,-0.13341104984283447
1789225099448588000,0.928588134765625,0.3166530430316925,0.5371606349945068,-0.14747174084186554
1789225099458626000,0.9386259765625,0.20872631669044495,0.3411805033683777,-0.16580334305763245
1789225099468665000,0.9486650390625,0.1614551991224289,0.1395656168460846,-0.22913624346256256
1789225099478704000,0.9587041015625,0.16224269568920135,-0.056178051978349686,-0.4070034623146057
1789225099488743200,0.9687431640625,0.19433699548244476,-0.3476402461528778,-0.8193766474723816
1789225099498782200,0.9787822265625,0.22138112783432007,-0.3744620084762573,-1.517899513244629
1789225099508821200,0.9888212890625,0.5047595500946045,-0.8782985210418701,-2.251094102859497
1789225099518859300,0.998859375,0.6207770109176636,-1.1203868389129639,-2.419267177581787
1789225099528898300,1.008898193359375,0.5896320939064026,-0.16672374308109283,-1.846792221069336
1789225099538937000,1.01893701171875,0.5673443675041199,0.896234393119812,-1.0306750535964966
1789225099548976000,1.02897607421875,0.44976767897605896,1.3855769634246826,-0.49611547589302063
1789225099559015000,1.039014892578125,0.38798555731773376,1.1288751363754272,-0.17391027510166168
1789225099569053200,1.04905322265625,0.37262284755706787,0.6653345823287964,0.07538929581642151
1789225099579092200,1.05909228515625,0.3792133629322052,0.2895956039428711,0.30761775374412537
1789225099589131000,1.069131103515625,0.3826901316642761,-0.14523229002952576,0.418308824300766
1789225099599170300,1.07917041015625,0.3551032245159149,-0.5852517485618591,0.31357815861701965
1789225099609209000,1.089208984375,0.3239852488040924,-0.8909397721290588,-0.023498401045799255
1789225099619247000,1.0992470703125,0.29917657375335693,-1.1133334636688232,-0.459358811378479
1789225099629286100,1.1092861328125,0.23675954341888428,-1.1307885646820068,-0.8046560287475586
1789225099639325200,1.1193251953125,0.2056991010904312,-1.1848390102386475,-0.908716082572937
1789225099649364200,1.1293642578125,0.15248514711856842,-1.1919336318969727,-0.8801009654998779
1789225099659403000,1.139403076171875,0.04969751462340355,-0.8715154528617859,-0.7106464505195618
1789225099669442300,1.1494423828125,0.009124522097408772,-0.46188053488731384,-0.43571391701698303
1789225099679480000,1.15947998046875,-0.10163474828004837,-0.3470378518104553,-0.2246863692998886
1789225099689519000,1.16951904296875,-0.23208649456501007,-0.4462922513484955,-0.003922570031136274
1789225099699558100,1.17955810546875,-0.37378931045532227,-0.47431111335754395,0.2594832479953766
1789225099709597200,1.18959716796875,-0.507113516330719,-0.46496421098709106,0.4501410722732544
1789225099719636200,1.19963623046875,-0.6200094819068909,-0.38783562183380127,0.49227067828178406
1789225099729674000,1.209674072265625,-0.7159211039543152,-0.054307714104652405,0.49825453758239746
1789225099739713300,1.21971337890625,-0.7563830018043518,-0.02641909010708332,0.5294420123100281
1789225099749752000,1.229751953125,-0.3985005021095276,-0.060556553304195404,0.5223726630210876
1789225099759791000,1.239791015625,-0.20886079967021942,0.03632791340351105,0.49523797631263733
1789225099769830100,1.249830078125,-0.1322813481092453,0.28058478236198425,0.513752818107605
1789225099779868200,1.2598681640625,-0.1737305074930191,0.43282440304756165,0.6060702204704285
1789225099789907200,1.2699072265625,-0.18951719999313354,0.4046979546546936,0.6161702275276184
1789225099799946000,1.279946044921875,-0.22496306896209717,0.33613646030426025,0.5847209692001343
1789225099809985300,1.2899853515625,-0.25877270102500916,0.4740775525569916,0.6127408742904663
1789225099820024300,1.3000244140625,-0.3020309507846832,0.4684700071811676,0.6330544352531433
1789225099830063000,1.31006298828125,-0.31133711338043213,0.32960107922554016,0.6082481741905212
1789225099840101000,1.32010107421875,-0.23963283002376556,0.4820798337459564,0.5123370885848999
1789225099850140200,1.33014013671875,0.0017134778900071979,0.8108228445053101,0.3092347979545593
1789225099860179200,1.34017919921875,0.299022912979126,0.8346333503723145,0.09433022886514664
1789225099870218000,1.350218017578125,0.5866347551345825,0.6969884037971497,-0.008615592494606972
1789225099880257000,1.360257080078125,0.8699465990066528,0.4694220721721649,-0.045148834586143494
1789225099890295300,1.37029541015625,1.1619198322296143,0.1520739495754242,-0.11719267070293427
1789225099900334000,1.380333984375,1.4593435525894165,-0.11235424131155014,-0.12499865889549255
1789225099910373000,1.390373046875,1.7760043144226074,-0.2220461070537567,-0.12297971546649933
1789225099920412200,1.400412109375,1.7735790014266968,-0.566287100315094,-0.6973676085472107
1789225099930451200,1.410451171875,1.7894189357757568,0.40608280897140503,-0.6662036180496216
1789225099940489000,1.420489013671875,1.6451996564865112,0.18937897682189941,-0.976475715637207
1789225099950528300,1.4305283203125,1.5959086418151855,0.9122927188873291,-0.8015997409820557
1789225099960567300,1.4405673828125,1.5660518407821655,0.7525336742401123,-0.663194477558136
1789225099970606000,1.450606201171875,1.3456060886383057,0.6939777135848999,-0.7684857249259949
1789225099980645000,1.46064501953125,1.1910325288772583,0.8174266815185547,-0.5612883567810059
1789225099990683100,1.47068310546875,1.0619349479675293,0.6237853169441223,-0.4296797215938568
1789225100000722200,1.48072216796875,0.8363391160964966,0.2763996422290802,-0.44198620319366455
1789225100010761200,1.49076123046875,0.6238462924957275,0.021623270586133003,-0.4536660313606262
1789225100020800000,1.500800048828125,0.4184523820877075,0.08438039571046829,-0.42737236618995667
1789225100030839300,1.51083935546875,0.2818034589290619,0.05854932963848114,-0.4469415545463562
1789225100040878000,1.520878173828125,0.22940443456172943,0.10470084846019745,-0.4192925989627838
1789225100050916000,1.530916015625,0.22951574623584747,0.03533561900258064,-0.17198534309864044
1789225100060955100,1.540955078125,0.2761263847351074,-0.1593281328678131,0.3408358693122864
1789225100070994200,1.550994140625,0.16320942342281342,-0.5379566550254822,0.0929427221417427
1789225100081033200,1.561033203125,-0.01606152392923832,-0.9013652205467224,-0.2748430073261261
1789225100091072000,1.571072021484375,-0.1629638820886612,-0.7744371294975281,-0.08813837915658951
1789225100101110300,1.5811103515625,-0.3111421763896942,-0.9573145508766174,-0.25338539481163025
1789225100111149000,1.591149169921875,-0.5318612456321716,-0.6590945720672607,-0.22948485612869263
1789225100121188000,1.60118798828125,-0.5523532032966614,-0.8405855298042297,-0.3087402582168579
1789225100131227100,1.61122705078125,-0.5113530158996582,-0.9239339232444763,-0.2582850754261017
1789225100141266200,1.62126611328125,-0.5625306963920593,-0.7776012420654297,-0.3853231966495514
1789225100151304200,1.63130419921875,-0.46456846594810486,-0.97185218334198,-0.22422191500663757
1789225100161343000,1.641343017578125,-0.3698691427707672,-0.8156993389129639,-0.26992788910865784
1789225100171382300,1.65138232421875,-0.25313451886177063,-0.8059542775154114,-0.21260520815849304
1789225100181421000,1.661421142578125,-0.29522979259490967,-1.084373116493225,-0.6312234997749329
1789225100191460000,1.671460205078125,-0.4611188769340515,-0.9463396668434143,-0.5123400092124939
1789225100201498000,1.681498046875,-0.3700030744075775,-0.5061084628105164,-0.46955764293670654
1789225100211537200,1.691537109375,-0.324199378490448,-1.1897940635681152,-0.8594250082969666
1789225100221576200,1.701576171875,-0.32573044300079346,-0.6481846570968628,-0.5864259600639343
1789225100231615500,1.711615478515625,-0.3098638355731964,-1.301661491394043,-0.8602764010429382
1789225100241654500,1.721654541015625,-0.22592447698116302,-1.23164701461792,-0.6995553970336914
1789225100251692500,1.731692626953125,0.01883680373430252,-0.8370797038078308,-0.5194748640060425
1789225100261731600,1.741731689453125,0.20696862041950226,-0.49441346526145935,-0.4740607738494873
1789225100271770400,1.751770263671875,0.2760283946990967,-0.6701671481132507,-0.5912678241729736
1789225100281809700,1.7618095703125,0.43025949597358704,-0.3551538288593292,-0.4709584712982178
1789225100291848400,1.771848388671875,0.5392816066741943,-0.3664400577545166,-0.47114327549934387
1789225100301886500,1.781886474609375,0.6701735854148865,-0.228544220328331,-0.4033125638961792
1789225100311925500,1.791925537109375,0.7705768942832947,-0.15528705716133118,-0.46584174036979675
1789225100321964500,1.801964599609375,0.7231829762458801,-0.038543928414583206,-0.635992169380188
1789225100332003600,1.812003662109375,0.5850275158882141,0.01745435781776905,-0.627629816532135
1789225100342042400,1.82204248046875,0.4455716013908386,-0.03778066858649254,-0.6453004479408264
1789225100352080600,1.83208056640625,0.36984914541244507,-0.09096319228410721,-0.6995426416397095
1789225100362119400,1.842119384765625,0.37832361459732056,-0.014929148368537426,-0.7200455069541931
1789225100372158500,1.852158447265625,0.42533692717552185,-0.037822213023900986,-0.7194060683250427
1789225100382197500,1.862197509765625,0.5118638277053833,0.02003096602857113,-0.6546470522880554
1789225100392236500,1.872236572265625,0.605664074420929,-0.0034503915812820196,-0.5991220474243164
1789225100402274600,1.882274658203125,0.7007138729095459,0.0154354153200984,-0.4763830602169037
1789225100412313300,1.892313232421875,0.7391347885131836,0.09177891910076141,-0.42950209975242615
1789225100422352600,1.9023525390625,0.7051206231117249,0.08298356831073761,-0.33955782651901245
1789225100432391400,1.912391357421875,0.6427456736564636,0.08139605820178986,-0.22703075408935547
1789225100442430500,1.922430419921875,0.6067919135093689,0.14429858326911926,-0.1377890259027481
1789225100452468700,1.93246875,0.5726621747016907,0.133204385638237,-0.13409735262393951
1789225100462507500,1.942507568359375,0.5871902704238892,0.18182305991649628,-0.13194125890731812
1789225100472546600,1.952546630859375,0.6794562935829163,0.022399315610527992,-0.21619169414043427
1789225100482585300,1.96258544921875,0.5664519667625427,0.016742227599024773,-0.1725374162197113
1789225100492624600,1.972624755859375,0.4195708930492401,-0.10579300671815872,-0.17259573936462402
1789225100502662400,1.982662353515625,0.1685008704662323,0.004001932218670845,-0.1385171264410019
1789225100512701400,1.992701416015625,0.10298630595207214,0.06359682232141495,-0.25630101561546326
1789225100522740500,2.002740478515625,0.12660667300224304,-0.0019571571610867977,-0.36116859316825867
1789225100532779500,2.012779541015625,0.27800577878952026,-0.012685701251029968,-0.38394659757614136
1789225100542818600,2.022818603515625,0.3905693590641022,-0.24667982757091522,-0.27767741680145264
1789225100552856300,2.032856201171875,0.3784596920013428,-0.17895084619522095,-0.2614332139492035
1789225100562895600,2.0428955078125,0.44398677349090576,-0.10228775441646576,-0.28846535086631775
1789225100572934700,2.0529345703125,0.588104248046875,-0.14759477972984314,-0.5172945261001587
1789225100582973400,2.062973388671875,0.5707891583442688,-0.19348131120204926,-0.538931131362915
1789225100593012500,2.073012451171875,0.5958148837089539,-0.20263566076755524,-0.586605966091156
1789225100603050500,2.083050537109375,0.5239316821098328,-0.2343597710132599,-0.555831253528595
1789225100613089500,2.093089599609375,0.6419467329978943,-0.19082029163837433,-0.6897371411323547
1789225100623128300,2.10312841796875,0.6322861313819885,-0.14596226811408997,-0.6779319047927856
1789225100633167600,2.113167724609375,0.6259967684745789,0.22387383878231049,-0.6242638826370239
1789225100643206700,2.12320654296875,0.7006188035011292,0.07676748186349869,-0.698763370513916
1789225100653244400,2.133244384765625,0.7941447496414185,0.1616927534341812,-0.8270803689956665
1789225100663283700,2.14328369140625,0.6029915809631348,-0.2820303440093994,-0.8298172950744629
1789225100673322500,2.153322509765625,0.16206906735897064,0.11813089996576309,-0.47781744599342346
1789225100683361500,2.163361572265625,-0.019030150026082993,0.07990095764398575,-0.4044497311115265
1789225100693400600,2.173400634765625,0.0032794165890663862,0.21134446561336517,-0.4472464621067047
1789225100703438600,2.1834384765625,0.007188670802861452,0.1243605688214302,-0.3989172875881195
1789225100713477600,2.1934775390625,0.041004691272974014,0.030611172318458557,-0.35582229495048523
1789225100723516400,2.203516357421875,0.07300443202257156,0.06597821414470673,-0.29397064447402954
1789225100733555500,2.213555419921875,0.09683626145124435,0.05186878889799118,-0.2046833634376526
1789225100743594500,2.223594482421875,0.13103657960891724,0.01380822341889143,-0.15623913705348969
1789225100753632500,2.233632568359375,0.10719089955091476,0.0772194191813469,-0.13320891559123993
1789225100763671600,2.243671630859375,0.048833586275577545,0.06662829220294952,-0.13748861849308014
1789225100773710600,2.253710693359375,0.008272044360637665,0.07506412267684937,-0.13447205722332
1789225100783749600,2.26374951171875,-0.008381234481930733,0.06443864107131958,-0.0990339070558548
1789225100793788400,2.273788330078125,0.0010508833220228553,0.09282208234071732,-0.048046089708805084
1789225100803826700,2.28382666015625,0.015061507001519203,0.1007726863026619,0.015233813785016537
1789225100813865500,2.293865478515625,0.01218689139932394,0.08890244364738464,0.08674874156713486
1789225100823904500,2.303904541015625,-0.006170544307678938,0.07240815460681915,0.1511453092098236
1789225100833943600,2.313943603515625,-0.03793087229132652,0.03434385731816292,0.19729922711849213
1789225100843982300,2.323982421875,-0.06870822608470917,-0.011807125061750412,0.22996662557125092
1789225100854020600,2.3340205078125,-0.08695273846387863,-0.05447469279170036,0.27145254611968994
1789225100864059400,2.344059326171875,-0.09647141396999359,-0.09615769237279892,0.3302743136882782
1789225100874098400,2.354098388671875,-0.08792798966169357,-0.22735193371772766,0.34259143471717834
1789225100884137700,2.3641376953125,-0.08881322294473648,-0.12215733528137207,0.4321892261505127
1789225100894176500,2.374176513671875,-0.09069234877824783,-0.13452932238578796,0.47841450572013855
1789225100904214500,2.384214599609375,-0.10112927854061127,-0.15324388444423676,0.48351046442985535
1789225100914253600,2.394253662109375,-0.10943594574928284,-0.14915698766708374,0.43063342571258545
1789225100924292600,2.404292724609375,-0.13669367134571075,-0.16068528592586517,0.3863077461719513
1789225100934331400,2.414331298828125,-0.12848153710365295,-0.1396939903497696,0.330471396446228
1789225100944370400,2.424370361328125,-0.13710059225559235,-0.03869706019759178,0.22904197871685028
1789225100954408400,2.434408447265625,-0.1361652910709381,0.08433565497398376,-0.016732107847929
1789225100964447500,2.444447509765625,-0.0741083174943924,0.07750331610441208,0.02623107098042965
1789225100974486500,2.454486572265625,-0.07359486073255539,-0.00818123109638691,0.18938857316970825
1789225100984525600,2.464525634765625,-0.06367857754230499,0.01181964110583067,0.16488268971443176
1789225100994564600,2.474564697265625,-0.0870632603764534,0.0791691243648529,0.019273295998573303
1789225101004602400,2.484602294921875,-0.0874456912279129,0.12656860053539276,-0.0820796862244606
1789225101014641400,2.494641357421875,-0.08752478659152985,0.07198364287614822,-0.06566982716321945
1789225101024680700,2.5046806640625,-0.09298773109912872,0.045401837676763535,0.019778497517108917
1789225101034719500,2.514719482421875,-0.09705304354429245,0.039254460483789444,0.06701765209436417
1789225101044758500,2.524758544921875,-0.1046110987663269,0.061040718108415604,0.03236459568142891
1789225101054796500,2.534796630859375,-0.10285314172506332,0.08736500144004822,-0.002916161436587572
1789225101064835600,2.544835693359375,-0.10926124453544617,0.07588011771440506,0.04307689517736435
1789225101074874600,2.55487451171875,-0.12397707253694534,0.055692289024591446,0.13288109004497528
1789225101084913400,2.564913330078125,-0.14404132962226868,0.04103611782193184,0.17878413200378418
1789225101094951700,2.57495166015625,-0.15667429566383362,0.05841297656297684,0.15014103055000305
1789225101104990500,2.584990478515625,-0.15920323133468628,0.056462209671735764,0.1140781044960022
1789225101115029500,2.595029541015625,-0.14491777122020721,0.02503158338367939,0.11848457157611847
1789225101125068500,2.605068603515625,-0.13776053488254547,-0.008729043416678905,0.1358363926410675
1789225101135107600,2.615107666015625,-0.13473545014858246,-0.02352077141404152,0.1294650435447693
1789225101145145300,2.625145263671875,-0.12639495730400085,-0.021743644028902054,0.08835542947053909
1789225101155184400,2.635184326171875,-0.11793675273656845,-0.036307141184806824,0.012593023478984833
1789225101165223700,2.6452236328125,-0.14630261063575745,-0.019838685169816017,-0.053589459508657455
1789225101175262500,2.655262451171875,-0.15547321736812592,-0.01997211016714573,-0.08113453537225723
1789225101185301500,2.665301513671875,-0.14330017566680908,-0.05637379363179207,-0.06065082922577858
1789225101195339500,2.675339599609375,-0.12218423187732697,-0.06565943360328674,-0.05643264949321747
1789225101205378600,2.685378662109375,-0.09634038060903549,-0.06305300444364548,-0.09991727769374847
1789225101215417600,2.69541748046875,-0.09737582504749298,-0.04309633746743202,-0.11787230521440506
1789225101225456400,2.705456298828125,-0.1128770187497139,-0.056886717677116394,-0.07128217071294785
1789225101235495400,2.715495361328125,-0.13956429064273834,-0.0649489089846611,-0.00917299184948206
1789225101245533200,2.725533203125,-0.15660212934017181,-0.05116172134876251,0.028601018711924553
1789225101255572200,2.735572265625,-0.14212065935134888,-0.034802988171577454,0.01925625279545784
1789225101265611500,2.745611572265625,-0.10579993575811386,-0.02159077860414982,0.03142796456813812
1789225101275650300,2.755650390625,-0.08978341519832611,-0.025252358987927437,0.07828734815120697
1789225101285688300,2.765688232421875,-0.08340940624475479,-0.03364238142967224,0.10486382991075516
1789225101295727400,2.775727294921875,-0.09646102786064148,-0.005046956706792116,0.09591081738471985
1789225101305766400,2.785766357421875,-0.08805875480175018,0.01949753426015377,0.05155880004167557
1789225101315805200,2.79580517578125,-0.07521060109138489,0.053519152104854584,0.022718362510204315
1789225101325844200,2.80584423828125,-0.04393230378627777,0.05543822422623634,0.014271880500018597
1789225101335882500,2.815882568359375,-0.025660356506705284,0.06611084192991257,0.01672864705324173
1789225101345921300,2.82592138671875,-0.012337093241512775,0.06942647695541382,-0.014696388505399227
1789225101355960300,2.835960205078125,-0.017106547951698303,0.08612210303544998,-0.050206977874040604
1789225101365999000,2.8459990234375,-0.023671774193644524,0.08113080263137817,-0.06498592346906662
1789225101376038400,2.856038330078125,-0.022601982578635216,0.07545693963766098,-0.04867352917790413
1789225101386076200,2.866076171875,-0.011355984956026077,0.07726336270570755,-0.027147997170686722
1789225101396115200,2.876115234375,0.008431301452219486,0.09148091077804565,-0.012913933955132961
1789225101406154500,2.886154541015625,0.026009496301412582,0.11534470319747925,-0.003608849598094821
1789225101416193300,2.896193359375,0.03334224224090576,0.13683108985424042,0.007388674188405275
1789225101426232300,2.906232421875,0.018568890169262886,0.1290874183177948,0.019234947860240936
1789225101436270300,2.916270263671875,0.00033342777169309556,0.09153018146753311,0.03110172599554062
1789225101446309400,2.926309326171875,-0.02539031207561493,0.060436446219682693,0.06431826949119568
1789225101456348400,2.936348388671875,-0.03934500738978386,0.018307367339730263,0.06281597912311554
1789225101466387200,2.94638720703125,-0.04165636748075485,0.014436730183660984,0.02521187998354435
1789225101476425500,2.956425537109375,-0.038231540471315384,-0.004485828336328268,-0.0009187905816361308
1789225101486464300,2.96646435546875,-0.04406173527240753,-0.019001653417944908,0.015431420877575874
1789225101496503300,2.97650341796875,-0.04854410141706467,-0.024148745462298393,0.029931534081697464
1789225101506542000,2.9865419921875,-0.05835944786667824,-0.033418409526348114,0.022298380732536316
1789225101516581400,2.996581298828125,-0.061648182570934296,-0.04695659130811691,-0.01330115832388401
1789225101526619100,3.006619140625,-0.05270049721002579,-0.042753856629133224,-0.051239218562841415
1789225101536658200,3.016658203125,-0.02731897309422493,-0.02810487151145935,-0.05621134117245674
1789225101546697500,3.026697509765625,-0.012850550934672356,0.032964076846838,-0.011107511818408966
1789225101556736300,3.036736328125,0.010988735593855381,0.0850086361169815,0.004551874939352274
1789225101566775300,3.046775390625,0.02642548270523548,0.1279830038547516,0.01666552945971489
1789225101576813300,3.056813232421875,0.05173669755458832,0.1929774433374405,-0.021560685709118843
1789225101586852400,3.066852294921875,0.08343364298343658,0.29542845487594604,-0.025890186429023743
1789225101596891400,3.076891357421875,0.09810073673725128,0.3159680962562561,0.04887166991829872
1789225101606930200,3.08693017578125,0.13655172288417816,0.2711159288883209,0.100662961602211
1789225101616969500,3.096969482421875,0.17228680849075317,0.2925596833229065,0.043290749192237854
1789225101627007200,3.10700732421875,0.19458945095539093,0.351021945476532,-0.04590703919529915
1789225101637046300,3.11704638671875,0.1677946001291275,0.39962196350097656,-0.03996925428509712
1789225101647085300,3.127085205078125,0.16483795642852783,0.3013380169868469,-0.038709577172994614
1789225101657124400,3.137124267578125,0.1502169370651245,0.22740332782268524,-0.0548320896923542
1789225101667162400,3.147162353515625,0.11732929199934006,0.16911418735980988,-0.05308079347014427
1789225101677201200,3.157201171875,0.07710916548967361,0.11167220026254654,-0.041675008833408356
1789225101687240400,3.167240478515625,0.028387432917952538,0.0798780545592308,-0.048284176737070084
1789225101697279200,3.177279296875,-0.013668141327798367,0.04436133801937103,-0.06473052501678467
1789225101707318300,3.187318359375,-0.06018291413784027,-0.008101868443191051,-0.041789792478084564
1789225101717356300,3.197356201171875,-0.0952114686369896,-0.08422087132930756,0.008627044036984444
1789225101727395300,3.207395263671875,-0.12361834198236465,-0.16089913249015808,0.028026575222611427
1789225101737434400,3.217434326171875,-0.14674577116966248,-0.21681512892246246,0.004022971261292696
1789225101747473200,3.22747314453125,-0.17302744090557098,-0.27900925278663635,-0.016109727323055267
1789225101757511400,3.237511474609375,-0.21811369061470032,-0.3378520607948303,0.0211833156645298
1789225101767550200,3.24755029296875,-0.2540093660354614,-0.39264634251594543,0.054308779537677765
1789225101777589200,3.25758935546875,-0.28349748253822327,-0.3836536407470703,0.047092143446207047
1789225101787628300,3.267628173828125,-0.281124085187912,-0.3753206133842468,0.004077832214534283
1789225101797667300,3.277667236328125,-0.2643062174320221,-0.3692283630371094,-0.007166033610701561
1789225101807705300,3.287705322265625,-0.238291934132576,-0.3842105269432068,0.02515408955514431
1789225101817744100,3.297744140625,-0.2252376526594162,-0.3646717071533203,0.06679447740316391
1789225101827783400,3.307783447265625,-0.22165675461292267,-0.2937008738517761,0.08717884123325348
1789225101837822200,3.317822265625,-0.19987688958644867,-0.19437800347805023,0.08283469825983047
1789225101847861200,3.327861328125,-0.16139023005962372,-0.07961945980787277,0.06981077045202255
1789225101857899500,3.3378994140625,-0.07862583547830582,-0.01158554945141077,0.06521043181419373
1789225101867938300,3.347938232421875,-0.021398233249783516,0.01673503778874874,0.07576773315668106
1789225101877977300,3.357977294921875,0.00900015328079462,0.006713829003274441,0.06382771581411362
1789225101888016100,3.36801611328125,0.02014894410967827,-0.008520251139998436,0.014152037911117077
1789225101898054400,3.378054443359375,0.01836063154041767,-0.015251124277710915,-0.03363173082470894
1789225101908093200,3.38809326171875,0.011419900692999363,-0.014371482655405998,-0.07466411590576172
1789225101918132200,3.39813232421875,0.011322695761919022,0.01852494850754738,-0.10509978979825974
1789225101928171500,3.408171630859375,0.02648194134235382,0.07543616741895676,-0.11101120710372925
1789225101938210300,3.418210205078125,0.06017385795712471,0.127431720495224,-0.08415429294109344
1789225101948248300,3.428248291015625,0.10746174305677414,0.16574396193027496,-0.06010141968727112
1789225101958287400,3.438287353515625,0.1379978209733963,0.20333421230316162,-0.06396912783384323
1789225101968326400,3.448326416015625,0.14138402044773102,0.21121983230113983,-0.04722929745912552
1789225101978365400,3.458365478515625,0.12426362931728363,0.16679351031780243,0.007799067068845034
1789225101988403200,3.4684033203125,0.09713081270456314,0.12012241035699844,0.04376425966620445
1789225101998442500,3.4784423828125,0.07669398188591003,0.09802829474210739,0.04550676420331001
1789225102008481300,3.488481201171875,0.06814496219158173,0.09629590809345245,0.0458654910326004
1789225102018520300,3.498520263671875,0.06570444256067276,0.0940849557518959,0.06647463142871857
1789225102028559000,3.50855908203125,0.06873831897974014,0.08811361342668533,0.07163131237030029
1789225102038597400,3.518597412109375,0.06809409707784653,0.0871540755033493,0.013713149353861809
1789225102048636200,3.52863623046875,0.05325816199183464,0.08788937330245972,-0.05275748670101166
1789225102058675200,3.53867529296875,0.027712587267160416,0.05132896825671196,-0.06264021247625351
1789225102068714500,3.548714599609375,-0.006835002917796373,0.0008684568456374109,-0.040290962904691696
1789225102078752300,3.558752197265625,-0.04035807400941849,-0.0461089052259922,-0.049740925431251526
1789225102088791300,3.568791259765625,-0.07351416349411011,-0.07974383234977722,-0.04049043357372284
1789225102098830300,3.578830322265625,-0.0959443747997284,-0.14097122848033905,0.008526376448571682
1789225102108869400,3.588869384765625,-0.10800156742334366,-0.1856774538755417,0.056052085012197495
1789225102118908400,3.598908447265625,-0.1150703951716423,-0.17163807153701782,0.07462070882320404
1789225102128946400,3.608946533203125,-0.11430713534355164,-0.1402583122253418,0.082095667719841
1789225102138985500,3.6189853515625,-0.10300041735172272,-0.13993287086486816,0.06148679554462433
1789225102149024300,3.629024169921875,-0.10519459843635559,-0.11305970698595047,-0.01678377389907837
1789225102159063300,3.639063232421875,-0.13438551127910614,-0.07997605949640274,-0.02985456772148609
1789225102169102300,3.649102294921875,-0.16399426758289337,-0.11566827446222305,0.07474880665540695
1789225102179140400,3.659140380859375,-0.18395385146141052,-0.18187472224235535,0.08874212205410004
1789225102189179400,3.669179443359375,-0.19467388093471527,-0.1225043460726738,-0.07333413511514664
1789225102199218200,3.67921826171875,-0.20245003700256348,-0.11411405354738235,-0.13843271136283875
1789225102209257500,3.689257568359375,-0.21135884523391724,-0.258335143327713,0.05516418442130089
1789225102219295200,3.699295166015625,-0.21309790015220642,-0.3632546365261078,0.2146846055984497
1789225102229334000,3.709333984375,-0.2154630422592163,-0.299094557762146,0.0753709226846695
1789225102239373000,3.719373046875,-0.21591497957706451,-0.15466786921024323,-0.17745041847229004
1789225102249412000,3.729412109375,-0.21792221069335938,-0.11731251329183578,-0.2319440245628357
1789225102259449900,3.739449951171875,-0.23202045261859894,-0.20339412987232208,-0.06605731695890427
1789225102269489200,3.7494892578125,-0.2442994862794876,-0.2723252773284912,0.06485649198293686
1789225102279528200,3.759528076171875,-0.25446343421936035,-0.2878650724887848,0.05313166230916977
1789225102289567000,3.76956689453125,-0.2623376250267029,-0.30588722229003906,-0.015913719311356544
1789225102299606000,3.77960595703125,-0.27043095231056213,-0.33801665902137756,-0.07423428446054459
1789225102309644000,3.78964404296875,-0.2892645597457886,-0.3713301420211792,-0.11621369421482086
1789225102319683000,3.79968310546875,-0.30628082156181335,-0.37559065222740173,-0.08212203532457352
1789225102329721900,3.809721923828125,-0.3126516342163086,-0.3994949460029602,0.020170515403151512
1789225102339761000,3.819760986328125,-0.3073407709598541,-0.3675242066383362,0.06154884770512581
1789225102349799000,3.829798828125,-0.26884931325912476,-0.28701046109199524,0.005130313336849213
1789225102359838000,3.839837890625,-0.24519456923007965,-0.23275548219680786,0.0102539686486125
1789225102369877000,3.849876953125,-0.23162603378295898,-0.29601648449897766,0.11156328022480011
1789225102379916000,3.859916015625,-0.2345115691423416,-0.3532438278198242,0.16498416662216187
1789225102389955000,3.869955078125,-0.24501535296440125,-0.351614773273468,0.1262711137533188
1789225102399992800,3.879992919921875,-0.23319624364376068,-0.39051929116249084,-0.02382836677134037
1789225102410032000,3.8900322265625,-0.20529696345329285,-0.32243236899375916,-0.22641555964946747
1789225102420071200,3.9000712890625,-0.17788903415203094,-0.23134800791740417,-0.24006585776805878
1789225102430110000,3.91010986328125,-0.172786682844162,-0.209864541888237,0.0014743260107934475
1789225102440148200,3.920148193359375,-0.1607622504234314,-0.23429372906684875,0.0719413012266159
1789225102450187000,3.93018701171875,-0.14961399137973785,-0.12862882018089294,-0.13629472255706787
1789225102460226000,3.94022607421875,-0.1376824975013733,-0.09890234470367432,-0.2072027176618576
1789225102470264800,3.950264892578125,-0.1480720192193985,-0.24866467714309692,0.09571453928947449
1789225102480304000,3.96030419921875,-0.14304663240909576,-0.37183162569999695,0.39642056822776794
1789225102490342100,3.970342041015625,-0.12251899391412735,-0.31601494550704956,0.31278055906295776
1789225102500381000,3.980380859375,-0.08119764924049377,-0.16593463718891144,0.02214258722960949
1789225102510420000,3.990419921875,-0.014335529878735542,-0.04188406839966774,-0.20960915088653564
1789225102520459000,4.000458984375,0.05038008466362953,0.034507110714912415,-0.06499950587749481
1789225102530497000,4.0104970703125,0.07720930129289627,0.15247023105621338,0.002540655666962266
1789225102540535800,4.020535888671875,0.107312873005867,0.3686075806617737,-0.0995233952999115
1789225102550575000,4.0305751953125,0.17783044278621674,0.4973381459712982,-0.25556838512420654
1789225102560614100,4.0406142578125,0.29860666394233704,0.4958832561969757,-0.3258441388607025
1789225102570653000,4.05065283203125,0.3293837606906891,0.43774592876434326,-0.14464665949344635
1789225102580691200,4.060691162109375,0.3112582862377167,0.28399255871772766,0.11573139578104019
1789225102590730000,4.07072998046875,0.3064941465854645,0.3094902038574219,0.1209447979927063
1789225102600769000,4.08076904296875,0.327939510345459,0.496380478143692,-0.016325443983078003
1789225102610808000,4.09080810546875,0.3618154525756836,0.6048318147659302,0.06180744245648384
1789225102620846000,4.10084619140625,0.4778650999069214,0.5227678418159485,0.1371232271194458
1789225102630885000,4.110885009765625,0.5681265592575073,0.6146658062934875,-0.034803520888090134
1789225102640924000,4.120923828125,0.5712065100669861,0.7129921317100525,-0.2349318116903305
1789225102650963000,4.130962890625,0.46183234453201294,0.5756784677505493,-0.11399048566818237
1789225102661001000,4.1410009765625,0.33056700229644775,0.32206273078918457,0.18174529075622559
1789225102671040000,4.1510400390625,0.23009125888347626,0.20242048799991608,0.24368296563625336
1789225102681078800,4.161078857421875,0.12938489019870758,0.2036769539117813,0.09470812976360321
1789225102691118000,4.1711181640625,0.09224923700094223,0.15689560770988464,-0.07572538405656815
1789225102701157000,4.1811572265625,0.10707878321409225,0.03629728779196739,-0.23711800575256348
1789225102711195000,4.19119482421875,0.1234510987997055,0.015448731370270252,-0.31130409240722656
1789225102721234200,4.201234130859375,0.16652506589889526,0.057667821645736694,-0.07869188487529755
1789225102731273000,4.21127294921875,0.18619810044765472,0.1632123589515686,0.1602189689874649
1789225102741312000,4.22131201171875,0.2073603719472885,0.3071564733982086,0.11691942811012268
1789225102751350000,4.23135009765625,0.24574372172355652,0.38619962334632874,-0.08442513644695282
1789225102761389000,4.24138916015625,0.15244093537330627,0.3801151216030121,-0.1419299691915512
1789225102771428000,4.251427978515625,0.04698748141527176,0.12554781138896942,0.16051803529262543
1789225102781467000,4.261466796875,0.009468602947890759,-0.1880553960800171,0.23061323165893555
1789225102791505200,4.271505126953125,-0.021261345595121384,-0.03482269495725632,-0.12003026902675629
1789225102801544000,4.2815439453125,-0.011058243922889233,0.12422048300504684,-0.3281453847885132
1789225102811583000,4.2915830078125,0.04454003646969795,0.03807308152318001,-0.06178533658385277
1789225102821622000,4.3016220703125,0.08728750050067902,0.07407795637845993,0.2507307529449463
1789225102831661000,4.3116611328125,0.07103103399276733,0.270293265581131,0.2703196406364441
1789225102841699000,4.321698974609375,0.04571289196610451,0.45750683546066284,0.06858944892883301
1789225102851737900,4.33173779296875,0.14012302458286285,0.466754674911499,-0.169945627450943
1789225102861777200,4.341777099609375,0.2244562804698944,0.41083094477653503,-0.28752365708351135
1789225102871816000,4.35181591796875,0.18605110049247742,0.2017267346382141,-0.022701583802700043
1789225102881854000,4.36185400390625,0.19032546877861023,0.17636996507644653,0.2472340315580368
1789225102891893000,4.37189306640625,0.1952403336763382,0.20635449886322021,0.2727670967578888
1789225102901932000,4.38193212890625,0.22063836455345154,0.2865329682826996,-0.004855475388467312
1789225102911971000,4.39197119140625,0.31040605902671814,0.43849000334739685,-0.4172331690788269
1789225102922009000,4.402009033203125,0.3191092908382416,0.5347025394439697,-0.388195663690567
1789225102932048100,4.412048095703125,0.36400458216667175,0.4678971469402313,0.21142436563968658
1789225102942087000,4.4220869140625,0.4089829623699188,0.4233741760253906,0.2474215179681778
1789225102952126000,4.4321259765625,0.39487701654434204,0.7153945565223694,-0.09482397884130478
1789225102962165000,4.4421650390625,0.3896569609642029,0.8229718804359436,-0.30577829480171204
1789225102972203000,4.452203125,0.31012165546417236,0.6716875433921814,-0.07637812942266464
1789225102982242000,4.462241943359375,0.3047010600566864,0.5305834412574768,0.1945772022008896
1789225102992281000,4.472281005859375,0.3456074595451355,0.5473639965057373,0.27898529171943665
1789225103002320100,4.482320068359375,0.4075547158718109,0.6597158908843994,0.3162197470664978
1789225103012358000,4.49235791015625,0.4430416226387024,0.6815034747123718,0.3825974464416504
1789225103022397000,4.50239697265625,0.45039060711860657,0.6801117062568665,0.2717393636703491
1789225103032436200,4.512436279296875,0.38421210646629333,0.7540399432182312,0.14911171793937683
1789225103042475000,4.52247509765625,0.3166474401950836,0.7433516383171082,0.0032402679789811373
1789225103052513000,4.532512939453125,0.2783229649066925,0.7407585382461548,-0.20458084344863892
1789225103062552000,4.542552001953125,0.20341144502162933,0.7526625990867615,-0.2202194482088089
1789225103072591000,4.552591064453125,0.21371148526668549,0.5517500042915344,-0.11651889234781265
1789225103082630000,4.5626298828125,0.19228368997573853,0.49028101563453674,-0.03515132889151573
1789225103092669000,4.5726689453125,0.17214593291282654,0.5252957344055176,-0.089577816426754
1789225103102707000,4.58270703125,0.14110678434371948,0.5070397853851318,-0.20011791586875916
1789225103112746000,4.59274609375,0.16148529946804047,0.23284363746643066,0.004474376793950796
1789225103122785000,4.602784912109375,0.16340117156505585,0.08167355507612228,0.48409342765808105
1789225103132824000,4.612823974609375,0.14035391807556152,-0.06524478644132614,0.21892409026622772
1789225103142862000,4.622862060546875,0.03238776698708534,0.24822339415550232,-0.41774609684944153
1789225103152900900,4.63290087890625,-0.09993351995944977,0.4097808599472046,-0.6722337603569031
1789225103162940000,4.64293994140625,-0.18443961441516876,0.36545732617378235,-0.26380661129951477
1789225103172979200,4.652979248046875,-0.16102510690689087,0.2972519099712372,0.07424253970384598
1789225103183017000,4.663016845703125,-0.011454788036644459,0.5443482398986816,-0.055200669914484024
1789225103193056000,4.673055908203125,0.18419833481311798,0.5665475726127625,-0.17423172295093536
1789225103203095000,4.683094970703125,0.38313886523246765,0.4124855697154999,-0.3891754448413849
1789225103213134000,4.693134033203125,0.32439112663269043,0.3588652014732361,-0.5493781566619873
1789225103223171800,4.703171875,0.010597783140838146,0.14203304052352905,0.27415192127227783
1789225103233211400,4.71321142578125,-0.20353208482265472,-0.13381771743297577,0.6867600083351135
1789225103243250700,4.723250732421875,-0.41426509618759155,-0.014177071861922741,0.7351749539375305
1789225103253289500,4.73328955078125,-0.4626014530658722,0.07309737801551819,0.6642259359359741
1789225103263327500,4.743327392578125,-0.3201761543750763,0.10883114486932755,0.48600852489471436
1789225103273366500,4.753366455078125,-0.05152950435876846,0.17379070818424225,0.40839147567749023
1789225103283405600,4.763405517578125,0.08930031955242157,-0.060144830495119095,0.4667091369628906
1789225103293444600,4.773444580078125,0.06290679425001144,0.03742273896932602,0.5232189893722534
1789225103303483400,4.7834833984375,0.06543386727571487,0.13862818479537964,0.10808145999908447
1789225103313521700,4.793521728515625,0.025802835822105408,0.571515679359436,-0.42925843596458435
1789225103323560400,4.803560546875,0.038186535239219666,0.6850464940071106,-0.6090726852416992
1789225103333599500,4.813599609375,0.1235341876745224,0.5232240557670593,-0.549550473690033
1789225103343638800,4.823638671875,0.18720237910747528,0.44833704829216003,-0.3777720630168915
1789225103353676500,4.833676513671875,0.24322037398815155,0.47087565064430237,-0.1874561756849289
1789225103363715600,4.843715576171875,0.2951411008834839,0.37855395674705505,-0.21226751804351807
1789225103373754600,4.853754638671875,0.28736546635627747,0.4142131507396698,-0.360769122838974
1789225103383793700,4.863793701171875,0.20146946609020233,0.420176237821579,-0.1881837546825409
1789225103393831400,4.87383154296875,0.1450520008802414,0.4170036315917969,0.16828301548957825
1789225103403870500,4.883870361328125,0.1082838624715805,0.4442126154899597,0.2849031090736389
1789225103413909800,4.89390966796875,0.09639471024274826,0.6461933851242065,0.264085978269577
1789225103423948500,4.903948486328125,0.18177112936973572,0.7216386198997498,0.27123257517814636
1789225103433986600,4.913986572265625,0.25778546929359436,0.5663571357727051,0.2487589567899704
1789225103444025600,4.924025634765625,0.2951240539550781,0.35897013545036316,0.30051615834236145
1789225103454064600,4.934064697265625,0.25300803780555725,0.41484832763671875,0.2617618441581726
1789225103464103400,4.944103515625,0.2077968716621399,0.4621015787124634,-0.029580529779195786
1789225103474141700,4.9541416015625,0.17635132372379303,0.5572233200073242,-0.33874502778053284
1789225103484180500,4.964180419921875,0.1293148398399353,0.6466748714447021,-0.30704623460769653
1789225103494219500,4.974219482421875,0.10587690025568008,0.6096526980400085,-0.0476657897233963
1789225103504258600,4.984258544921875,0.12527883052825928,0.5762822031974792,0.07815339416265488
1789225103514297600,4.994297607421875,0.18630382418632507,0.5571279525756836,0.004719387739896774
1789225103524335600,5.004335693359375,0.20726823806762695,0.5546903610229492,-0.16368240118026733
1789225103534374400,5.01437451171875,0.13924124836921692,0.31574705243110657,-0.12729616463184357
1789225103544413400,5.024413330078125,0.026767166331410408,0.17847174406051636,-0.06191902607679367
1789225103554452700,5.03445263671875,-0.13468164205551147,0.05916079133749008,0.015387744642794132
1789225103564490500,5.044490478515625,-0.2450406402349472,0.08893732726573944,0.05306880921125412
1789225103574529500,5.054529541015625,-0.3052677810192108,0.1770261824131012,0.13716503977775574
1789225103584568600,5.064568603515625,-0.2459927201271057,0.1772456169128418,0.06962648034095764
1789225103594607600,5.074607666015625,-0.20578858256340027,0.20106039941310883,0.009863283485174179
1789225103604645400,5.084645263671875,-0.25818201899528503,0.042901661247015,0.23629775643348694
1789225103614684700,5.0946845703125,-0.3107331097126007,-0.1487351506948471,0.46403664350509644
1789225103624723700,5.1047236328125,-0.3277973234653473,-0.442137748003006,0.3091125786304474
1789225103634762500,5.114762451171875,-0.4851965308189392,-0.4448312520980835,0.03238137438893318
1789225103644800800,5.12480078125,-0.7686859965324402,-0.6026435494422913,0.09232460707426071
1789225103654839600,5.134839599609375,-0.8076861500740051,-0.8569107055664062,0.09880141168832779
1789225103664878600,5.144878662109375,-0.7957735657691956,-0.7910645604133606,-0.12341541051864624
1789225103674917400,5.15491748046875,-0.8199356198310852,-0.6300205588340759,-0.21082435548305511
1789225103684955600,5.16495556640625,-0.8120550513267517,-0.6505687236785889,-0.040463004261255264
1789225103694994400,5.174994384765625,-0.8626700639724731,-0.7541297078132629,0.11165595799684525
1789225103705033500,5.185033447265625,-0.931125819683075,-0.8185358643531799,0.02195669710636139
1789225103715072500,5.195072509765625,-1.0394717454910278,-0.9159537553787231,-0.03512443229556084
1789225103725110500,5.205110595703125,-1.1161220073699951,-1.1052086353302002,-0.040334105491638184
1789225103735149600,5.215149658203125,-1.1346651315689087,-1.362693190574646,-0.013480122201144695
1789225103745188400,5.225188232421875,-1.1210395097732544,-1.5149301290512085,0.19235239923000336
1789225103755227600,5.2352275390625,-1.1409168243408203,-1.489417314529419,0.36415159702301025
1789225103765266700,5.2452666015625,-1.2210873365402222,-1.3155443668365479,0.3380480706691742
1789225103775304400,5.255304443359375,-1.2834068536758423,-1.2233693599700928,0.07592912018299103
1789225103785343700,5.26534375,-1.2076905965805054,-1.074076771736145,-0.04315812140703201
1789225103795382500,5.275382568359375,-1.1491715908050537,-1.160422682762146,0.18212293088436127
1789225103805421600,5.285421630859375,-1.056217908859253,-1.2261574268341064,0.526911199092865
1789225103815459600,5.29545947265625,-0.9003577828407288,-1.413293719291687,0.4202904999256134
1789225103825498600,5.30549853515625,-0.7743614912033081,-1.3537486791610718,-0.0558299757540226
1789225103835537700,5.31553759765625,-0.7579183578491211,-1.2151330709457397,-0.6373447775840759
1789225103845576400,5.325576416015625,-0.815470278263092,-1.2678241729736328,-0.33253347873687744
1789225103855614700,5.33561474609375,-0.8759624361991882,-1.1379036903381348,0.20166414976119995
1789225103865653500,5.345653564453125,-0.9363892674446106,-1.034993052482605,0.15244972705841064
1789225103875692500,5.355692626953125,-0.9981586337089539,-0.6199485063552856,-0.009010273031890392
1789225103885731600,5.365731689453125,-0.8642300963401794,-0.6233730316162109,-0.20131047070026398
1789225103895769600,5.37576953125,-0.542442262172699,-0.6810616254806519,-0.14965873956680298
1789225103905808400,5.385808349609375,-0.434075266122818,-0.8923717737197876,0.19678816199302673
1789225103915847400,5.395847412109375,-0.39643388986587524,-0.9784238338470459,0.3766324818134308
1789225103925886700,5.40588671875,-0.39655426144599915,-0.8105146884918213,0.2696988582611084
1789225103935924500,5.415924560546875,-0.3939600884914398,-0.7883201837539673,0.028150144964456558
1789225103945963500,5.425963623046875,-0.39546558260917664,-0.7360455393791199,-0.2961166203022003
1789225103956002600,5.43600244140625,-0.4193804860115051,-0.7028787732124329,-0.26742982864379883
1789225103966041600,5.44604150390625,-0.37413790822029114,-0.6193639039993286,0.04096660763025284
1789225103976079400,5.456079345703125,-0.3165893852710724,-0.518915593624115,0.19998209178447723
1789225103986118700,5.46611865234375,-0.21084804832935333,-0.4441518783569336,0.24379055202007294
1789225103996157700,5.47615771484375,-0.08669388294219971,-0.43443721532821655,0.0992640033364296
1789225104006196500,5.486196533203125,-0.07836271822452545,-0.6243624091148376,-0.22375160455703735
1789225104016234800,5.49623486328125,-0.14689117670059204,-0.48841601610183716,-0.40254825353622437
1789225104026273500,5.5062734375,-0.2502330243587494,-0.5913256406784058,-0.0015923039754852653
1789225104036312600,5.5163125,-0.27761003375053406,-0.6641390919685364,0.48371127247810364
1789225104046351600,5.5263515625,-0.2680639326572418,-0.6598623394966125,0.4264192283153534
1789225104056389600,5.5363896484375,-0.20709539949893951,-0.5552978515625,0.1144445538520813
1789225104066428700,5.5464287109375,-0.1702928990125656,-0.5432448983192444,-0.027269437909126282
1789225104076467500,5.556467529296875,-0.15373629331588745,-0.5926406979560852,0.13935309648513794
1789225104086506500,5.566506591796875,-0.1662992238998413,-0.5207534432411194,0.2701449394226074
1789225104096544500,5.57654443359375,-0.1737440973520279,-0.49466219544410706,0.11225809901952744
1789225104106583600,5.58658349609375,-0.09468603134155273,-0.4768126308917999,-0.2939424216747284
1789225104116622300,5.596622314453125,-0.09741336852312088,-0.2652348577976227,-0.41316094994544983
1789225104126661600,5.60666162109375,-0.07328406721353531,-0.5170351266860962,-0.17064817249774933
1789225104136699600,5.61669970703125,-0.041680868715047836,-0.5307989120483398,0.27232658863067627
1789225104146738400,5.626738525390625,-0.04724554345011711,-0.46637091040611267,0.3885757029056549
1789225104156777700,5.63677783203125,-0.029809560626745224,-0.47272467613220215,0.2103244811296463
1789225104166816500,5.64681640625,0.024947427213191986,-0.3687026798725128,-0.1762719750404358
1789225104176854500,5.6568544921875,0.03819771856069565,-0.17096908390522003,-0.21936377882957458
1789225104186893600,5.6668935546875,0.037688255310058594,-0.17144711315631866,0.3568952679634094
1789225104196932600,5.6769326171875,0.09392622858285904,-0.37115970253944397,0.46243715286254883
1789225104206971600,5.6869716796875,0.1719171702861786,-0.03025936894118786,0.08044344186782837
1789225104217009700,5.697009765625,0.3155515491962433,0.047985367476940155,-0.4667772948741913
1789225104227048700,5.707048583984375,0.3359425961971283,0.15550516545772552,-0.1694079339504242
1789225104237087200,5.717087158203125,0.3467555642127991,-0.10029757767915726,0.40140682458877563
1789225104247126000,5.7271259765625,0.3602340817451477,-0.22726377844810486,0.18524175882339478
1789225104257164300,5.737164306640625,0.33762651681900024,0.09260636568069458,0.05585500970482826
1789225104267203000,5.747203125,0.3893626630306244,0.2498292773962021,-0.08396760374307632
1789225104277242000,5.7572421875,0.4216287434101105,0.24783030152320862,0.086035817861557
1789225104287281200,5.76728125,0.4622192978858948,0.24949930608272552,0.19854584336280823
1789225104297319200,5.777319091796875,0.48414164781570435,0.5303744077682495,0.14381521940231323
1789225104307358200,5.787358154296875,0.5639358162879944,0.23288863897323608,-0.26229527592658997
1789225104317397000,5.79739697265625,0.5859414935112,0.3635241389274597,-0.3050360679626465
1789225104327436300,5.807436279296875,0.566871702671051,0.1510811299085617,0.04290032759308815
1789225104337474000,5.81747412109375,0.5221990346908569,0.07787083089351654,0.2302316129207611
1789225104347513000,5.82751318359375,0.4424855411052704,0.30900365114212036,0.25657400488853455
1789225104357552000,5.83755224609375,0.467467337846756,0.33662062883377075,0.023840084671974182
1789225104367591200,5.847591064453125,0.5490524768829346,0.28215497732162476,-0.2841867208480835
1789225104377629000,5.85762890625,0.5511249303817749,0.3836406171321869,-0.4063808023929596
1789225104387668200,5.867668212890625,0.4691064953804016,0.2746230363845825,-0.22696790099143982
1789225104397707300,5.877707275390625,0.2693995237350464,0.22014355659484863,0.026209766045212746
1789225104407746000,5.88774609375,0.19419823586940765,0.05050258710980415,0.06299840658903122
1789225104417785000,5.89778515625,0.12676459550857544,0.0010420948965474963,-0.07555174827575684
1789225104427823000,5.907822998046875,0.16370823979377747,-0.2191358059644699,-0.08081149309873581
1789225104437862100,5.917862060546875,0.16312234103679657,-0.33172574639320374,-0.08767072856426239
1789225104447901200,5.927901123046875,0.13067971169948578,-0.4025932550430298,0.058404188603162766
1789225104457939200,5.937939208984375,0.0701306164264679,-0.2152705043554306,0.4348936676979065
1789225104467978200,5.947978271484375,0.017899638041853905,-0.14552098512649536,0.3920700252056122
1789225104478017000,5.95801708984375,0.03284583240747452,0.07873742282390594,0.21694828569889069
1789225104488056000,5.96805615234375,0.12198050320148468,0.04156928136944771,0.013006346300244331
1789225104498094000,5.978093994140625,0.20262926816940308,-0.027093669399619102,-0.055988699197769165
1789225104508133000,5.988133056640625,0.22837671637535095,-0.26639893651008606,0.08340860903263092
1789225104518172200,5.998172119140625,0.19159500300884247,-0.2346937358379364,0.3299861550331116
1789225104528211200,6.008211181640625,0.13704200088977814,-0.16409999132156372,0.24583666026592255
1789225104538249200,6.018249267578125,0.10283849388360977,-0.00794394314289093,-0.0710265040397644
1789225104548288000,6.0282880859375,0.1592639535665512,0.17144179344177246,-0.25936445593833923
1789225104558327300,6.038327392578125,0.3101080656051636,0.14070385694503784,-0.29314371943473816
1789225104568366000,6.048365966796875,0.4380204975605011,0.1581164002418518,-0.14500299096107483
1789225104578404000,6.058404052734375,0.5156790614128113,0.2217337191104889,0.1550431102514267
1789225104588443100,6.068443115234375,0.530046820640564,0.34656140208244324,-0.019051188603043556
1789225104598482200,6.078482177734375,0.5076096653938293,0.46646732091903687,-0.3916897475719452
1789225104608521200,6.088521240234375,0.464962363243103,0.4777356684207916,-0.4131433665752411
1789225104618559200,6.098559326171875,0.48698297142982483,0.3395509123802185,-0.14498035609722137
1789225104628598300,6.108598388671875,0.49275538325309753,0.38098275661468506,0.02816852182149887
1789225104638637000,6.118636962890625,0.5422547459602356,0.5020146369934082,0.048167530447244644
1789225104648676000,6.128676025390625,0.6125121116638184,0.5815827250480652,0.017103886231780052
1789225104658714000,6.138714111328125,0.6731552481651306,0.6461403965950012,0.013198093511164188
1789225104668753200,6.148753173828125,0.6641457676887512,0.6852023005485535,0.14907203614711761
1789225104678792200,6.158792236328125,0.6335551142692566,0.6260327100753784,0.38356149196624756
1789225104688831000,6.1688310546875,0.6418417692184448,0.524957537651062,0.41666379570961
1789225104698869200,6.178869140625,0.6697240471839905,0.6484480500221252,0.03802674263715744
1789225104708908000,6.188907958984375,0.6113957166671753,0.779369056224823,-0.20677314698696136
1789225104718947000,6.198947021484375,0.565230131149292,0.6075149774551392,0.05041363835334778
1789225104728986400,6.208986328125,0.5634825229644775,0.4757143259048462,0.2610507607460022
1789225104739024100,6.219024169921875,0.5178114771842957,0.6721834540367126,0.1968158632516861
1789225104749063200,6.229063232421875,0.5402560234069824,0.6927971243858337,-0.062005847692489624
1789225104759102200,6.239102294921875,0.6131808757781982,0.5624337792396545,-0.5963387489318848
1789225104769141200,6.249141357421875,0.562547504901886,0.5191390514373779,-0.5411441922187805
1789225104779179000,6.259178955078125,0.5389865040779114,0.5698349475860596,0.01347825862467289
1789225104789218300,6.26921826171875,0.48342418670654297,0.6711158156394958,0.32255861163139343
1789225104799257000,6.279257080078125,0.4431433379650116,0.7936409115791321,0.4355914294719696
1789225104809296100,6.289296142578125,0.5315717458724976,0.8121469616889954,0.2165602743625641
1789225104819334100,6.299334228515625,0.5568858981132507,0.6604149341583252,-0.12140046060085297
1789225104829373200,6.309373291015625,0.4949876368045807,0.6065199971199036,-0.7693406343460083
1789225104839412200,6.319412109375,0.36578330397605896,0.5512391924858093,-0.0980440080165863
1789225104849451000,6.329450927734375,0.34931138157844543,0.4607186019420624,0.5534616112709045
1789225104859489300,6.3394892578125,0.274664044380188,0.651243269443512,0.48166385293006897
1789225104869528000,6.349528076171875,0.24364781379699707,1.0106009244918823,0.2637786567211151
1789225104879567000,6.359567138671875,0.445237398147583,0.6199540495872498,-0.3035636246204376
1789225104889606100,6.369606201171875,0.5285394787788391,0.9070441722869873,-0.38907477259635925
1789225104899644200,6.37964404296875,0.48087793588638306,0.8429807424545288,-0.052747100591659546
1789225104909683200,6.38968310546875,0.39628368616104126,0.7228732705116272,0.1286647617816925
1789225104919722000,6.399721923828125,0.3052770793437958,0.7416562438011169,0.06963234394788742
1789225104929761300,6.40976123046875,0.24237535893917084,0.8041489124298096,0.036307405680418015
1789225104939799000,6.419799072265625,0.2761666178703308,0.6393275260925293,-0.21568648517131805
1789225104949838000,6.429838134765625,0.32419538497924805,0.6600934863090515,-0.4276072680950165
1789225104959877400,6.43987744140625,0.3107578754425049,0.6045370101928711,-0.008065116591751575
1789225104969916200,6.449916259765625,0.3123994469642639,0.46425262093544006,0.2918800711631775
1789225104979954200,6.4599541015625,0.24055348336696625,0.694418728351593,0.20084868371486664
1789225104989993200,6.4699931640625,0.19583794474601746,0.7349382042884827,-0.10250453650951385
1789225105000032300,6.4800322265625,0.17632842063903809,0.7443159818649292,-0.3091581165790558
1789225105010071000,6.490071044921875,0.08892161399126053,0.6569679975509644,-0.03305329009890556
1789225105020109000,6.500109130859375,0.11882971227169037,0.30485230684280396,0.20930741727352142
1789225105030148000,6.510148193359375,0.10532029718160629,0.2609029710292816,0.15652036666870117
1789225105040187100,6.520187255859375,-0.023803332820534706,0.32621246576309204,0.08541902899742126
1789225105050225200,6.53022509765625,-0.08697164803743362,0.3490954041481018,0.18851664662361145
1789225105060264200,6.54026416015625,-0.14182956516742706,0.24589471518993378,0.3427933156490326
1789225105070303200,6.55030322265625,-0.12106037884950638,0.2235148549079895,0.23083321750164032
1789225105080342000,6.560342041015625,-0.15174664556980133,0.33666136860847473,-0.04845142364501953
1789225105090380300,6.57038037109375,-0.19064371287822723,0.2508934736251831,-0.2100970447063446
1789225105100419000,6.580419189453125,-0.2472180426120758,0.038784679025411606,-0.12068087607622147
1789225105110458000,6.5904580078125,-0.3395785987377167,-0.09415686130523682,0.13493917882442474
1789225105120497200,6.6004970703125,-0.39462828636169434,-0.22103038430213928,0.30931150913238525
1789225105130535200,6.61053515625,-0.42245805263519287,-0.20078742504119873,0.15950417518615723
1789225105140574200,6.62057421875,-0.39770129323005676,-0.07221613824367523,-0.12392647564411163
1789225105150613000,6.630613037109375,-0.405676931142807,-0.029764819890260696,-0.07025392353534698
1789225105160652300,6.64065234375,-0.41541585326194763,-0.14750823378562927,0.2542099058628082
1789225105170690000,6.65068994140625,-0.4268951416015625,-0.2612830102443695,0.21926124393939972
1789225105180729000,6.66072900390625,-0.4912549555301666,-0.0908777117729187,-0.10081742703914642
1789225105190768000,6.67076806640625,-0.5477320551872253,-0.16312207281589508,-0.19656206667423248
1789225105200807200,6.68080712890625,-0.5940995812416077,-0.41198354959487915,-0.010261692106723785
1789225105210845200,6.69084521484375,-0.614927351474762,-0.5316007733345032,0.12014398723840714
1789225105220884000,6.700884033203125,-0.6398904919624329,-0.50636225938797,0.09212486445903778
1789225105230923000,6.710923095703125,-0.6606759428977966,-0.3969188630580902,0.1399214118719101
1789225105240961800,6.7209619140625,-0.6521474123001099,-0.552981436252594,0.23697899281978607
1789225105250999800,6.730999755859375,-0.6110652089118958,-0.7277505993843079,-0.08257690072059631
1789225105261038800,6.741038818359375,-0.653626561164856,-0.6569485664367676,-0.4640448987483978
1789225105271078000,6.751077880859375,-0.744778573513031,-0.7628771066665649,-0.20665517449378967
1789225105281117000,6.761116943359375,-0.7604230046272278,-0.8438001871109009,0.023443806916475296
1789225105291155000,6.771155029296875,-0.8466242551803589,-0.6800932884216309,-0.0445869080722332
1789225105301194000,6.781194091796875,-0.8693681359291077,-0.6711490750312805,-0.2102762758731842
1789225105311232800,6.791232666015625,-0.8961342573165894,-0.8225868344306946,-0.3880763649940491
1789225105321271000,6.80127099609375,-0.8879386186599731,-0.7394455671310425,-0.20728154480457306
1789225105331309800,6.811309814453125,-0.7589511275291443,-0.8250382542610168,0.13750486075878143
1789225105341348900,6.821348876953125,-0.6805854439735413,-0.6108739972114563,0.4877294600009918
1789225105351388000,6.831387939453125,-0.6001907587051392,-0.6529266834259033,0.37576058506965637
1789225105361426000,6.841426025390625,-0.5515100359916687,-0.7500692009925842,0.1322523057460785
1789225105371465000,6.85146484375,-0.6880170106887817,-0.7495903372764587,-0.11606455594301224
1789225105381503700,6.861503662109375,-0.7706335783004761,-1.0043747425079346,0.03839505836367607
1789225105391542800,6.871542724609375,-0.7497733235359192,-1.0206109285354614,0.4204398989677429
1789225105401580800,6.881580810546875,-0.674771249294281,-1.020119071006775,0.20097491145133972
1789225105411619800,6.891619873046875,-0.6146104335784912,-0.48696354031562805,-0.27227598428726196
1789225105421659000,6.901658935546875,-0.46016520261764526,-0.3316631615161896,-0.39988428354263306
1789225105431698000,6.911697998046875,-0.29931214451789856,-0.3820347189903259,-0.16939249634742737
1789225105441736000,6.92173583984375,-0.220957413315773,-0.42444607615470886,-0.03706987202167511
1789225105451774700,6.931774658203125,-0.12600986659526825,-0.30827900767326355,-0.3923925459384918
1789225105461814000,6.94181396484375,-0.07985728234052658,-0.05595088377594948,-0.648999035358429
1789225105471852800,6.951852783203125,-0.14150600135326385,-0.2103215456008911,-0.20209850370883942
1789225105481890800,6.961890869140625,-0.19961057603359222,-0.44542914628982544,0.3998781740665436
1789225105491930000,6.97193017578125,-0.22636283934116364,-0.47724005579948425,0.3428116738796234
1789225105501969000,6.981968994140625,-0.2269873470067978,-0.25038933753967285,0.07081611454486847
1789225105512008000,6.992008056640625,-0.11250577121973038,-0.10499698668718338,-0.0403684601187706
1789225105522046000,7.0020458984375,0.03232571482658386,0.050267964601516724,0.42642882466316223
1789225105532085000,7.0120849609375,0.11966434866189957,-0.0706680417060852,0.7966947555541992
1789225105542123800,7.022123779296875,0.203342467546463,0.07044912874698639,0.4186933934688568
1789225105552162000,7.032162109375,0.11509409546852112,0.22565096616744995,-0.11601635068655014
1789225105562200800,7.042200927734375,-0.007050719112157822,0.1046086996793747,-0.18334531784057617
1789225105572240000,7.052239990234375,-0.10504892468452454,-0.10461216419935226,0.2312350869178772
1789225105582279000,7.06227880859375,-0.0503702312707901,-0.39212462306022644,0.2169906347990036
1789225105592317000,7.07231689453125,-0.015527027659118176,-0.18152345716953278,-0.09840806573629379
1789225105602356000,7.08235595703125,0.06876521557569504,-0.07610994577407837,-0.4369991719722748
1789225105612394800,7.092394775390625,0.07836271822452545,-0.09015785902738571,-0.4855448603630066
1789225105622433800,7.102433837890625,0.03615400940179825,-0.13435247540473938,-0.28405410051345825
1789225105632471800,7.112471923828125,-0.014288391917943954,-0.11258672922849655,-0.1500512808561325
1789225105642510800,7.1225107421875,-0.07033594697713852,-0.039331428706645966,-0.10179293900728226
1789225105652550000,7.1325498046875,-0.06574945151805878,-0.065994992852211,-0.026885144412517548
1789225105662589000,7.1425888671875,-0.070973239839077,-0.1797412633895874,0.16582705080509186
1789225105672627000,7.152626953125,-0.060991182923316956,-0.2607407867908478,0.2568451166152954
1789225105682665700,7.162665771484375,-0.07602845132350922,-0.2794950306415558,0.25849199295043945
1789225105692705000,7.172705078125,-0.1030598059296608,-0.2531832754611969,0.4174228012561798
1789225105702744000,7.182744140625,-0.09241195768117905,-0.27657991647720337,0.517041802406311
1789225105712781800,7.19278173828125,-0.06575797498226166,-0.1108226552605629,0.28783443570137024
1789225105722821000,7.202821044921875,0.05674024298787117,0.05602651834487915,-0.10243795812129974
1789225105732860000,7.21285986328125,0.07185900956392288,0.11811785399913788,-0.13886094093322754
1789225105742898000,7.22289794921875,0.08347092568874359,-0.008446482010185719,0.19215133786201477
1789225105752937000,7.23293701171875,0.1028938889503479,-0.1609361618757248,0.24312449991703033
1789225105762976000,7.24297607421875,0.1138400137424469,-0.17915751039981842,-0.1422455608844757
1789225105773014800,7.253014892578125,0.15424123406410217,-0.01224574726074934,-0.6621105670928955
1789225105783052800,7.263052734375,0.11574497818946838,0.14450445771217346,-0.3747006356716156
1789225105793092000,7.273092041015625,0.10993342101573944,0.0076094502583146095,0.22617481648921967
1789225105803131000,7.283130859375,0.09650150686502457,0.0781957358121872,0.3736417591571808
1789225105813170000,7.293169921875,0.130791574716568,0.4449545741081238,0.19092334806919098
1789225105823208000,7.3032080078125,0.2599825859069824,0.23404045403003693,-0.24021846055984497
1789225105833247000,7.3132470703125,0.40752488374710083,0.509717583656311,-0.6290959119796753
1789225105843285800,7.32328564453125,0.36881718039512634,0.26858699321746826,-0.024444356560707092
1789225105853324800,7.33332470703125,0.3612484633922577,0.1814398318529129,0.7534191608428955
1789225105863362800,7.34336279296875,0.386023610830307,0.07099960744380951,0.4765886664390564
1789225105873401900,7.35340185546875,0.32359403371810913,0.3826379179954529,-0.13243021070957184
1789225105883441000,7.36344091796875,0.34266307950019836,0.7937639355659485,-0.2703087031841278
1789225105893479000,7.37347900390625,0.323003888130188,0.6196866631507874,0.4145553708076477
1789225105903518000,7.38351806640625,0.37431076169013977,0.30982550978660583,0.582650363445282
1789225105913556700,7.393556640625,0.45105719566345215,0.4153386056423187,0.2371470332145691
1789225105923596000,7.403595947265625,0.400932252407074,0.275893896818161,-0.2593868374824524
1789225105933633800,7.4136337890625,0.2618670165538788,0.38868436217308044,-0.3516179621219635
1789225105943672800,7.4236728515625,0.1902623474597931,0.1749206781387329,0.2075449377298355
1789225105953711900,7.4337119140625,0.11563391983509064,-0.03526025265455246,0.3826424479484558
1789225105963751000,7.4437509765625,0.10982423275709152,0.19907209277153015,0.026823891326785088
1789225105973789000,7.453788818359375,0.23131418228149414,0.17980438470840454,-0.5552642941474915
1789225105983827700,7.46382763671875,0.2082088589668274,0.4501431882381439,-0.7162033915519714
1789225105993867000,7.473866943359375,0.15285053849220276,0.2992737889289856,-0.07659970223903656
1789225106003906000,7.483906005859375,0.13054735958576202,-0.019535884261131287,0.15976889431476593
1789225106013943800,7.49394384765625,0.07586786895990372,0.18930041790008545,-0.031202927231788635
1789225106023983000,7.503983154296875,0.0331486314535141,0.15939098596572876,-0.1279931217432022
1789225106034022000,7.51402197265625,0.04327796399593353,-0.0291160736232996,-0.10280520468950272
1789225106044061000,7.52406103515625,0.005352953914552927,-0.04452219232916832,0.09742269665002823
1789225106054099000,7.534098876953125,-0.0662703663110733,-0.016157664358615875,0.5012183785438538
1789225106064138000,7.544137939453125,-0.09653399884700775,-0.0957891121506691,0.8579045534133911
1789225106074176800,7.5541767578125,-0.11894556134939194,0.09558644145727158,0.7787581086158752
1789225106084215000,7.564215087890625,-0.0328596793115139,-0.08293429762125015,0.3808932900428772
1789225106094254000,7.574254150390625,-0.062377624213695526,-0.11753302067518234,-0.16959142684936523
1789225106104292900,7.58429296875,-0.061283331364393234,0.09399840235710144,-0.74007648229599
1789225106114332000,7.594331787109375,-0.04302070289850235,-0.1370161771774292,-0.025427861139178276
1789225106124370000,7.604369873046875,-0.004462392535060644,-0.3621523678302765,0.34018474817276
1789225106134409000,7.614408935546875,-0.04147686809301376,-0.09581494331359863,0.12128807604312897
1789225106144447700,7.62444775390625,-0.0683249980211258,0.1419222503900528,-0.42753827571868896
1789225106154486800,7.63448681640625,0.03130865469574928,0.14057202637195587,-0.8844011425971985
1789225106164524800,7.64452490234375,-0.06334381550550461,0.31440508365631104,-0.6916194558143616
1789225106174563800,7.654563720703125,-0.04499650374054909,-0.04027818143367767,-0.1388188749551773
1789225106184603000,7.664602783203125,0.031926773488521576,-0.23024864494800568,0.02118171751499176
1789225106194641000,7.674640869140625,0.04456959664821625,-0.03937030956149101,-0.17130011320114136
1789225106204680000,7.684679931640625,0.056105345487594604,0.10830517113208771,-0.19666752219200134
1789225106214718700,7.69471875,0.028665732592344284,-0.0472271665930748,0.14624163508415222
1789225106224758000,7.704758056640625,-0.005138303153216839,-0.031245803460478783,0.4432240426540375
1789225106234796300,7.71479638671875,-0.0555490143597126,0.06317976862192154,0.5771256685256958
1789225106244835300,7.72483544921875,-0.010304036550223827,0.09111366420984268,0.3429621458053589
1789225106254874400,7.734874267578125,0.022036593407392502,0.21099746227264404,0.16555353999137878
1789225106264913400,7.744913330078125,-0.00376064982265234,0.060976799577474594,0.39717239141464233
1789225106274951400,7.754951416015625,0.012849219143390656,-0.24646703898906708,0.5274443626403809
1789225106284990200,7.764990234375,0.011001784354448318,-0.22668933868408203,0.14095978438854218
1789225106295029500,7.775029541015625,-0.047918256372213364,-0.1689235121011734,-0.3676283359527588
1789225106305068500,7.785068603515625,-0.08139259368181229,-0.13598127663135529,-0.49494582414627075
1789225106315106300,7.795106201171875,-0.08858206123113632,-0.15129896998405457,-0.22873251140117645
1789225106325145600,7.8051455078125,-0.08069857209920883,-0.2611687481403351,-0.12236080318689346
1789225106335184400,7.815184326171875,0.023670176044106483,-0.15383243560791016,-0.47486796975135803
1789225106345222400,7.825222412109375,0.02100861258804798,0.07738613337278366,-0.7291199564933777
1789225106355261400,7.835261474609375,-0.010456369258463383,-0.15628308057785034,-0.3051665723323822
1789225106365300500,7.845300537109375,-0.037704236805438995,-0.42644238471984863,0.14790689945220947
1789225106375339500,7.855339599609375,-0.0333571583032608,-0.4259273409843445,0.03430071473121643
1789225106385377300,7.865377197265625,-0.13295964896678925,-0.31602054834365845,-0.12943574786186218
1789225106395416600,7.87541650390625,-0.14813381433486938,-0.2449471652507782,0.02322383038699627
1789225106405455400,7.885455322265625,-0.12811562418937683,-0.29410219192504883,0.42901235818862915
1789225106415494400,7.895494384765625,-0.12275254726409912,-0.2653355300426483,0.7084589004516602
1789225106425532400,7.905532470703125,-0.04466520622372627,-0.08691146224737167,0.4791466295719147
1789225106435571500,7.915571533203125,0.011347196996212006,-0.03892689198255539,0.008509065955877304
1789225106445610200,7.9256103515625,-0.07056897133588791,0.02816426008939743,0.022518625482916832
1789225106455648500,7.9356484375,-0.1009918600320816,-0.2816716134548187,0.4205344319343567
1789225106465687600,7.9456875,-0.04084543511271477,-0.5708983540534973,0.1558292806148529
1789225106475726300,7.955726318359375,-0.019031215459108353,-0.33192920684814453,-0.3868443965911865
1789225106485765400,7.965765380859375,0.00812344066798687,-0.1653708517551422,-0.5573508739471436
1789225106495803400,7.975803466796875,0.02943245694041252,-0.24497592449188232,-0.36051052808761597
1789225106505842400,7.985842529296875,0.0415695458650589,-0.2904320955276489,-0.1728133261203766
1789225106515881200,7.995881103515625,0.016801349818706512,-0.14105752110481262,-0.17960305511951447
1789225106525920500,8.00592041015625,0.05194442346692085,0.029160281643271446,-0.5388461947441101
1789225106535958300,8.015958251953125,0.09447696805000305,0.1954517811536789,-0.6342800259590149
1789225106545997300,8.025997314453125,0.1100359559059143,-0.03117363154888153,-0.10883487015962601
1789225106556036400,8.036036376953126,0.13084030151367188,-0.1707642823457718,0.3803742229938507
1789225106566074400,8.046074462890624,0.1571512669324875,-0.11745365709066391,0.4047653377056122
1789225106576113400,8.056113525390625,0.1939644068479538,0.03267698734998703,0.1817048192024231
1789225106586152200,8.066152099609376,0.20171740651130676,0.19229674339294434,0.21865405142307281
1789225106596191500,8.07619140625,0.2127104103565216,0.1163838654756546,0.4598221778869629
1789225106606229200,8.086229248046875,0.20235709846019745,0.12333445250988007,0.6826273202896118
1789225106616268300,8.096268310546876,0.22482991218566895,0.11502032727003098,0.5285767316818237
1789225106626307600,8.1063076171875,0.27181074023246765,0.31329241394996643,-0.017438111826777458
1789225106636346400,8.116346435546875,0.29611554741859436,0.44998499751091003,-0.4206646680831909
1789225106646384400,8.12638427734375,0.32034924626350403,0.28763285279273987,-0.30805689096450806
1789225106656423400,8.13642333984375,0.3684539198875427,0.1825232058763504,-0.0394054614007473
1789225106666462500,8.14646240234375,0.3918015956878662,0.24479004740715027,-0.21199321746826172
1789225106676500200,8.156500244140625,0.4041118025779724,0.47198617458343506,-0.6177926659584045
1789225106686539500,8.16653955078125,0.4086380898952484,0.5149248838424683,-0.6670970916748047
1789225106696578600,8.17657861328125,0.4223640263080597,0.3464098870754242,-0.4235858917236328
1789225106706617300,8.186617431640625,0.40237727761268616,0.3961468040943146,-0.02702282927930355
1789225106716655600,8.196655517578124,0.3765776455402374,0.44684645533561707,0.144631490111351
1789225106726694400,8.2066943359375,0.34369051456451416,0.5432318449020386,0.1287507861852646
1789225106736733400,8.2167333984375,0.3724888861179352,0.4594256579875946,-0.13751071691513062
1789225106746771500,8.226771484375,0.32116392254829407,0.5489445924758911,-0.005795571021735668
1789225106756810500,8.236810546875,0.33783823251724243,0.2811933159828186,0.32080093026161194
1789225106766849300,8.246849365234375,0.34376004338264465,0.1681796908378601,0.4613889157772064
1789225106776888300,8.256888427734374,0.3259466886520386,0.3204299509525299,0.36736735701560974
1789225106786926600,8.266926513671875,0.27310317754745483,0.5218376517295837,0.21052901446819305
1789225106796965400,8.27696533203125,0.2423125058412552,0.5575532913208008,0.27388879656791687
1789225106807004400,8.28700439453125,0.2150832861661911,0.5511281490325928,0.32793286442756653
1789225106817043200,8.297043212890625,0.2787858247756958,0.6310948729515076,0.15554006397724152
1789225106827081500,8.30708154296875,0.3496674597263336,0.34981924295425415,-0.2848024368286133
1789225106837120300,8.317120361328126,0.31940701603889465,0.3414055407047272,-0.7250877022743225
1789225106847159300,8.3271591796875,0.21231971681118011,0.2692197561264038,-0.2687326669692993
1789225106857197300,8.337197265625,0.19609335064888,0.014164554886519909,0.016436230391263962
1789225106867236400,8.347236328125,0.08579958975315094,0.11994744092226028,-0.08798737823963165
1789225106877275400,8.357275390625,0.013974138535559177,0.2512120008468628,-0.3688608705997467
1789225106887314400,8.367314453125,0.03554494306445122,0.2727755904197693,-0.48159486055374146
1789225106897352400,8.3773525390625,0.05112843215465546,0.36724433302879333,-0.2813136875629425
1789225106907391200,8.38739111328125,0.12698377668857574,0.28876015543937683,-0.2464127093553543
1789225106917430500,8.397430419921875,0.17209959030151367,0.44176942110061646,-0.33579185605049133
1789225106927469600,8.407469482421876,0.09711643308401108,0.5094784498214722,0.05210820958018303
1789225106937507300,8.41750732421875,0.07925247400999069,0.2245689332485199,0.581666886806488
1789225106947546400,8.42754638671875,0.06682297587394714,0.1456083357334137,0.544765055179596
1789225106957585400,8.43758544921875,0.10547875612974167,0.20093336701393127,0.10562789440155029
1789225106967623400,8.44762353515625,0.11615989357233047,0.35852086544036865,0.028062527999281883
1789225106977662200,8.457662109375,0.05823054909706116,0.3435507118701935,0.6727342009544373
1789225106987701500,8.467701416015625,0.007168430835008621,0.00815113727003336,0.7258317470550537
1789225106997740500,8.477740478515624,0.026326412335038185,0.3980538845062256,0.309253454208374
1789225107007778300,8.4877783203125,-0.04072719067335129,0.2807219326496124,-0.34489506483078003
1789225107017817600,8.497817626953125,-0.0841154083609581,0.26751425862312317,-0.9150461554527283
1789225107027856400,8.5078564453125,-0.08056674897670746,0.4637279808521271,-0.4865289032459259
1789225107037895400,8.5178955078125,0.016691895201802254,0.06666184961795807,0.2661227583885193
1789225107047933400,8.527933349609375,0.14891065657138824,-0.21759596467018127,-0.04499863460659981
1789225107057972500,8.537972412109376,0.09066252410411835,0.13218893110752106,-0.4779103696346283
1789225107068011300,8.54801123046875,-0.09825519472360611,0.43768227100372314,-0.26822346448898315
1789225107078049500,8.558049560546875,-0.24407178163528442,0.3621448874473572,0.20507432520389557
1789225107088088600,8.568088623046876,-0.24577833712100983,0.3111211359500885,0.2595391571521759
1789225107098127400,8.57812744140625,-0.21306726336479187,-0.06354888528585434,0.0446644052863121
1789225107108166400,8.58816650390625,-0.1469641476869583,-0.09021804481744766,-0.2386503964662552
1789225107118204400,8.598204345703126,-0.158287912607193,-0.3521204888820648,-0.0670461431145668
1789225107128243500,8.608243408203125,-0.2066144347190857,-0.33874744176864624,0.48831507563591003
1789225107138282200,8.6182822265625,-0.2839970886707306,-0.3948945999145508,0.5828205347061157
1789225107148320500,8.628320556640626,-0.4510739743709564,0.048474591225385666,0.14694470167160034
1789225107158359300,8.638359375,-0.4760517477989197,0.2677382230758667,-0.3465971052646637
1789225107168398300,8.6483984375,-0.43011274933815,0.14794819056987762,-0.31760644912719727
1789225107178437400,8.658437255859376,-0.34570226073265076,-0.060385845601558685,0.17314541339874268
1789225107188475400,8.668475341796874,-0.23176266252994537,-0.16426457464694977,0.5465093851089478
1789225107198514400,8.678514404296875,-0.14732927083969116,-0.1604117751121521,0.3533111810684204
1789225107208553200,8.68855322265625,-0.19658362865447998,-0.4094162881374359,-0.1622972935438156
1789225107218592500,8.698592529296874,-0.3624764680862427,-0.3413757085800171,-0.5923658609390259
1789225107228630300,8.70863037109375,-0.507930338382721,-0.5405538082122803,-0.27002614736557007
1789225107238669000,8.7186689453125,-0.5804846882820129,-0.5793104767799377,0.19448985159397125
1789225107248708400,8.728708251953124,-0.6169633269309998,-0.2652361989021301,-0.04157993197441101
1789225107258746000,8.73874609375,-0.4900810122489929,-0.009916280396282673,-0.457645058631897
1789225107268785200,8.74878515625,-0.3909760117530823,-0.02407950349152088,-0.4510563910007477
1789225107278824200,8.75882421875,-0.3746359348297119,-0.21827241778373718,0.018665563315153122
1789225107288863200,8.76886328125,-0.3439411222934723,-0.4801844656467438,0.332120418548584
1789225107298901000,8.77890087890625,-0.41240328550338745,-0.44580942392349243,0.26272642612457275
1789225107308940300,8.788940185546876,-0.4984460175037384,-0.44466933608055115,0.07674431055784225
1789225107318979300,8.798979248046875,-0.6021819710731506,-0.48780110478401184,0.17963235080242157
1789225107329017000,8.80901708984375,-0.6869283318519592,-0.6304866075515747,0.21898667514324188
1789225107339056000,8.81905615234375,-0.6420838832855225,-0.5277194976806641,0.096535325050354
1789225107349095200,8.82909521484375,-0.6056355834007263,-0.4197496175765991,0.1970648616552353
1789225107359134200,8.83913427734375,-0.46509072184562683,-0.4902360141277313,0.2843068242073059
1789225107369172200,8.849172119140626,-0.3871770203113556,-0.44268926978111267,0.08218648284673691
1789225107379211300,8.859211181640624,-0.3939390480518341,-0.4117151200771332,-0.052323926240205765
1789225107389250000,8.86925,-0.4249560832977295,-0.5851854085922241,-0.024295486509799957
1789225107399288000,8.8792880859375,-0.5334876179695129,-0.5840528011322021,0.040533844381570816
1789225107409327000,8.8893271484375,-0.6120948195457458,-0.6821801662445068,-0.15562021732330322
1789225107419366100,8.8993662109375,-0.5837348103523254,-0.6544926166534424,-0.5289972424507141
1789225107429405200,8.9094052734375,-0.5397948026657104,-0.4853571057319641,-0.6044883131980896
1789225107439443200,8.919443115234374,-0.44618335366249084,-0.6867477297782898,-0.15875715017318726
1789225107449482200,8.929482177734375,-0.3638298809528351,-0.811054527759552,0.2574038505554199
1789225107459521000,8.93952099609375,-0.33742383122444153,-0.6758192181587219,0.08546137064695358
1789225107469559300,8.949559326171874,-0.3826911747455597,-0.31583064794540405,-0.20129156112670898
1789225107479598000,8.95959814453125,-0.4048164486885071,-0.2346537858247757,-0.025780996307730675
1789225107489637000,8.96963720703125,-0.3363519310951233,-0.48835504055023193,0.2612571716308594
1789225107499676200,8.97967626953125,-0.32714298367500305,-0.5485554933547974,0.39617717266082764
1789225107509714200,8.989714111328125,-0.2859167158603668,-0.38590243458747864,0.2519896328449249
1789225107519753200,8.999753173828125,-0.1862255334854126,-0.32147735357284546,0.1519719511270523
1789225107529792000,9.0097919921875,-0.1112959012389183,-0.40587374567985535,0.10952755808830261
1789225107539831000,9.0198310546875,-0.09777742624282837,-0.31816786527633667,0.13506273925304413
1789225107549869000,9.029869140625,-0.12354803830385208,-0.25133582949638367,0.4073065221309662
1789225107559908000,9.039908203125,-0.0802394449710846,-0.2981099784374237,0.2148425281047821
1789225107569947100,9.049947021484375,0.007837150245904922,-0.10095085203647614,-0.2012833058834076
1789225107579985200,9.059985107421875,0.0067902617156505585,0.013127786107361317,-0.35244327783584595
1789225107590024200,9.070024169921876,0.011005779728293419,-0.06739448755979538,-0.09241408854722977
1789225107600063000,9.08006298828125,0.05895599350333214,-0.2458995133638382,-0.16285176575183868
1789225107610102300,9.090102294921875,0.09135761111974716,-0.21313731372356415,-0.33068764209747314
1789225107620140000,9.10014013671875,0.11788588762283325,-0.2867042124271393,-0.4079741835594177
1789225107630179000,9.110178955078124,0.10980266332626343,-0.32402360439300537,-0.14232198894023895
1789225107640218400,9.12021826171875,0.0766282007098198,-0.1959327608346939,0.008923187851905823
1789225107650256100,9.130256103515626,-0.0036887445021420717,0.0639510229229927,-0.004286890383809805
1789225107660295200,9.140295166015624,0.010318417102098465,0.19028019905090332,0.21587663888931274
1789225107670334200,9.150334228515625,0.06728529930114746,0.08942309021949768,0.2964708209037781
1789225107680373200,9.160373291015626,0.10474985092878342,0.3343883752822876,0.1413440853357315
1789225107690411000,9.170410888671874,0.3134460747241974,0.3968528211116791,0.2211768627166748
1789225107700450300,9.1804501953125,0.3741711974143982,-0.018676482141017914,0.4021410644054413
1789225107710489000,9.190489013671876,0.3410779535770416,-0.13930197060108185,0.3269767761230469
1789225107720527000,9.200527099609374,0.23823226988315582,0.07628384977579117,0.08052972704172134
1789225107730566100,9.210566162109375,0.22447757422924042,0.1061253696680069,-0.05692586675286293
1789225107740605200,9.220605224609375,0.2727489769458771,0.14332333207130432,-0.04127127304673195
1789225107750644200,9.230644287109374,0.347773939371109,0.26243507862091064,-0.04249046742916107
1789225107760682000,9.240681884765625,0.4831991493701935,0.390253484249115,-0.28524160385131836
1789225107770721300,9.25072119140625,0.6024339199066162,0.556053102016449,-0.5480197072029114
1789225107780760000,9.260760009765624,0.6192416548728943,0.47438010573387146,-0.3945459723472595
1789225107790798000,9.270798095703125,0.5726997256278992,0.39850664138793945,-0.2561185956001282
1789225107800837000,9.280837158203125,0.4543994665145874,0.4967495799064636,-0.19492501020431519
1789225107810876200,9.290876220703124,0.4259489178657532,0.3314436972141266,-0.1929212510585785
1789225107820915200,9.300915283203125,0.45471876859664917,0.3397807478904724,-0.24777677655220032
1789225107830953200,9.310953125,0.47523096203804016,0.4753188490867615,-0.07139801979064941
1789225107840992300,9.3209921875,0.5312753319740295,0.5274046659469604,0.44714686274528503
1789225107851031000,9.331031005859375,0.540424644947052,0.565690815448761,0.640105128288269
1789225107861069300,9.3410693359375,0.5626537799835205,0.720652163028717,0.3921392858028412
1789225107871108000,9.351108154296876,0.5904558300971985,0.8395359516143799,0.05614689365029335
1789225107881147100,9.361147216796875,0.5302481651306152,0.8280721306800842,0.14155898988246918
1789225107891186200,9.371186279296875,0.4901273548603058,0.686427891254425,0.5168396830558777
1789225107901224200,9.38122412109375,0.5296944975852966,0.4047682583332062,0.0975332111120224
1789225107911263200,9.39126318359375,0.490894615650177,0.44807925820350647,-0.5039262771606445
1789225107921302000,9.401302001953125,0.3849008083343506,0.5640862584114075,-0.5720491409301758
1789225107931340300,9.41134033203125,0.3507625460624695,0.5211742520332336,-0.08019976317882538
1789225107941379000,9.421379150390624,0.32827746868133545,0.45526260137557983,0.043113913387060165
1789225107951418000,9.431418212890625,0.4262748956680298,0.5749687552452087,-0.29096606373786926
1789225107961457200,9.44145703125,0.5888952016830444,0.42001646757125854,-0.9978294372558594
1789225107971495200,9.4514951171875,0.5117580890655518,0.6110865473747253,-0.749184250831604
1789225107981534200,9.4615341796875,0.20661522448062897,0.6071378588676453,0.29711848497390747
1789225107991573000,9.471572998046875,0.1835637092590332,-0.012437760829925537,0.3706505000591278
1789225108001611300,9.481611328125,0.02540229633450508,0.3774551451206207,0.18523430824279785
1789225108011650000,9.491650146484375,-0.0008170577930286527,0.22292070090770721,-0.090361587703228
1789225108021689000,9.501689208984375,0.03135738894343376,0.09915667772293091,0.21945911645889282
1789225108031728000,9.51172802734375,-0.003516437951475382,0.10409657657146454,0.7986007928848267
1789225108041766100,9.52176611328125,-0.03395397216081619,-0.09345884621143341,0.6359053254127502
1789225108051805200,9.53180517578125,-0.08682651072740555,0.10388325899839401,0.026282204315066338
1789225108061844200,9.54184423828125,-0.18241934478282928,0.2808798551559448,-0.2705009877681732
1789225108071882200,9.55188232421875,-0.20908556878566742,0.05739671364426613,0.09493263810873032
1789225108081921000,9.561921142578125,-0.12608602643013,-0.35067999362945557,0.27479562163352966
1789225108091960000,9.5719599609375,-0.10256339609622955,-0.12495072185993195,-0.08681851625442505
1789225108101999000,9.5819990234375,-0.10899439454078674,0.029346968978643417,-0.4928413927555084
1789225108112037000,9.592037109375,-0.21110424399375916,-0.10189280658960342,-0.2515789866447449
1789225108122076200,9.602076171875,-0.2645895779132843,-0.3021169900894165,0.030466562137007713
1789225108132115200,9.612115234375,-0.32550618052482605,-0.1965540647506714,-0.11903957277536392
1789225108142153200,9.6221533203125,-0.35545557737350464,-0.1519884616136551,-0.2879524230957031
1789225108152192000,9.63219189453125,-0.3233570158481598,-0.22627973556518555,-0.2413281947374344
1789225108162231300,9.642231201171874,-0.3117019534111023,-0.2852330803871155,0.28818464279174805
1789225108172270000,9.65227001953125,-0.227214515209198,-0.513970673084259,0.5361545085906982
1789225108182308000,9.66230810546875,-0.24630378186702728,-0.3062171936035156,0.3553597033023834
1789225108192347100,9.67234716796875,-0.3040142059326172,-0.16887609660625458,0.21968841552734375
1789225108202386200,9.68238623046875,-0.43533414602279663,-0.21965965628623962,0.62635737657547
1789225108212424000,9.692423828125,-0.4551331698894501,-0.3589285910129547,0.4184643626213074
1789225108222463200,9.702463134765624,-0.24238574504852295,-0.4849957227706909,-0.17146176099777222
1789225108232502300,9.712502197265625,-0.30159154534339905,-0.2583804130554199,-0.5706131458282471
1789225108242541600,9.72254150390625,-0.24273541569709778,-0.6462639570236206,-0.11979298293590546
1789225108252579600,9.73257958984375,-0.22577133774757385,-0.6590481996536255,0.20591402053833008
1789225108262618600,9.74261865234375,-0.31079116463661194,-0.19619187712669373,0.10082381963729858
1789225108272657700,9.75265771484375,-0.2866725027561188,-0.14647385478019714,-0.372539758682251
1789225108282695400,9.7626953125,-0.21976111829280853,-0.25511059165000916,-0.5586749911308289
1789225108292734700,9.772734619140625,-0.2642923593521118,-0.4171881675720215,-0.36147698760032654
1789225108302773800,9.782773681640625,-0.2913985550403595,-0.5101245045661926,-0.1951170265674591
1789225108312812500,9.7928125,-0.3268260657787323,-0.5381369590759277,-0.07292107492685318
1789225108322850800,9.802850830078125,-0.3247857987880707,-0.5616332292556763,0.12600426375865936
1789225108332889600,9.8128896484375,-0.3148761987686157,-0.6790733337402344,0.21836243569850922
1789225108342928600,9.8229287109375,-0.30836156010627747,-0.6152085661888123,-0.1033511534333229
1789225108352966700,9.832966552734375,-0.31335100531578064,-0.49935388565063477,-0.08455030620098114
1789225108363005700,9.843005615234375,-0.3120465874671936,-0.4718996286392212,0.36442163586616516
1789225108373044700,9.853044677734376,-0.26348942518234253,-0.45933297276496887,0.5428795218467712
1789225108383083500,9.86308349609375,-0.2041667103767395,-0.22533617913722992,0.41693225502967834
1789225108393121800,9.873121826171875,-0.1282045692205429,-0.1151375100016594,0.229774609208107
1789225108403160600,9.88316064453125,-0.0696435272693634,-0.3723365366458893,-0.15538373589515686
1789225108413199600,9.89319970703125,-0.1218300312757492,-0.44860655069351196,-0.32339829206466675
1789225108423237600,9.903237548828125,-0.13599778711795807,-0.4452672004699707,0.24288055300712585
1789225108433276700,9.913276611328126,-0.08362219482660294,-0.5569974780082703,0.2912749946117401
1789225108443315700,9.923315673828125,-0.06523599475622177,-0.22899696230888367,-0.029155755415558815
1789225108453353700,9.933353759765625,0.027342675253748894,-0.012502741999924183,-0.31479334831237793
1789225108463392800,9.943392822265626,0.06560724228620529,-0.22084209322929382,-0.4475681781768799
1789225108473431600,9.953431640625,0.021505558863282204,-0.2915218472480774,-0.49351757764816284
1789225108483470600,9.963470703125,-0.009973538108170033,-0.2085697203874588,-0.172711580991745
1789225108493508600,9.973508544921875,-0.023617977276444435,-0.1947290003299713,0.15948286652565002
1789225108503547600,9.983547607421874,-0.03184128552675247,-0.3165547847747803,-0.06823445111513138
1789225108513586700,9.993586669921875,0.134750097990036,-0.08798578381538391,-0.4154757559299469
1789225108523624700,10.003624755859375,0.27816611528396606,-0.1815897673368454,-0.08517535030841827
1789225108533663700,10.013663818359374,0.19618842005729675,0.01804158464074135,0.5177446007728577
1789225108543702500,10.02370263671875,0.13006825745105743,0.1825740784406662,0.7518071532249451
1789225108553741600,10.033741455078125,0.1270410418510437,0.2806284725666046,0.6338600516319275
1789225108563779600,10.043779541015626,0.24449522793293,0.27537164092063904,0.33793091773986816
1789225108573818600,10.053818603515625,0.44056034088134766,0.2032066434621811,-0.07097936421632767
1789225108583857700,10.063857666015625,0.4292781352996826,0.38841086626052856,-0.38954269886016846
1789225108593895700,10.073895751953126,0.3262002170085907,0.2926363945007324,0.2858501374721527
1789225108603934700,10.083934814453125,0.3017023205757141,0.2932526469230652,0.8113722205162048
1789225108613973500,10.093973388671875,0.37956249713897705,0.3573820888996124,0.6270820498466492
1789225108624011800,10.10401171875,0.46800822019577026,0.15828470885753632,0.0027478495612740517
1789225108634050600,10.114050537109375,0.5511167049407959,0.006381999235600233,-0.8921166062355042
1789225108644089600,10.124089599609375,0.5323147773742676,0.7182308435440063,-1.400421142578125
1789225108654128600,10.134128662109376,0.556121826171875,0.40963491797447205,-0.7510066032409668
1789225108664166700,10.144166748046874,0.5447157621383667,0.2611996531486511,-0.12166651338338852
1789225108674205400,10.154205322265625,0.5096672177314758,0.4249076247215271,-0.4708367586135864
1789225108684244700,10.16424462890625,0.398246169090271,0.3983926475048065,-0.9615553617477417
1789225108694282500,10.174282470703124,0.26296186447143555,0.519136369228363,-0.5515398383140564
1789225108704321500,10.184321533203125,0.17016960680484772,0.2864932715892792,0.3111373782157898
1789225108714360800,10.19436083984375,0.12047794461250305,0.05307946354150772,0.5722483396530151
1789225108724399600,10.204399658203124,0.14536571502685547,0.38348907232284546,0.6255813241004944
1789225108734437600,10.214437744140625,0.3072108030319214,0.4511013925075531,0.5074192881584167
1789225108744476700,10.2244765625,0.4869382381439209,0.46318763494491577,0.3097008764743805
1789225108754515700,10.234515625,0.3760194480419159,0.5417903065681458,0.4266471862792969
1789225108764553500,10.244553466796875,0.268463671207428,0.48638588190078735,0.6154860854148865
1789225108774592500,10.254592529296875,0.26891934871673584,0.38224083185195923,0.40123504400253296
1789225108784631800,10.2646318359375,0.2675720453262329,0.3691583275794983,-0.015296132303774357
1789225108794669600,10.274669677734375,0.10186857730150223,0.35938799381256104,-0.35913020372390747
1789225108804708600,10.28470849609375,0.06399869173765182,0.1791098266839981,-0.348257839679718
1789225108814747600,10.29474755859375,0.15206170082092285,0.10528700798749924,-0.2336827963590622
1789225108824786700,10.30478662109375,0.1461404263973236,0.1540265828371048,-0.32794511318206787
1789225108834824400,10.314824462890625,0.09002789109945297,0.16934189200401306,-0.3824094235897064
1789225108844863700,10.32486376953125,0.04525536298751831,0.10886576026678085,-0.47908109426498413
1789225108854902800,10.33490283203125,-0.036547090858221054,0.1305532157421112,-0.4631170630455017
1789225108864940500,10.3449404296875,-0.09696409851312637,0.0906824991106987,-0.1850803792476654
1789225108874979800,10.354979736328126,-0.13203899562358856,0.07480792701244354,0.15030720829963684
1789225108885018600,10.3650185546875,-0.13582520186901093,-0.0007118629291653633,0.1799154430627823
1789225108895057700,10.3750576171875,-0.1433347910642624,0.17585279047489166,0.07509288936853409
1789225108905095700,10.385095703125,-0.08308956027030945,0.25668877363204956,0.16662174463272095
1789225108915134700,10.395134765625,-0.0969901978969574,0.019115105271339417,0.43672963976860046
1789225108925173800,10.405173828125,-0.14577078819274902,-0.08661079406738281,0.7111896872520447
1789225108935211800,10.415211669921876,-0.18626201152801514,-0.038429681211709976,0.8063141107559204
1789225108945250800,10.425250732421874,-0.21600712835788727,0.007907990366220474,0.5324753522872925
1789225108955289600,10.43528955078125,-0.17333130538463593,0.10350615531206131,0.15596190094947815
1789225108965328600,10.44532861328125,-0.12498375028371811,0.13259612023830414,-0.0537995807826519
1789225108975366700,10.45536669921875,-0.10124219954013824,0.18788814544677734,-0.07836484909057617
1789225108985405700,10.46540576171875,-0.07359672337770462,0.30402034521102905,-0.17653429508209229
1789225108995444500,10.475444580078126,0.018858110532164574,0.2479456216096878,-0.5861207246780396
1789225109005482800,10.485482666015624,0.015536349266767502,0.18436211347579956,-0.6798735857009888
1789225109015521800,10.495521728515625,-0.03960147127509117,0.1157526969909668,-0.31443649530410767
1789225109025560600,10.505560546875,-0.09242713451385498,0.08451328426599503,-0.09699498862028122
1789225109035598800,10.515598876953124,-0.15293309092521667,0.17565970122814178,0.1861238032579422
1789225109045637600,10.5256376953125,-0.16042056679725647,-0.00014221279707271606,0.025970613583922386
1789225109055676700,10.5356767578125,-0.14455372095108032,0.24241690337657928,-0.45134347677230835
1789225109065715500,10.545715576171874,-0.12788446247577667,0.2708842158317566,-0.2575226128101349
1789225109075753700,10.555753662109375,-0.11934556812047958,0.14180320501327515,0.7401673197746277
1789225109085792500,10.56579248046875,-0.036681849509477615,-0.15369342267513275,0.7774840593338013
1789225109095831600,10.57583154296875,-0.021587850525975227,0.33879855275154114,0.1862819939851761
1789225109105869600,10.58586962890625,0.007881359197199345,0.3204818665981293,-0.4523642659187317
1789225109115908600,10.59590869140625,-0.09489615261554718,0.3745032846927643,-0.3672078251838684
1789225109125947600,10.60594775390625,-0.14379525184631348,0.07303079962730408,0.19257503747940063
1789225109135985700,10.615985595703124,-0.14277952909469604,0.0095684714615345,0.12584954500198364
1789225109146024700,10.626024658203125,-0.08625446259975433,-0.0536203496158123,-0.20384153723716736
1789225109156063500,10.6360634765625,-0.04352058097720146,-0.04402604699134827,-0.6297590136528015
1789225109166102500,10.6461025390625,-0.07916246354579926,-0.066553995013237,-1.2480642795562744
1789225109176140500,10.656140625,-0.18213944137096405,-0.15945836901664734,-0.34933269023895264
1789225109186179600,10.6661796875,-0.24011220037937164,-0.17976470291614532,0.5544965267181396
1789225109196218600,10.676218505859374,-0.2915804386138916,-0.14809413254261017,0.45007580518722534
1789225109206256600,10.686256591796875,-0.3698720633983612,0.1533472090959549,0.304214745759964
1789225109216295700,10.696295654296875,-0.2958604097366333,0.09754040837287903,0.4113350808620453
1789225109226334500,10.70633447265625,-0.15093599259853363,0.04785247519612312,0.25372201204299927
1789225109236372200,10.716372314453125,-0.08997782319784164,-0.08866089582443237,0.17308495938777924
1789225109246411000,10.726410888671875,-0.1471654772758484,-0.09565994888544083,0.5970620512962341
1789225109256450300,10.7364501953125,-0.09640296548604965,-0.30552050471305847,0.6581344604492188
1789225109266489300,10.7464892578125,-0.04945463314652443,-0.1758602410554886,0.051118310540914536
1789225109276527000,10.756527099609375,-0.03741182014346123,-0.0029324067290872335,-0.4323732554912567
1789225109286566100,10.766566162109376,-0.06851620972156525,0.03019705042243004,-0.33956289291381836
1789225109296605200,10.776605224609375,-0.09730923920869827,0.08357585221529007,-0.1185639277100563
1789225109306643200,10.786643310546875,-0.012649748474359512,0.0010349043877795339,-0.38481345772743225
1789225109316682000,10.796681884765626,0.07081904262304306,0.2721918523311615,-0.8254364132881165
1789225109326721300,10.80672119140625,0.15715312957763672,0.42316991090774536,-0.7261835932731628
1789225109336760000,10.816760009765625,0.20194244384765625,0.10615546256303787,-0.20257441699504852
1789225109346798000,10.826798095703126,0.15860696136951447,0.016497217118740082,0.12445404380559921
1789225109356837000,10.836837158203124,0.06513532996177673,0.13716238737106323,0.2031344771385193
1789225109366876200,10.846876220703125,-0.007544469088315964,0.17659394443035126,0.37060976028442383
1789225109376914200,10.8569140625,0.016084959730505943,-0.05050045624375343,0.4904711842536926
1789225109386953200,10.866953125,0.14082635939121246,0.043765589594841,0.014181865379214287
1789225109396992300,10.8769921875,0.1087896004319191,0.295430064201355,-0.0554874949157238
1789225109407030000,10.887030029296875,0.11588478833436966,0.28065431118011475,0.39546290040016174
1789225109417069300,10.8970693359375,0.15894651412963867,0.19893519580364227,0.410499632358551
1789225109427108000,10.907108154296875,0.12521597743034363,0.46745720505714417,0.14684855937957764
1789225109437147100,10.917147216796875,0.13184139132499695,0.4271417260169983,-0.07604257017374039
1789225109447185200,10.92718505859375,0.14803367853164673,0.22812983393669128,-0.17813405394554138
1789225109457224200,10.93722412109375,0.11658413708209991,0.1829514354467392,-0.35782045125961304
1789225109467263200,10.94726318359375,0.03732233867049217,0.04186515882611275,-0.2615181505680084
1789225109477301200,10.95730126953125,-0.02472159080207348,-0.02521800436079502,0.08013451844453812
1789225109487340300,10.96734033203125,-0.09953431040048599,-0.11008602380752563,0.10378818213939667
1789225109497379000,10.977379150390625,-0.13204005360603333,0.011050520464777946,-0.12520532310009003
1789225109507417000,10.9874169921875,-0.07371363788843155,0.22478917241096497,-0.16421210765838623
1789225109517456100,10.9974560546875,-0.04567774012684822,0.0057138120755553246,0.2634769082069397
1789225109527495200,11.0074951171875,-0.0005584649043157697,-0.13730593025684357,0.19142454862594604
1789225109537534200,11.0175341796875,-0.023877102881669998,0.16865186393260956,-0.26184359192848206
1789225109547572200,11.027572265625,-0.06667809933423996,0.10760635137557983,-0.2813784182071686
1789225109557611300,11.037611328125,-0.09031764417886734,-0.075389564037323,0.1751111000776291
1789225109567650000,11.047650146484376,-0.13611069321632385,-0.1993786245584488,0.2998354434967041
1789225109577688300,11.057688232421874,-0.14027348160743713,-0.21340815722942352,-0.09904669225215912
1789225109587727000,11.06772705078125,-0.15652276575565338,0.015037273056805134,-0.429658442735672
1789225109597766100,11.07776611328125,-0.2398296445608139,0.025047296658158302,-0.03173422813415527
1789225109607804200,11.08780419921875,-0.1876591145992279,-0.17280399799346924,0.20229052007198334
1789225109617843200,11.09784326171875,-0.13304460048675537,-0.07739012688398361,0.1320270150899887
1789225109627882200,11.10788232421875,-0.08943480998277664,-0.1166485846042633,-0.11464934796094894
1789225109637921000,11.117921142578124,-0.10340974479913712,-0.2645552158355713,-0.20477604866027832
1789225109647959300,11.127959228515625,-0.2345360666513443,-0.3664075434207916,0.09025426208972931
1789225109657998000,11.137998046875,-0.3176299035549164,-0.29234370589256287,0.4461071789264679
1789225109668037000,11.148037109375,-0.3359473943710327,-0.3758210241794586,0.5203723311424255
1789225109678075100,11.1580751953125,-0.26052239537239075,-0.30551305413246155,0.14167430996894836
1789225109688114200,11.1681142578125,-0.13608060777187347,-0.12357546389102936,-0.42265406250953674
1789225109698153200,11.1781533203125,-0.19698336720466614,-0.10279322415590286,-0.2492915838956833
1789225109708191200,11.188191162109375,-0.1571720391511917,-0.27514368295669556,0.20651589334011078
1789225109718230300,11.198230224609375,-0.15126967430114746,-0.33627548813819885,0.16393087804317474
1789225109728269000,11.20826904296875,-0.17464929819107056,-0.1785508394241333,-0.12538987398147583
1789225109738307300,11.218307373046875,-0.14967897534370422,-0.34542983770370483,-0.40956035256385803
1789225109748346000,11.22834619140625,-0.23831216990947723,-0.23536591231822968,-0.08111456036567688
1789225109758385200,11.23838525390625,-0.2845856547355652,-0.3557354807853699,0.09454488009214401
1789225109768424000,11.248423828125,-0.34195706248283386,-0.20914176106452942,0.11372443288564682
1789225109778462200,11.258462158203125,-0.3380749821662903,-0.1587827205657959,0.2343994528055191
1789225109788501200,11.268501220703126,-0.20428761839866638,-0.45669829845428467,-0.1861642748117447
1789225109798540000,11.2785400390625,-0.1597566455602646,-0.3611997365951538,-0.3767491281032562
1789225109808578300,11.288578369140625,-0.1890934854745865,-0.3266896903514862,0.4642358422279358
1789225109818617000,11.2986171875,-0.18077297508716583,-0.3849934935569763,0.9298282861709595
1789225109828656000,11.30865625,-0.207938551902771,-0.28045961260795593,0.6261922717094421
1789225109838694100,11.318694091796875,-0.18502257764339447,-0.24482759833335876,-0.023866184055805206
1789225109848733200,11.328733154296875,-0.13381372392177582,-0.14295688271522522,-0.3560127019882202
1789225109858772000,11.33877197265625,-0.2113572508096695,-0.354608952999115,-0.22440381348133087
1789225109868811000,11.34881103515625,-0.18317994475364685,-0.4529283344745636,0.07267607003450394
1789225109878849000,11.35884912109375,-0.14090412855148315,-0.38857409358024597,0.08453618735074997
1789225109888888000,11.36888818359375,-0.11899003386497498,-0.1415049284696579,-0.09469934552907944
1789225109898927000,11.378927001953125,-0.019399531185626984,-0.1575659215450287,-0.16237106919288635
1789225109908965000,11.388965087890625,0.04043557494878769,-0.14786297082901,-0.33242934942245483
1789225109919004200,11.399004150390626,-0.006975085008889437,-0.04713262617588043,-0.25161653757095337
1789225109929043000,11.40904296875,-0.030083067715168,-0.20316296815872192,0.08309115469455719
1789225109939081200,11.419081298828125,-0.01673317328095436,-0.2800750732421875,0.14375370740890503
1789225109949120000,11.4291201171875,0.017831195145845413,-0.23137623071670532,-0.08565524965524673
1789225109959159000,11.439158935546875,0.04350167140364647,-0.20693613588809967,-0.04196209833025932
1789225109969198300,11.4491982421875,0.008725580759346485,-0.02791259065270424,0.441506028175354
1789225109979236000,11.459236083984376,0.008195345290005207,-0.13493464887142181,0.38903990387916565
1789225109989275100,11.469275146484375,0.09572652727365494,0.040229443460702896,-0.07739492505788803
1789225109999314200,11.479314208984375,0.09568950533866882,0.12367240339517593,-0.42949119210243225
1789225110009352200,11.489352294921876,0.05541772022843361,-0.09500613808631897,-0.00803449098020792
1789225110019391000,11.499390869140624,0.07232160121202469,-0.3421485424041748,0.2638627886772156
1789225110029430300,11.50943017578125,0.08015848696231842,-0.17903633415699005,0.0514054000377655
1789225110039468000,11.519468017578125,0.06306178867816925,-0.15813876688480377,-0.18293891847133636
1789225110049507000,11.529507080078124,0.015113705769181252,-0.2786619961261749,-0.25532710552215576
1789225110059546000,11.539546142578125,-0.07725910097360611,-0.17595532536506653,-0.2566693425178528
1789225110069584100,11.549584228515625,-0.09004493802785873,-0.13246457278728485,-0.002805107505992055
1789225110079623200,11.559623046875,-0.004708202555775642,-0.23165905475616455,0.2768252193927765
1789225110089662000,11.569661865234375,0.11410313844680786,-0.19817833602428436,0.28002846240997314
1789225110099701200,11.579701171875,0.19838765263557434,-0.008238222450017929,0.04218393936753273
1789225110109739000,11.589739013671876,0.15161535143852234,0.11662568151950836,0.12179567664861679
1789225110119778000,11.599778076171875,0.09782882779836655,-0.08642037212848663,0.5313605666160583
1789225110129817300,11.6098173828125,0.03610660508275032,-0.19910190999507904,0.4463042616844177
1789225110139855000,11.619855224609376,0.03675428777933121,0.06067293509840965,-0.12245028465986252
1789225110149894100,11.62989404296875,0.04297942668199539,0.2748560607433319,-0.2729671001434326
1789225110159933200,11.63993310546875,0.1524486541748047,-0.14693059027194977,0.027524568140506744
1789225110169971200,11.64997119140625,0.26369795203208923,-0.4174981713294983,-0.11087458580732346
1789225110180010000,11.660010009765625,0.2349315583705902,0.13787265121936798,-0.45470839738845825
1789225110190049300,11.67004931640625,0.27111539244651794,0.09669804573059082,-0.5616111159324646
1789225110200087000,11.680087158203126,0.26631584763526917,0.010281399823725224,-0.41022905707359314
1789225110210126000,11.6901259765625,0.20175309479236603,0.2557936906814575,-0.30926650762557983
1789225110220165400,11.700165283203125,0.22317342460155487,0.25034165382385254,-0.3008330762386322
1789225110230204200,11.7102041015625,0.24698075652122498,0.26760321855545044,-0.15920883417129517
1789225110240242200,11.7202421875,0.2988484799861908,0.15418051183223724,-0.002380599733442068
1789225110250281200,11.73028125,0.3014405369758606,0.20909090340137482,0.15178632736206055
1789225110260320500,11.740320556640626,0.2684996426105499,0.2929666340351105,0.36277660727500916
1789225110270358300,11.750358154296874,0.23141831159591675,0.2287309169769287,0.4743790328502655
1789225110280397300,11.760397216796875,0.21567663550376892,0.24925322830677032,0.5533233880996704
1789225110290436400,11.770436279296876,0.25139495730400085,0.2571937143802643,0.4172148108482361
1789225110300474400,11.780474365234374,0.2787269651889801,0.20586234331130981,0.3048355281352997
1789225110310513200,11.79051318359375,0.2623530626296997,0.2705630362033844,0.27430665493011475
1789225110320552400,11.800552490234375,0.24162620306015015,0.2863854169845581,0.18973664939403534
1789225110330590200,11.810590087890626,0.2280518114566803,0.27043867111206055,0.05837675556540489
1789225110340629200,11.820629150390625,0.2447168081998825,0.15549318492412567,-0.42404982447624207
1789225110350668500,11.83066845703125,0.25560006499290466,0.3202911913394928,-1.0310492515563965
1789225110360707300,11.840707275390624,0.18404999375343323,0.2886219322681427,-0.7387803196907043
1789225110370745300,11.850745361328125,0.196114644408226,0.24387657642364502,0.11322882026433945
1789225110380784400,11.860784423828125,0.20215043425559998,0.1805625855922699,0.15784555673599243
1789225110390823400,11.870823486328124,0.26572009921073914,0.36780864000320435,-0.17744669318199158
1789225110400861200,11.880861083984374,0.32056817412376404,0.2812151610851288,-0.7084407806396484
1789225110410900500,11.890900390625,0.13075534999370575,0.26857075095176697,-0.33391058444976807
1789225110420939300,11.900939208984376,0.05223577469587326,-0.05222965031862259,0.31640803813934326
1789225110430977300,11.910977294921874,0.0230517890304327,-0.20838116109371185,0.25615349411964417
1789225110441016300,11.921016357421875,-0.11341684311628342,0.061707839369773865,0.2841816544532776
1789225110451055400,11.931055419921876,-0.19643741846084595,0.2188471257686615,0.5208818316459656
1789225110461093400,11.94109326171875,-0.14320030808448792,0.35804763436317444,0.5485901236534119
1789225110471132200,11.951132080078125,-0.047021038830280304,0.21719463169574738,0.46800127625465393
1789225110481171500,11.96117138671875,0.09133417159318924,0.015933958813548088,0.1646517962217331
1789225110491210200,11.971210205078124,0.24697516858577728,-0.4493738114833832,-0.633073091506958
1789225110501248300,11.981248291015625,-0.0019174759509041905,-0.8721809983253479,-0.8833063244819641
1789225110511287300,11.991287353515625,-0.18467450141906738,-0.7291527390480042,-0.15511368215084076
1789225110521326300,12.001326416015624,-0.30839404463768005,-0.5199015140533447,-0.10393625497817993
1789225110531364000,12.011364013671875,-0.4291478991508484,0.15332430601119995,-0.43733739852905273
1789225110541403400,12.0214033203125,-0.3877040445804596,-0.01143667846918106,-0.624488353729248
1789225110551442400,12.0314423828125,-0.36644724011421204,-0.33511754870414734,-0.47372549772262573
1789225110561480200,12.041480224609375,-0.38788142800331116,-0.3092590570449829,-0.16826996207237244
1789225110571519500,12.05151953125,-0.42519044876098633,-0.13069969415664673,0.31199705600738525
1789225110581558300,12.061558349609374,-0.4689064919948578,-0.1445539891719818,0.42373955249786377
1789225110591596300,12.07159619140625,-0.39117494225502014,-0.1401674896478653,0.5591242909431458
1789225110601635300,12.08163525390625,-0.26863011717796326,-0.3486645221710205,0.8618338108062744
1789225110611674400,12.09167431640625,-0.3414803743362427,-0.43632325530052185,1.0885423421859741
1789225110621713400,12.10171337890625,-0.34050217270851135,-0.43066856265068054,0.6890199780464172
1789225110631751400,12.11175146484375,-0.3577890396118164,-0.5764307975769043,-0.07077057659626007
1789225110641790500,12.12179052734375,-0.287513792514801,-0.650553286075592,-0.206670880317688
1789225110651829200,12.131829345703125,-0.1254016011953354,-0.8068360686302185,-0.33886459469795227
1789225110661867300,12.1418671875,-0.10097721219062805,-0.29207074642181396,-0.2606193423271179
1789225110671906300,12.15190625,-0.12700802087783813,0.2722565531730652,-0.3379250466823578
1789225110681945300,12.1619453125,-0.10149519890546799,0.27896931767463684,-0.41531065106391907
1789225110691983000,12.171983154296875,0.013176522217690945,0.2324763834476471,-0.34668898582458496
1789225110702022400,12.1820224609375,0.10266938805580139,0.12822134792804718,-0.35325685143470764
1789225110712061400,12.1920615234375,0.11468982696533203,0.1547059565782547,-0.4076117277145386
1789225110722099200,12.20209912109375,0.10875843465328217,0.0022152173332870007,0.0016317188274115324
1789225110732138500,12.212138427734375,0.16911925375461578,-0.18294771015644073,0.20748580992221832
1789225110742177300,12.22217724609375,0.16400279104709625,-0.012090484611690044,0.3408010005950928
1789225110752215300,12.23221533203125,0.14980600774288177,0.08467600494623184,0.5090376734733582
1789225110762254300,12.24225439453125,0.1500811129808426,0.23315468430519104,0.6698516011238098
1789225110772293400,12.25229345703125,0.14365489780902863,0.40310272574424744,0.5181283950805664
1789225110782332400,12.26233251953125,0.2702173590660095,0.6875852942466736,0.19980765879154205
1789225110792370400,12.272370361328125,0.41372179985046387,0.7084817886352539,0.0389239639043808
1789225110802409500,12.282409423828126,0.48161962628364563,0.5216735601425171,-0.014116085134446621
1789225110812448300,12.2924482421875,0.4525325894355774,0.43287524580955505,-0.06282956153154373
1789225110822486500,12.302486572265625,0.3841732442378998,0.3547604978084564,-0.10907934606075287
1789225110832525300,12.312525390625,0.37974813580513,0.3332133889198303,-0.15690386295318604
1789225110842564400,12.322564453125,0.41322433948516846,0.33689653873443604,-0.2695028483867645
1789225110852602400,12.332602294921875,0.47446930408477783,0.35034337639808655,-0.49790218472480774
1789225110862641400,12.342641357421876,0.5565176010131836,0.3751877248287201,-0.673574686050415
1789225110872680400,12.352680419921874,0.4476107954978943,0.6993247866630554,-0.36370259523391724
1789225110882718200,12.36271826171875,0.3622460961341858,0.8185169696807861,-0.09210728853940964
1789225110892757500,12.372757568359376,0.38609763979911804,0.558063268661499,-0.3064986765384674
1789225110902796300,12.38279638671875,0.4099441170692444,0.4501000642776489,-0.4149106442928314
