time,seconds_elapsed,z,y,x
1789310160902389500,0.051389404296875,8.453477149200438,5.17132594833374,-0.9692027595520019
1789310160912401700,0.061401611328125,8.752453081512451,5.246144750213623,-0.9171288734436035
1789310160922412500,0.07141259765625,9.133729695892333,5.266046551513671,-0.771232209777832
1789310160932423700,0.081423583984375,9.450362865447998,5.212775564575195,-0.5418377632141113
1789310160942435600,0.091435546875,9.527575868988036,5.166687182617188,-0.4408323806762695
1789310160952446700,0.10144677734375,9.39694224090576,5.167585008239746,-0.42601825790405273
1789310160962458600,0.111458740234375,9.336787924194335,5.236867218780517,-0.4492120864868164
1789310160972469500,0.121469482421875,9.349806395721435,5.363310993957519,-0.4843769233703613
1789310160982480600,0.131480712890625,9.176077137756348,5.306897617340088,-0.3580827857971191
1789310160992492800,0.141492919921875,8.968829056549072,5.106682503509521,-0.14320318679809568
1789310161002503700,0.151503662109375,8.905083437347411,4.930110131072998,-0.008828618621826172
1789310161012514600,0.1615146484375,8.962095364379882,4.9993923416137696,0.07601590270996093
1789310161022526500,0.1715263671875,8.940996462249755,5.206490785217285,0.09142857589721679
1789310161032537600,0.18153759765625,8.658929579162598,5.468356591796875,-0.15442600708007811
1789310161042549500,0.191549560546875,8.227225092315674,5.487659842681884,-0.2150292366027832
1789310161052560600,0.201560546875,7.798064444732666,5.107879604339599,0.3146878807067871
1789310161062571500,0.211571533203125,7.757363016510009,4.99909306640625,0.5208884986877441
1789310161072583700,0.221583740234375,7.930942636871338,5.119700975036621,0.46896425018310545
1789310161082594600,0.231594482421875,7.988253839111327,5.08827707824707,0.5374982727050781
1789310161092605700,0.241605712890625,8.027758166503906,4.976348150634766,0.9156324974060058
1789310161102617600,0.25161767578125,7.94201581954956,4.904073188018798,1.2508207298278808
1789310161112628700,0.261628662109375,7.715015574645996,4.842422495269775,1.5885528015136718
1789310161122639600,0.2716396484375,7.5260232810974115,4.84571452255249,1.7764976318359373
1789310161132651500,0.281651611328125,7.497891411590576,4.841973582458496,1.922992845916748
1789310161142662400,0.291662353515625,7.494150471496582,4.719719660186767,2.056319950866699
1789310161152674600,0.301674560546875,7.425616448974609,4.5988124763488765,2.251597023773193
1789310161162685700,0.311685791015625,7.293037532043456,4.590881683349609,2.5450363647460934
1789310161172696600,0.321696533203125,7.155819849395751,4.715829082489013,2.7813141410827633
1789310161182708500,0.33170849609375,7.5354504501342765,5.080645560455322,2.627935597229004
1789310161192719600,0.3417197265625,8.314314177703857,5.941211419677734,3.0966005722045895
1789310161202730800,0.351730712890625,9.348310019683836,7.228094812011718,3.817255271911621
1789310161212742700,0.36174267578125,9.549871871948241,7.119008998870849,2.2514473861694335
1789310161222753500,0.37175341796875,9.220519506072998,7.132626020812988,4.672583815002441
1789310161232765700,0.381765625,9.662698625183104,5.922805994415283,3.3412580543518065
1789310161242776600,0.391776611328125,9.720309102630615,4.97978981552124,2.561346863555908
1789310161252787700,0.40178759765625,9.318681774139403,4.5218987480163575,2.0810101554870606
1789310161262799600,0.411799560546875,9.023297144317626,4.348319127655029,1.7066168708801268
1789310161272810800,0.421810791015625,8.550143041229248,4.48778137435913,1.4736311218261717
1789310161282821600,0.431821533203125,7.99334151763916,4.891204354095459,0.9736918876647949
1789310161292833500,0.44183349609375,7.516895387268066,5.1514241470336914,0.5811924530029297
1789310161302844400,0.451844482421875,7.146841593170166,5.414935967254638,0.22520459365844725
1789310161312856600,0.461856689453125,7.113322769927978,5.628768103027343,-0.029179332733154296
1789310161322867700,0.47186767578125,7.259967621612549,5.683236190795898,-0.2145803237915039
1789310161332878600,0.481878662109375,7.209839024353027,5.619490571594238,-0.9763853645324706
1789310161342890500,0.491890380859375,6.770353382110596,5.689670607757568,-1.4962263999938965
1789310161352901600,0.501901611328125,6.616376287841796,6.209062730407714,-0.8131307388305664
1789310161362912800,0.511912841796875,6.8697127510070795,6.279093128967284,0.4025251541137695
1789310161372924700,0.521924560546875,7.227795536804199,5.6854807548522945,0.6010942543029785
1789310161382935600,0.531935546875,8.002469411468505,5.515492436981201,0.43664252777099605
1789310161392947700,0.54194775390625,8.35112502822876,5.647622441101074,0.3576338729858398
1789310161402958600,0.55195849609375,8.49672241668701,5.736058264923096,0.5002385093688965
1789310161412969500,0.561969482421875,8.581866213226318,5.649717367553711,0.5316624061584473
1789310161422981400,0.5719814453125,8.225878353881836,5.674257934570313,0.5916670852661132
1789310161432992800,0.58199267578125,8.058433875274657,5.772270565032959,0.6441898841857909
1789310161443003600,0.592003662109375,8.108263197326659,5.683984378814697,0.7890390846252441
1789310161453015600,0.602015625,8.342296409606933,5.606621737670898,0.8378209434509277
1789310161463026400,0.6120263671875,8.524255735778809,5.729623847961426,0.6485293746948242
1789310161473037600,0.62203759765625,8.709507089233398,5.945101997375488,0.5632359405517577
1789310161483049700,0.6320498046875,8.354117780303955,5.74578470916748,0.534355883026123
1789310161493060600,0.642060546875,7.982268334960937,5.743689782714843,0.5903203468322754
1789310161503072500,0.652072509765625,7.645733364105224,5.899911441040039,0.6314706878662109
1789310161513083600,0.662083740234375,7.2809168861389155,5.932233163452148,0.6208464179992675
1789310161523094500,0.672094482421875,7.338228088378906,5.844096614837646,0.5473743545532226
1789310161533106700,0.682106689453125,7.4128972526550285,5.851877770233154,0.47554830474853516
1789310161543117600,0.69211767578125,7.480234174346923,6.02066898727417,0.4326023124694824
1789310161553128400,0.70212841796875,7.408408124542236,6.057030924987792,0.2570774032592773
1789310161563140600,0.712140625,7.368754159545898,6.013187107086181,0.35793314819335936
1789310161573151500,0.7221513671875,7.41244833984375,5.979518646240234,0.44801498565673825
1789310161583162600,0.73216259765625,7.506121479797363,5.989843640899658,0.38786066894531246
1789310161593174800,0.7421748046875,7.767987286376953,5.890933184814453,0.3321954803466797
1789310161603185700,0.752185546875,7.973140441131592,5.735758989715576,0.37768531188964843
1789310161613197600,0.762197509765625,8.126518984985351,5.727678559112548,0.423923331451416
1789310161623208400,0.77220849609375,8.073547273254395,5.868637181854248,0.3752911102294922
1789310161633219600,0.782219482421875,7.804049948883057,6.039224050140381,0.17791911087036133
1789310161643231700,0.792231689453125,7.640047135162353,6.043264265441894,0.14739303970336914
1789310161653242600,0.80224267578125,7.546972545623779,5.951536414337157,0.32665888900756834
1789310161663253500,0.81225341796875,7.4512044792175285,6.012438919067383,0.5654805046081542
1789310161673265700,0.822265625,7.46332512512207,6.085462069702148,0.3842693664550781
1789310161683276500,0.832276611328125,7.4889131553649895,6.076783088684081,0.18270751419067383
1789310161693287700,0.84228759765625,7.529165670776367,6.029946518707275,0.2332850242614746
1789310161703299600,0.852299560546875,7.587524336242676,6.01408493270874,0.30466216125488277
1789310161713310500,0.862310546875,7.671919944763183,6.062717153930664,0.37753567428588863
1789310161723321600,0.872321533203125,7.801805384826659,6.159233408355712,0.3479074287414551
1789310161733333500,0.88233349609375,7.898620914459228,6.1750949943542475,0.20560206756591795
1789310161743344600,0.8923447265625,7.887547731781005,6.074089611816406,0.2850596351623535
1789310161753356800,0.902356689453125,7.940968356323242,5.971587853240966,0.31693244476318355
1789310161763367700,0.91236767578125,7.976881381225586,6.077531276702881,0.2721908012390137
1789310161773378600,0.922378662109375,7.8070427009582515,6.321141295623779,0.35134909362792965
1789310161783390500,0.932390380859375,7.540238853454589,6.35914924697876,0.41539398803710936
1789310161793401600,0.942401611328125,7.447912451934814,6.178686296844482,0.5074211143493652
1789310161803412700,0.952412841796875,7.572111663055419,6.112845751190185,0.5663783302307128
1789310161813424600,0.962424560546875,7.725490206909179,6.182876149749755,0.5178957466125488
1789310161823435500,0.972435546875,7.804798136901855,6.2207344635009765,0.5719149215698242
1789310161833446400,0.9824462890625,7.861959701538085,6.260388428497314,0.689530078125
1789310161843458600,0.99245849609375,7.977479931640625,6.327725350189208,0.5380968231201172
1789310161853469200,1.00246923828125,7.8912886718749995,6.374561920166015,0.4691138877868652
1789310161863481000,1.012481201171875,7.631368154144287,6.378751773071289,0.582239916229248
1789310161873492200,1.0224921875,7.372345462036132,6.355707582092284,0.5038298118591308
1789310161883503000,1.032503173828125,7.273584643554687,6.280290229797363,0.5141548065185546
1789310161893515000,1.042514892578125,7.349001995849609,6.254552561950684,0.47928924484252927
1789310161903526100,1.052526123046875,7.38042589263916,6.247669232177734,0.38307226562499996
1789310161913537000,1.062537109375,7.401075881958008,6.242431916046142,0.4471171600341797
1789310161923549200,1.072549072265625,7.453897956085204,6.249165608215332,0.45938744354248046
1789310161933560000,1.08256005859375,7.500435250854491,6.2310594581604,0.4976946701049804
1789310161943571200,1.0925712890625,7.734169187927246,6.195146433258056,0.5612906517028808
1789310161953583400,1.102583251953125,7.898022364044189,6.354360843658447,0.4191349281311035
1789310161963594200,1.11259423828125,7.774720978546142,6.561309649658202,0.519092847442627
1789310161973605000,1.122605224609375,7.527519657135009,6.48020606842041,0.6573579933166503
1789310161983617000,1.132616943359375,7.209689386749267,6.386981841278076,0.40222587890625
1789310161993628000,1.1426279296875,7.148786882019042,6.36483547592163,0.5123591552734374
1789310162003640000,1.15264013671875,7.352742935943603,6.310666663360595,0.47644613037109373
1789310162013651200,1.162651123046875,7.687182980346679,6.284180807495117,0.4499602745056152
1789310162023662000,1.172662109375,8.085368643951416,6.254402924346923,0.5277718284606934
1789310162033674200,1.18267431640625,8.279897528839111,6.304830796813964,0.5506663818359374
1789310162043685000,1.19268505859375,8.144774772644043,6.366780764770508,0.5737105728149414
1789310162053696300,1.2026962890625,7.812579292297363,6.367977865600586,0.6025906303405761
1789310162063708200,1.212708251953125,7.327903093719482,6.375010832977295,0.5277718284606934
1789310162073719000,1.222718994140625,7.066935112762451,6.311115576171875,0.4703109886169433
1789310162083730200,1.232730224609375,7.084293074798584,6.252756910705566,0.41060558471679687
1789310162093742000,1.2427421875,7.254879943084716,6.244975755310058,0.37454292221069335
1789310162103753200,1.252753173828125,7.542184142303467,6.250512346649169,0.4037222549438476
1789310162113764000,1.26276416015625,7.916278151702881,6.28822102279663,0.4607341819763183
1789310162123776300,1.2727763671875,7.95518392868042,6.351368091583252,0.5520131202697753
1789310162133787100,1.282787109375,7.862857527160644,6.370372067260742,0.5481225425720214
1789310162143798000,1.292798095703125,7.723844193267822,6.386981841278076,0.4209305793762207
1789310162153810000,1.302809814453125,7.68029965057373,6.333860491943359,0.6630442222595214
1789310162163821300,1.3128212890625,7.562834131622314,6.457012239837646,0.5553051475524902
1789310162173833200,1.322833251953125,7.295132458496093,6.58884296875,0.8872013526916503
1789310162183844000,1.332843994140625,6.687753424835205,6.445340506744384,1.7386393180847166
1789310162193855000,1.34285498046875,6.7553896217346185,6.40389089050293,0.9536404487609863
1789310162203867100,1.3528671875,6.976404362487792,6.490680700683593,0.5072714767456055
1789310162213878300,1.362878173828125,6.833350813293457,6.260986978912353,1.0175357055664063
1789310162223889200,1.37288916015625,6.438906089782715,6.630442222595215,0.8098387115478515
1789310162233901000,1.382901123046875,6.212953308105468,7.119308274078369,0.5300163925170898
1789310162243912200,1.392912109375,6.002562837219238,7.280168698120117,0.48033670806884765
1789310162253923000,1.402923095703125,5.956025542449951,7.4022729827880855,0.49320554199218747
1789310162263935000,1.41293505859375,5.817910034179687,7.388506323242187,-0.12255319747924803
1789310162273946000,1.422946044921875,5.734861164093017,7.353491123962402,-0.7356184600830078
1789310162283957200,1.432957275390625,5.8737248603820795,7.548468921661376,-1.1017816764831543
1789310162293969200,1.44296923828125,6.271012698364258,7.981819422149658,-1.4419079498291014
1789310162303980000,1.45297998046875,6.822876181030273,8.276755139160155,-1.6026187362670898
1789310162313991200,1.4629912109375,6.852803701782226,7.98002377090454,-1.7395371437072753
1789310162324003300,1.47300341796875,6.018574060821533,7.315333535003662,-1.3666402351379394
1789310162334014200,1.48301416015625,5.064335061645507,7.1312792823791495,-0.6762123313903808
1789310162344026000,1.493026123046875,5.154117623901367,7.630919241333007,-0.4477157104492187
1789310162354037000,1.503037109375,7.441328397369384,9.09138225402832,-0.38666356811523434
1789310162364048100,1.513048095703125,5.970839665222168,7.541735229492187,0.143652099609375
1789310162374060000,1.52306005859375,6.2018801254272455,7.196970190429687,-0.48108489608764643
1789310162384071200,1.5330712890625,6.448482896423339,7.529614583587646,-0.4171896392822265
1789310162394082000,1.54308203125,5.569361974334717,7.582885570526122,-0.5511152946472168
1789310162404094200,1.55309423828125,5.829432129669189,7.775469166564941,-1.2719196319580077
1789310162414105000,1.56310498046875,2.182614088439941,6.887220350646972,-2.8854619132995603
1789310162424116200,1.5731162109375,3.4198177963256833,7.413346165466308,-3.689015845489502
1789310162434128100,1.583128173828125,3.7901708656311035,7.7136688362121575,-3.0775965965270995
1789310162444139300,1.59313916015625,4.868758713531494,7.675810522460937,-2.2857143974304197
1789310162454150100,1.603150146484375,4.996848502349853,7.492205182647704,-0.3833715408325195
1789310162464162000,1.613162109375,4.957493812561035,7.103745963287353,0.8405144203186035
1789310162474173200,1.623173095703125,5.141248789978027,7.215674890899658,1.0838251640319823
1789310162484184000,1.63318408203125,5.802048448181152,7.363816118621826,1.0571896705627442
1789310162494196200,1.6431962890625,6.335656143188476,8.181585623168944,1.1372457885742187
1789310162504207000,1.65320703125,5.334430936431884,8.865429472351074,1.1936591651916504
1789310162514219000,1.663218994140625,4.293102851867675,9.517101236724853,1.4836568412780762
1789310162524230100,1.673230224609375,3.620631460571289,9.609876551055908,1.548898836517334
1789310162534241300,1.6832412109375,3.5467104843139645,9.568576572418213,1.5583260055541992
1789310162544253200,1.693253173828125,3.3496377601623535,9.695169985198975,1.1707646118164061
1789310162554264000,1.70326416015625,3.01983648147583,9.498845449066161,0.6931213806152343
1789310162564275000,1.71327490234375,2.93693724899292,8.945784865570069,0.8954314208984374
1789310162574287000,1.723287109375,2.984821282196045,8.328679387664794,0.9738415252685546
1789310162584298200,1.73329833984375,2.9791350532531737,7.963114721679687,0.4750993919372558
1789310162594309000,1.74330908203125,2.5668834548950192,7.92301184387207,0.10758943710327148
1789310162604321300,1.7533212890625,2.2520459365844725,8.032995482635497,-0.4212298545837402
1789310162614332200,1.763332275390625,2.3484125534057614,8.107066096496581,-0.8658031753540039
1789310162624343000,1.773343017578125,2.7673978439331055,8.122927682495117,-1.089212117767334
1789310162634355000,1.78335498046875,3.1639374938964844,8.058433875274657,-1.1257236930847168
1789310162644366000,1.793365966796875,2.9439702163696286,8.097489289855957,-1.0052654220581054
1789310162654377200,1.803377197265625,2.779967402648926,8.272266011047362,-0.9998784683227538
1789310162664389000,1.81338916015625,3.1856349464416502,8.515427117156982,-0.617404753112793
1789310162674400000,1.82339990234375,3.9332244148254394,8.725219037628174,-0.370951619720459
1789310162684412200,1.833412109375,4.115782291412353,8.729558528137206,-0.19572598571777342
1789310162694423300,1.84342333984375,3.8419454765319823,8.665363996124267,0.18240823898315428
1789310162704434200,1.85343408203125,3.4157775810241695,8.665064720916748,0.6456862602233886
1789310162714446000,1.863446044921875,3.145083155822754,8.627056769561767,0.4939537300109863
1789310162724457000,1.87345703125,2.8968343711853026,8.626158943939208,-0.1854009910583496
1789310162734468000,1.883468017578125,2.7898434844970703,8.692897315216063,-0.9302969825744628
1789310162744480300,1.893480224609375,2.627037771606445,8.757540760040282,-1.4437036010742186
1789310162754491100,1.9034912109375,2.192340532684326,8.753949457550048,-1.6398784996032714
1789310162764503300,1.91350341796875,1.5442600708007812,8.864082733917236,-1.3429974937438964
1789310162774514200,1.92351416015625,0.9421183532714843,9.112930068969726,-1.0931026954650878
1789310162784525000,1.933525146484375,0.10624269866943359,9.267206438446044,-0.8708908538818358
1789310162794537000,1.943536865234375,-0.3826233528137207,9.324368003082276,-0.7573159126281738
1789310162804548000,1.953548095703125,-0.2733879020690918,9.485378064727783,-1.2669815910339355
1789310162814559200,1.963559326171875,-0.23343466186523437,9.913640886688231,-1.4404115737915038
1789310162824571100,1.973571044921875,0.12030863342285156,10.48271269378662,-1.0763432838439941
1789310162834582000,1.98358203125,0.7770680763244628,10.866982060241698,-0.9060556907653808
1789310162844593200,1.99359326171875,1.5370774658203123,10.997765325927734,-0.729034405517578
1789310162854605600,2.00360546875,2.093430076599121,10.872219376373291,-0.553509496307373
1789310162864617000,2.013616943359375,2.005293527984619,10.740687922668457,-0.4234744186401367
1789310162874628900,2.02362890625,1.57688106842041,10.772261457061767,-0.5379471855163573
1789310162884639700,2.0336396484375,1.073799444580078,10.666168395996094,-0.531812043762207
1789310162894650600,2.043650634765625,0.9983820922851562,10.298957716369628,-0.5066729263305664
1789310162904662800,2.053662841796875,1.1222820281982422,10.079439351654052,-0.8321347145080565
1789310162914674000,2.063673828125,0.9961375282287597,10.373626880645752,-0.9879074600219726
1789310162924684800,2.073684814453125,0.8114847251892089,10.669610060882567,-0.8958803337097168
1789310162934696700,2.08369677734375,0.4745008415222168,10.975469322967529,-0.7966706024169922
1789310162944707800,2.093707763671875,-0.08768763580322265,11.171045671081542,-0.5087678527832031
1789310162954719700,2.1037197265625,-0.7390601249694824,11.243170996093749,-0.2905962265014648
1789310162964730600,2.113730712890625,-1.2294225524902342,11.446378861999511,-0.1862988166809082
1789310162974741800,2.12374169921875,-1.1896189498901366,11.386224545288085,0.044292730712890624
1789310162984754000,2.13375390625,-0.5704185455322265,11.10879642791748,0.11611878051757812
1789310162994764800,2.143764892578125,0.19153613281249998,10.939406660461426,-0.09023147506713866
1789310163004776700,2.153776611328125,0.685040950012207,10.679486142730712,-0.29493571701049803
1789310163014787600,2.16378759765625,0.751480046081543,10.324994659423828,-0.42227731781005856
1789310163024799000,2.173799072265625,0.6398503936767578,10.01015714111328,-0.506224013519287
1789310163034811000,2.183810791015625,0.4674678741455078,9.864859027862549,-0.40925884628295894
1789310163044821800,2.19382177734375,0.48332946014404293,9.924714069366454,-0.11267711563110351
1789310163054832600,2.20383251953125,0.960823053741455,9.985915849304199,0.023343466186523436
1789310163064844800,2.2138447265625,1.2958616485595702,9.982623822021484,0.10130465774536132
1789310163074855700,2.223855712890625,1.5123872611999511,9.817723182678222,0.15322890625
1789310163084867800,2.233867919921875,1.2451345008850097,9.578602291870117,0.0909796630859375
1789310163094878700,2.243878662109375,0.8315361640930176,9.203311181640624,0.06778583450317383
1789310163104889900,2.253889892578125,0.6370072792053222,8.9255837890625,0.12300211029052734
1789310163114901800,2.26390185546875,0.5571007987976074,8.744372650909423,-0.01780687484741211
1789310163124912600,2.27391259765625,0.8743325187683105,8.440309040069579,-0.15098434219360352
1789310163134923800,2.283923828125,1.1673229469299315,8.431630059051512,-0.2657563842773437
1789310163144936000,2.29393603515625,1.0727519813537596,8.451382222747803,-0.3510498184204101
1789310163154946800,2.30394677734375,0.6515221267700195,8.49732096710205,-0.3450643142700195
1789310163164958700,2.313958740234375,0.13482348098754882,8.747515040588379,-0.47599721755981445
1789310163174969600,2.323969482421875,0.22385785522460935,8.826523695373535,-0.2702455123901367
1789310163184981000,2.33398095703125,0.45714287948608395,9.033023588562012,-0.07870937957763671
1789310163194993000,2.343992919921875,0.29269115295410153,9.579051204681395,0.021098902130126954
1789310163205003800,2.354003662109375,0.41060558471679687,9.892093071746826,0.0025438392639160153
1789310163215015700,2.364015625,0.7395090377807617,10.04217958831787,0.03696048812866211
1789310163225026800,2.37402685546875,0.6500257507324219,10.122534981536864,-0.04444236831665039
1789310163235037700,2.38403759765625,0.4917091659545898,10.01000750350952,-0.0661398208618164
1789310163245049600,2.394049560546875,0.4424783943176269,9.767145672607422,-0.12150573425292968
1789310163255060700,2.404060791015625,0.41404724960327144,9.777769942474364,-0.5770026000976562
1789310163265071900,2.41407177734375,0.719457598876953,9.951349562835693,-0.6358101783752441
1789310163275083800,2.424083740234375,0.4837783729553222,10.262446141052246,-0.5931634613037109
1789310163285094700,2.4340947265625,0.4285620971679687,10.256460636901854,-0.1728314323425293
1789310163295106600,2.4441064453125,0.5677250686645507,10.691606788635253,0.20066402664184568
1789310163305118000,2.454117919921875,0.3259107009887695,10.494085151672362,-0.36855741806030273
1789310163315128800,2.46412890625,0.4538508522033691,10.090961447143554,-0.4255693450927734
1789310163325140700,2.474140625,0.19078794479370115,10.155455254364012,-0.02079962692260742
1789310163335151600,2.484151611328125,-0.06479308242797852,10.273668961334227,0.30181904678344723
1789310163345162800,2.494162841796875,-0.14679448928833008,10.01629228286743,0.21039047088623045
1789310163355174700,2.504174560546875,-0.6628945846557617,10.001627797698974,0.08005611801147461
1789310163365185800,2.514185791015625,-0.8366238426208495,10.089913983917235,0.40177696609497066
1789310163375197700,2.52419775390625,-0.9042600395202636,9.809642752075195,0.6284779357910156
1789310163385208800,2.534208740234375,-1.193210252380371,9.57067149887085,0.3778349494934082
1789310163395219700,2.5442197265625,-0.4791396072387695,8.457517364501953,0.15218144302368164
1789310163405231600,2.554231689453125,0.7860463325500487,8.764873002624512,1.6415245132446288
1789310163415242800,2.56424267578125,-0.651821401977539,9.605537060546874,1.3645453086853025
1789310163425254000,2.57425390625,-0.22430676803588867,10.298957716369628,0.2748842781066894
1789310163435265800,2.584265869140625,0.40776247024536133,9.976339042663573,0.6123170745849609
1789310163445276700,2.594276611328125,-1.565957523345947,9.757419228363036,0.4171896392822265
1789310163455288600,2.60428857421875,0.39534254913330075,9.472958143615722,2.044348942565918
1789310163465300000,2.614300048828125,1.2345102310180662,10.68098251876831,2.2430676803588865
1789310163475310800,2.624310791015625,0.046537294769287106,12.103587217712402,0.20335750350952148
1789310163485322800,2.63432275390625,0.3673603172302246,12.124386844635008,-1.1384428894042968
1789310163495333600,2.644333740234375,0.13033435287475587,11.221174268341064,-0.5837362922668456
1789310163505344800,2.6543447265625,-1.0350433052062988,10.166229161834716,-0.02424129180908203
1789310163515356700,2.664356689453125,-1.7491139503479003,9.579051204681395,-0.11985972061157225
1789310163525367800,2.674367919921875,-1.254561669921875,9.597306992340087,0.16684592819213867
1789310163535379700,2.684379638671875,-1.546205359649658,10.540622446441649,-0.21068974609375
1789310163545390800,2.694390869140625,-0.8441057228088379,11.508328829956055,-0.9322422714233398
1789310163555401700,2.704401611328125,-0.07676409072875977,11.727547919464111,-0.9846154327392578
1789310163565413600,2.71441357421875,0.35583822174072266,11.56788459625244,-0.5731120223999023
1789310163575424800,2.7244248046875,0.8099883491516113,11.041309868621825,-0.0383072265625
1789310163585436000,2.734435791015625,0.7375637489318847,10.280103378295898,0.3274070770263672
1789310163595447800,2.74444775390625,0.3705027069091797,9.420136069488525,0.7785644523620605
1789310163605458700,2.754458740234375,0.11896189498901366,8.86722512359619,1.1514613609313964
1789310163615469600,2.764469482421875,-0.5612906517028808,8.62451293029785,0.5374982727050781
1789310163625481700,2.774481689453125,-0.7790133651733397,8.884134172821044,-0.1862988166809082
1789310163635492900,2.784492919921875,-0.21143793411254883,8.84926861114502,-0.11387421646118163
1789310163645504800,2.7945048828125,-0.08604162216186523,8.709058176422118,0.01601122360229492
1789310163655515600,2.804515625,-0.21996727752685546,8.176647582244872,0.24465748214721678
1789310163665526800,2.81452685546875,-0.34745851593017574,7.414543266296386,0.481384171295166
1789310163675538700,2.82453857421875,-0.7513304084777832,7.560439929962158,0.6500257507324219
1789310163685549800,2.8345498046875,-1.4885948822021484,7.969100225830077,0.7363666481018066
1789310163695561700,2.844561767578125,-1.3394061912536621,8.670750949859618,-0.18555062866210936
1789310163705572900,2.85457275390625,-0.5653308670043945,9.342623790740966,-0.6913257293701172
1789310163715583700,2.864583740234375,0.2814683326721191,9.776273566436767,-0.258573779296875
1789310163725595600,2.874595703125,-0.13811550827026367,10.749067628479004,0.17836802368164062
1789310163735606800,2.884606689453125,-0.9515455223083495,11.317091972351074,-0.05551555099487304
1789310163745618000,2.894617919921875,-1.0583867713928221,11.898882975769043,-0.4586392555236816
1789310163755629800,2.9046298828125,-0.9074024291992187,12.658443452453612,-0.6575076309204101
1789310163765640700,2.914640625,-0.6408978569030761,12.888735724639892,-0.2246060432434082
1789310163775652600,2.924652587890625,-0.6364087287902832,12.571354367065428,0.5502174690246582
1789310163785663700,2.934663818359375,-0.4101566719055176,11.905616667938231,1.00227266998291
1789310163795675000,2.9446748046875,-0.8843582382202148,11.133037719726563,0.594959112548828
1789310163805686800,2.954686767578125,-1.1127052215576172,10.748319440460204,0.12629413757324218
1789310163815697700,2.96469775390625,-0.8936357696533203,10.551097078704833,0.37753567428588863
1789310163825708800,2.974708740234375,-0.6961141326904297,9.945064783477783,0.3329436683654785
1789310163835720700,2.984720703125,-0.7398083129882812,9.656713121032714,0.3146878807067871
1789310163845731800,2.99473193359375,-0.5897217964172363,9.666888478088378,0.6738181297302246
1789310163855742000,3.004741943359375,-0.39279870986938475,9.452757067108154,0.7918821990966797
1789310163865754000,3.014754150390625,-0.5979518646240234,9.498097261047363,0.732924983215332
1789310163875765000,3.024764892578125,-1.3754688537597655,9.343970529174804,0.752078596496582
1789310163885777000,3.03477685546875,-1.6154875701904297,8.999654402923584,1.0992378372192382
1789310163895788300,3.044788330078125,-1.0197802696228027,8.747963953399658,1.327285545349121
1789310163905799200,3.054799072265625,-0.6426935081481934,9.203909732055664,1.214907704925537
1789310163915811000,3.06481103515625,-0.8034042945861816,10.138546205139159,0.7215525253295898
1789310163925822000,3.074822021484375,-0.7254431030273437,10.753257481384276,0.3532943824768066
1789310163935833000,3.0848330078125,-0.3893570449829101,10.740089372253417,0.4688146125793457
1789310163945845200,3.09484521484375,-0.45459904022216796,10.034697708129881,0.8928875816345214
1789310163955856100,3.104856201171875,-0.31094694061279293,9.619902270507811,1.1347019493103028
1789310163965868000,3.114867919921875,0.26964696197509763,9.444227723693848,1.286434479522705
1789310163975879200,3.124879150390625,0.0430956298828125,9.208398860168456,1.5797241828918456
1789310163985890000,3.13489013671875,-0.6431424209594726,9.208847772979736,1.6000748970031737
1789310163995902000,3.14490185546875,-0.5033808990478515,9.558999765777587,1.177947216796875
1789310164005913000,3.1549130859375,-0.9211690887451172,9.83208839263916,0.8587702079772949
1789310164015924000,3.164924072265625,-1.8403928886413574,10.116399839782714,1.239897184753418
1789310164025936100,3.17493603515625,-1.3226467796325683,10.071358921051024,1.4215572357177733
1789310164035947000,3.184947021484375,-0.608426496887207,9.715969612121581,1.2325649421691893
1789310164045959000,3.194958984375,0.28446108474731446,9.561094692230224,0.9739911628723144
1789310164055970300,3.20497021484375,0.7799111907958984,9.686640641784667,0.8643067993164062
1789310164065981200,3.214981201171875,0.6395511184692383,9.751433724212646,0.9533411735534667
1789310164075993000,3.2249931640625,0.3366846084594726,9.64668740158081,1.054047280883789
1789310164086004000,3.23500390625,0.29703064346313474,9.514258122253418,0.9674071083068847
1789310164096016100,3.24501611328125,0.35090018081665036,10.017938296508788,0.7785644523620605
1789310164106027000,3.255027099609375,0.25483283920288086,10.768370879364014,0.8188169677734375
1789310164116038100,3.2650380859375,-0.05297171173095703,11.198728627777099,0.30047230834960936
1789310164126050000,3.275050048828125,0.19767127456665037,10.911574066162109,0.49589901885986326
1789310164136061200,3.285061279296875,0.48946460189819335,9.92680899581909,0.7689876457214355
1789310164146072000,3.295072021484375,0.4537012145996093,9.315838659667968,1.0096049125671387
1789310164156084000,3.305083984375,0.25692776565551756,9.248950650787354,1.2161048057556152
1789310164166095000,3.31509521484375,0.12629413757324218,9.328408218383789,0.6702268272399902
1789310164176107300,3.325107177734375,0.10893617553710937,9.36551834411621,0.44158056869506834
1789310164186118100,3.3351181640625,0.2428618309020996,9.384372682189941,0.4164414512634277
1789310164196129000,3.34512890625,0.2275987953186035,9.177872789001464,0.3098994773864746
1789310164206141000,3.355140869140625,0.5178957466125488,8.74018279800415,0.38307226562499996
1789310164216152000,3.365152099609375,0.769286920928955,8.784026615905761,0.3146878807067871
1789310164226163200,3.3751630859375,0.4492120864868164,8.999205490112304,0.33099837951660155
1789310164236175000,3.385175048828125,-0.4273649963378906,9.450961415863036,0.20260931549072264
1789310164246186000,3.39518603515625,-1.423053611755371,9.79333225326538,0.21862053909301757
1789310164256198100,3.4051982421875,-1.7690157516479492,10.244339990997315,0.5689221694946289
1789310164266209000,3.415208984375,-1.7319056259155272,10.347141024780273,0.4761468551635742
1789310164276220200,3.42522021484375,-1.5065513946533202,10.210222617340087,0.4173392768859863
1789310164286232000,3.435232177734375,-1.274912384033203,10.190021540832518,0.36062662506103516
1789310164296243200,3.4452431640625,-0.8310872512817382,10.140940406799317,0.40836102066040036
1789310164306254000,3.455254150390625,-0.48452656097412106,10.075997686767577,0.3295020034790039
1789310164316266000,3.465265869140625,-0.29284079055786133,10.098144052124022,-0.010773907470703125
1789310164326277000,3.475277099609375,-0.07975684280395508,9.917830739593505,-0.04773439559936523
1789310164336289300,3.485289306640625,-0.032920272827148434,9.791985514831543,-0.10938508834838867
1789310164346300200,3.495300048828125,0.04803367080688476,9.925162982177733,-0.3933972602844238
1789310164356311000,3.50531103515625,0.2629132698059082,9.947010072326659,-0.6322188758850097
1789310164366323000,3.515322998046875,0.24091654205322263,10.083180291748047,-0.3520972816467285
1789310164376334000,3.525333984375,0.30795418853759765,10.000879609680176,-0.22176292877197265
1789310164386345200,3.53534521484375,0.3886088569641113,10.212916094207763,-0.3708019821166992
1789310164396357000,3.545357177734375,0.7773673515319823,10.475230813598632,-0.18555062866210936
1789310164406368000,3.555367919921875,1.5946879432678223,10.200496173095702,0.6720224784851074
1789310164416380200,3.565380126953125,1.592293741607666,10.143484246063231,0.32411504974365235
1789310164426391000,3.57539111328125,1.0654197387695312,10.183587123870849,-0.26261399459838863
1789310164436402200,3.585402099609375,0.7981669784545898,10.05459950942993,0.11222820281982421
1789310164446414000,3.5954140625,0.33788170928955075,10.08766941986084,0.10145429534912109
1789310164456425200,3.60542529296875,0.09980828170776367,10.089315433502197,0.2454056701660156
1789310164466436000,3.61543603515625,-0.07796119155883789,10.06731870574951,0.4730044654846191
1789310164476448000,3.625447998046875,-0.2539350135803223,10.015843370056151,0.4134486991882324
1789310164486459100,3.635459228515625,-0.07541735229492187,9.824905787658691,0.08200140686035155
1789310164496471000,3.645470947265625,0.13198036651611328,9.630227265167235,-0.6970119583129882
1789310164506482200,3.655482177734375,0.1393126091003418,9.420136069488525,-1.4975731384277342
1789310164516493000,3.6654931640625,0.19692308654785154,9.264961874389648,-2.048688433074951
1789310164526505000,3.6755048828125,0.07781155395507812,9.578751929473876,-1.3082815696716308
1789310164536516000,3.68551611328125,0.261117618560791,9.697115274047851,-0.5027823486328125
1789310164546528000,3.695528076171875,0.4107552223205566,9.601646482849121,-0.2715922508239746
1789310164556539100,3.7055390625,-0.13033435287475587,9.509320081329346,-0.17432780838012693
1789310164566550000,3.715550048828125,-0.2163759750366211,9.971550639343262,-0.7579144630432129
1789310164576562200,3.725562255859375,-0.05985504150390625,9.879972425842285,-1.0411784469604493
1789310164586573000,3.735572998046875,0.1997662010192871,9.631274728393555,-1.0034697708129883
1789310164596584200,3.745584228515625,0.7025485496520996,9.583839608001709,-0.5853823059082031
1789310164606596000,3.75559619140625,1.1908160507202148,9.521291089630127,0.030226795959472655
1789310164616607200,3.765607177734375,1.2572551467895507,9.519345800781249,0.455197590637207
1789310164626619100,3.775619140625,1.674594423675537,9.654468556976317,0.378583137512207
1789310164636630000,3.785630126953125,2.360832474517822,9.552116436004638,-0.2914940521240234
1789310164646641000,3.795640869140625,7.340622290039062,9.832836580657958,0.076614453125
1789310164656653000,3.805653076171875,4.505737886810302,9.79961703262329,-0.5252279891967773
1789310164666664200,3.815664306640625,1.113453409576416,9.70444751663208,0.009127893829345703
1789310164676675000,3.825675048828125,0.48976387710571284,9.81951883392334,0.31094694061279293
1789310164686687000,3.83568701171875,1.6328455322265625,9.823110136413574,0.25213936233520506
1789310164696698000,3.845697998046875,1.777994007873535,9.6794580368042,0.1336263801574707
1789310164706710000,3.8557099609375,1.4989198768615721,9.788992762756347,0.0013467384338378906
1789310164716721200,3.86572119140625,1.5720926651000975,9.796175367736815,-0.06883329772949218
1789310164726732000,3.87573193359375,1.7446248222351073,9.746645320892334,-0.021398177337646485
1789310164736744200,3.885744140625,1.8403928886413574,9.621997196960448,0.09801263046264648
1789310164746755000,3.895755126953125,1.8369512237548826,9.591471125793456,0.1423053611755371
1789310164756766200,3.90576611328125,1.7422306205749511,9.7170170753479,0.1596633232116699
1789310164766778000,3.915778076171875,1.875707363128662,9.823259774017334,0.11297639083862304
1789310164776789200,3.925789306640625,2.0937293518066404,9.862165550994872,0.05461772537231445
1789310164786801200,3.93580126953125,1.8715175102233885,9.85109236831665,0.0770633659362793
1789310164796812000,3.94581201171875,1.9654899253845213,9.756072489929199,0.1541267318725586
1789310164806823000,3.955822998046875,1.9201497314453124,9.609577275848388,0.17238251953125
1789310164816835000,3.9658349609375,1.9349638542175291,9.581744681549072,0.10654197387695312
1789310164826846200,3.97584619140625,1.8831892433166504,9.555857376098633,0.03890577697753906
1789310164836858000,3.985858154296875,2.111835501861572,9.637858782958984,-0.11596914291381835
1789310164846869800,3.995869873046875,1.9205986442565917,9.68559317855835,-0.05776011505126953
1789310164856880600,4.005880615234375,1.9406500831604003,9.656413845825195,-0.056712651824951166
1789310164866892800,4.015892822265625,1.956062756347656,9.641898998260498,-0.014065934753417967
1789310164876903700,4.025903564453125,1.8751088127136228,9.617208793640136,-0.018704700469970702
1789310164886914800,4.035914794921875,1.9930232444763183,9.688286655426024,-0.16250643768310546
1789310164896927000,4.045927001953125,2.0040964271545407,9.71581997451782,-0.2832639839172363
1789310164906937900,4.055937744140625,1.8778022895812987,9.653720368957519,-0.37484219741821284
1789310164916949800,4.06594970703125,1.8026842124938964,9.625887774658203,-0.38142625198364255
1789310164926960600,4.075960693359375,1.690007096862793,9.57635772781372,-0.4207809417724609
1789310164936971800,4.0859716796875,1.734599102783203,9.653870006561279,-0.2763806541442871
1789310164946984000,4.09598388671875,1.8792986656188964,9.76774422302246,-0.1505354293823242
1789310164956994800,4.105994873046875,1.843834553527832,9.788394212341307,-0.2127846725463867
1789310164967006700,4.1160068359375,1.7753005310058592,9.730933372497558,-0.1913864952087402
1789310164977017900,4.126017822265625,1.647809292602539,9.639953709411621,-0.28012159423828126
1789310164987028700,4.13602880859375,1.5658078857421873,9.611971477508545,-0.27129297561645505
1789310164997040600,4.14604052734375,1.5447089836120604,9.613916766357422,-0.13198036651611328
1789310165007051800,4.1560517578125,1.5690999130249021,9.658209497070311,0.0330699104309082
1789310165017064000,4.16606396484375,1.5637129592895507,9.668235216522216,0.06569090805053711
1789310165027074800,4.17607470703125,1.6021698234558104,9.72240402908325,-0.013168109130859374
1789310165037085700,4.186085693359375,1.6039654747009275,9.712827222442627,-0.1505354293823242
1789310165047097600,4.19609765625,1.527650296783447,9.683947164916992,-0.19183540802001953
1789310165057109000,4.20610888671875,1.479317350769043,9.67137760620117,-0.12853870162963865
1789310165067119900,4.216119873046875,1.4772224243164063,9.65940659790039,-0.1149216796875
1789310165077131800,4.2261318359375,1.43652099609375,9.673771807861328,-0.09172785110473632
1789310165087142700,4.236142578125,1.4700398193359374,9.734375037384032,-0.08544307174682617
1789310165097154800,4.24615478515625,1.5167267517089842,9.783905084228515,-0.08140285644531249
1789310165107165700,4.256165771484375,1.50026661529541,9.758616329193115,-0.12434884872436523
1789310165117176800,4.2661767578125,1.430685129547119,9.719112001800536,-0.14125789794921875
1789310165127188700,4.276188720703125,1.3786112434387205,9.67811129837036,-0.1671452033996582
1789310165137199900,4.286199951171875,1.4010568840026854,9.673023619842528,-0.1258452247619629
1789310165147211800,4.296211669921875,1.4273931022644042,9.689184481048583,-0.05117606048583984
1789310165157222700,4.30622265625,1.4335282440185546,9.725845693969726,-0.03965396499633789
1789310165167233800,4.31623388671875,1.36634095993042,9.708188456726074,-0.17133505630493162
1789310165177246000,4.326245849609375,1.448641641998291,9.747094233703613,-0.2615665313720703
1789310165187256800,4.3362568359375,1.4417583122253417,9.728239895629882,-0.26231471939086914
1789310165197268700,4.346268798828125,1.4930840103149414,9.735572138214112,-0.19812018737792966
1789310165207279600,4.356279541015625,1.4727332962036133,9.708787007141114,-0.16654665298461913
1789310165217290800,4.366290771484375,1.4579191734313963,9.72285294189453,-0.24016835403442383
1789310165227303000,4.376302978515625,1.4833575660705565,9.703848966217041,-0.29658173065185545
1789310165237313800,4.386313720703125,1.4929343727111815,9.726893157196045,-0.36062662506103516
1789310165247324700,4.39632470703125,1.5345336265563965,9.719560914611815,-0.28446108474731446
1789310165257336800,4.4063369140625,1.4848539421081541,9.695618898010252,-0.2599205177307129
1789310165267347700,4.41634765625,1.4631564895629883,9.690381581878661,-0.28042086944580075
1789310165277359600,4.426359619140625,1.4700398193359374,9.669432317352294,-0.21562778701782226
1789310165287370800,4.436370849609375,1.40464818649292,9.62080009613037,-0.23657705154418943
1789310165297382000,4.4463818359375,1.4541782333374023,9.623343935394287,-0.26665420989990235
1789310165307393800,4.456393798828125,1.4169184700012205,9.611372927093505,-0.2184709014892578
1789310165317404700,4.46640478515625,1.3967173934936523,9.667337390899657,-0.2289455337524414
1789310165327416600,4.47641650390625,1.5254057327270507,9.702352590179443,-0.2246060432434082
1789310165337428000,4.486427978515625,1.5581763679504395,9.71671780014038,-0.1575683967590332
1789310165347438800,4.49643896484375,1.4698901817321777,9.63351929244995,-0.12779051361083985
1789310165357450800,4.50645068359375,1.4980220512390137,9.69127940750122,-0.04085106582641601
1789310165367461600,4.516461669921875,1.7929577682495117,9.822212310791015,0.15637129592895507
1789310165377472800,4.52647265625,1.455674609375,9.739013803100585,0.32561142578124996
1789310165387484700,4.536484619140625,1.7157447647094726,9.745897132873534,0.5187935722351074
1789310165397495800,4.546495849609375,1.760785683441162,9.752481187438963,0.5409399375915527
1789310165407507700,4.5565078125,1.5978303329467773,9.759813430023193,0.5223848747253418
1789310165417518800,4.566518798828125,1.763928073120117,9.702202952575684,0.45774142990112304
1789310165427529700,4.57652978515625,1.5506944877624511,9.535955574798583,0.6085761344909668
1789310165437541600,4.586541748046875,1.3263877197265623,9.211840525054932,0.6821978355407714
1789310165447552800,4.596552734375,1.511190160369873,8.75978532409668,0.6790554458618163
1789310165457565000,4.60656494140625,1.6781857261657713,9.01386997528076,0.42018239135742186
1789310165467575800,4.616575927734375,1.8122610191345214,9.506925879669188,0.3688566932678222
1789310165477586700,4.626586669921875,1.7521067024230956,9.688137017822266,0.21607669982910155
1789310165487598600,4.6365986328125,1.6929998489379883,10.018387209320068,0.12165537185668944
1789310165497609700,4.646609619140625,1.802384937286377,9.988310050964355,0.10160393295288085
1789310165507622000,4.656621826171875,1.832911008453369,10.028263291168212,0.25213936233520506
1789310165517632800,4.6666328125,1.6148890197753905,9.97843396911621,0.19288287124633788
1789310165527643600,4.6766435546875,1.6415245132446288,9.8825162651062,-0.0818517692565918
1789310165537655800,4.68665576171875,1.6244658264160154,9.851541281127929,-0.2654571090698242
1789310165547666700,4.696666748046875,1.6802806526184082,9.82535470046997,-0.3178302703857422
1789310165557677800,4.706677734375,1.7577929313659666,9.721206928253173,-0.30316578521728516
1789310165567689700,4.716689697265625,1.5921441040039062,9.549871871948241,-0.3226186737060547
1789310165577700900,4.726700927734375,1.462557939147949,9.389460360717774,-0.35314474487304687
1789310165587712800,4.736712646484375,1.573140128326416,9.255534705352783,-0.4043208053588867
1789310165597723600,4.7467236328125,1.7259201217651365,9.140912300872802,-0.4691138877868652
1789310165607734800,4.75673486328125,1.5685013626098632,8.860491431427002,-0.5129577056884765
1789310165617747000,4.766746826171875,1.5497966621398924,8.722675198364257,-0.5840355674743652
1789310165627757800,4.7767578125,1.140837091064453,8.673743701934814,-0.46103345718383787
1789310165637769700,4.786769775390625,1.307383744049072,9.560795417022705,-0.6742670425415038
1789310165647780600,4.796780517578125,2.001552587890625,10.529998176574706,-0.20560206756591795
1789310165657791700,4.806791748046875,1.7462708358764647,11.133336994934082,-0.20739771881103514
1789310165667803600,4.8168037109375,1.6846201431274412,11.165359442138671,-0.2916436897277832
1789310165677814800,4.826814697265625,1.7738041549682617,10.754454582214354,-0.18510171585083007
1789310165687825700,4.83682568359375,1.6584335624694824,10.146776273345946,-0.14859014053344727
1789310165697837800,4.846837890625,1.4686930809020995,9.52533130493164,-0.15906477279663084
1789310165707848700,4.8568486328125,1.2897265068054198,9.310900618743895,-0.19557634811401367
1789310165717860600,4.866860595703125,1.361103643798828,9.279177446746825,-0.26396073303222656
1789310165727871700,4.876871826171875,1.5550339782714844,9.56977367324829,-0.29718028106689454
1789310165737883000,4.8868828125,1.553238327026367,9.841066648864745,-0.4390367294311523
1789310165747894800,4.896894775390625,1.5300444984436035,9.934889426422119,-0.5994482406616211
1789310165757905700,4.90690576171875,1.4751274978637694,9.739163440704345,-0.6748655929565429
1789310165767917800,4.916917724609375,1.413476805114746,9.558700490570068,-0.46028526916503903
1789310165777928700,4.9269287109375,1.5159785636901855,9.581445406341553,-0.35404257049560545
1789310165787939800,4.93693994140625,1.6014216354370117,9.65342109375,-0.2680009483337402
1789310165797951700,4.94695166015625,1.565358972930908,9.791237326812743,-0.3280056274414062
1789310165807962600,4.956962646484375,1.4285902030944824,9.71686743774414,-0.44532150878906246
1789310165817974800,4.966974853515625,1.2235866859436035,9.629628714752197,-0.4908113403320312
1789310165827985700,4.976985595703125,1.2876315803527831,9.517250874328612,-0.5143044441223145
1789310165837996800,4.986996826171875,1.4618097511291503,9.508721530914306,-0.3930979850769043
1789310165848009000,4.997009033203125,1.5933412048339843,9.6013472076416,-0.09112930068969725
1789310165858019800,5.007019775390625,1.5521908638000488,9.675866734313963,0.07646481552124022
1789310165868032000,5.017031982421875,1.462557939147949,9.762057994079589,-0.027383681488037107
1789310165878043000,5.02704296875,1.2837410026550293,9.721955116271973,-0.05970540390014648
1789310165888054000,5.037053955078125,1.2529156562805175,9.584438158416747,-0.07691372833251953
1789310165898066000,5.04706591796875,1.271769994354248,9.571120411682129,-0.03336918563842773
1789310165908077000,5.0570771484375,1.2138602416992186,9.508721530914306,0.07945756759643555
1789310165918088000,5.067087890625,1.4100351402282714,9.583839608001709,0.09711480484008789
1789310165928099800,5.077099853515625,1.5758336051940918,10.41866779937744,0.05386953735351562
1789310165938110700,5.08711083984375,1.626710390472412,10.135553453063965,0.029179332733154296
1789310165948123000,5.097122802734375,1.6757915245056152,10.184933862304687,0.03441664886474609
1789310165958134000,5.107134033203125,1.6096517036437987,10.134356352233887,0.027234043884277342
1789310165968145000,5.117144775390625,1.709160710144043,9.962572383117676,0.009576806640625
1789310165978156800,5.12715673828125,1.528398484802246,10.002226348114013,0.03815758895874023
1789310165988168000,5.13716796875,1.5759832427978515,9.962572383117676,0.06359598159790039
1789310165998179800,5.147179931640625,1.6416741508483885,9.850493817901611,0.11013327636718749
1789310166008191000,5.15719091796875,1.5860089622497557,9.76130980606079,0.21308394775390624
1789310166018201900,5.167201904296875,1.6606781265258788,9.616011692810059,0.14814122772216795
1789310166028214000,5.177214111328125,1.7886182777404784,9.469666116333007,0.1580173095703125
1789310166038225000,5.187224853515625,1.8525135345458983,9.371054935455321,0.23403321228027343
1789310166048235800,5.19723583984375,1.966986301422119,9.373449137115477,0.33848025970458984
1789310166058247700,5.20724755859375,1.8011878364562988,9.401281731414795,0.44098201828002925
1789310166068259000,5.217259033203125,1.816301234436035,9.504980590820312,0.5805939025878906
1789310166078271000,5.22727099609375,2.06215581741333,9.68514426574707,0.6136638130187988
1789310166088281900,5.23728173828125,2.2833201957702633,9.795726454925537,0.43724107818603514
1789310166098292700,5.247292724609375,2.2387281898498532,9.76130980606079,0.3871124809265136
1789310166108305000,5.257304931640625,2.2336405113220215,9.684396077728271,0.39549218673706055
1789310166118316000,5.26731591796875,2.013523596191406,9.542090716552734,0.2814683326721191
1789310166128328000,5.277327880859375,2.0138228713989257,9.588777648925781,0.06733692169189452
1789310166138338800,5.2873388671875,2.073677912902832,9.714772511291503,-0.02454056701660156
1789310166148350000,5.297349853515625,2.092681888580322,9.76774422302246,-0.01840542526245117
1789310166158361900,5.30736181640625,1.8001403732299803,9.637110594940186,0.07990648040771484
1789310166168373000,5.317373046875,1.7636287979125975,9.632022916412353,0.2255038688659668
1789310166178385000,5.327385009765625,1.9149124153137207,9.504082765197753,0.17776947326660156
1789310166188396000,5.33739599609375,1.9285294372558592,9.686191728973387,0.13482348098754882
1789310166198407000,5.347406982421875,1.9086276359558105,9.768193135833739,0.17597382202148437
1789310166208418800,5.357418701171875,1.8242320274353025,9.733477211761475,0.3220201232910156
1789310166218429700,5.3674296875,1.6707038459777832,9.62753378829956,0.38247371520996093
1789310166228441900,5.37744189453125,1.6059107635498047,9.484180963897705,0.23777415237426758
1789310166238453000,5.387452880859375,1.4947300239562988,9.370606022644042,0.1092354507446289
1789310166248464000,5.3974638671875,1.4175170204162597,9.4113074508667,0.04504091873168945
1789310166258475800,5.407475830078125,1.6955436882019042,9.562740705871581,0.239420166015625
1789310166268487000,5.41748681640625,1.801038198852539,9.745148944854735,0.2407669044494629
1789310166278498000,5.427498046875,1.8079215286254882,9.773131176757811,0.17178396911621094
1789310166288510000,5.437510009765625,1.7028759307861328,9.713874685668944,0.07885901718139648
1789310166298520800,5.447520751953125,1.5382745666503905,9.598653730773925,-0.011821370697021483
1789310166308533000,5.457532958984375,1.4290391159057616,9.653720368957519,-0.07347206344604491
1789310166318544000,5.4675439453125,1.565358972930908,9.70354969100952,-0.04249707946777344
1789310166328554800,5.4775546875,1.6072575019836426,9.796325005340575,-0.07062894897460938
1789310166338566700,5.487566650390625,1.5465046348571776,9.776872116851806,-0.14829086532592772
1789310166348578000,5.497578125,1.4968249504089355,9.695319622802733,-0.1149216796875
1789310166358590000,5.50758984375,1.3612532814025877,9.641300447845458,-0.08768763580322265
1789310166368600800,5.517600830078125,1.3820529083251953,9.650577979278564,-0.09995791931152344
1789310166378611700,5.52761181640625,1.3371616271972655,9.701155489349365,-0.19572598571777342
1789310166388624000,5.537623779296875,1.3646949462890625,9.75517466430664,-0.2832639839172363
1789310166398635000,5.547635009765625,1.3561656028747557,9.782707983398437,-0.31543606872558594
1789310166408647000,5.55764697265625,1.373822840118408,9.7928833404541,-0.25647885284423827
1789310166418657800,5.56765771484375,1.3187562019348145,9.740360541534423,-0.19527707290649413
1789310166428669000,5.5776689453125,1.230918928527832,9.707290631103515,-0.19826982498168944
1789310166438680800,5.587680908203125,1.1846809089660644,9.701604402160644,-0.2587234169006348
1789310166448692000,5.59769189453125,1.232714579772949,9.741108729553222,-0.35134909362792965
1789310166458704000,5.607703857421875,1.20667763671875,9.772382988739013,-0.36092590026855464
1789310166468715000,5.617715087890625,1.2195464706420898,9.798270294189452,-0.3407248237609863
1789310166478726000,5.627725830078125,1.2310685661315917,9.78674819869995,-0.2882020248413086
1789310166488737800,5.63773779296875,1.1655272956848144,9.755773214721678,-0.26979659957885743
1789310166498748700,5.647748779296875,1.127519344329834,9.716568162536621,-0.2754828285217285
1789310166508760800,5.6577607421875,1.173458088684082,9.72300257949829,-0.2624643569946289
1789310166518772000,5.66777197265625,1.214309154510498,9.760711255645752,-0.27308862686157226
1789310166528782800,5.677782958984375,1.2894272315979003,9.732878661346435,-0.26440964584350585
1789310166538795000,5.687794921875,1.303642803955078,9.712976860046385,-0.2555810272216797
1789310166548806000,5.697805908203125,1.2509703674316406,9.808445651245117,-0.21472996139526365
1789310166558817800,5.70781787109375,1.2376526206970213,9.743203656005859,-0.12419921112060546
1789310166568829000,5.717828857421875,1.3322235862731933,9.776123928833007,-0.1096843635559082
1789310166578839800,5.72783984375,1.3853449356079102,9.728389533233642,-0.14320318679809568
1789310166588852000,5.73785205078125,1.2333131301879883,9.60748234939575,-0.19527707290649413
1789310166598862800,5.74786279296875,1.313967798614502,9.644891750335693,-0.1470937644958496
1789310166608873700,5.757873779296875,1.3946224670410154,9.630975453186034,-0.07616554031372069
1789310166618886000,5.767885986328125,1.8625392539978027,10.070012182617187,-0.2302922721862793
1789310166628897000,5.77789697265625,1.29601128616333,9.23099413833618,-0.33473931961059566
1789310166638909000,5.787908935546875,1.6234183631896972,10.005817650604248,0.18599954147338865
1789310166648919800,5.797919921875,1.4866495933532713,9.470563941955566,0.07392097625732422
1789310166658930700,5.8079306640625,2.016665985870361,9.740809454345703,0.28969840087890625
1789310166668942800,5.81794287109375,1.7501614135742187,9.573215338134766,0.194079972076416
1789310166678954000,5.8279541015625,2.083853269958496,9.822212310791015,0.028431144714355466
1789310166688966000,5.8379658203125,1.7399860565185545,9.496151972198486,0.07811082916259765
1789310166698977000,5.84797705078125,1.9080290855407713,9.657610946655273,0.3093009269714355
1789310166708988000,5.85798779296875,1.8754080879211426,9.600449382019042,0.30316578521728516
1789310166718999800,5.867999755859375,1.9933225196838378,9.637858782958984,0.3342904067993164
1789310166729011000,5.878010986328125,2.1472996139526366,9.646088851165771,0.37020343170166015
1789310166739022800,5.88802294921875,1.995118170928955,9.60194575805664,0.31274259185791015
1789310166749034000,5.898033935546875,2.0163667106628416,9.702651865386962,0.2501940734863281
1789310166759044900,5.908044921875,2.0020015007019043,9.627084875488281,0.11477204208374023
1789310166769056800,5.918056884765625,1.8906711235046385,9.523685291290283,0.14155717315673827
1789310166779068000,5.92806787109375,1.8761562759399413,9.656264208221435,-0.05626373901367187
1789310166789079800,5.938079833984375,1.8617910659790038,9.427318674468994,-0.18899229354858396
1789310166799091000,5.948091064453125,1.9535189170837401,9.585186346435547,-0.5600935508728027
1789310166809101800,5.958101806640625,2.0862474716186523,9.60748234939575,-0.6818985603332519
1789310166819114000,5.968114013671875,2.063352918243408,9.580098667907714,-0.5621884773254394
1789310166829124900,5.978124755859375,1.956810944366455,9.467122277069091,-0.13557166900634765
1789310166839136800,5.98813671875,1.788319002532959,9.669881230163574,0.2856581855773926
1789310166849147400,5.9981474609375,1.462557939147949,9.618405894470214,-0.20380641632080077
1789310166859158300,6.008158203125,1.8695722213745116,9.817423907470703,-0.6835445739746093
1789310166869170400,6.01817041015625,2.208501393890381,9.863213014221191,-1.3645453086853025
1789310166879181300,6.028181396484375,2.2909517135620114,9.795726454925537,-1.9147627777099607
1789310166889193200,6.038193115234375,1.822137100982666,9.485826977539062,-2.3612813873291016
1789310166899204400,6.048204345703125,1.7437269966125488,9.460388584899901,-2.2948422912597657
1789310166909215500,6.058215576171875,1.5267524711608886,9.519944351196289,-2.5866356185913086
1789310166919227400,6.068227294921875,1.8411410766601561,9.709385557556152,-2.9664158569335934
1789310166929238300,6.07823828125,2.2994810569763184,9.89613328704834,-2.807351084136963
1789310166939250200,6.088250244140625,2.3451205261230466,9.828197814941406,-2.5763106239318847
1789310166949261300,6.09826123046875,2.09402862701416,9.565434182739256,-2.288707149505615
1789310166959272400,6.1082724609375,1.9611504348754882,9.395296227264403,-2.164807213592529
1789310166969284400,6.118284423828125,1.9087772735595703,9.376292251586914,-2.4111107093811035
1789310166979295200,6.128295166015625,1.9330185653686522,9.563788169097899,-2.7213094619750975
1789310166989307400,6.138307373046875,1.9716250671386717,9.750236623382568,-2.8362311416625974
1789310166999318300,6.148318359375,2.094926452636719,9.86291373901367,-2.7536311843872068
1789310167009329400,6.158329345703125,2.116324629974365,9.85782606048584,-2.628384510040283
1789310167019341300,6.16834130859375,2.005742440795898,9.771335525512695,-2.4435820693969723
1789310167029352400,6.1783525390625,1.8987515541076658,9.64728595199585,-2.1630115623474118
1789310167039364400,6.1883642578125,1.7905635665893553,9.58264250717163,-2.1217115837097165
1789310167049375200,6.198375244140625,1.7803882095336914,9.568127659606933,-2.0427029289245606
1789310167059386400,6.208386474609375,1.6787842765808105,9.645939213562011,-1.8730138862609862
1789310167069398500,6.2183984375,1.700182453918457,9.797073193359374,-1.5996259841918945
1789310167079409400,6.228409423828125,1.65992993850708,9.749189160156249,-1.1897685874938964
1789310167089421300,6.23842138671875,1.511788710784912,9.680505500030517,-0.9784802909851074
1789310167099432200,6.24843212890625,1.2808978881835937,9.561842880249023,-0.9428665412902831
1789310167109443300,6.258443359375,1.205929448699951,9.585335984039306,-0.7109282554626465
1789310167119455200,6.268455322265625,1.1761515655517578,9.560795417022705,-0.5777507881164551
1789310167129466400,6.27846630859375,1.2164040809631347,9.643096099090576,-0.33922844772338867
1789310167139478500,6.288478515625,1.2922703460693359,9.7039986038208,-0.13991115951538086
1789310167149489400,6.298489501953125,1.2849381034851073,9.661800799560547,0.04578910675048828
1789310167159500300,6.308500244140625,1.2485761657714842,9.625588499450682,0.15502455749511718
1789310167169512200,6.31851220703125,1.141585279083252,9.648782328033446,0.08693944778442382
1789310167179523300,6.3285234375,1.0353425804138183,9.62109937133789,-0.06449380722045898
1789310167189535500,6.338535400390625,1.035492218017578,9.63441711807251,-0.21143793411254883
1789310167199546400,6.34854638671875,1.0595838722229003,9.628880526733397,-0.25692776565551756
1789310167209557200,6.35855712890625,1.1180921752929687,9.674220720672606,-0.34880525436401366
1789310167219569400,6.3685693359375,1.058536408996582,9.63441711807251,-0.29972412033081053
1789310167229580300,6.378580322265625,1.1288660827636718,9.697115274047851,-0.16684592819213867
1789310167239592200,6.38859228515625,1.1086650062561034,9.648333415222167,0.008230068206787108
1789310167249603300,6.398603271484375,1.0715548805236816,9.498097261047363,0.20979192047119138
1789310167259614200,6.4086142578125,1.168968960571289,9.557653027343749,0.548421817779541
1789310167269626400,6.41862646484375,1.4107833282470703,9.726444244384766,0.7734767738342284
1789310167279637200,6.42863720703125,1.590947003173828,9.583839608001709,0.886153889465332
1789310167289649200,6.438649169921875,1.5875053382873534,9.496750522613524,0.8939350448608397
1789310167299660500,6.44866064453125,1.615936483001709,9.500940375518798,0.8933364944458008
1789310167309671400,6.45867138671875,1.575683967590332,9.393500576019287,0.958877764892578
1789310167319683300,6.468683349609375,1.6217723495483398,9.32751039276123,1.2170026313781737
1789310167329694200,6.478694091796875,1.7925088554382322,9.517999062347412,1.3795090690612792
1789310167339706400,6.488706298828125,1.9653402877807615,9.552565348815918,1.44924019241333
1789310167349717500,6.498717529296875,1.9572598571777342,9.495553421783447,1.6133926437377928
1789310167359729400,6.5087294921875,1.9364602302551268,9.510367544555663,1.432031867980957
1789310167369740300,6.518740234375,1.945288848876953,9.47370633163452,1.1620856307983398
1789310167379751400,6.52875146484375,1.7480664871215819,9.388113622283935,0.9144353965759277
1789310167389763300,6.538763427734375,1.5429133323669433,9.466374089050293,0.8643067993164062
1789310167399774200,6.548774169921875,1.5728408531188964,9.56363853149414,1.0076596237182616
1789310167409786400,6.558786376953125,1.7908628417968748,9.637110594940186,1.4107833282470703
1789310167419797500,6.568797607421875,1.8043302261352538,9.570821136474608,1.8189947113037108
1789310167429808400,6.578808349609375,1.763329522705078,9.508871168518066,1.9645920997619628
1789310167439820300,6.5888203125,1.6772879005432129,9.362525592041015,2.1082441993713377
1789310167449831200,6.5988310546875,1.5369278282165526,9.325116191101074,2.167351052856445
1789310167459843300,6.60884326171875,1.4739303970336912,9.408015423583985,1.9803040481567382
1789310167469854500,6.6188544921875,1.4362217208862305,9.503184939575196,1.8318635452270506
1789310167479865300,6.628865234375,1.470339094543457,9.701155489349365,1.7139491134643554
1789310167489877500,6.63887744140625,1.5107412475585937,9.709834470367431,1.7049708572387694
1789310167499888400,6.648888427734375,1.4598644622802734,9.606584523773193,1.8004396484374998
1789310167509900300,6.658900390625,1.4175170204162597,9.541791441345215,1.8650830932617186
1789310167519911200,6.6689111328125,1.421856510925293,9.542838904571532,1.8628385292053222
1789310167529922300,6.67892236328125,1.421856510925293,9.57007294845581,1.9844939010620115
1789310167539934500,6.6889345703125,1.325938806915283,9.645490300750732,2.041655465698242
1789310167549945300,6.6989453125,1.3046902671813965,9.684246440124511,2.1121347770690915
1789310167559957200,6.708957275390625,1.35975690536499,9.590423662567138,2.1478981643676756
1789310167569968400,6.718968505859375,1.3416507553100585,9.465326625823973,2.235136887359619
1789310167579979500,6.7289794921875,1.4040496360778807,9.456797282409667,2.3268647384643555
1789310167589991400,6.738991455078125,1.4264952766418457,9.485677339935302,2.5200468849182127
1789310167600002300,6.749002197265625,1.3461398834228515,9.564985269927979,2.6910826660156246
1789310167610014500,6.759014404296875,1.177199028778076,9.641898998260498,2.8336873023986815
1789310167620025300,6.769025390625,1.128716445159912,9.7545761138916,2.863914098358154
1789310167630037200,6.779037353515625,1.135150862121582,9.750685536193847,2.8287492614746093
1789310167640048400,6.78904833984375,1.080233861541748,9.636362406921386,2.7641058166503907
1789310167650059500,6.7990595703125,1.1845312713623046,9.645041387939452,2.695571794128418
1789310167660071400,6.809071533203125,1.2102689392089843,9.604190322113036,2.677764919281006
1789310167670082300,6.819082275390625,1.086518640899658,9.554660275268555,2.677016731262207
1789310167680094200,6.82909423828125,0.8575731071472168,9.532214634704589,2.6665420989990234
1789310167690105300,6.839105224609375,0.6926724678039551,9.562441430664062,2.6880899139404297
1789310167700116500,6.849116455078125,0.6929717430114746,9.679757312011718,2.5903765586853025
1789310167710128400,6.85912841796875,0.8022071937561035,9.807547825622558,2.5417443374633786
1789310167720139300,6.86913916015625,0.9355342987060546,9.882216989898682,2.4224831672668454
1789310167730151400,6.8791513671875,0.9935936889648437,9.859172798919678,2.302174533843994
1789310167740162300,6.889162353515625,0.9696516723632812,9.815927531433104,2.2373814514160153
1789310167750173400,6.89917333984375,0.7166144844055176,9.655815295410155,2.1383213577270506
1789310167760185300,6.909185302734375,0.5587468124389648,9.571718962097167,1.9954174461364744
1789310167770196500,6.919196533203125,0.5147533569335937,9.526528405761718,1.7881693649291992
1789310167780208400,6.92920849609375,0.7107786178588866,9.623044660186768,1.5901988151550293
1789310167790219300,6.93921923828125,0.8456020988464354,9.752630825042724,1.4935329231262207
1789310167800231400,6.9492314453125,0.9819219558715819,9.92725790863037,1.435174257659912
1789310167810242300,6.9592421875,1.0122983894348143,9.959280355834961,1.4321815055847167
1789310167820253400,6.96925341796875,0.8447042732238769,9.848698166656494,1.3792097938537597
1789310167830265300,6.979265380859375,0.5936123741149902,9.579500117492675,1.2852373786926268
1789310167840276200,6.989276123046875,0.46312838363647457,9.330652782440184,1.27042325592041
1789310167850288000,6.9992880859375,0.6266822845458984,9.388562535095215,1.226429800415039
1789310167860299000,7.009299072265625,0.9080009796142577,9.666888478088378,1.0574889457702636
1789310167870310100,7.01931005859375,1.1246762298583983,10.043526326751708,0.962768342590332
1789310167880322000,7.029322021484375,1.06616792678833,10.097395864105223,0.9124901077270507
1789310167890333200,7.039333251953125,0.8349778289794921,9.883713365936279,0.9198223503112792
1789310167900345000,7.049344970703125,0.6057330200195312,9.501688563537597,0.927004955291748
1789310167910356000,7.05935595703125,0.5777507881164551,9.227253198242186,0.9320926338195801
1789310167920367000,7.0693671875,0.74055650100708,9.255085792541504,0.9293991569519042
1789310167930379300,7.079379150390625,1.0567407577514647,9.48073929901123,0.9916484001159668
1789310167940390100,7.08939013671875,1.3141174362182617,9.781959795379638,1.0164882423400878
1789310167950402000,7.099402099609375,1.3232453300476072,10.136451278686522,0.9674071083068847
1789310167960413000,7.109412841796875,1.3072341064453123,10.398167447662352,0.8964788841247558
1789310167970425000,7.119425048828125,1.13006318359375,10.108319409179687,0.8894459167480468
1789310167980436000,7.12943603515625,0.9950900650024413,9.600299744415283,0.8976759849548339
1789310167990447000,7.139447021484375,0.9127893829345702,9.16754779434204,0.8485948509216308
1789310168000459300,7.149459228515625,0.9904512992858886,9.046191697692871,0.9286509689331054
1789310168010470100,7.15947021484375,1.0926537826538085,9.283217662048338,0.9184756118774413
1789310168020482000,7.16948193359375,1.3679869735717773,9.82565397567749,0.9379285003662109
1789310168030493000,7.179492919921875,1.5083470458984374,10.231471157073974,1.0498574279785156
1789310168040504000,7.189504150390625,1.1646294700622557,9.98546693649292,1.1547533882141112
1789310168050516200,7.19951611328125,0.799962629699707,9.497498710632323,1.1972504676818847
1789310168060527000,7.209527099609375,1.0269628746032715,9.23144305114746,1.3002011390686035
1789310168070539000,7.2195390625,1.3301286598205566,9.214384364318848,1.3543699516296386
1789310168080550100,7.229550048828125,1.589001714324951,9.447070838165283,1.5004162528991698
1789310168090562000,7.23956201171875,1.650951682281494,9.883114815521239,1.6799813774108885
1789310168100573200,7.2495732421875,1.2849381034851073,9.855132583618163,1.835454847717285
1789310168110584000,7.259583984375,1.0375871444702147,9.863063376617431,1.6793828269958495
1789310168120596200,7.26959619140625,0.9362824867248535,9.396343690490722,1.5140332748413086
1789310168130607000,7.279607177734375,1.1215338401794432,8.952069644927978,1.4531307701110838
1789310168140619000,7.289618896484375,1.5177742149353026,9.113678256988525,1.4863503181457518
1789310168150630000,7.2996298828125,1.9524714538574217,9.791237326812743,1.7479168495178221
1789310168160641300,7.309641357421875,1.8227356513977049,9.979930345153807,1.8397943382263182
1789310168170653200,7.319653076171875,1.5077484954833984,9.932794499969482,1.828421880340576
1789310168180664000,7.3296640625,1.3513771995544432,9.549123683929443,1.7311574378967285
1789310168190676200,7.33967626953125,1.3220482292175293,9.254936154937743,1.6533458839416504
1789310168200687000,7.34968701171875,1.509843421936035,9.323769452667236,1.5876549758911132
1789310168210699000,7.359698974609375,1.7137994758605957,9.713575410461425,1.8128595695495604
1789310168220710100,7.369710205078125,1.8288707931518553,9.923965881347655,2.065447844696045
1789310168230721000,7.379720947265625,1.9029414070129393,9.569923310852051,2.321477784729004
1789310168240733200,7.389733154296875,1.8788497528076171,9.268553176879882,2.3315035041809082
1789310168250744000,7.399744140625,1.7311574378967285,8.910320753479004,2.1580735214233395
1789310168260756000,7.409755859375,1.4555249717712402,8.978555500793457,2.1064485481262207
1789310168270767000,7.41976708984375,1.227028350830078,9.32810894317627,2.2967875801086426
1789310168280778200,7.4297783203125,1.3431471313476562,9.796923555755615,2.5110686286926267
1789310168290790100,7.4397900390625,1.68551796875,9.956586878967284,2.517353408050537
1789310168300801000,7.449801025390625,1.9788076721191405,9.963769483947754,2.3620295753479
1789310168310813200,7.459813232421875,2.397942600250244,9.790938051605224,2.16420866317749
1789310168320824000,7.469823974609375,2.224362979888916,9.648931965637207,2.216132911682129
1789310168330836000,7.4798359375,1.638980673980713,9.131036219024658,2.546832015991211
1789310168340847000,7.48984716796875,1.1647791076660157,8.757241484832763,2.8631659103393554
1789310168350858200,7.499858154296875,1.0248679481506346,8.723722661590577,3.182492556762695
1789310168360870100,7.5098701171875,1.6904560096740722,9.165901780700683,3.1476269950866698
1789310168370881000,7.519881103515625,1.9514239906311035,9.950900650024414,2.6036943054199218
1789310168380893000,7.529892822265625,2.663399709320068,10.389638104248046,2.3356933570861815
1789310168390904000,7.539904052734375,2.45151286239624,9.54508346862793,1.9904794052124022
1789310168400915200,7.549915283203125,1.7181389663696287,9.105448188781738,2.267608247375488
1789310168410927000,7.559927001953125,1.6392799491882324,9.545382743835448,2.6683377502441403
1789310168420938000,7.56993798828125,1.4616601135253906,9.432406352996825,3.1370027252197263
1789310168430950100,7.5799501953125,1.707215421295166,9.524583116912842,2.5872341690063476
1789310168440961000,7.5899609375,1.7676690132141113,8.822333842468261,2.07502465133667
1789310168450973000,7.599972900390625,1.8429367279052733,8.908225827026367,2.1110873138427735
1789310168460984000,7.609984130859375,1.9520225410461425,9.127444916534424,2.3623288505554196
1789310168470995200,7.6199951171875,2.1375731697082516,9.467122277069091,2.3925556465148925
1789310168481007000,7.630007080078125,2.270152086639404,10.072705659484862,2.0638018310546875
1789310168491018000,7.64001806640625,1.6831237670898436,9.764901108551024,2.5368062965393063
1789310168501030100,7.650030029296875,2.697965995788574,9.385569783020019,2.427720483398437
1789310168511041300,7.660041259765625,2.1437083114624023,9.095721744537354,2.0026000511169433
1789310168521052200,7.67005224609375,1.1698667861938477,8.622567641448974,2.274042664337158
1789310168531064000,7.68006396484375,1.697638614654541,9.649380878448486,2.8208184684753417
1789310168541075000,7.690074951171875,1.4897919830322264,8.819640365600586,3.159598003387451
1789310168551087000,7.700087158203125,2.8782793083190916,9.695918173217773,2.697367445373535
1789310168561098000,7.710097900390625,2.814683326721191,9.35968247756958,2.1541829437255857
1789310168571110000,7.72010986328125,2.9062615402221676,9.95344448928833,2.2547394134521483
1789310168581121300,7.730121337890625,2.175730758666992,9.960327819061279,2.6699837638854977
1789310168591132200,7.740132080078125,1.068113215637207,9.088389501953124,3.264194688415527
1789310168601144000,7.75014404296875,0.9614216041564941,8.939051173400879,2.9397803634643553
1789310168611155000,7.760155029296875,1.6347908210754394,9.22485899658203,2.38776724319458
1789310168621167000,7.7701669921875,1.460762287902832,9.171588009643553,2.3171382942199705
1789310168631178200,7.78017822265625,2.0299837326049803,9.707440268707275,2.2354361625671384
1789310168641189000,7.790189208984375,2.11946701965332,9.734375037384032,2.5184008712768553
1789310168651201000,7.800200927734375,2.169296341705322,9.719710552215576,2.7014076606750486
1789310168661212200,7.810212158203125,1.4561235221862792,9.383923769378661,2.7998692039489743
1789310168671224000,7.82022412109375,1.5626654960632322,9.692925421142577,2.6981156333923337
1789310168681235200,7.830235107421875,0.5231330627441406,9.922619142913819,2.561346863555908
1789310168691247000,7.8402470703125,0.5865794067382812,9.98471874847412,2.976291938781738
1789310168701258200,7.85025830078125,0.9478045822143554,9.592219313812254,3.427299676513672
1789310168711269000,7.86026904296875,0.8310872512817382,9.05262611465454,4.059518552398681
1789310168721281000,7.870281005859375,1.7890671905517577,9.932495224761963,4.024652990722656
1789310168731292000,7.8802919921875,1.3637971206665038,9.594912790679931,3.631255730438232
1789310168741304000,7.890303955078125,0.9323919090270996,9.52533130493164,3.496432249450683
1789310168751315200,7.900315185546875,0.5231330627441406,9.328258580780028,3.49852717590332
1789310168761326000,7.910326171875,0.6509235763549804,9.818770645904541,3.6414310874938964
1789310168771338000,7.920337890625,0.48452656097412106,10.089764346313476,3.482067039489746
1789310168781349000,7.93034912109375,0.03890577697753906,9.216180015563964,3.8242882392883297
1789310168791361000,7.940361083984375,0.9826701438903808,9.146448892211913,3.550301786804199
1789310168801372200,7.9503720703125,2.050633721923828,10.000131421661376,3.4651579902648924
1789310168811384300,7.96038427734375,1.7899650161743164,10.340856245422362,3.5167829635620116
1789310168821395200,7.970395263671875,0.30181904678344723,9.152284758758544,3.8934208122253415
1789310168831406000,7.980406005859375,0.06853402252197265,9.100659785461426,4.242824617004394
1789310168841418000,7.99041796875,0.7665934440612793,9.879972425842285,5.227290412139892
1789310168851429400,8.000429443359375,0.5743091232299804,9.447220475769042,5.589263775634765
1789310168861441300,8.010441162109375,0.7140706451416016,9.157970987701415,5.3095910942077635
1789310168871452400,8.020452392578125,1.1249755050659178,10.219051235961913,5.272780243682861
1789310168881463300,8.03046337890625,1.5319897872924804,10.519373906707763,5.064783974456787
1789310168891475500,8.040475341796874,0.9579799392700195,8.704419410705565,4.694730180358887
1789310168901486300,8.050486328125,-0.3938461730957031,8.256853337860107,4.234744186401367
1789310168911498200,8.060498291015625,0.04638765716552734,9.886406842803954,3.5238159309387207
1789310168921509400,8.07050927734375,0.4150947128295898,10.242693977355957,2.9979893913269042
1789310168931520500,8.0805205078125,0.33518823242187495,10.299855541992187,3.311629808807373
1789310168941532400,8.090532470703126,0.5521627578735351,9.858723886108399,3.937114992523193
1789310168951543300,8.100543212890624,0.3688566932678222,8.75275235671997,4.770297170257568
1789310168961555200,8.11055517578125,-0.1444002876281738,8.494926765441894,4.553023369598389
1789310168971566300,8.12056640625,-0.7577648254394531,8.860491431427002,3.080589348602295
1789310168981578200,8.130578125,-0.7863456077575683,9.341875602722167,1.4746785850524902
1789310168991589400,8.14058935546875,0.32501287536621093,10.322001907348632,0.8991723609924316
1789310169001600300,8.150600341796874,0.5900210716247558,10.558429321289061,1.0547954689025878
1789310169011612400,8.1606123046875,0.7009025360107421,10.427197142791748,0.9329904594421387
1789310169021623300,8.170623291015625,0.2850596351623535,8.730456353759765,1.3302782974243164
1789310169031635200,8.18063525390625,0.5045779998779296,8.989479045867919,1.561618032836914
1789310169041646300,8.190646240234376,0.7891887222290038,8.678382467651367,0.6622960342407226
1789310169051657500,8.200657470703124,1.0755950958251952,8.684966522216797,0.5310638557434082
1789310169061669400,8.21066943359375,1.429338391113281,9.99220062866211,-0.24046762924194334
1789310169071680300,8.22068017578125,2.033425397491455,9.51919616317749,-1.234809506225586
1789310169081692400,8.2306923828125,2.9882629470825193,10.222193625640868,-1.8522142593383788
1789310169091703300,8.240703369140626,2.738068873596191,10.752658930969238,-3.2172084808349606
1789310169101715200,8.250715087890624,2.365471240234375,9.41011035003662,-4.254047437286377
1789310169111726300,8.260726318359374,2.3139959045410157,8.131905938720703,-6.550835017395019
1789310169121737200,8.2707373046875,1.8058266021728515,8.080430603027343,-6.325929698944091
1789310169131749400,8.280749267578125,1.7024270179748535,8.373121755981446,-5.41373886642456
1789310169141760300,8.29076025390625,2.8063036209106444,10.239701225280761,-2.953846298217773
1789310169151772200,8.300772216796876,3.2480338272094724,10.66826332244873,-0.9566332008361815
1789310169161783600,8.310783447265624,3.231274415588379,10.652850649261474,0.1222539222717285
1789310169171794400,8.32079443359375,2.2355858001708984,10.555436569213867,-0.38322190322875976
1789310169181806300,8.330806396484375,1.1004349380493164,9.600898294830321,-1.3682862487792968
1789310169191817200,8.340817138671875,0.9916484001159668,9.50064110031128,-2.028188081359863
1789310169201829400,8.350829345703126,1.0829273384094238,8.731503816986084,-1.4782698875427245
1789310169211840500,8.360840576171874,1.0224737464904785,8.98828194503784,0.23343466186523437
1789310169221851400,8.370851318359374,1.1685200477600097,9.564835632324218,1.4178162956237792
1789310169231863300,8.38086328125,1.8344073844909667,10.735151331329345,1.8685247581481932
1789310169241874400,8.39087451171875,1.1896189498901366,11.44682777481079,3.2746693206787105
1789310169251886300,8.40088623046875,0.5108627792358398,10.640131452941894,3.173813575744629
1789310169261897200,8.410897216796876,-0.005087678527832031,8.652046249389647,3.1139585342407226
1789310169271909000,8.4209091796875,-0.06584054565429687,7.776666267395019,3.788524851989746
1789310169281920500,8.43092041015625,1.8439841911315917,10.261398677825927,4.173093493652344
1789310169291931400,8.440931396484375,1.6506524070739745,10.223091451263427,5.522974317169189
1789310169301943300,8.450943359375,1.3072341064453123,10.388889916229248,7.147739418792725
1789310169311954200,8.4609541015625,0.967257470703125,9.900023864746093,7.94246473236084
1789310169321966300,8.47096630859375,0.09337386474609374,8.986187018585204,8.662071968841552
1789310169331977500,8.4809775390625,-0.46372693405151366,8.987533757019042,9.067440237426757
1789310169341988400,8.49098828125,0.7396586753845215,10.005817650604248,9.983970560455322
1789310169352000300,8.501000244140625,-0.008379705810546874,9.14195976409912,10.211419718170166
1789310169362011400,8.511011474609376,0.20709844360351562,8.516474580383301,9.83747534637451
1789310169372023300,8.521023193359374,0.1680430290222168,8.35740980758667,10.348188488006592
1789310169382034200,8.5310341796875,0.7815572044372558,9.53236427230835,10.83406178741455
1789310169392046300,8.54104638671875,0.8330325401306152,10.244339990997315,11.214739851379393
1789310169402057500,8.551057373046875,-0.6112696113586426,8.636334300994873,10.167276625061035
1789310169412068400,8.561068359375,-0.7957727767944336,8.339453295135497,8.505251760101318
1789310169422080300,8.571080322265624,0.8122329132080077,9.650129066467285,7.380874805450439
1789310169432091100,8.581091064453124,0.12569558715820311,8.361898935699463,6.688351975250244
1789310169442103300,8.591103271484375,-0.005985504150390624,8.386289865112305,6.434865874481201
1789310169452114400,8.601114501953125,0.08334814529418945,8.807669357299805,5.860107838439941
1789310169462125300,8.611125244140625,0.423923331451416,8.344840248870849,5.5446717697143555
1789310169472137500,8.621137451171874,1.5891513519287108,9.065046035766601,4.394257872009277
1789310169482148400,8.6311484375,1.776647269439697,9.482534950256348,2.652027251434326
1789310169492160300,8.64116015625,0.9192237998962401,8.535029643249512,2.66205297088623
1789310169502171400,8.65117138671875,-0.313490779876709,7.427711375427245,1.671452033996582
1789310169512182300,8.661182373046875,0.5544073219299316,7.945158209228516,0.040402153015136714
1789310169522194400,8.6711943359375,2.1980267616271973,9.081955084991455,-0.1274912384033203
1789310169532205300,8.681205322265624,3.0960020217895505,10.774954933929443,-0.32396541213989255
1789310169542217200,8.69121728515625,2.229301020812988,9.96002854385376,-0.9376292251586914
1789310169552228400,8.701228271484375,1.8020856620788572,8.332569965362548,-1.8971055404663084
1789310169562240300,8.711240234375,1.017685343170166,8.399906887054442,-2.5098715278625487
1789310169572251400,8.72125146484375,0.6177040283203125,7.72489165649414,-2.8522423652648925
1789310169582262300,8.73126220703125,2.302174533843994,8.837447240447997,-3.206733848571777
1789310169592274400,8.7412744140625,2.9173347229003905,10.222792176055908,-3.218854494476318
1789310169602285300,8.751285400390625,2.91763399810791,10.285639969635008,-3.3164182121276853
1789310169612297200,8.761297119140625,2.309357138824463,10.78363391494751,-3.2746693206787105
1789310169622308400,8.771308349609376,1.4157213691711426,9.867103591918944,-3.6124013923645015
1789310169632319500,8.781319580078126,0.8858546142578124,9.260772021484375,-4.459499867248535
1789310169642331400,8.791331298828124,1.3028946159362793,9.430610701751709,-5.01779776687622
1789310169652342300,8.80134228515625,2.0011036750793454,9.605985973358154,-5.436783057403564
1789310169662354200,8.811354248046875,2.3567922592163084,10.382455499267577,-5.067028538513183
1789310169672365300,8.821365234375,1.4438532386779783,10.386346076965332,-4.627692533874511
1789310169682377200,8.831377197265626,0.8209118942260741,9.446322650146485,-4.498555281829834
1789310169692388400,8.841388427734374,1.3283330085754395,10.799645138549804,-4.707150101470947
1789310169702399200,8.851399169921875,1.3319243110656738,10.219051235961913,-5.149778133392334
1789310169712411400,8.861411376953125,1.2877812179565429,9.92830537185669,-5.808183589935302
1789310169722422300,8.87142236328125,0.7767688011169434,9.394996952056884,-5.40730444946289
1789310169732434200,8.88143408203125,0.5798457145690917,8.87336026535034,-4.697573294830322
1789310169742445300,8.8914453125,0.5609913764953613,9.067739512634278,-3.6921582351684568
1789310169752456400,8.90145654296875,1.4616601135253906,9.513210659027099,-2.9779379524230953
1789310169762468400,8.91146826171875,2.6464906600952145,9.907356107330322,-1.933916390991211
1789310169772479200,8.921479248046875,3.1483751831054687,10.450091696166991,-1.291671795654297
1789310169782491400,8.931491455078126,1.9815011489868164,9.40397520828247,-0.9967360786437988
1789310169792502500,8.94150244140625,0.8928875816345214,8.96329246520996,-0.31393969268798827
1789310169802513400,8.951513427734374,0.5536591339111328,9.232640151977538,-0.2784755805969238
1789310169812525300,8.961525390625,1.693748036956787,9.951798475646973,-0.07152677459716797
1789310169822536200,8.9715361328125,2.4021324531555175,10.83361287460327,0.23687632675170897
1789310169832548400,8.98154833984375,2.5119664543151856,9.898377851104735,1.7497125007629393
1789310169842559200,8.991559326171876,1.891120036315918,9.64070189743042,2.1863550285339355
1789310169852571600,9.001571533203125,0.7029974624633789,8.201188149261474,2.8643630111694334
1789310169862582800,9.011582763671875,1.1276689819335937,9.025990621185302,3.0410850212097165
1789310169872594000,9.021593994140625,1.8809446792602538,10.427945330810546,3.1425393165588376
1789310169882605800,9.031605712890626,1.5936404800415038,10.04322705154419,3.8154596206665037
1789310169892616700,9.04161669921875,2.1930887207031247,9.692476508331298,3.5570354789733885
1789310169902628600,9.051628662109374,2.3536498695373536,10.068066893768309,3.404554760742187
1789310169912639700,9.0616396484375,2.7822119667053222,10.276960988616942,3.2128689903259278
1789310169922651000,9.07165087890625,2.5386019477844237,9.818321733093262,3.120542588806152
1789310169932662800,9.081662841796875,1.502211904144287,8.883535622406006,2.7823616043090817
1789310169942673700,9.091673583984376,1.837400136566162,9.029881198883055,2.4916157402038572
1789310169952685800,9.101685791015624,2.3316531417846678,9.591321488189697,2.254889051055908
1789310169962696700,9.11169677734375,1.9897312171936035,9.401132093811034,2.179022785949707
1789310169972708600,9.12170849609375,1.7164929527282713,9.236680367279051,2.203712990570068
1789310169982719700,9.1317197265625,1.3153145370483397,9.19313582458496,2.2309470344543456
1789310169992731000,9.14173095703125,1.59603468170166,9.800814133453368,2.364124501800537
1789310170002742800,9.15174267578125,2.233790148925781,10.59134959411621,2.2758383155822752
1789310170012753700,9.161753662109374,2.3000796073913574,10.287136345672607,2.4557027153015136
1789310170022765800,9.171765869140625,1.4909890838623046,8.557924196624755,2.493112116241455
1789310170032777000,9.18177685546875,1.431433317565918,7.977779206848144,2.9715035354614256
1789310170042787800,9.191787841796875,2.2138883476257325,9.649231240844726,3.011606413269043
1789310170052799700,9.2017998046875,2.6421511695861817,10.779144786834717,3.176806327819824
1789310170062810600,9.211810546875,1.85790048828125,10.210970805358887,3.160795104217529
1789310170072822800,9.22182275390625,1.452382582092285,9.232340876770019,3.1938650146484373
1789310170082833700,9.231833740234375,1.9060837966918944,9.74275474319458,3.2249896362304686
1789310170092844800,9.2418447265625,2.555211721801758,10.077942975616455,3.126528092956543
1789310170102857000,9.25185693359375,2.479644731903076,9.026439533996582,2.286761860656738
1789310170112867800,9.261867919921874,1.788917552947998,8.678382467651367,1.3587094421386718
1789310170122879700,9.271879638671875,1.6885107208251953,9.536404487609863,0.8589198455810546
1789310170132890600,9.281890625,0.5855319435119628,9.453205979919433,0.1096843635559082
1789310170142902800,9.29190283203125,1.0224737464904785,9.577405191040038,-0.4686649749755859
1789310170152914000,9.301913818359376,1.6801310150146482,9.741108729553222,-0.8511386901855468
1789310170162924800,9.3119248046875,2.3548469703674315,10.14498062210083,-0.7064391273498535
1789310170172936700,9.321936767578125,2.6192566162109374,10.009259315490722,-0.830638338470459
1789310170182947800,9.33194775390625,2.6779145568847653,9.581146131134032,-1.412130066680908
1789310170192959700,9.341959716796875,1.222539222717285,9.204508282470703,-2.0310311958312988
1789310170202970600,9.351970703125,1.4698901817321777,8.630947347259522,-3.7683237754821777
1789310170212981800,9.361981689453126,2.21523508605957,9.413103102111815,-4.141819234466553
1789310170222994000,9.371993896484375,2.6349685646057126,9.948955361175537,-4.113388089752197
1789310170233004800,9.3820048828125,2.876782932281494,10.424204390716552,-3.923049057769775
1789310170243016700,9.3920166015625,2.7947815254211426,10.812813247680664,-3.535487664031982
1789310170253027600,9.402027587890625,1.3193547523498534,9.244910435485838,-3.327491394805908
1789310170263039700,9.412039794921874,0.7867945205688476,8.799738564300537,-3.356221814727783
1789310170273051000,9.42205078125,1.9469348625183105,10.050110381317138,-3.6358944961547848
1789310170283061800,9.432061767578125,2.002300775909424,10.001178884887695,-3.847930980682373
1789310170293073700,9.44207373046875,2.5712229454040525,11.092934841918945,-4.17563733291626
1789310170303084800,9.452084716796875,2.279878530883789,10.643423480224609,-3.8590041633605954
1789310170313096700,9.4620966796875,1.0571896705627442,9.340528864288329,-3.725228145599365
1789310170323107800,9.47210791015625,0.867598826599121,9.489268642425536,-3.417573232269287
1789310170333118700,9.48211865234375,0.3673603172302246,8.687959274291991,-2.6913819412231446
1789310170343131000,9.492130859375,0.7092822418212891,9.191789086151122,-2.5029881980895996
1789310170353141800,9.502141845703125,1.5409680435180664,10.007762939453125,-1.9961656341552734
1789310170363153700,9.512153564453126,2.3210288719177243,11.149797131347656,-1.6069582267761229
1789310170373164500,9.52216455078125,1.2288240020751953,10.178200170135497,-1.7043723068237304
1789310170383176700,9.5321767578125,0.3434183006286621,9.392453112792968,-1.8966566276550292
1789310170393187800,9.542187744140625,0.38576574249267576,8.897003006744384,-2.2028151649475096
1789310170403198700,9.55219873046875,0.8301894256591796,9.239822756958008,-2.123656872558594
1789310170413211000,9.5622109375,1.7164929527282713,9.628281976318359,-1.7931074058532714
1789310170423221800,9.5722216796875,2.147000338745117,9.760112705230712,-1.581370196533203
1789310170433233700,9.582233642578124,2.0644003814697265,10.483909794616698,-1.7392378684997558
1789310170443244800,9.592244873046875,1.481711552429199,10.096647676086425,-1.8285715179443358
1789310170453255700,9.602255615234375,1.2638392013549804,9.347711469268798,-1.9912275932312011
1789310170463267800,9.612267822265625,1.045069024658203,8.97601166152954,-2.041056915283203
1789310170473278700,9.62227880859375,1.9093758239746093,9.345616542816161,-2.2692542610168456
1789310170483290600,9.63229052734375,2.9946973640441894,11.01242981109619,-2.103156520843506
1789310170493301800,9.6423017578125,1.5409680435180664,8.944587764739989,-1.9680337646484374
1789310170503313700,9.652313720703125,1.4842553916931152,9.361777404022217,-2.4082675949096677
1789310170513324800,9.66232470703125,1.6473603797912597,9.757269590759277,-1.8601450523376464
1789310170523335700,9.672335693359376,2.3122002532958983,9.293542656707762,-1.777395457458496
1789310170533347800,9.682347900390624,2.5870845314025877,9.654318919372558,-1.6148890197753905
1789310170543358700,9.692358642578125,2.307262212371826,8.967931230926514,-1.44924019241333
1789310170553370600,9.70237060546875,2.4762030670166015,9.28905352859497,-1.9815011489868164
1789310170563381800,9.7123818359375,1.8885761970520019,9.291148455047606,-1.553387964630127
1789310170573394000,9.722393798828126,1.9455881240844726,10.179247633361816,-2.166902140045166
1789310170583404800,9.73240478515625,3.0355484298706052,9.658808047485351,-1.722478456878662
1789310170593415700,9.742415771484374,2.965368393707275,9.351602046966553,-1.2756605720520018
1789310170603427600,9.752427490234375,1.7265186721801757,8.715492593383788,-1.3684358863830566
1789310170613438700,9.762438720703125,1.6508020446777343,8.668057472991944,-0.5939116493225097
1789310170623451000,9.772450927734376,1.705868682861328,10.22114616241455,0.6420949577331543
1789310170633461800,9.782461669921876,0.9524433479309081,9.297433234405517,0.6889315277099609
1789310170643472600,9.79247265625,2.3151930053710936,9.92740754623413,0.8450035484313965
1789310170653484800,9.80248486328125,1.6383821235656737,9.85767642288208,1.0473135887145995
1789310170663495700,9.81249560546875,1.5355810897827147,10.249577307128906,0.30960020217895506
1789310170673507600,9.822507568359375,1.0966939979553223,9.756371765136718,1.100584575653076
1789310170683518700,9.832518798828126,0.43350013809204097,9.115773183441162,1.3572130661010742
1789310170693529900,9.84252978515625,0.8387187690734863,8.737638958740234,1.290325057220459
1789310170703541800,9.852541748046875,1.8417396270751951,10.575039095306396,1.8339584716796873
1789310170713552600,9.862552734375,1.5556325286865234,10.822689329528808,2.530671154785156
1789310170723564800,9.872564697265625,0.8285434120178222,9.42971287612915,2.5279776779174803
1789310170733576000,9.882575927734376,0.17223288192749023,8.853458464050293,3.0952538337707516
1789310170743587800,9.892587890625,1.1272200691223144,10.050409656524657,3.218255944061279
1789310170753598700,9.9025986328125,1.1347019493103028,9.303568376159667,3.3928830276489257
1789310170763609600,9.912609619140625,1.2912228828430174,9.792284790039062,4.077774340057373
1789310170773621800,9.922621826171875,0.7758709754943848,9.783456171417235,4.04739790649414
1789310170783632600,9.932632568359375,0.3435679382324219,8.860491431427002,4.492120864868164
1789310170793644500,9.94264453125,0.13691840744018555,10.02901147918701,5.067776726531982
1789310170803656000,9.952656005859374,1.271769994354248,10.925490363311766,5.232827003479003
1789310170813666800,9.962666748046875,1.6098013412475585,11.141716700744627,4.955698161315918
1789310170823678700,9.9726787109375,1.1354501373291015,10.04232922592163,4.924124626922607
1789310170833689600,9.982689697265625,0.5955576629638671,9.41744259262085,4.803067805480957
1789310170843701800,9.99270166015625,-0.4836287353515625,8.958952974700928,4.7752352111816405
1789310170853712600,10.002712646484374,-0.5728127471923827,9.547178395080566,4.643105207061767
1789310170863724800,10.012724853515625,0.10339958419799804,8.68885709991455,4.880729721832275
1789310170873735700,10.022735595703125,1.0295067138671874,10.641178916168212,5.199008905029297
1789310170883746600,10.03274658203125,0.5612906517028808,10.162039308929442,5.2624552490234375
1789310170893758500,10.042758544921876,-0.09142857589721679,9.0527757522583,5.108777429962158
1789310170903769600,10.05276953125,0.6190507667541504,10.187926614379883,4.44962378540039
1789310170913781800,10.06278173828125,1.2901754196166992,10.111910711669921,4.139125757598877
1789310170923792600,10.072792724609375,1.7458219230651855,9.450961415863036,3.9737762054443357
1789310170933803500,10.082803466796875,0.24869769744873046,8.672696238708495,3.340958779144287
1789310170943815700,10.092815673828126,-0.45340193939208984,9.243862972259521,3.2864906913757324
1789310170953826600,10.10282666015625,-0.32665888900756834,9.456498007202148,3.060088996887207
1789310170963838500,10.11283837890625,0.32665888900756834,9.741707279968262,3.4069489624023435
1789310170973849600,10.122849609375,1.2924199836730956,10.382904412078856,3.6578912239074706
1789310170983861800,10.13286181640625,0.8488941261291504,9.798270294189452,3.38345585861206
1789310170993872600,10.14287255859375,-0.4670189613342285,8.473528588104248,2.6788123825073242
1789310171003883500,10.152883544921876,-0.3485059791564941,8.766369378662109,1.9107225624084472
1789310171013895400,10.1628955078125,-0.05551555099487304,9.242665871429443,1.3213000411987303
1789310171023906800,10.17290673828125,0.8635586112976074,9.848847804260254,1.089212117767334
1789310171033918700,10.182918701171875,0.3553893089294433,9.581744681549072,1.632396619415283
1789310171043929600,10.1929296875,0.7766191635131835,9.712378309631347,1.8236334770202636
1789310171053940500,10.2029404296875,1.2589011604309082,10.41298157043457,2.3114520652770993
1789310171063952600,10.21295263671875,1.057339308166504,9.674370358276366,1.8668787445068358
1789310171073963500,10.222963623046875,0.37394437179565426,7.864054627990722,1.9430442848205565
1789310171083975700,10.2329755859375,-0.5639841285705566,8.397662322998046,1.4214075981140135
1789310171093986600,10.242986572265625,-0.7025485496520996,8.328380112457275,0.9654618194580078
1789310171103998700,10.252998779296876,1.0907084938049316,10.957363172912597,1.0007762939453124
1789310171114009600,10.263009521484374,2.3077111251831055,11.543643304443359,0.6609492958068848
1789310171124020500,10.2730205078125,2.0014029502868653,11.308861904144287,0.4369418029785156
1789310171134032400,10.283032470703125,0.5503671066284179,10.001029247283935,0.05566518859863281
1789310171144043800,10.293043701171875,-0.9240122032165526,8.934262770080565,-0.2136824981689453
1789310171154055700,10.3030556640625,-0.4709095390319824,8.923937775421143,-0.2407669044494629
1789310171164066600,10.313066650390626,-0.3872621185302734,8.557325646209716,-0.3764882110595703
1789310171174077400,10.323077392578124,-0.5957073005676269,8.392125731658934,-0.5168482833862305
1789310171184089600,10.333089599609375,-0.2442085693359375,8.936656971740723,-1.4010568840026854
1789310171194100700,10.343100830078125,0.8686462898254395,10.71210714035034,-1.1559504890441894
1789310171204112600,10.353112548828125,0.9105448188781737,10.20259109954834,-1.1962030044555663
1789310171214123500,10.36312353515625,1.022174471282959,10.613047046661377,-1.1837830833435057
1789310171224135700,10.3731357421875,0.3586813362121582,9.896731837463378,-0.6687304512023925
1789310171234146600,10.383146484375,0.6760626937866211,9.982474184417724,-0.7426514274597168
1789310171244157400,10.393157470703125,1.6925509361267088,10.717943006896972,-0.9416694404602051
1789310171254169600,10.403169677734375,1.2511200050354003,9.732729023742674,-0.8438064476013183
1789310171264180700,10.4131806640625,0.1457470260620117,8.829666085052489,-1.1665747589111328
1789310171274192600,10.423192626953124,0.8421604339599609,9.452607429504393,-1.2141595169067383
1789310171284203500,10.43320361328125,2.2129905220031736,10.736498069763183,-0.9941922393798828
1789310171294214400,10.44321435546875,2.2762872283935547,9.976039767456054,-1.060481697845459
1789310171304226600,10.4532265625,2.5317186180114746,10.793360359191894,-0.8818143989562988
1789310171314237700,10.46323779296875,1.629254229736328,9.924714069366454,-0.6726210289001464
1789310171324249600,10.47324951171875,1.2907739700317382,9.325565103912353,-0.6138134506225585
1789310171334260700,10.4832607421875,1.1393407150268553,9.085546387481688,-0.6856395004272461
1789310171344272600,10.493272705078125,1.055394019317627,8.300547518157959,-0.5225345123291015
1789310171354283500,10.503283447265625,2.1128829650878904,9.498396536254882,-0.46252983322143554
1789310171364294700,10.513294677734375,4.022857339477539,10.453832636260985,-0.23657705154418943
1789310171374306600,10.523306640625,3.599981471252441,10.415824684906005,-0.22266075439453123
1789310171384317700,10.533317626953124,1.333121411895752,8.94488703994751,-0.25438392639160157
1789310171394329600,10.54332958984375,1.4031518104553222,9.414599478149414,0.31169512863159177
1789310171404340500,10.553340576171875,1.397465581512451,8.635885388183594,0.7154173835754394
1789310171414351600,10.5633515625,1.578826357269287,8.4651488822937,0.9320926338195801
1789310171424363500,10.573363525390626,2.3708581939697266,10.158896919250488,0.9897031112670898
1789310171434374700,10.583374755859374,2.36217921295166,10.656591589355468,1.4276923774719237
1789310171444386600,10.593386474609375,2.1844097396850586,10.812663610076903,2.0278888061523435
1789310171454397700,10.603397705078125,1.4163199195861815,9.999532871246338,1.2177508193969726
1789310171464409600,10.61340966796875,1.8532617225646972,9.456946920013428,0.680551821899414
1789310171474420500,10.62342041015625,1.2840402778625488,9.269151727294922,0.001496376037597656
1789310171484431600,10.633431640625,1.8912696739196777,9.641599723052979,-0.24899697265624998
1789310171494443800,10.64344384765625,2.0415058280944822,9.217077841186523,0.354341845703125
1789310171504454700,10.65345458984375,1.6151882949829102,8.8995468460083,0.9804255798339843
1789310171514466600,10.663466552734375,0.866401725769043,9.291298092651367,1.6885107208251953
1789310171524477400,10.6734775390625,0.31438860549926756,8.891616053009033,1.401954709625244
1789310171534489600,10.683489501953124,1.9490297889709471,10.687865848541259,0.8851064262390136
1789310171544500500,10.69350048828125,2.7283424293518066,10.897358493804932,0.2744353652954101
1789310171554511600,10.70351171875,2.0311808334350583,10.071508558654784,-0.17567454681396483
1789310171564523800,10.713523681640625,1.7583914817810058,10.624569142150879,-0.5217863243103027
1789310171574534700,10.72353466796875,1.304241354370117,9.479691835784912,-0.39743747558593745
1789310171584546600,10.733546630859376,1.2273276260375976,8.42744020614624,-0.2659060218811035
1789310171594557400,10.743557373046874,1.6903063720703124,10.0748005859375,-0.5377975479125976
1789310171604568600,10.753568603515625,2.212840884399414,9.855132583618163,-0.06209960556030273
1789310171614580700,10.763580810546875,2.7473464050292966,9.941772756195068,-0.00029927520751953123
1789310171624591600,10.773591552734375,3.1453824310302734,10.076147324371338,0.1785176612854004
1789310171634603500,10.783603515625,2.500145083618164,10.781239713287352,0.4836287353515625
1789310171644614700,10.79361474609375,1.0218751960754393,9.645490300750732,0.9328408218383788
1789310171654626600,10.80362646484375,0.06075286712646484,8.495525315856932,0.6694786392211913
1789310171664637400,10.813637451171875,1.5572785423278808,8.589198455810546,-0.05955576629638672
1789310171674648600,10.823648681640625,2.2191256637573242,9.605537060546874,-0.39444472351074217
1789310171684660700,10.83366064453125,1.6265607528686523,10.394426507568358,-0.2916436897277832
1789310171694671600,10.843671630859374,0.5123591552734374,8.998606939697265,0.010025719451904296
1789310171704683500,10.85368359375,3.125929542541504,10.148871199798583,0.6845920372009276
1789310171714694400,10.8636943359375,2.8465561363220213,9.854234757995606,0.9401730644226074
1789310171724705800,10.873705810546875,0.14395137481689452,9.235932179260253,0.754622435760498
1789310171734717700,10.8837177734375,0.24705168380737302,9.203460819244384,0.16160861206054686
1789310171744728600,10.893728515625,2.191741982269287,9.83208839263916,-0.6640916854858399
1789310171754740500,10.903740478515624,3.7108629356384277,11.083806948089599,-1.2458826889038086
1789310171764751600,10.913751708984375,1.8655320060729979,8.825775507354736,0.10564414825439453
1789310171774763500,10.923763427734375,1.2877812179565429,9.381978480529785,1.0592845970153808
1789310171784774700,10.933774658203125,0.500537784576416,8.954912759399413,1.0721534309387206
1789310171794785500,10.94378564453125,1.9680337646484374,9.96586441040039,1.1394903526306153
1789310171804797700,10.953797607421874,1.9388544319152832,9.485078789520264,0.2964320930480957
1789310171814808600,10.96380859375,2.179022785949707,9.91468834991455,0.15397709426879883
1789310171824820500,10.973820556640625,1.9550152931213378,10.726921263122557,0.04504091873168945
1789310171834831400,10.983831298828125,1.8043302261352538,10.703428159332274,0.31588498153686523
1789310171844842800,10.9938427734375,1.699583903503418,9.982773459625244,0.1867477294921875
1789310171854855000,11.00385498046875,0.6811503723144531,8.878747219085692,0.1954267105102539
1789310171864865800,11.01386572265625,0.4908113403320312,8.29860222930908,0.2846107223510742
1789310171874877700,11.023877685546875,1.105672254180908,9.226205735015869,0.04129997863769531
1789310171884888600,11.033888671875,1.4176666580200195,9.77417863998413,-0.165349552154541
1789310171894900700,11.043900634765626,1.642721614074707,9.863063376617431,-0.28221652069091796
1789310171904912000,11.053911865234374,0.8442553604125976,9.665392102050781,-0.01571194839477539
1789310171914922800,11.0639228515625,1.0763432838439941,10.03050785522461,0.35838206100463865
1789310171924934700,11.0739345703125,1.7405846069335937,10.372280142211913,0.6932710182189941
1789310171934945800,11.08394580078125,1.3965677558898926,9.424924472808838,0.8671499137878418
1789310171944957700,11.093957763671876,0.895730696105957,9.695918173217773,0.7436988906860351
1789310171954968600,11.103968505859376,-0.3667617668151855,8.54266116104126,1.106420442199707
1789310171964980500,11.11398046875,-0.8119336380004882,8.505102122497558,0.628178660583496
1789310171974992000,11.123991943359375,1.5319897872924804,11.08919390182495,0.3506009056091308
1789310171985002800,11.134002685546875,2.1172224555969237,11.028441034698485,0.6783072578430175
1789310171995014700,11.1440146484375,2.3225252479553222,11.273547429656983,1.0099041877746582
1789310172005025500,11.154025634765626,1.356764153289795,10.805630642700194,1.4130278923034667
1789310172015037700,11.16403759765625,0.8327332649230956,9.440337145996093,1.744774459838867
1789310172025048800,11.174048828125,-0.016160861206054686,7.612962728881835,1.5834651229858399
1789310172035059700,11.184059814453125,-0.09217676391601562,7.8733321594238275,0.9579799392700195
1789310172045071600,11.194071533203125,1.1456254943847655,9.580996493530273,0.7535749725341796
1789310172055082800,11.204082763671876,2.076969940185547,10.121637155914305,1.0541969184875488
1789310172065094700,11.2140947265625,3.439719597625732,12.237063960266113,1.0172364303588866
1789310172075105800,11.224105712890625,2.3569418968200684,10.76418102645874,1.2880804931640624
1789310172085117700,11.23411767578125,0.5427355888366698,8.791957408905029,1.565957523345947
1789310172095128800,11.24412890625,-0.20485387954711912,8.263138117218016,1.5116390731811522
1789310172105139700,11.2541396484375,1.1228805786132812,9.462782786560059,1.4386159225463866
1789310172115151600,11.264151611328124,1.5744868667602538,9.489567917633057,1.4586673614501953
1789310172125162500,11.27416259765625,1.1559504890441894,9.424176284790038,1.2853870162963867
1789310172135174700,11.284174560546875,1.7929577682495117,10.407594616699217,1.1456254943847655
1789310172145185800,11.294185791015625,1.9970634597778318,10.997166775512694,1.5529390518188475
1789310172155196700,11.30419677734375,0.7076362281799315,8.745719389343261,1.9756652824401855
1789310172165208800,11.314208740234376,0.27892449340820313,8.68317087097168,1.9116203880310056
1789310172175219700,11.3242197265625,0.3550900337219238,9.132532595062255,1.9815011489868164
1789310172185231600,11.334231689453125,0.4560954162597656,8.444199617767334,1.9298761756896972
1789310172195242800,11.34424267578125,2.6013001037597654,11.343727465820312,1.4787188003540037
1789310172205255000,11.3542548828125,2.108543474578857,10.545111574554443,1.8008885612487793
1789310172215265800,11.364265869140626,0.5873275947570801,9.124601802062987,2.145803237915039
1789310172225276700,11.374276611328124,0.2237082176208496,9.517699787139891,2.461837857055664
1789310172235288600,11.38428857421875,1.296759474182129,10.23341644592285,2.614767488098144
1789310172245299700,11.3942998046875,2.0049942527770996,10.840047291564941,2.424877368927002
1789310172255311600,11.4043115234375,0.8587702079772949,9.633818567657471,2.159120984649658
1789310172265322800,11.41432275390625,0.34012627334594725,8.84223564376831,1.8302175315856932
1789310172275335000,11.4243349609375,1.3301286598205566,9.891793796539305,1.8517653465270996
1789310172285345800,11.434345703125,1.3949217422485352,10.571747068023681,1.4438532386779783
1789310172295356700,11.444356689453125,0.5979518646240234,9.776123928833007,1.2167033561706542
1789310172305368600,11.45436865234375,-0.5419874008178711,8.228721468353271,1.5435118827819823
1789310172315379700,11.464379638671875,-0.4857236618041992,7.732373536682128,1.5982792457580566
1789310172325392000,11.474391845703124,-0.15532383270263672,8.35067611541748,1.351526837158203
1789310172335402800,11.48440283203125,0.8126818260192871,9.976787955474853,0.9730933372497558
1789310172345413600,11.49441357421875,1.9812018737792967,11.176881537628173,1.1435305679321288
1789310172355425800,11.50442578125,2.0676924087524413,11.554716487121581,1.3983634071350097
1789310172365436700,11.514436767578125,2.4247277313232423,11.435904229736327,1.674594423675537
1789310172375448600,11.524448486328126,0.5458779785156249,8.82996536026001,1.5604209320068358
1789310172385459700,11.534459716796874,-0.3839700912475586,8.315960191345214,1.2137106040954588
1789310172395472000,11.544471923828125,-0.1452981132507324,8.217049735260009,0.754622435760498
1789310172405482800,11.554482666015625,1.8173486976623534,10.212467181396484,0.4703109886169433
1789310172415493600,11.56449365234375,2.558653386688232,10.830470484924316,0.29448680419921874
1789310172425505500,11.574505615234376,1.7790414710998534,9.805602536773682,0.7829039428710937
1789310172435517000,11.584516845703124,1.7528548904418944,10.351630152893065,1.2879308555603026
1789310172445528800,11.59452880859375,2.035370686340332,10.193912118530273,1.038784245300293
1789310172455539700,11.604539794921875,1.7374422172546387,8.563161512756347,1.191264963531494
1789310172465551600,11.614551513671875,0.8280944992065429,8.237849362182617,1.024718310546875
1789310172475562800,11.624562744140626,1.5279495719909668,9.46143604812622,0.8212111694335937
1789310172485574000,11.634573974609374,2.267608247375488,9.666888478088378,0.6914753669738769
1789310172495585800,11.644585693359375,2.755277198028564,10.486752909088134,0.6446387969970703
1789310172505596700,11.6545966796875,1.8293197059631348,10.327089585876465,0.6521206771850585
1789310172515608800,11.66460888671875,1.2336124053955078,8.544007899475098,0.9644143562316894
1789310172525619700,11.67461962890625,1.9219453826904296,9.469815753936768,0.6548141540527344
1789310172535630600,11.684630615234376,1.7209820808410643,9.561842880249023,0.1484405029296875
1789310172545642500,11.694642578125,1.2343605934143065,9.062801471710204,-0.27129297561645505
1789310172555654000,11.70465380859375,2.792387323760986,10.477176102447508,-0.37439328460693355
1789310172565665800,11.714665771484375,3.001879969024658,10.897059218597411,-0.2555810272216797
1789310172575676700,11.7246767578125,1.549497386932373,9.340977777099608,-0.26396073303222656
1789310172585688800,11.734688720703126,0.39863457641601563,8.709357451629637,-0.3142389678955078
1789310172595699700,11.74469970703125,1.4312836799621582,9.804255798339844,-0.4439747703552246
1789310172605710800,11.7547109375,2.108693112182617,9.69696563644409,-0.35523967132568357
1789310172615722800,11.76472265625,2.5201965225219727,9.26331586074829,-0.3941454483032226
1789310172625733600,11.774733642578125,2.5739164222717283,10.283096130371094,-0.3942950859069824
1789310172635745800,11.784745849609376,1.94723413772583,9.928754284667969,-0.055066638183593745
1789310172645756700,11.794756591796874,2.2723966506958004,10.382305861663818,-0.3899555953979492
1789310172655768600,11.8047685546875,1.7673697380065916,10.116848752593993,-0.5753565864562988
1789310172665779700,11.81477978515625,1.4698901817321777,9.447519750976562,-0.7293336807250976
1789310172675790800,11.824790771484375,1.0637737251281738,9.023297144317626,-0.4447229583740234
1789310172685802800,11.834802734375,1.8707693222045898,10.181641835021972,-0.6105214233398437
1789310172695813600,11.844813720703126,2.231395947265625,10.456975025939942,-1.1444283935546875
1789310172705825800,11.85482568359375,2.076221752166748,10.26603744354248,-1.1104606575012206
1789310172715836700,11.864836669921875,2.0495862586975098,10.678737954711913,-1.1531073745727538
1789310172725848600,11.8748486328125,2.351704580688476,10.833912149810791,-1.4299369415283203
1789310172735859700,11.884859619140625,1.042525185394287,9.139116649627685,-1.6757915245056152
1789310172745870800,11.894870849609376,-0.18734627990722655,8.264634493255615,-1.7899650161743164
1789310172755882800,11.9048828125,0.7267898414611816,8.923937775421143,-1.8320131828308104
1789310172765893600,11.9148935546875,1.7880197273254395,10.445452930450438,-1.8517653465270996
1789310172775905500,11.924905517578125,2.3136966293334957,10.219949061584472,-2.4164976631164548
1789310172785917000,11.9349169921875,1.5589245559692382,10.050409656524657,-2.631077986907959
1789310172795928800,11.9449287109375,0.34880525436401366,9.239673119354247,-2.897732196807861
1789310172805939700,11.954939697265624,1.216254443359375,9.381529567718506,-3.0386908195495606
1789310172815950600,11.96495068359375,1.3831003715515136,9.702502227783203,-2.9700071594238278
1789310172825962800,11.974962646484375,1.7667711875915526,9.981576358795165,-3.056796969604492
1789310172835973600,11.9849736328125,2.0802619674682616,10.673500638580322,-2.6295816108703614
1789310172845985500,11.994985595703126,1.9711761543273925,10.283245767974853,-2.3280618392944334
1789310172855997000,12.004996826171874,1.3251906188964844,10.06223102722168,-2.2750901275634763
1789310172866008800,12.0150087890625,-0.5852326683044433,7.754220626831054,-2.1179706436157226
1789310172876020000,12.02502001953125,0.8595183959960937,8.48400322036743,-2.1411644721984864
1789310172886030800,12.03503076171875,1.9832968002319336,10.103979918670653,-1.6256629272460936
1789310172896042800,12.045042724609376,1.879448303222656,9.94027638015747,-1.4146739059448241
1789310172906054000,12.055053955078124,2.2680571601867676,10.723778873443603,-1.6753426116943357
1789310172916066000,12.065066162109375,2.565835991668701,10.911125153350829,-1.318307289123535
1789310172926077000,12.075076904296875,1.0262146865844726,8.769661405944824,-1.1436802055358886
1789310172936087800,12.085087890625,0.37394437179565426,8.853308826446533,-1.1972504676818847
1789310172946099700,12.095099609375,0.40462008056640625,8.355165243530273,-0.48467619857788086
1789310172956110800,12.10511083984375,1.230320378112793,9.054721041107177,-0.18300678939819334
1789310172966122800,12.115122802734374,2.5650878036499023,10.66811368484497,0.010175357055664061
1789310172976134000,12.1251337890625,1.6521487831115722,9.920075303649902,0.6018424423217773
1789310172986145800,12.135145751953125,1.052251629638672,10.116549477386474,0.512658430480957
1789310172996157000,12.145156982421875,1.3658920471191405,10.248230568695067,0.962768342590332
1789310173006167800,12.155167724609376,0.44277766952514647,8.65758284072876,1.1195885513305663
1789310173016179700,12.1651796875,0.39100305862426754,9.308955329895019,1.027262149810791
1789310173026190800,12.17519091796875,0.25483283920288086,9.006687370300293,1.764676261138916
1789310173036203000,12.185203125,1.7586907569885253,11.240327881622314,1.919102268218994
1789310173046214000,12.1952138671875,1.1106102951049803,10.692055701446533,2.20909994430542
1789310173056225800,12.205225830078126,0.8973767097473144,10.521768108367919,2.2281039199829102
1789310173066236700,12.215236572265624,0.27144261322021485,10.01075569152832,2.201767701721191
1789310173076247800,12.225247802734375,-0.3773860366821289,8.548197752380371,2.1637597503662107
1789310173086260000,12.235260009765625,-0.4652233100891113,8.38913297958374,1.8104653678894043
1789310173096270800,12.245270751953125,0.22026655273437498,9.217826029205321,1.7974468963623045
1789310173106283000,12.255282958984376,0.9507973342895507,10.059537550354003,1.8677765701293945
1789310173116294000,12.2652939453125,1.5834651229858399,10.360608409118651,1.8227356513977049
1789310173126305800,12.275305908203125,2.4799440071105954,11.968913374328613,1.6627730529785156
1789310173136316700,12.285316650390625,0.8390180442810058,8.767716117095947,1.8843863441467283
1789310173146327800,12.295327880859375,1.1260229682922362,10.22129580001831,1.550095937347412
1789310173156340000,12.305340087890626,-0.3296516410827637,7.791330752563476,1.2981062126159668
1789310173166350800,12.315350830078126,0.3688566932678222,8.983343904113768,1.295412735748291
1789310173176362800,12.32536279296875,1.2963105613708494,10.5475057762146,0.9301473449707031
1789310173186374000,12.335373779296875,2.062604730224609,10.057292986297607,1.0797849487304687
1789310173196385800,12.3453857421875,1.9161095161437987,10.03050785522461,0.6067804832458495
1789310173206397000,12.35539697265625,1.147870058441162,9.724050042724608,0.1744774459838867
1789310173216407800,12.36540771484375,1.1294646331787108,9.778069217681884,0.06389525680541992
1789310173226420000,12.375419921875,0.7291840431213379,8.2360537109375,-0.049829322052001954
1789310173236430800,12.385430908203125,2.4078186820983887,10.683825633239746,-0.4617816452026367
1789310173246442800,12.39544287109375,2.7911902229309082,10.650157172393799,-0.356885684967041
1789310173256453600,12.40545361328125,3.12188932723999,10.861146193695067,-0.1614589744567871
1789310173266465800,12.4154658203125,2.1061492729187012,11.199626453399658,-0.4782417816162109
1789310173276477000,12.425476806640624,0.08544307174682617,8.619874164581299,-0.43724107818603514
1789310173286487800,12.43548779296875,-0.4435258575439453,8.643516905975341,-0.9701005851745604
1789310173296499700,12.445499755859375,0.22954408416748046,9.104550363159179,-1.4381670097351074
1789310173306510800,12.4555107421875,1.1145008728027344,9.644293199920654,-1.695693325805664
1789310173316522800,12.465522705078126,1.1864765602111815,9.103353262329101,-1.7546505416870115
1789310173326534000,12.475533935546874,1.584512586212158,9.996689756774902,-1.7392378684997558
1789310173336544800,12.485544677734374,0.7266402038574218,10.022726699829102,-1.931222914123535
1789310173346557000,12.495556884765625,0.34820670394897457,9.494805233764648,-1.8273744171142576
1789310173356567800,12.50556787109375,1.4769231491088866,11.125855114746093,-2.2092495819091797
1789310173366579700,12.515579833984376,1.8104653678894043,9.705943892669676,-2.565835991668701
1789310173376590800,12.5255908203125,2.180369524383545,9.396194052886962,-2.4257751945495603
1789310173386602800,12.535602783203124,1.2862848419189452,10.248978756713866,-2.3560440711975095
1789310173396614000,12.54561376953125,1.2605471740722656,9.218424579620361,-1.4791677131652832
1789310173406624800,12.555624755859375,2.063502555847168,11.007791045379639,-1.0588356842041016
1789310173416637000,12.565636962890625,1.343895319366455,8.588599905395506,-0.9424176284790039
1789310173426647800,12.575647705078126,2.120963395690918,9.123853614044188,-0.8436568099975585
1789310173436659700,12.58565966796875,1.7193360671997069,9.318382498931884,-1.0941501586914062
1789310173446670800,12.5956708984375,1.2645873893737791,7.455244694519043,-0.6602011077880859
1789310173456683000,12.60568310546875,2.6978163581848142,10.600178212738037,-0.7779659019470214
1789310173466694000,12.61569384765625,3.1625907554626465,10.824784255981445,-0.15173253021240232
1789310173476704800,12.625704833984376,3.3364696510314937,10.31721350402832,-0.035763387298583985
1789310173486716700,12.635716552734374,1.6403274124145506,8.73285055541992,0.12569558715820311
1789310173496728000,12.64572802734375,0.7866448829650878,8.472930037689208,0.7733271362304687
1789310173506740000,12.655739990234375,0.8702923034667969,8.428936582183837,0.929548794555664
1789310173516750800,12.665750732421875,1.1186907257080076,7.825148851013183,1.8185457984924316
1789310173526763000,12.675762939453126,2.9097032051086424,11.881824288940429,1.7733552421569823
1789310173536774000,12.68577392578125,3.264194688415527,11.744606606292724,2.3502082046508788
1789310173546784800,12.69578466796875,2.4735095901489257,10.641328553771972,2.366069790649414
1789310173556796700,12.705796630859375,-0.32486323776245113,9.077017044067382,1.6533458839416504
1789310173566807800,12.715807861328125,-1.0075099861145018,8.230966032409668,1.9143138648986815
1789310173576820000,12.725820068359376,0.5241805259704589,8.820388553619384,2.037166337585449
1789310173586830800,12.735830810546876,1.5376760162353516,9.48118821182251,1.8049287765502928
1789310173596842800,12.7458427734375,2.9804817916870117,10.164134235382079,1.3115735969543456
1789310173606854000,12.75585400390625,3.214515003967285,11.067795724487304,1.2328642173767088
1789310173616865000,12.765864990234375,1.6350900962829589,9.725845693969726,1.0582371337890624
1789310173626877000,12.775876953125,-0.12195464706420897,9.024943157958983,0.8545803550720215
1789310173636887800,12.7858876953125,-0.4652233100891113,7.255029580688476,0.788440534210205
1789310173646900000,12.79589990234375,1.7363947540283202,9.80021558303833,0.5285200164794922
1789310173656910800,12.805910888671875,2.0573674140930174,10.092308185577393,0.7671919944763184
1789310173666922800,12.8159228515625,2.779668127441406,11.1726916847229,0.9636661682128905
1789310173676934000,12.825933837890625,2.8407202697753906,11.82361526107788,0.8186673301696776
1789310173686945000,12.835945068359376,1.8116624687194822,10.063877040863037,1.098788924407959
1789310173696957000,12.84595703125,0.45444940261840816,8.511686177062987,1.1164461616516113
1789310173706967800,12.8559677734375,0.08604162216186523,7.613710916900635,1.061678798675537
1789310173716979700,12.865979736328125,1.6340426330566404,9.550171147155762,0.8153753028869628
