time,seconds_elapsed,z,y,x
1789310160911149600,0.060149658203125,8.735110901567339,4.4111961473286145,-0.6399797922100872
1789310160921161700,0.07016162109375,8.732082493656874,4.427693693143129,-0.5627136702433229
1789310160931172600,0.080172607421875,8.726039121839404,4.448419670307636,-0.48804227747749535
1789310160941183500,0.09018359375,8.716354763171076,4.474301130539178,-0.419730519404076
1789310160951195400,0.1001953125,8.703692849996685,4.5040956725612284,-0.3595018953474238
1789310160961206800,0.110206787109375,8.688949454373121,4.536678091736138,-0.30182730315513906
1789310160971217700,0.1202177734375,8.672194134405254,4.5722100083664055,-0.24152165007321164
1789310160981229600,0.1302294921875,8.652721372172236,4.611873617973924,-0.17725947791785002
1789310160991240400,0.140240478515625,8.630123755916953,4.656131569634377,-0.10853751334203407
1789310161001252600,0.150252685546875,8.604217161244154,4.7049575598627325,-0.03470361714654136
1789310161011263500,0.160263427734375,8.57509218904674,4.757765897725522,0.04290018950910307
1789310161021274600,0.170274658203125,8.543457279855012,4.812992110385,0.12179067040784283
1789310161031286500,0.18028662109375,8.510978321054578,4.867746029357612,0.19667857373487202
1789310161041297700,0.190297607421875,8.481008714726567,4.916443424770236,0.2673189026200212
1789310161051308500,0.20030859375,8.455480305716394,4.955387195670604,0.3455130078855902
1789310161061320400,0.210320556640625,8.433504620751737,4.985138775333762,0.4413352521644905
1789310161071331600,0.22033154296875,8.413085517579317,5.008555891278386,0.5520361723517999
1789310161081343700,0.23034375,8.392591595605015,5.028687994202971,0.6686424806579947
1789310161091354600,0.240354736328125,8.371092295980453,5.047421336245536,0.7866015552800149
1789310161101365500,0.250365478515625,8.348141628503798,5.065594706317782,0.9048029872905462
1789310161111377400,0.26037744140625,8.323661267241835,5.083041515681147,1.024563412246108
1789310161121388800,0.270388916015625,8.298650160104035,5.098504457750916,1.1436973758663982
1789310161131399700,0.280399658203125,8.276647002610563,5.108254867392778,1.2542841681547463
1789310161141411600,0.29041162109375,8.262352519798279,5.108023981246352,1.3461052505008875
1789310161151422500,0.30042236328125,8.259279688224195,5.095797536879777,1.409797239819169
1789310161161434600,0.3104345703125,8.268388292831181,5.072699569886923,1.4393931905291975
1789310161171445500,0.320445556640625,8.287252567777037,5.042172914198041,1.4381674481265245
1789310161181456600,0.33045654296875,8.309186167165636,5.009416307500005,1.426027220738679
1789310161191468500,0.340468505859375,8.325372162812947,4.982050746190548,1.427490425159037
1789310161201479700,0.350479736328125,8.329138821870089,4.971764329975843,1.4413153907634317
1789310161211490600,0.360490478515625,8.319850184521078,4.982610133638977,1.4574218914337456
1789310161221502500,0.37050244140625,8.300162902754545,5.01528081561923,1.4576115687869489
1789310161231513600,0.380513671875,8.274424650385976,5.067352948161959,1.4234503559879959
1789310161241525800,0.39052587890625,8.243366664299367,5.135781172221899,1.356852269964665
1789310161251536600,0.40053662109375,8.206732339385152,5.2144116413444275,1.2766488524369894
1789310161261547500,0.410547607421875,8.165874259296059,5.298458290296793,1.189628740631789
1789310161271559400,0.420559326171875,8.122757586625218,5.383793810015916,1.0981607095070183
1789310161281570600,0.430570556640625,8.080234788194298,5.465506463062763,1.004209629394859
1789310161291581700,0.440581787109375,8.040774884465336,5.539075557142496,0.9137626118808985
1789310161301593600,0.450593505859375,8.006797211539745,5.600423467552662,0.8347703237086535
1789310161311604500,0.4606044921875,7.979712220737338,5.647524825945497,0.7746228020641952
1789310161321615600,0.47061572265625,7.959800482565164,5.681114960858226,0.7327296798389404
1789310161331627500,0.48062744140625,7.94716370383203,5.702599062913656,0.7023843720663339
1789310161341638700,0.490638671875,7.942732443386316,5.710951296195388,0.684412296719849
1789310161351650600,0.500650634765625,7.948091340070962,5.70428891569674,0.6777274851936846
1789310161361661700,0.51066162109375,7.962181240221858,5.685284940019249,0.6720040660455823
1789310161371672600,0.520672607421875,7.982255475479364,5.657516058605909,0.6682040892407297
1789310161381684500,0.5306845703125,8.004054634833336,5.62672286093533,0.667439973000437
1789310161391695600,0.540695556640625,8.024814514267444,5.597244837516546,0.6660270374625921
1789310161401706800,0.550706787109375,8.043375422352552,5.571287973961234,0.6597371435381472
1789310161411718700,0.56071875,8.058888048782944,5.550447430506348,0.6459484182909131
1789310161421729500,0.5707294921875,8.071901259613037,5.5336108619958155,0.6276565364055335
1789310161431741700,0.58074169921875,8.083055106312036,5.519576491424441,0.607354556806758
1789310161441752600,0.590752685546875,8.091661606615782,5.509018272531033,0.5883136831849813
1789310161451763700,0.600763671875,8.095556275966763,5.504686965328455,0.5751335548227653
1789310161461775600,0.610775634765625,8.092404533937573,5.509885118493438,0.5696842399083077
1789310161471786500,0.620786376953125,8.076774418607354,5.5329702260047195,0.5677463671809062
1789310161481797600,0.630797607421875,8.0503721493721,5.571544579070806,0.5654933640897274
1789310161491809500,0.6408095703125,8.018978063198924,5.616943225198984,0.5624339034538716
1789310161501820700,0.650820556640625,7.986946263644099,5.663123961615562,0.5550646533275023
1789310161511831600,0.66083154296875,7.95887635345757,5.703866306370497,0.5409038068322465
1789310161521843700,0.67084375,7.935899967017769,5.737510801818966,0.5223469173351303
1789310161531854600,0.6808544921875,7.917446610960364,5.764380104044079,0.5062989419190213
1789310161541866500,0.690866455078125,7.9025331194669,5.785896354803443,0.49372518195211884
1789310161551877400,0.70087744140625,7.892028676587342,5.801119058376551,0.48299748824331906
1789310161561888800,0.710888671875,7.88640031531155,5.809724974158406,0.47135227783080186
1789310161571900700,0.720900634765625,7.884474900206923,5.813591586458682,0.4556213324746117
1789310161581911600,0.73091162109375,7.884318832862377,5.815096730324625,0.4388076699156314
1789310161591922400,0.74092236328125,7.883559538927674,5.817080597618222,0.42596327631380404
1789310161601934600,0.7509345703125,7.880207890412211,5.822196333196759,0.4180130114290863
1789310161611945700,0.76094580078125,7.873075554314255,5.832293364319205,0.411611035432294
1789310161621956600,0.77095654296875,7.862426150006056,5.847286350789666,0.4023450117738917
1789310161631968500,0.780968505859375,7.850581398433446,5.864077911114692,0.3890347907586023
1789310161641979600,0.790979736328125,7.839969403526187,5.879221119710802,0.374201086503081
1789310161651991600,0.800991455078125,7.831696665221452,5.8909898834377525,0.3621499621707946
1789310161662002700,0.811002685546875,7.8263962207257745,5.898578731131553,0.3530842833900824
1789310161672013600,0.821013671875,7.824047027251124,5.902250113120675,0.34367044875882563
1789310161682025700,0.831025634765625,7.824393648731708,5.902316748616099,0.33452048922814426
1789310161692036600,0.84103662109375,7.8264190170794725,5.899955864703655,0.3287468377301469
1789310161702047500,0.851047607421875,7.828989744350314,5.89670241586566,0.32590628054197873
1789310161712059400,0.861059326171875,7.8311103897660965,5.8939797129035,0.3241799682060256
1789310161722070800,0.87107080078125,7.8321788957804435,5.892614269769191,0.3231872308416292
1789310161732081700,0.88108154296875,7.831707186615467,5.893260166457295,0.32285328617952763
1789310161742093600,0.891093505859375,7.8290423513203855,5.896721705088019,0.3242681944787502
1789310161752104400,0.9011044921875,7.823497576674819,5.90386280901432,0.3281513925876468
1789310161762116600,0.91111669921875,7.8150231783181425,5.914819671836495,0.3327432138899341
1789310161772127700,0.921127685546875,7.805372137397527,5.927438330391049,0.3346954804688692
1789310161782138600,0.931138671875,7.797021073159575,5.938377073034644,0.3354435223571956
1789310161792150500,0.941150634765625,7.791563976797461,5.945407117801905,0.33771954099778084
1789310161802161700,0.95116162109375,7.788573562809824,5.949011864295602,0.3431699518907815
1789310161812172500,0.961172607421875,7.786664514318108,5.951079902741313,0.35056112158801406
1789310161822184400,0.971184326171875,7.784226473516226,5.953810789009928,0.3582480958940461
1789310161832195600,0.981195556640625,7.779707534787058,5.959319907820224,0.36474699292667206
1789310161842206500,0.99120654296875,7.772266571131349,5.968692131799459,0.37009840042460707
1789310161852218000,1.001218017578125,7.762560000631213,5.981105038648844,0.3734034698519855
1789310161862229000,1.01122900390625,7.751967879468202,5.994864099410176,0.3728109473189339
1789310161872240000,1.021240234375,7.7422227305233475,6.0076166134774684,0.37002807513475416
1789310161882252300,1.031252197265625,7.734418194252252,6.017727088603377,0.3689481709435582
1789310161892263200,1.04126318359375,7.7282088182181115,6.025540977224707,0.3715237935852259
1789310161902275000,1.051275146484375,7.723383005496859,6.031295010706782,0.37845081636942923
1789310161912286000,1.061285888671875,7.719767737609147,6.035239364418387,0.38916806174945084
1789310161922297300,1.07129736328125,7.717247863742709,6.037703124183416,0.4007631494099274
1789310161932309200,1.081309326171875,7.715552750262618,6.039266135716438,0.4097464471368119
1789310161942320000,1.091320068359375,7.7131836830437175,6.041999360072612,0.4140361802199855
1789310161952331000,1.1013310546875,7.7080720391184085,6.048672846487164,0.4117812409000471
1789310161962343200,1.11134326171875,7.700007975128292,6.059384794637561,0.4051068046374246
1789310161972354000,1.12135400390625,7.6908987859994165,6.071505440542102,0.3965758537879214
1789310161982365200,1.131365234375,7.683888614976405,6.0808601288646456,0.3890640533857047
1789310161992377000,1.141377197265625,7.681319641271233,6.084423374304175,0.384070738610439
1789310162002388200,1.15138818359375,7.682666964226961,6.082898356693983,0.38126755429059267
1789310162012399000,1.161399169921875,7.685158196520805,6.079809743028878,0.38032767962459474
1789310162022411000,1.171410888671875,7.68473792528212,6.080322368726134,0.3806102594256401
1789310162032422100,1.181422119140625,7.6782064776867625,6.088481709784269,0.3819995583595708
1789310162042434300,1.191434326171875,7.665219570341706,6.104767658674716,0.3828888353494927
1789310162052445200,1.201445068359375,7.647644750684499,6.126787767302989,0.38260231002569195
1789310162062456000,1.2114560546875,7.629801635479927,6.149077925044298,0.3812476074811071
1789310162072468000,1.221468017578125,7.615116692045331,6.167298641389608,0.38054526789803056
1789310162082479400,1.231479248046875,7.605172805657983,6.179555480894446,0.38055538743324574
1789310162092490200,1.241490234375,7.599436892354488,6.186617089843749,0.38041791519131507
1789310162102502100,1.251502197265625,7.5955001374274485,6.191473297703266,0.380028002558276
1789310162112513000,1.261512939453125,7.589893403461575,6.1984559961974615,0.37821613083072003
1789310162122524000,1.27152392578125,7.581053678923845,6.209591138195991,0.372813760330528
1789310162132536000,1.2815361328125,7.568816713163256,6.225074538531899,0.36310105235055085
1789310162142547200,1.291547119140625,7.5530720315426585,6.244946529215574,0.34946419319678096
1789310162152558000,1.30155810546875,7.534018956026435,6.268972716969251,0.33004199210721996
1789310162162570200,1.3115703125,7.512015214011073,6.296532924067974,0.3060917008676566
1789310162172581000,1.3215810546875,7.48796272277236,6.326234234848618,0.28206209731418636
1789310162182592300,1.33159228515625,7.465399593308567,6.35370208748877,0.2620542966227047
1789310162192604200,1.341604248046875,7.444940742647647,6.3779083079844705,0.25597733306288717
1789310162202615000,1.351614990234375,7.428088976567984,6.397313265678286,0.26125050595914945
1789310162212627200,1.361627197265625,7.412270060667395,6.415874173763394,0.25531284127216786
1789310162222638000,1.37163818359375,7.394361479011177,6.4377592578351495,0.22149280659370124
1789310162232649000,1.38164892578125,7.373583479398489,6.463499263769388,0.15436903446214273
1789310162242661000,1.3916611328125,7.352195238932967,6.489499381944537,0.04473767516852822
1789310162252672300,1.40167236328125,7.328218735539913,6.515874763172865,-0.10478513853857294
1789310162262683100,1.41168310546875,7.2989090544253585,6.543427956008911,-0.28258884286833924
1789310162272695000,1.421695068359375,7.263022333008051,6.572589168563485,-0.4690079797269776
1789310162282706000,1.431705810546875,7.220156420227885,6.604768267634511,-0.6455694289106876
1789310162292717300,1.44171728515625,7.172952185982465,6.640664925923943,-0.7878476098183542
1789310162302729200,1.451729248046875,7.123738365480303,6.682514939659834,-0.8756298651024699
1789310162312740000,1.461739990234375,7.073199433854222,6.731181647673249,-0.9118250679470599
1789310162322751000,1.4717509765625,7.021883672636747,6.782817142364382,-0.9257038826305418
1789310162332763100,1.48176318359375,6.969839012622833,6.832631851369142,-0.9522966329365968
1789310162342774300,1.491774169921875,6.91323975804448,6.882222688490152,-1.0062401123091578
1789310162352785200,1.50178515625,6.840997528654337,6.9445186934053895,-1.0699533636111767
1789310162362797000,1.511797119140625,6.764298904377221,7.003430901101231,-1.169016087648645
1789310162372808200,1.52180810546875,6.681563922545314,7.062873854672908,-1.2817621037974953
1789310162382820000,1.531820068359375,6.589968757909536,7.13105599501729,-1.375040983736515
1789310162392831000,1.5418310546875,6.501584956535696,7.201167057597637,-1.4293208554565906
1789310162402842000,1.551842041015625,6.423264868536591,7.272803722310066,-1.4206991575837133
1789310162412854300,1.561854248046875,6.36306495911777,7.336061850255727,-1.3652788836568592
1789310162422865200,1.571865234375,6.324032925412059,7.389575998300313,-1.253458530985564
1789310162432876000,1.5818759765625,6.299626798430085,7.4367077518314115,-1.0864929950017481
1789310162442888000,1.591887939453125,6.270259834170341,7.489383110964297,-0.8737072995420545
1789310162452899300,1.6018994140625,6.213731306740641,7.560578461650014,-0.6305325302332639
1789310162462910200,1.61191015625,6.1172840258985755,7.655598924559355,-0.37553613449912515
1789310162472922000,1.621922119140625,5.9769882509797805,7.773785743522644,-0.11937427518218754
1789310162482933000,1.63193310546875,5.7924318940520285,7.9122250769197935,0.12174968081032857
1789310162492944100,1.641944091796875,5.561119046646356,8.070646875637769,0.33013624626193194
1789310162502956000,1.6519560546875,5.292481553974747,8.2413471411705,0.4901192298820242
1789310162512967200,1.66196728515625,5.001410695698857,8.414045302522181,0.600108092809841
1789310162522978000,1.67197802734375,4.698456799666583,8.581923496371507,0.6674355890862643
1789310162532990200,1.681990234375,4.3855844439491625,8.74301889821291,0.7047388262379914
1789310162543001000,1.6920009765625,4.069043921113014,8.893421641126274,0.7213284342501312
1789310162553012200,1.70201220703125,3.760007490296662,9.028413464418053,0.7214514761079103
1789310162563024100,1.712024169921875,3.468630927072465,9.14559665929675,0.7050180815707892
1789310162573035300,1.72203515625,3.201355662664771,9.244766643100977,0.6752797267153858
1789310162583047200,1.732047119140625,2.961365003284812,9.326849883025885,0.64075779084526
1789310162593058000,1.74205810546875,2.754009954571724,9.392456619924307,0.6062917864134535
1789310162603069200,1.752069091796875,2.582408940806985,9.443184936642647,0.5725512101793662
1789310162613081300,1.762081298828125,2.4403042167700826,9.482767005446552,0.540775760005787
1789310162623092200,1.77209228515625,2.3122853012308475,9.516330836874246,0.5130259486190974
1789310162633103000,1.78210302734375,2.1829665551394224,9.548076805225014,0.4891517365567386
1789310162643115000,1.792114990234375,2.0512290574684737,9.578526888546348,0.4633283997206017
1789310162653126100,1.802126220703125,1.9208885671138762,9.6070205771029,0.43097913171444086
1789310162663137300,1.81213720703125,1.7916009468130767,9.633709262064098,0.3901499123936519
1789310162673149200,1.822149169921875,1.655088343694806,9.659999303096532,0.3398241120615974
1789310162683160000,1.83216015625,1.5067135994777083,9.686220370545982,0.2781281736650504
1789310162693172200,1.842172119140625,1.3494367330111563,9.71125661212504,0.20228863216899334
1789310162703183000,1.85218310546875,1.1907334870032966,9.73346376775801,0.11063696070616133
1789310162713194200,1.8621943359375,1.035697385200858,9.751803142046928,0.008108511628262932
1789310162723206100,1.8722060546875,0.8878313942234962,9.765926944467425,-0.09396761112185195
1789310162733217300,1.88221728515625,0.7481268631961197,9.77636416732967,-0.1827827165850438
1789310162743228200,1.892228271484375,0.6167176476314663,9.784088039579986,-0.24831699103545396
1789310162753240000,1.902239990234375,0.49530642326157537,9.789869545590877,-0.2889718401700258
1789310162763251000,1.9122509765625,0.38915922085586935,9.793982241606711,-0.31123105478379876
1789310162773262000,1.922261962890625,0.3046100840077735,9.79659797706306,-0.32293431552648544
1789310162783274200,1.932274169921875,0.25107368759876114,9.797869312173127,-0.33028434949573127
1789310162793285000,1.94228515625,0.2345628987101838,9.797996737945079,-0.3385730890871957
1789310162803297000,1.952297119140625,0.2486312446163967,9.797279529586433,-0.34909879395049065
1789310162813308200,1.96230810546875,0.28546624320186675,9.795853880697488,-0.36071576464921234
1789310162823319300,1.9723193359375,0.33763405467141416,9.793675367614627,-0.3745730981532484
1789310162833331200,1.982331298828125,0.3947109732314944,9.790900057682395,-0.390995934763737
1789310162843342000,1.992342041015625,0.4417666658516973,9.788113641834258,-0.40994240810032934
1789310162853353700,2.002353759765625,0.4639668072219938,9.786122760277985,-0.43234121384788304
1789310162863365600,2.01236572265625,0.4547159446001053,9.785365219908952,-0.4585568379372358
1789310162873376800,2.022376708984375,0.41460623519290235,9.785898303872345,-0.48445506664048876
1789310162883388700,2.032388671875,0.35037020212579517,9.78732745989263,-0.5058246754707768
1789310162893399800,2.04239990234375,0.26915645677810535,9.789066412514448,-0.5216495461881161
1789310162903410700,2.05241064453125,0.17669501243550328,9.790645790660381,-0.5314329813167452
1789310162913422800,2.0624228515625,0.08023681747377849,9.791810158264637,-0.53331718762815
1789310162923433700,2.072433837890625,-0.014398029951727948,9.792432089555263,-0.527676770588383
1789310162933444900,2.08244482421875,-0.10508453247710131,9.792413384854793,-0.5176912735490128
1789310162943456800,2.092456787109375,-0.18877740868888795,9.79156115193963,-0.5099632365802302
1789310162953468000,2.102468017578125,-0.2586444151139818,9.789914553776383,-0.5109282456874847
1789310162963479800,2.112479736328125,-0.30813787454143166,9.787861712899803,-0.5226776105942205
1789310162973490700,2.12249072265625,-0.33465671936105934,9.78568846051395,-0.5465361501634121
1789310162983501600,2.13250146484375,-0.33983949229381977,9.783509947431087,-0.5812349404377862
1789310162993513700,2.142513671875,-0.32807010751236226,9.781426711416245,-0.6216526198156178
1789310163003524900,2.15252490234375,-0.30336960069369523,9.779557994934915,-0.6622713381908834
1789310163013535700,2.16253564453125,-0.26580778567101804,9.77813234604597,-0.6984592345118522
1789310163023547600,2.172547607421875,-0.21354595750877634,9.777451378044486,-0.7254205989345908
1789310163033558800,2.182558837890625,-0.14674564517792313,9.777468913701176,-0.7415862093809992
1789310163043570700,2.19257080078125,-0.07235385480476543,9.777650700008868,-0.7501328692562877
1789310163053581800,2.202581787109375,-0.003135363143602444,9.777485864835977,-0.7557415759835392
1789310163063592700,2.2125927734375,0.05261470585367642,9.776837045538425,-0.7622686396647245
1789310163073604900,2.22260498046875,0.09506090451758355,9.775810040578246,-0.7713031561221927
1789310163083615700,2.23261572265625,0.13283187791206874,9.774579037478565,-0.7812569793816655
1789310163093627600,2.242627685546875,0.17696427609724924,9.773193136078119,-0.7897889531444757
1789310163103638500,2.252638427734375,0.2303733745984733,9.77158686992526,-0.7958817901268601
1789310163113650000,2.26264990234375,0.2869637334843166,9.769859607741235,-0.7986717131063341
1789310163123661800,2.272661865234375,0.3356843819083646,9.768525144267082,-0.7960097273554653
1789310163133672700,2.282672607421875,0.3707366983281448,9.768162156173586,-0.7848218322563916
1789310163143683600,2.29268359375,0.4016768667213618,9.768794608858228,-0.7613931720044463
1789310163153695700,2.30269580078125,0.44631903192643074,9.769778943720459,-0.7229278322707862
1789310163163707000,2.312706787109375,0.5138987128656357,9.770208567309378,-0.6703157476324587
1789310163173718800,2.32271875,0.5949051173392683,9.76944284363389,-0.6119283675283194
1789310163183729700,2.332729736328125,0.6683958854857832,9.768089090937375,-0.5550414916476234
1789310163193740800,2.34274072265625,0.7213902474399656,9.767292387601733,-0.4999912200769409
1789310163203752700,2.352752685546875,0.7470046542331575,9.768028885182737,-0.4449517621612176
1789310163213763800,2.362763916015625,0.7443052590813487,9.770500828254223,-0.3920551614930853
1789310163223774700,2.372774658203125,0.7226111675370485,9.773961782363056,-0.34336255185343323
1789310163233787000,2.382786865234375,0.694719317331165,9.777422736471891,-0.2996168240314349
1789310163243797800,2.3927978515625,0.6690268768656998,9.780300337734818,-0.26176607253216205
1789310163253809700,2.4028095703125,0.6461761626321822,9.7827383785367,-0.22557737249359489
1789310163263820500,2.412820556640625,0.6184807848464697,9.7853681425184,-0.18554186083376406
1789310163273832000,2.42283203125,0.5802379287570715,9.788478968015312,-0.1393591607889626
1789310163283843800,2.43284375,0.5302138878505677,9.791883808022737,-0.09097847577584907
1789310163293854700,2.442854736328125,0.4660049985187128,9.795486216428875,-0.041253262552293016
1789310163303865600,2.452865478515625,0.3907577055610716,9.798857154166697,0.010133155031886417
1789310163313877800,2.462877685546875,0.30663733378536995,9.80167104254365,0.06007982213653158
1789310163323889000,2.472888916015625,0.21848502134615555,9.803622176611423,0.10787604462546296
1789310163333900800,2.48290087890625,0.13245970186511985,9.804519417712092,0.15568011706070972
1789310163343911700,2.49291162109375,0.051242042960715474,9.804412450206279,0.2031145981317386
1789310163353922800,2.5029228515625,-0.01811735529389116,9.803491828230023,0.24814693169817326
1789310163363934700,2.512934814453125,-0.07248065038905478,9.80219185154736,0.2866792357208207
1789310163373945600,2.522945556640625,-0.11494068578206933,9.800990074542165,0.3126645947182551
1789310163383956700,2.532956787109375,-0.14838743016873485,9.800095171529055,0.32633780382703986
1789310163393969000,2.542968994140625,-0.1787328201397322,9.799493113982678,0.32922420945093034
1789310163403979800,2.552979736328125,-0.19077882990548387,9.799807002237438,0.3126686863714829
1789310163413991700,2.56299169921875,-0.19969821381699293,9.800597860354184,0.2806806711594574
1789310163424002600,2.57300244140625,-0.20852109681777656,9.801149064496158,0.2537684248417616
1789310163434014000,2.583013916015625,-0.22359779778262598,9.80131506871283,0.2337105379308574
1789310163444025900,2.59302587890625,-0.21860914091616868,9.801826525366305,0.2163042432409711
1789310163454036700,2.60303662109375,-0.1975671383387409,9.802849438673258,0.18841284969281405
1789310163464047600,2.613047607421875,-0.18986518565928562,9.803762461864947,0.1434676281542517
1789310163474059800,2.623059814453125,-0.19177173166666178,9.804274503040313,0.09922713908525183
1789310163484070700,2.633070556640625,-0.20299508167160674,9.804273333996534,0.07360864977198653
1789310163494082800,2.643082763671875,-0.22047679795157163,9.803971720701455,0.06259401061427779
1789310163504093700,2.65309375,-0.23330045929262413,9.80372212985456,0.05476317999130115
1789310163514104800,2.663104736328125,-0.23238412989899515,9.803786427262425,0.0464747189610498
1789310163524116700,2.67311669921875,-0.2197253219971433,9.804117266651987,0.03690603854466462
1789310163534127600,2.683127685546875,-0.19523317896584047,9.804661456531285,0.029646877179667352
1789310163544139800,2.693139892578125,-0.16472535584159195,9.805209153541922,0.03353190876933513
1789310163554151000,2.70315087890625,-0.13656493609370662,9.805562204763293,0.05206040557231754
1789310163564161800,2.713161865234375,-0.1166875294493977,9.805634685477614,0.0793755153361708
1789310163574173700,2.723173583984375,-0.11050002732034772,9.805446469429135,0.1067887608454097
1789310163584184600,2.7331845703125,-0.11915548133235424,9.805088157510756,0.12816532913944684
1789310163594196000,2.743196044921875,-0.13807541372189297,9.804700619497895,0.13847743691783398
1789310163604207900,2.753207763671875,-0.16221320862388236,9.804387900286912,0.13423088538926095
1789310163614218800,2.76321875,-0.18407883907649664,9.80418916284442,0.11994792861798778
1789310163624229600,2.773229736328125,-0.19854480599816887,9.804082195338607,0.10461181866512634
1789310163634241800,2.78324169921875,-0.20877635022047905,9.803993348011375,0.0922071864537429
1789310163644252700,2.793252685546875,-0.21812601530803366,9.803862415108084,0.08418443172154948
1789310163654264600,2.8032646484375,-0.22622113202353938,9.803728559595346,0.07831965874084271
1789310163664275700,2.813275634765625,-0.2303842613186687,9.803681213322282,0.07179261332596652
1789310163674286800,2.823286865234375,-0.22760896965274585,9.803799286743997,0.06409575238015967
1789310163684298800,2.833298828125,-0.21345957613326608,9.804182733103632,0.053241139789484436
1789310163694309600,2.8433095703125,-0.19012529790019617,9.804694774278998,0.04689723238917067
1789310163704320800,2.85332080078125,-0.1663760639243759,9.805091664642095,0.05399927838013973
1789310163714333000,2.8633330078125,-0.15345794749921188,9.805184019100665,0.07206939814046491
1789310163724343800,2.87334375,-0.15263331497702748,9.80502619819045,0.09251216074968688
1789310163734355700,2.883355712890625,-0.15712827004240826,9.804757318121194,0.11157268892000428
1789310163744366600,2.89336669921875,-0.16290851567797363,9.804414203771948,0.13155016753845847
1789310163754377700,2.903377685546875,-0.168363328751456,9.80394307912886,0.1572281684866175
1789310163764389600,2.9133896484375,-0.17246206930717453,9.803320563316344,0.1886265655087307
1789310163774400800,2.92340087890625,-0.17484098206665366,9.802606277567147,0.22071833335617555
1789310163784411600,2.93341162109375,-0.17999312239913268,9.801815419450401,0.2498037224618718
1789310163794423800,2.943423828125,-0.1893275351186283,9.800898304605484,0.2773610434837639
1789310163804434700,2.9534345703125,-0.20277648875117302,9.799736859610675,0.30730694014262405
1789310163814446600,2.963446533203125,-0.2204097605973482,9.798301858371495,0.33923191832210864
1789310163824457700,2.973457763671875,-0.2399428381828591,9.796621357938646,0.37283454739023
1789310163834468900,2.98346875,-0.2564899770264514,9.794762578329443,0.4089111288238316
1789310163844480800,2.993480712890625,-0.26872650439562273,9.792843592965601,0.44538540433812884
1789310163854491000,3.003490966796875,-0.277878491486609,9.790921684992313,0.4806269597196951
1789310163864502300,3.013502197265625,-0.28445164106553417,9.788970550924539,0.5152720105128362
1789310163874514200,3.02351416015625,-0.28152137803360816,9.787148011672496,0.5503189201051369
1789310163884525000,3.033525146484375,-0.264523371883668,9.785701319995521,0.5834819156469777
1789310163894537200,3.043537109375,-0.23793582747569306,9.784692435213923,0.6111806179009378
1789310163904548000,3.053548095703125,-0.2086118803737685,9.78395184597969,0.6333461994145065
1789310163914559200,3.063559326171875,-0.17980934506375343,9.783144036728142,0.6543293662104755
1789310163924571100,3.073571044921875,-0.15323962857341392,9.782000127390026,0.6777734432272613
1789310163934582000,3.08358203125,-0.13149335018415004,9.78044471464157,0.7042767616841942
1789310163944593200,3.09359326171875,-0.11355803578463382,9.77872855837345,0.7307392366740852
1789310163954605000,3.10360498046875,-0.09758839543489739,9.777043381765484,0.7551840882312506
1789310163964616000,3.113615966796875,-0.08553944479338824,9.775524209374188,0.7759937250912189
1789310163974628000,3.123628173828125,-0.07557028240088838,9.774455118837952,0.7903682143371552
1789310163984639200,3.13363916015625,-0.06370586258000693,9.774054721343516,0.7963464119639247
1789310163994650000,3.143650146484375,-0.05557794870659709,9.774118434229493,0.7961926827069371
1789310164004662000,3.153662109375,-0.057012009230861437,9.774347566810249,0.7932754800859838
1789310164014673000,3.1636728515625,-0.05991160769646521,9.774822198584674,0.7871805972769856
1789310164024684300,3.173684326171875,-0.05965173748414963,9.775658649408816,0.7767362870868295
1789310164034696200,3.1836962890625,-0.0520321110595949,9.776778008827566,0.7630914272896945
1789310164044707000,3.19370703125,-0.0362222187156789,9.77800258218646,0.7481487827669828
1789310164054719200,3.20371923828125,-0.013713230591919272,9.779222479370237,0.7328067636631429
1789310164064730000,3.213730224609375,0.015513359366043004,9.780456989601253,0.7160960865546018
1789310164074741200,3.2237412109375,0.049620643170806576,9.781742353236675,0.6967138521492481
1789310164084753200,3.233753173828125,0.08135005767899565,9.78311188802421,0.674170377233997
1789310164094764000,3.243763916015625,0.1043069631001912,9.784502465599775,0.6504000639375299
1789310164104775200,3.253775146484375,0.11796976954597048,9.785971369108557,0.6254735663432628
1789310164114787000,3.263787109375,0.12652268563210964,9.787320445629954,0.6022845235334708
1789310164124798000,3.2737978515625,0.1306241661341861,9.788581259346008,0.5805047995323315
1789310164134810000,3.28381005859375,0.12894429588899947,9.789931504911184,0.5576806079795584
1789310164144821200,3.2938212890625,0.12540475098546594,9.791400408419966,0.5321126706765964
1789310164154832100,3.30383203125,0.12504546181955373,9.793038238754868,0.5011401709163561
1789310164164844000,3.313843994140625,0.12810277616409585,9.794679576221109,0.4671594657834619
1789310164174855000,3.32385498046875,0.13156672594761476,9.796211023572086,0.432837144138664
1789310164184866300,3.3338662109375,0.13286546052126214,9.79764017959237,0.3987225834930315
1789310164194878200,3.343878173828125,0.13217727732770143,9.798937818187474,0.3657038917927071
1789310164204889000,3.35388916015625,0.12960639479323288,9.800115629795194,0.3336637993335724
1789310164214901200,3.3639013671875,0.1244138219856657,9.801192903637885,0.3025719292436726
1789310164224912100,3.373912109375,0.11827790391338057,9.8021556111902,0.2723029746429063
1789310164234923000,3.383923095703125,0.11329291857504285,9.802990308448672,0.24278584305644033
1789310164244935000,3.393934814453125,0.11305111830895766,9.803657247924804,0.21428347800308836
1789310164254946000,3.403946044921875,0.1192422463003546,9.804196177107094,0.1840909131067805
1789310164264958200,3.413958251953125,0.1327747500305064,9.804577285379171,0.1517074323037639
1789310164274969000,3.423968994140625,0.1562996737311594,9.804700034976005,0.11753178912065923
1789310164284980000,3.43397998046875,0.19072461550021544,9.804449275085329,0.08229924816261046
1789310164294992100,3.4439921875,0.2311706989886239,9.80381389979124,0.04646228417116217
1789310164305003300,3.454003173828125,0.27501963145677,9.80278689483106,0.01094991249158047
1789310164315014100,3.46401416015625,0.3224002817150205,9.801322667497397,-0.022412446113838812
1789310164325026000,3.474026123046875,0.37241935418546196,9.799434661793708,-0.05261951445953455
1789310164335037000,3.484036865234375,0.42336142325233667,9.797187759649754,-0.07900266343578696
1789310164345049000,3.494049072265625,0.473068543696776,9.794725168928503,-0.09967788766059092
1789310164355060200,3.504060302734375,0.5214688193263486,9.79212170843184,-0.11318377737845293
1789310164365071000,3.514071044921875,0.5689064239362255,9.789382638856768,-0.1213359215108212
1789310164375083300,3.524083251953125,0.6147928170487285,9.786554721954465,-0.12553801284315996
1789310164385094100,3.53409423828125,0.6581781505931168,9.783733234792948,-0.12555439772238022
1789310164395105000,3.54410498046875,0.6971503438703716,9.781067230454086,-0.12287011794131249
1789310164405117000,3.554116943359375,0.7257889938555657,9.77897288852334,-0.12367569870315491
1789310164415128000,3.564128173828125,0.7436421189974993,9.777561852681636,-0.12912096763015724
1789310164425140200,3.57414013671875,0.7546434054832906,9.776633631920815,-0.13536825538873673
1789310164435151000,3.584151123046875,0.76106934687756,9.776026313677429,-0.1429938914289698
1789310164445162000,3.594161865234375,0.766595782148838,9.775442960831523,-0.1530140670560766
1789310164455174100,3.604174072265625,0.7738686957612633,9.774649180105328,-0.1665531557906419
1789310164465185300,3.614185302734375,0.7849418784394859,9.773443895968795,-0.18448882638318462
1789310164475197200,3.624197265625,0.8005142722330987,9.771746444401144,-0.20624051159992812
1789310164485208000,3.6342080078125,0.8203010688513517,9.769585466974974,-0.22958819730384275
1789310164495219000,3.644218994140625,0.8431389966685324,9.76714801069498,-0.24963433897802606
1789310164505231000,3.654231201171875,0.868248303483799,9.764672560492157,-0.2601481524741277
1789310164515242000,3.664241943359375,0.8956286970362066,9.762294140923023,-0.25663276476431635
1789310164525253000,3.674253173828125,0.927003932378441,9.759709385126829,-0.24320647962130604
1789310164535265300,3.684265380859375,0.9609530367966741,9.756810156553984,-0.2271636370380409
1789310164545276200,3.694276123046875,0.9979261652112007,9.753425190290809,-0.21266462636329234
1789310164555288000,3.7042880859375,1.0426794261079282,9.748972887057066,-0.20180978087717666
1789310164565299000,3.714298828125,1.0958890382479876,9.743345110303164,-0.19137748991837725
1789310164575310000,3.72431005859375,1.1574191733572632,9.736460611486434,-0.17918292026109991
1789310164585322200,3.734322265625,1.2261017375044525,9.728308284690975,-0.164482779257372
1789310164595333000,3.7443330078125,1.2988814347721636,9.719117262497544,-0.14847119032889602
1789310164605344000,3.754343994140625,1.3736771480374037,9.709028999203444,-0.13470326127451843
1789310164615356200,3.764356201171875,1.4502686586782336,9.698001409232615,-0.12594304998009465
1789310164625367000,3.774366943359375,1.5240797448202967,9.68674585572481,-0.12049404559289105
1789310164635379200,3.784379150390625,1.5912822264775632,9.676007604089378,-0.11441382149690761
1789310164645389000,3.79438916015625,1.6421613498434424,9.667453126233816,-0.11848712621727027
1789310164655401000,3.80440087890625,1.650677541515231,9.666042674914001,-0.11521526493974961
1789310164665412000,3.814412109375,1.6457443228967488,9.666963296890259,-0.10833927822303957
1789310164675423200,3.82442333984375,1.6531084219239651,9.665736385443806,-0.10575475075570866
1789310164685435100,3.83443505859375,1.664496369639784,9.663773560938239,-0.10651250118729658
1789310164695446000,3.844446044921875,1.672688297793269,9.662346743005514,-0.10760024162507616
1789310164705458200,3.854458251953125,1.6806684828922152,9.660944474992155,-0.10908627893174998
1789310164715469000,3.864468994140625,1.690014403386414,9.65929436969757,-0.11077962971301748
1789310164725480200,3.874480224609375,1.698704344189912,9.657750647386909,-0.1124128204054199
1789310164735492000,3.8844921875,1.7055094941601157,9.656536595422029,-0.11375199658730999
1789310164745503200,3.894503173828125,1.7103687707595525,9.655665657806395,-0.11476591373705304
1789310164755514000,3.90451416015625,1.7144423038087784,9.65493149831295,-0.11558754145139828
1789310164765526000,3.914526123046875,1.7181246455833314,9.654265727880597,-0.11659608830627985
1789310164775537000,3.924536865234375,1.7187532988756895,9.65414765445888,-0.11710528907058759
1789310164785549000,3.934549072265625,1.7196420644089578,9.653975220501422,-0.11816489939242601
1789310164795560200,3.944560302734375,1.720321424975246,9.653837273335457,-0.11955050853192806
1789310164805571000,3.954571044921875,1.7210184673286972,9.653691142863035,-0.12131123459413647
1789310164815583000,3.9645830078125,1.7216978278949855,9.653546181434393,-0.12320055547207594
1789310164825594000,3.974593994140625,1.7226245873510837,9.653355627298355,-0.12516281372206284
1789310164835606000,3.98460595703125,1.7226976525872946,9.65332640120387,-0.12638300316678358
1789310164845617700,3.99461767578125,1.7228806079387664,9.653279054930806,-0.1275490786709357
1789310164855628800,4.00462890625,1.7232444728150962,9.653201898041367,-0.12854198956526816
1789310164865641000,4.014640869140625,1.7235134990148244,9.65313935419917,-0.1294994455537293
1789310164875651800,4.02465185546875,1.7240620728082954,9.653022449821233,-0.13093191690910608
1789310164885662700,4.034662841796875,1.7246480560027062,9.652896193093062,-0.13260370431253685
1789310164895674600,4.044674560546875,1.7251351088672875,9.652789225587249,-0.13397342176316304
1789310164905685800,4.054685791015625,1.7253950749777256,9.652732526963948,-0.13472447759248316
1789310164915698000,4.064697998046875,1.7256459809988736,9.652684011647105,-0.13500556868934072
1789310164925708800,4.074708740234375,1.726022120834887,9.6526162071079,-0.1349488609328866
1789310164935719700,4.0847197265625,1.726785360292345,9.652477090898156,-0.13516749038593842
1789310164945731800,4.09473193359375,1.727474949991703,9.652342066341639,-0.13610328253186307
1789310164955742700,4.10474267578125,1.7278091503821313,9.65226315588653,-0.13741828325372188
1789310164965754600,4.114754638671875,1.728008326216042,9.652212302482127,-0.1385110286601819
1789310164975765800,4.124765869140625,1.727842029738426,9.652232760748266,-0.1391675015412271
1789310164985776600,4.134776611328125,1.7275861552812157,9.652270170149206,-0.13972866082163526
1789310164995788800,4.144788818359375,1.7275946308486163,9.6522649094522,-0.13991327840723097
1789310165005799700,4.154799560546875,1.7275500610545276,9.652271923714876,-0.14001893073879182
1789310165015811600,4.1648115234375,1.7277582969777285,9.652235683357715,-0.14001567933578044
1789310165025823000,4.174822998046875,1.72809571223855,9.652172554993628,-0.14021375919114798
1789310165035833900,4.184833740234375,1.7282025336138902,9.652144497942924,-0.1407605794189498
1789310165045845800,4.194845703125,1.7280683858402073,9.652163787165284,-0.14111051623462698
1789310165055856600,4.204856689453125,1.7278431987822054,9.652203534653783,-0.141072047387762
1789310165065867800,4.21486767578125,1.7275586827524005,9.65226374040842,-0.14056142185134812
1789310165075880000,4.2248798828125,1.7273583378747104,9.652305825984477,-0.14002070257076993
1789310165085890800,4.234890869140625,1.7272982782505453,9.652318685466051,-0.1398802346541546
1789310165095902700,4.24490283203125,1.7271338814690709,9.652341481819748,-0.14024147831513545
1789310165105913900,4.254913818359375,1.7269059179320931,9.652379475742578,-0.14053248801780863
1789310165115924700,4.2649248046875,1.726590860633552,9.652434420800208,-0.14066647139471022
1789310165125936600,4.2749365234375,1.7262211505383251,9.652499302729964,-0.1406836143257562
1789310165135947800,4.28494775390625,1.7258773055367171,9.65256184657216,-0.1406215454075951
1789310165145960000,4.2949599609375,1.7256017034657298,9.652612699976563,-0.14057525858045555
1789310165155970800,4.304970703125,1.7252699872933328,9.65267232120931,-0.14050673252204432
1789310165165981700,4.314981689453125,1.725216357409954,9.652685765212773,-0.14020960360583848
1789310165175993600,4.32499365234375,1.7253506513141095,9.652668229556083,-0.13981865892633794
1789310165186005000,4.3350048828125,1.724972027260065,9.652740125748515,-0.13948917124364524
1789310165196017000,4.345016845703125,1.7245514637604356,9.652821958813071,-0.13908189648385158
1789310165206027800,4.35502783203125,1.7239447300389408,9.65293535605967,-0.13872150220624171
1789310165216038700,4.36503857421875,1.7236020540811121,9.653000822511315,-0.13837762067201548
1789310165226050800,4.37505078125,1.7233341969251632,9.653054014003276,-0.1379894707378
1789310165236061700,4.385061767578125,1.723157086792588,9.653092007926105,-0.137535635156231
1789310165246072800,4.39507275390625,1.7226383236154912,9.653191961169242,-0.13706531423074192
1789310165256084700,4.405084716796875,1.7220713373824954,9.653303604850173,-0.13635093714999966
1789310165266095900,4.415095947265625,1.7213643581569193,9.65343921392858,-0.13560427436800673
1789310165276107800,4.425107666015625,1.720610763310641,9.653585344401002,-0.13485429625092074
1789310165286118700,4.43511865234375,1.7201942914642392,9.653671269118785,-0.13396086367568932
1789310165296129800,4.4451298828125,1.7199547836199403,9.653729721307753,-0.1327440443649888
1789310165306142000,4.455141845703125,1.7199284801349042,9.653753102183341,-0.13143874305323697
1789310165316152800,4.46515283203125,1.7201253178812563,9.653733812960981,-0.13034988837060518
1789310165326164700,4.475164794921875,1.7204425671368837,9.653694649994373,-0.12902611068724654
1789310165336175600,4.485175537109375,1.7205201624177395,9.653704586866498,-0.12722341777998952
1789310165346186800,4.495186767578125,1.7207048713348805,9.65370049521327,-0.1249646608014591
1789310165356199000,4.505198974609375,1.7213810170307755,9.653615155017375,-0.12221940808077342
1789310165366209800,4.515209716796875,1.7210978161752224,9.653687051209808,-0.12049850257229991
1789310165376220700,4.525220703125,1.721239124342054,9.653672438162564,-0.11980939693013205
1789310165386232800,4.53523291015625,1.721277264395356,9.653668346509336,-0.11949791069501078
1789310165396243700,4.54524365234375,1.7206082790926098,9.653785835409163,-0.11962664250805974
1789310165406255600,4.555255615234375,1.720253766566515,9.653842534032464,-0.12013768816958181
1789310165416266800,4.565266845703125,1.719436897225678,9.653989249026775,-0.12005254890308714
1789310165426278000,4.57527783203125,1.7185284040786324,9.654154084199666,-0.11990875651822425
1789310165436289800,4.585289794921875,1.718751106918603,9.654120181930065,-0.11935412744330241
1789310165446300700,4.59530078125,1.7204674093171952,9.653843118554352,-0.11705019788248464
1789310165456312600,4.6053125,1.7222097229398785,9.653593527707457,-0.11184153245664201
1789310165466324000,4.615323974609375,1.7242469278559087,9.653310034590959,-0.10474311689459719
1789310165476334800,4.6253349609375,1.7259433565102518,9.653075641313194,-0.09816799455429427
1789310165486346800,4.6353466796875,1.7275247804827987,9.652854107517003,-0.09204150189748034
1789310165496357600,4.645357666015625,1.728724365530908,9.65269161043167,-0.08625023254440166
1789310165506369800,4.655369873046875,1.7289532058507202,9.65269277947545,-0.08139579651686363
1789310165516380700,4.665380615234375,1.729013703866303,9.652701547303796,-0.07892762543819844
1789310165526391800,4.675391845703125,1.7292710396282374,9.652657708162069,-0.07871255791541189
1789310165536403700,4.68540380859375,1.7295995409302412,9.652589903622864,-0.07968722076700069
1789310165546414800,4.695414794921875,1.729896478050202,9.652530866912008,-0.08043076914330012
1789310165556425700,4.70542578125,1.7297392416618764,9.652556001353263,-0.08083582454654388
1789310165566437600,4.715437744140625,1.729684734995663,9.652564184659719,-0.08104098259666934
1789310165576448800,4.72544873046875,1.730170618816465,9.652479428985714,-0.0807443012050353
1789310165586461000,4.7354609375,1.7311799419894813,9.652305241462587,-0.08006009093369357
1789310165596471800,4.745471923828125,1.7321188302747905,9.652143328899145,-0.07918501599906012
1789310165606482700,4.755482666015625,1.7335291354641318,9.6518908154428,-0.07904995490992442
1789310165616494600,4.76549462890625,1.7352160656377673,9.651571666491032,-0.08101332740476354
1789310165626505700,4.775505615234375,1.7380531887598334,9.65103156826496,-0.0845702801008243
1789310165636518000,4.785517822265625,1.7420245766088365,9.650302084946631,-0.0860524266836699
1789310165646528800,4.79552880859375,1.7453776864290236,9.649690675050019,-0.08674122179858386
1789310165656539600,4.80553955078125,1.7476576140597462,9.64926046693921,-0.08862583910194224
1789310165666551800,4.8155517578125,1.7492808313474058,9.648947163206339,-0.09067848818227649
1789310165676562700,4.825562744140625,1.749848548232764,9.648834350481629,-0.09178511598361655
1789310165686573800,4.83557373046875,1.7492033821970223,9.648952423903346,-0.09149351262589916
1789310165696585700,4.845585693359375,1.7477160662487148,9.649228902757168,-0.0907236516314093
1789310165706596900,4.855596923828125,1.746223781864345,9.64950187447965,-0.09066118998760357
1789310165716608800,4.86560888671875,1.7452393008716403,9.649676062002777,-0.09099830385432578
1789310165726619600,4.87561962890625,1.7443879447393118,9.64982277699709,-0.0918304620958399
1789310165736630800,4.885630859375,1.743550324871391,9.649954878944158,-0.09369669435913675
1789310165746643000,4.895642822265625,1.7428692107394337,9.650051909577845,-0.0963692654361017
1789310165756653800,4.90565380859375,1.7422906801991163,9.65013783429563,-0.09826696141674182
1789310165766665700,4.915665771484375,1.741814733250439,9.650208561444282,-0.09970658403211273
1789310165776676600,4.925676513671875,1.7414757105544207,9.650257661283016,-0.10096843892778269
1789310165786687700,4.935687744140625,1.7409793053396045,9.650333064606786,-0.10227606006078421
1789310165796699600,4.94569970703125,1.7408951341874896,9.650334818172455,-0.10356641953173093
1789310165806710800,4.955710693359375,1.7411651833005248,9.650277535027264,-0.10436757071362808
1789310165816723000,4.965722900390625,1.7420979341059921,9.65010042489469,-0.10508895292389206
1789310165826733800,4.97573388671875,1.7433789138272404,9.649863109007477,-0.10561745204371399
1789310165836744700,4.98574462890625,1.74479696393162,9.649618194335698,-0.10451807596706784
1789310165846756900,4.9957568359375,1.745603458008915,9.649486676910518,-0.10327418598635121
1789310165856768000,5.00576806640625,1.7460048784166573,9.649421210458874,-0.10252652769051492
1789310165866780000,5.01577978515625,1.7463152595400808,9.649369772532582,-0.10208377062538639
1789310165876791000,5.025791015625,1.746911033476144,9.649267481201887,-0.10146042369580827
1789310165886802000,5.035802001953125,1.7479080816894768,9.649099138897657,-0.10038831921857781
1789310165896813800,5.045813720703125,1.7489152129054069,9.648930796593428,-0.09902820071335881
1789310165906824700,5.05582470703125,1.7502889854766428,9.648695818793772,-0.09763531244969927
1789310165916835800,5.0658359375,1.7512652831628919,9.648536244317889,-0.09589600363485515
1789310165926848000,5.075847900390625,1.7498972096800802,9.648811554127931,-0.09322156939436681
1789310165936859000,5.08585888671875,1.7473571698084474,9.64930021442771,-0.09021066974112764
1789310165946870800,5.095870849609375,1.7434163232281803,9.65004431079328,-0.08690271423691884
1789310165956882000,5.1058818359375,1.739037962013483,9.650857965263723,-0.08409426922006533
1789310165966893000,5.11589306640625,1.7338066372312604,9.651826518034934,-0.08098310579643585
1789310165976905000,5.125905029296875,1.7289019140549002,9.652730773398279,-0.07792077735005877
1789310165986915800,5.135915771484375,1.7250979917272924,9.653425769925118,-0.07607749213750939
1789310165996928000,5.145927978515625,1.7224743652254342,9.653899232655762,-0.07565515680590178
1789310166006939000,5.15593896484375,1.7209319580890237,9.654169866290689,-0.07617063661394641
1789310166016950000,5.165949951171875,1.720196337290853,9.654293784931301,-0.07703058704468421
1789310166026962000,5.1759619140625,1.719892385908216,9.654340546682477,-0.07793576485663652
1789310166036973000,5.18597314453125,1.719687803246826,9.654372695386408,-0.07849404719336889
1789310166046984000,5.19598388671875,1.7196977401189506,9.654375617995857,-0.07797044344437308
1789310166056995800,5.205995849609375,1.720331069586426,9.654273911187053,-0.07635953764901496
1789310166067006700,5.2160068359375,1.721840743497014,9.654020228686928,-0.07438173020344693
1789310166077019000,5.226018798828125,1.7236986463233828,9.653701079735159,-0.07277401187901851
1789310166087030000,5.236030029296875,1.7251988217532634,9.653439798450469,-0.07197620799825526
1789310166097041000,5.246041015625,1.7261308419063686,9.653279054930806,-0.07121061675350647
1789310166107052800,5.256052734375,1.7266960745736954,9.653181439775228,-0.07079620900002774
1789310166117064000,5.26606396484375,1.7273785038799045,9.653057521134615,-0.07095865128643344
1789310166127075800,5.276075927734375,1.728169215866178,9.652913144227862,-0.07139154911125078
1789310166137087000,5.2860869140625,1.7286507157728075,9.652819620725513,-0.0722463393096812
1789310166147097900,5.296097900390625,1.7288325020805,9.652776950627565,-0.07362647768962197
1789310166157110000,5.306110107421875,1.7295190230399369,9.652643095114827,-0.0750669268554775
1789310166167121000,5.316120849609375,1.731218958825618,9.652328622338175,-0.07641740074951667
1789310166177132800,5.3261328125,1.7327711567036808,9.652036361393332,-0.07797121976250782
1789310166187143700,5.336143798828125,1.7336757043279707,9.651861589348316,-0.07956659006201662
1789310166197155000,5.346155029296875,1.7342863835722206,9.651740008795262,-0.08107901305211708
1789310166207167000,5.3561669921875,1.7348976473383604,9.651617843720317,-0.08231820859140716
1789310166217177900,5.366177734375,1.7354279548227787,9.651510876214504,-0.08361819440722465
1789310166227189800,5.376189697265625,1.736216182591021,9.651359485045075,-0.08485296949972398
1789310166237201000,5.386200927734375,1.736923892468959,9.651223875966668,-0.08584537807055749
1789310166247212000,5.3962119140625,1.737986114872992,9.651026307567953,-0.0863890838926658
1789310166257224000,5.406223876953125,1.738716036582738,9.650887775880097,-0.08725487954230048
1789310166267234800,5.41623486328125,1.7392710401169955,9.65077379411161,-0.08885442369342782
1789310166277246000,5.426245849609375,1.739501341741532,9.650710081225633,-0.09117357822284101
1789310166287257900,5.4362578125,1.739355795791,9.650708327659965,-0.09406346357860602
1789310166297269000,5.44626904296875,1.7392556964173913,9.65069722174406,-0.09710498669897205
1789310166307281000,5.456281005859375,1.7395216538771987,9.6506212338984,-0.09979240828519687
1789310166317292000,5.4662919921875,1.7399249739810823,9.650524203264712,-0.10211786469123325
1789310166327303000,5.476302978515625,1.7402521601088343,9.650440616634487,-0.10440325394836254
1789310166337314800,5.486314697265625,1.7404112961933016,9.650387425142526,-0.10659530236623249
1789310166347325700,5.49632568359375,1.7403984367117284,9.65036170617938,-0.10910085544637403
1789310166357337900,5.506337890625,1.7404783700801432,9.650316697993874,-0.11181481797965243
1789310166367349000,5.516348876953125,1.7406451049491762,9.650252400586009,-0.11464181243334896
1789310166377360000,5.52635986328125,1.7409247986733913,9.650167644912004,-0.11757247732407412
1789310166387371800,5.536371826171875,1.7412725891977547,9.650070029756426,-0.12038696848922409
1789310166397383000,5.5463828125,1.7415635349683463,9.64998761216998,-0.12279972871937789
1789310166407394800,5.556394775390625,1.7416319240294396,9.649946695637702,-0.12497340123034081
1789310166417406000,5.566406005859375,1.7416440528586505,9.649918054065107,-0.1271238755288068
1789310166427416800,5.576416748046875,1.7416870152175425,9.64987713753283,-0.12957842907407321
1789310166437429000,5.586428955078125,1.7419273998446763,9.649798811599611,-0.13216782451276668
1789310166447440000,5.59643994140625,1.7421880966074763,9.649717563056946,-0.1345577883892227
1789310166457451800,5.60645166015625,1.742378943004459,9.64965326564908,-0.1367006091041956
1789310166467462700,5.616462646484375,1.7426738342978059,9.649573770672083,-0.13852817159122788
1789310166477474000,5.62647412109375,1.742717235048115,9.649539283880591,-0.14037379032475872
1789310166487486000,5.63648583984375,1.7427878160662948,9.649500120913983,-0.14228310367795638
1789310166497496800,5.646496826171875,1.7428979984425008,9.649451021075247,-0.1442597466463223
1789310166507509000,5.656509033203125,1.7431379446782171,9.649377955839038,-0.1461981216972228
1789310166517520000,5.666519775390625,1.7433061408519743,9.649318919128179,-0.14803090834864413
1789310166527531000,5.676531005859375,1.7434136928796766,9.649269819289445,-0.14997942120106889
1789310166537543000,5.68654296875,1.7433553868211804,9.649251699110865,-0.15184859434012324
1789310166547553800,5.6965537109375,1.743629673717916,9.649173957699537,-0.15357205713186411
1789310166557566000,5.70656591796875,1.744043515215814,9.649067574715614,-0.1555827211008407
1789310166567576800,5.716576904296875,1.7444868750691414,9.64894540964067,-0.1581208612763323
1789310166577588000,5.726587890625,1.7446480569802223,9.64886883727312,-0.16101632698951288
1789310166587600000,5.736599853515625,1.7447956487573681,9.648797525602578,-0.16369995831660925
1789310166597611000,5.746611083984375,1.74528635488376,9.64866542365551,-0.16620421448880807
1789310166607622000,5.756621826171875,1.7462549076549707,9.64844038272798,-0.16904495434006675
1789310166617633800,5.7666337890625,1.7463018155366181,9.648374916276335,-0.17229432979114354
1789310166627644700,5.776644775390625,1.7468616413764655,9.648215341800451,-0.17549424007730557
1789310166637656800,5.78665673828125,1.747007041196525,9.648120064732431,-0.1792235627987422
1789310166647668000,5.79666796875,1.7475575146861373,9.647968673563003,-0.18197605811096726
1789310166657678800,5.806678955078125,1.7477884008325635,9.647866382232309,-0.18515854233829304
1789310166667691000,5.81669091796875,1.7476047148287295,9.647813190740345,-0.18970192138897254
1789310166677702000,5.826701904296875,1.7474349112197756,9.647744801679252,-0.1946929528756067
1789310166687713800,5.8367138671875,1.7474417793519794,9.64765595435202,-0.19891537460992112
1789310166697725000,5.846724853515625,1.7482018039390443,9.647429744380712,-0.2032023129478097
1789310166707735800,5.85673583984375,1.748436635608226,9.647277184167503,-0.20830549957202746
1789310166717748000,5.866748046875,1.749423016297072,9.646994860094786,-0.21304423679802564
1789310166727758800,5.8767587890625,1.7498897570259868,9.646793784564734,-0.21826012654909863
1789310166737770800,5.886770751953125,1.7508403357490896,9.646516721189021,-0.22283377287387846
1789310166747782000,5.896781982421875,1.7514657741710542,9.646271221995352,-0.2284701165267266
1789310166757793000,5.90679296875,1.752104072074592,9.646008771666883,-0.2345267496845685
1789310166767805000,5.916804931640625,1.7529359928540884,9.645678516799212,-0.24182419495005159
1789310166777815800,5.92681591796875,1.753788079638779,9.645340078625082,-0.24905829265573992
1789310166787828000,5.936827880859375,1.754788196592033,9.644984689316153,-0.2556940408757888
1789310166797838800,5.9468388671875,1.7559598707199096,9.644588967996835,-0.26248001122148706
1789310166807850000,5.95685009765625,1.7568451291218399,9.644231240600346,-0.26964741863282393
1789310166817862000,5.96686181640625,1.7573710526920854,9.643929627305269,-0.27687086708033454
1789310166827873000,5.976873046875,1.757689032600075,9.643688804286718,-0.2831591718358919
1789310166837885000,5.986885009765625,1.7579915226779876,9.643447981268167,-0.2894143415068276
1789310166847895300,5.996895263671875,1.7596914584636687,9.642922496089339,-0.29649385143900286
1789310166857906400,6.006906494140625,1.762321368575841,9.642142159366607,-0.3060947513412684
1789310166867918300,6.01691845703125,1.7645578954562544,9.641390464216471,-0.3167247933618724
1789310166877929500,6.026929443359375,1.7655504136249422,9.640904142004251,-0.3258532351804897
1789310166887941400,6.03694140625,1.7658685396634042,9.640659811854363,-0.3313106968687847
1789310166897952300,6.0469521484375,1.7660995719403028,9.640489131462573,-0.3350134969094768
1789310166907963400,6.05696337890625,1.7668821006201207,9.640206807389855,-0.3390027857413515
1789310166917975600,6.0669755859375,1.767956890244782,9.639903440529107,-0.34201716512646524
1789310166927986400,6.076986328125,1.7686673766016958,9.639744450575114,-0.3428270567372441
1789310166937998300,6.086998291015625,1.7682167102247475,9.639883566784858,-0.3412345633814111
1789310166948009200,6.09700927734375,1.7672952114656566,9.640153031376004,-0.338405112109147
1789310166958020400,6.107020263671875,1.766440640462935,9.640411390051245,-0.3355018649483099
1789310166968032300,6.1170322265625,1.7657674173764883,9.640653382113575,-0.33206257468201217
1789310166978043400,6.12704345703125,1.7649200067669153,9.640985390546918,-0.3269006984068081
1789310166988055300,6.13705517578125,1.7639494081690907,9.64141092248261,-0.3194735075481236
1789310166998066400,6.14706640625,1.7625193753659725,9.641976155149935,-0.31016653082482515
1789310167008077300,6.157077392578125,1.760586799868196,9.642676412373781,-0.2991844056972302
1789310167018089200,6.167089111328125,1.7584582634069024,9.643453826487065,-0.2863673932926729
1789310167028100400,6.177100341796875,1.7561321585468948,9.644299045139551,-0.27183331130454313
1789310167038112500,6.187112548828125,1.7539052762776612,9.645150693532823,-0.25549455451462416
1789310167048123400,6.197123291015625,1.7516078129902481,9.646022800192236,-0.23768903137408195
1789310167058134300,6.20713427734375,1.749293690828979,9.64689256876409,-0.21871077465973793
1789310167068146200,6.217146240234375,1.747101295351237,9.647737787416578,-0.19790614276845006
1789310167078157300,6.2271572265625,1.7445815676152705,9.648630936864018,-0.17532056401083246
1789310167088169200,6.237169189453125,1.741810933858156,9.649535776749254,-0.151455503369309
1789310167098180400,6.247180419921875,1.7389840398691594,9.650405545321107,-0.12649418105683288
1789310167108191200,6.257191162109375,1.7365869155995546,9.651140289336443,-0.1007878764627967
1789310167118203400,6.267203369140625,1.734593842086196,9.65173883975148,-0.07402372424574569
1789310167128214300,6.27721435546875,1.732863803423196,9.6522251619637,-0.04608629046562127
1789310167138226200,6.28722607421875,1.7311233894966542,9.652632573720812,-0.017503307057265192
1789310167148237300,6.2972373046875,1.7294968112081288,9.652932433450221,0.011455867561098421
1789310167158248400,6.30724853515625,1.7279666790314017,9.653128248283267,0.040559604032593774
1789310167168260400,6.31726025390625,1.726558273538202,9.653208912304043,0.07030725643930491
1789310167178271200,6.327271240234375,1.7257241608016192,9.653087331750989,0.10080597837506793
1789310167188283400,6.337283447265625,1.7249821102626621,9.652845924210547,0.13192677316535265
1789310167198294500,6.34729443359375,1.724363101581484,9.652477090898156,0.16319029176142066
1789310167208305400,6.357305419921875,1.7238232956163584,9.651989015120268,0.19477750762021168
1789310167218317300,6.3673173828125,1.7234334195159375,9.651344871997832,0.2273898470093496
1789310167228328200,6.377328125,1.7231623474895954,9.650538231790065,0.2611448718938976
1789310167238340400,6.38734033203125,1.723109594389051,9.649552143362165,0.29568768615527075
1789310167248351200,6.397351318359375,1.7234253823399543,9.648343352094292,0.3311114845022559
1789310167258362400,6.4073623046875,1.724223400849849,9.646913027030228,0.36674514447394757
1789310167268374500,6.41737451171875,1.725262826900184,9.645318451315164,0.4020882605338469
1789310167278385400,6.427385498046875,1.7260836417637764,9.643651394885778,0.43705578474700446
1789310167288397300,6.437397216796875,1.7266564732156693,9.64193056244254,0.4714043368116021
1789310167298408200,6.447408203125,1.7275260956570504,9.640048401957749,0.5054898905584588
1789310167308419300,6.45741943359375,1.7285856877125798,9.637971011161804,0.540283665639907
1789310167318431500,6.467431396484375,1.7296571163363754,9.635736383977532,0.5755433777326717
1789310167328442400,6.4774423828125,1.7310101383805274,9.633322893095016,0.6107975734001025
1789310167338454300,6.487454345703125,1.7323292581550775,9.630806526359915,0.6457641477651894
1789310167348465400,6.49746533203125,1.7335377571620045,9.628249243092537,0.6797396287336945
1789310167358477300,6.507477294921875,1.7345993950441478,9.625634676679969,0.7132384321011602
1789310167368488200,6.51748828125,1.7354086656004188,9.622892099973559,0.7474439224332571
1789310167378499300,6.527499267578125,1.7359535861320792,9.620019759407638,0.782345724466443
1789310167388511500,6.537511474609375,1.7368031886987387,9.616935237395763,0.8175853801518678
1789310167398522400,6.5475224609375,1.738168047311157,9.613604047146438,0.8531020261477679
1789310167408534300,6.5575341796875,1.7394390901602803,9.610137247818708,0.8888278579149395
1789310167418545200,6.567545166015625,1.7402455842375755,9.606686815103888,0.9238608851123601
1789310167428556500,6.577556640625,1.7404522127255797,9.60325099543631,0.9585223755836486
1789310167438568400,6.587568359375,1.7402549365878104,9.599796471068263,0.9928754576928913
1789310167448579300,6.597579345703125,1.7397447951085865,9.596342531222104,1.0265897304419427
1789310167458591500,6.607591552734375,1.7393676323592662,9.592842998668552,1.0594150915272533
1789310167468602400,6.617602294921875,1.7392412295006214,9.589304303148388,1.0911742846857755
1789310167478613500,6.627613525390625,1.7392942748621105,9.585737550577521,1.1220008001040667
1789310167488625400,6.63762548828125,1.7395545332334934,9.582099486336112,1.1522661014430224
1789310167498636300,6.64763623046875,1.7396606239564716,9.578468436357378,1.1819025302939117
1789310167508648400,6.6576484375,1.7396102089434862,9.574900514742732,1.2105522131297737
1789310167518659300,6.667659423828125,1.739650687084347,9.571364157310128,1.2381472723461686
1789310167528670200,6.677670166015625,1.7397005175754428,9.567942950689792,1.264239306588471
1789310167538682400,6.687682373046875,1.7401066141583024,9.564555646339059,1.2890730113327502
1789310167548693500,6.697693603515625,1.74128617933169,9.561147883722185,1.3125408345513045
1789310167558705400,6.707705322265625,1.742929270363599,9.55776116389334,1.3348315768145025
1789310167568716300,6.71771630859375,1.7448296971574424,9.554442833125592,1.3559374932073056
1789310167578727200,6.72772705078125,1.7468315384991466,9.551210427075624,1.3759921469815075
1789310167588739300,6.7377392578125,1.7486597768396137,9.548117137235403,1.395002844660729
1789310167598750500,6.74775048828125,1.75031295087412,9.545237197884918,1.4125317793495953
1789310167608762400,6.757762451171875,1.7521892661400138,9.542596912509202,1.4279549739308655
1789310167618773500,6.7677734375,1.754602464761585,9.540130230134725,1.4414197279207408
1789310167628785400,6.777785400390625,1.7572803056687116,9.53779038901031,1.4535795367918907
1789310167638796300,6.78779638671875,1.7602226427309213,9.535563945132493,1.464583307495713
1789310167648807200,6.79780712890625,1.7627775879107415,9.533567802879213,1.4744827702194452
1789310167658819300,6.8078193359375,1.7647295987613498,9.531859829917549,1.4831522527568042
1789310167668830500,6.81783056640625,1.7660463804483413,9.530393849018216,1.4909927371241152
1789310167678842400,6.82784228515625,1.7669554581172764,9.529028990405797,1.4986219168283044
1789310167688853200,6.837853271484375,1.7676583456896244,9.527766423124074,1.505799991764128
1789310167698864400,6.847864501953125,1.7688317733831702,9.526512039148807,1.512340061057359
1789310167708876300,6.857876220703125,1.7701415408074854,9.525379235726595,1.5179422649785876
1789310167718887400,6.867887451171875,1.7709601637139916,9.524393731820583,1.52315488506034
1789310167728899300,6.8778994140625,1.7709141326151787,9.523584753525256,1.528264337028563
1789310167738910500,6.887910400390625,1.7700382265634833,9.522968082931637,1.533112215451151
1789310167748921300,6.89792138671875,1.7688056160286068,9.52249578924477,1.5374628118760882
1789310167758933200,6.907933349609375,1.7678740342669188,9.522041031214595,1.5413437449626624
1789310167768944400,6.9179443359375,1.767553862401843,9.521536004301906,1.5448282260775565
1789310167778956300,6.927956298828125,1.7675551775760947,9.520959081196784,1.5483789042964577
1789310167788967400,6.937967529296875,1.7675208369150757,9.520342410603165,1.5521997777588665
1789310167798979300,6.947979248046875,1.7670133257843552,9.519742106622457,1.5564643033355474
1789310167808990200,6.957990234375,1.7657888985559342,9.519192071524262,1.561208721383661
1789310167819001300,6.96800146484375,1.7642624196410177,9.518725038534402,1.5657698918193579
1789310167829013200,6.97801318359375,1.7629719414390623,9.518231702059508,1.570214011746645
1789310167839024400,6.9880244140625,1.7626164059996603,9.517587558937072,1.574520915160328
1789310167849036000,6.9980361328125,1.7629865544863044,9.516773904466628,1.579012819752097
1789310167859047200,7.008047119140625,1.7634062412030993,9.515843345618247,1.5841484290748833
1789310167869058000,7.01805810546875,1.7634620630435645,9.514893497547506,1.589775621306896
1789310167879070000,7.028070068359375,1.7633261617042124,9.513926113820075,1.5957088107481598
1789310167889081000,7.0380810546875,1.7634230462074278,9.512889756509662,1.6017705950051546
1789310167899093200,7.04809326171875,1.764317218568176,9.511662845063208,1.6080521594926713
1789310167909104000,7.058104248046875,1.76596483964473,9.510202124860882,1.6148691460311413
1789310167919115000,7.068114990234375,1.7680843160167334,9.508517532774805,1.6224439651995897
1789310167929127000,7.078126953125,1.770204084649682,9.506725388661026,1.630624933567643
1789310167939138000,7.088137939453125,1.7717543828316031,9.50496539325118,1.6391778039880096
1789310167949150200,7.098150146484375,1.7728591292031108,9.50321182758212,1.6481284415543078
1789310167959161000,7.1081611328125,1.7741271033123134,9.501318561181426,1.6576469421364366
1789310167969173200,7.11817333984375,1.7758832993298768,9.499267473870516,1.667497305021435
1789310167979184000,7.12818408203125,1.7780542136281727,9.4971146797508,1.6774113807924091
1789310167989195000,7.138195068359375,1.7807406762331723,9.494773669582605,1.6877822604201733
1789310167999207000,7.14820703125,1.7836852052524685,9.492294127726554,1.6985865630291401
1789310168009218000,7.158218017578125,1.7867612516969442,9.489668455398082,1.709986347313225
1789310168019230200,7.168230224609375,1.7898406591422855,9.486852813455462,1.7223505927152931
1789310168029241000,7.178240966796875,1.7925826513268053,9.484001515677571,1.7351447539672253
1789310168039252000,7.188251953125,1.7952550854064524,9.481157232162357,1.7478829472482202
1789310168049264000,7.19826416015625,1.7991811728090046,9.478022441267967,1.7607979584008455
1789310168059275300,7.208275146484375,1.8041738665297626,9.474587206122278,1.7741290030084549
1789310168069287200,7.218287109375,1.808656564901769,9.471094103309511,1.7881673191025853
1789310168079298000,7.228298095703125,1.812139584711939,9.467675819298625,1.8026804131016134
1789310168089310200,7.238310302734375,1.814610651000589,9.464427631157637,1.8171945300139485
1789310168099321000,7.248321044921875,1.8170783562883734,9.461227958333492,1.831332360959798
1789310168109332000,7.25833203125,1.8206696587786078,9.457796814841032,1.8454358512446283
1789310168119343900,7.26834375,1.8258420929804444,9.453974041682482,1.8598561523936687
1789310168129355300,7.278355224609375,1.8316887731820344,9.449960129866003,1.8744461110211907
1789310168139367200,7.2883671875,1.837151276371628,9.44588484325111,1.8895793827451763
1789310168149378000,7.2983779296875,1.8414272001251577,9.441935228842496,1.9050958085678518
1789310168159389000,7.308388916015625,1.844669104655832,9.438064524888992,1.9210747373357413
1789310168169401000,7.318401123046875,1.8482389259666203,9.434189144760369,1.9366146901644765
1789310168179412200,7.328412109375,1.8530244066774844,9.43030967297852,1.9508833078831433
1789310168189424000,7.338424072265625,1.8580314211845397,9.426384608489274,1.9650358980067073
1789310168199435000,7.34843505859375,1.862693275515735,9.422126951044797,1.9809834087230265
1789310168209447200,7.358447265625,1.8670945792146025,9.417575279089808,1.9984059604279696
1789310168219458000,7.3684580078125,1.8720291130073368,9.412954633551836,2.0154814522609112
1789310168229469200,7.37846923828125,1.8775066676355898,9.408642031049729,2.0304675705991686
1789310168239481000,7.388481201171875,1.8826143660381436,9.404772496140003,2.043622235726565
1789310168249492200,7.3984921875,1.8865445450939238,9.401078902319073,2.056956202943623
1789310168259504000,7.408504150390625,1.889660339026898,9.397247361332177,2.071552152920514
1789310168269515000,7.418514892578125,1.893313162446022,9.393170321151613,2.086649038156867
1789310168279526000,7.42852587890625,1.8986814114809034,9.38888811378777,2.1009910133726892
1789310168289538000,7.4385380859375,1.9049930788457392,9.384566743457317,2.1145440301679073
1789310168299549200,7.448549072265625,1.9114143440648912,9.380455801007152,2.1269488998413086
1789310168309561000,7.45856103515625,1.9165689503490924,9.376682712209224,2.138917277793586
1789310168319572200,7.468572265625,1.9192146425522862,9.373253322282434,2.1515379821747542
1789310168329584000,7.478584228515625,1.920878045719862,9.36978827652037,2.1651075117133556
1789310168339595000,7.488594970703125,1.9232213939756153,9.36605844234228,2.1791187936700878
1789310168349606100,7.498606201171875,1.927120154979825,9.36232860816419,2.1916645331189035
1789310168359618300,7.508618408203125,1.932146897100657,9.358965269210934,2.2015786088898777
1789310168369629200,7.518629150390625,1.9361777600519359,9.355881916242838,2.211127796871215
1789310168379641000,7.52864111328125,1.9396309692457316,9.352846494069695,2.220918100132048
1789310168389652000,7.53865185546875,1.9412816590622066,9.349973568981886,2.2315479229569433
1789310168399663000,7.5486630859375,1.9427603533126412,9.34696328125,2.242839862952381
1789310168409675000,7.558675048828125,1.9444687646657228,9.343871160453558,2.2542133437514305
1789310168419686100,7.56868603515625,1.9472261005498468,9.341113386178016,2.2632440608166156
1789310168429698000,7.578697998046875,1.9512667542427777,9.338640858584641,2.269962117025256
1789310168439709200,7.588709228515625,1.9554032695256172,9.335990051814914,2.2772915831305087
1789310168449721000,7.59872119140625,1.9593334485813974,9.332857014486192,2.2867364339545366
1789310168459732000,7.60873193359375,1.9627530477665363,9.329603565648197,2.2970643512234092
1789310168469743000,7.6187431640625,1.966021401912719,9.326836439022422,2.3054908187851306
1789310168479755300,7.62875537109375,1.9693775804728268,9.324379108998178,2.3125480438202617
1789310168489766100,7.63876611328125,1.973266842996329,9.322000689429045,2.3188116342596707
1789310168499778000,7.648778076171875,1.977272571506351,9.31947029416859,2.3255596472151576
1789310168509789000,7.658788818359375,1.9785519437924026,9.317164939835667,2.333702475529909
1789310168519800000,7.668800048828125,1.981075470920652,9.314433469045161,2.3424441465206445
1789310168529812200,7.678812255859375,1.985429428346455,9.311558205869794,2.350179124686867
1789310168539823000,7.688822998046875,1.9925527043551206,9.308676512953639,2.3555619867689908
1789310168549835300,7.698835205078125,1.9985959300421177,9.306202816316485,2.3602084974005817
1789310168559846100,7.70884619140625,2.0016592631354926,9.304002091401815,2.3662857714876533
1789310168569858000,7.718858154296875,2.00170617101714,9.301962110006809,2.3742481286689636
1789310168579869000,7.728868896484375,2.000723589720577,9.300002208110689,2.3827422546394166
1789310168589880000,7.738880126953125,2.001698133841157,9.298376068213582,2.388261164191365
1789310168599892200,7.748892333984375,2.006636759287119,9.296864494606853,2.3900027471616863
1789310168609903000,7.758903076171875,2.011562379121035,9.29556334888041,2.3909222000941632
1789310168619915000,7.7689150390625,2.017152161952108,9.293982801690698,2.392356909072399
1789310168629926100,7.778926025390625,2.023251501740515,9.292041604495047,2.394744827122241
1789310168639937300,7.788937255859375,2.0290503972776235,9.29022841759324,2.396874094235897
1789310168649949200,7.79894921875,2.033097188450396,9.289237068468331,2.397287497342378
1789310168659960000,7.8089599609375,2.036295692230761,9.28909269156158,2.3951279812209307
1789310168669972200,7.81897216796875,2.0381807753250003,9.289524068716167,2.3918542202472683
1789310168679983000,7.828983154296875,2.0400226037994025,9.289784765478968,2.3892611350141464
1789310168689995000,7.8389951171875,2.0450090139098465,9.289328838405012,2.3867742866344748
1789310168700006000,7.849005859375,2.0495799750871955,9.288864143502712,2.384658755785227
1789310168710017300,7.859017333984375,2.054258488292247,9.288780556872487,2.380955809614062
1789310168720029200,7.869029296875,2.056561212276667,9.290011559972166,2.374160888776928
1789310168730040000,7.8790400390625,2.0572676069803535,9.292024653360247,2.365658725630492
1789310168740052000,7.889052001953125,2.05695664133504,9.294413009801506,2.35652381753847
1789310168750063000,7.89906298828125,2.056100170636177,9.296745252141356,2.348055995053053
1789310168760074200,7.90907421875,2.0541244866490365,9.299166926330328,2.3401802932418883
1789310168770086100,7.919086181640625,2.0521230836987496,9.301516119804978,2.3325908610261976
1789310168780097000,7.929096923828125,2.052507699102163,9.30415932779014,2.3216832441732285
1789310168790109200,7.939109130859375,2.052990368052572,9.307522666743397,2.3077318757101892
1789310168800120000,7.9491201171875,2.0496094934426248,9.311793768191338,2.2934629657305776
1789310168810132000,7.959132080078125,2.0420843586347996,9.316709597283602,2.2801688921324907
1789310168820143000,7.96914306640625,2.034028039559722,9.321536579048633,2.267612046767771
1789310168830154200,7.979154296875,2.028046627062559,9.325577378872037,2.2563304820358754
1789310168840166100,7.989166259765625,2.0222271271288395,9.330037865412235,2.2430745484910903
1789310168850177300,7.99917724609375,2.017103646635264,9.335588485276698,2.2245133481450377
1789310168860189400,8.009189453125,2.011429546521604,9.342252034819126,2.2015619500160217
1789310168870200300,8.019200439453124,2.0028706847518682,9.350269921579956,2.175167571826279
1789310168880211500,8.02921142578125,1.991978996120393,9.359478479430079,2.1453601703226566
1789310168890223400,8.039223388671875,1.9782922699429093,9.369681309014558,2.113248729660362
1789310168900234500,8.049234375,1.9636247160345315,9.380399686905742,2.0791002302125094
1789310168910246400,8.059246337890626,1.9508317238263784,9.390652785372733,2.0445688689269126
1789310168920257300,8.06925732421875,1.9393921920537947,9.400209718269108,2.011271579480916
1789310168930268200,8.07926806640625,1.9283650404743848,9.409351640623807,1.9788588177844881
1789310168940280300,8.0892802734375,1.9165014380708336,9.418291318404673,1.947609108518064
1789310168950291500,8.09929150390625,1.90205439504534,9.42770036726296,1.9159965572886168
1789310168960303400,8.109303466796876,1.885552465316653,9.437962233558297,1.8814803935721516
1789310168970314200,8.119314208984376,1.8692323218956588,9.448587672469019,1.8440626631952821
1789310168980326400,8.129326416015624,1.8550483137205243,9.458498825630546,1.8072022744402287
1789310168990337300,8.139337158203125,1.8399445603519677,9.467575866055489,1.774819761751592
1789310169000348400,8.149348388671875,1.8237910056695341,9.475790736693144,1.74744543261379
1789310169010360300,8.1593603515625,1.8075725690573452,9.48310602814257,1.724460862867534
1789310169020371500,8.169371337890626,1.7932266483187675,9.490052486279605,1.7010652281023562
1789310169030383400,8.17938330078125,1.7811001571953295,9.4973753765136,1.6727037876233457
1789310169040394200,8.189394287109375,1.7723389047212899,9.504189148181677,1.643035356198996
1789310169050405400,8.1994052734375,1.7638875949792563,9.510590247395633,1.6148576017238199
1789310169060417500,8.20941748046875,1.7573571702972053,9.516188798055053,1.5887766733974218
1789310169070428400,8.219428466796876,1.7524381263345479,9.520954989543556,1.5654893213123082
1789310169080440300,8.2294404296875,1.7467476596079765,9.525883678117394,1.5416836444415152
1789310169090451200,8.239451171875,1.742514113691449,9.53079658460021,1.5158954154513775
1789310169100463400,8.24946337890625,1.7403880614481866,9.536071894654631,1.4848422516703605
1789310169110474200,8.25947412109375,1.7390630964547396,9.540328383055328,1.4588332195363938
1789310169120485400,8.2694853515625,1.739264318115264,9.5428237070024,1.442164993330091
1789310169130497500,8.27949755859375,1.7422759210214018,9.542914307895302,1.4379254560641943
1789310169140508400,8.28950830078125,1.74562669275403,9.541561724242568,1.4428364628508685
1789310169150520300,8.299520263671875,1.7470397744223474,9.54002618523836,1.4512538703233002
1789310169160531200,8.30953125,1.7460316202931105,9.539324174448847,1.4570686940819024
1789310169170542300,8.319542236328125,1.7454389150969682,9.539221883118152,1.458457956483215
1789310169180554500,8.329554443359376,1.7478185037098823,9.538806872576474,1.4583083188794552
1789310169190565400,8.3395654296875,1.753005550958961,9.537406358128786,1.4612434955485165
1789310169200577300,8.349577392578125,1.7581996124707162,9.535129060846566,1.4698485345475374
1789310169210588400,8.35958837890625,1.76193207699731,9.53251332539022,1.4822941746227443
1789310169220599300,8.369599365234375,1.7645859525069594,9.52973217023909,1.4969390783078969
1789310169230611200,8.379611083984376,1.7639374254703521,9.527136308526993,1.5141323513016103
1789310169240622300,8.389622314453124,1.7616121973931789,9.525437687915563,1.527467925953865
1789310169250634500,8.399634521484375,1.7622107478082178,9.524336448675394,1.5336246950179337
1789310169260645400,8.409645263671875,1.7650941942900418,9.523035302948951,1.5383793421991168
1789310169270657300,8.4196572265625,1.7700680371798574,9.521256018316745,1.5436686807788909
1789310169280668200,8.429668212890626,1.771219837563485,9.519651505729556,1.5522320725932717
1789310169290679600,8.439679443359376,1.7691659737735985,9.518239885365963,1.5631819211527704
1789310169300691500,8.44969140625,1.7638463861860334,9.517615031465887,1.572972370544076
1789310169310702300,8.459702392578125,1.7571894125148653,9.51759048154652,1.5805495278000832
1789310169320714200,8.46971435546875,1.7468318307600914,9.518408812192082,1.587090327745676
1789310169330725400,8.479725341796875,1.735460980309546,9.51975555062592,1.5914876859217881
1789310169340736500,8.489736572265626,1.7227704255625604,9.522700371906161,1.5876481077589093
1789310169350748400,8.49974853515625,1.710436867559701,9.527559502375125,1.5717488200984895
1789310169360759300,8.50975927734375,1.6978689162790774,9.533384263005852,1.5499017299495637
1789310169370771500,8.519771484375,1.6846188279531895,9.53961877348125,1.5258201587468385
1789310169380782300,8.5297822265625,1.6675637943863868,9.546721298962831,1.4999066959418355
1789310169390794200,8.539794189453126,1.6493296340376138,9.555354687273502,1.4646873523920774
1789310169400805000,8.54980517578125,1.6322198015436529,9.565715922290087,1.4153946214348077
1789310169410816500,8.55981640625,1.61996749208346,9.576536006990075,1.355009564707428
1789310169420828400,8.569828369140625,1.6080317012265324,9.587443185451626,1.290561788585782
1789310169430839300,8.57983935546875,1.5953133816897869,9.598080899322033,1.2256488791704176
1789310169440851500,8.5898515625,1.5829123114086687,9.608252164724469,1.1602908563360572
1789310169450862300,8.5998623046875,1.5737836869269608,9.617802667880058,1.0915446523681283
1789310169460873500,8.60987353515625,1.5667138946712016,9.627018239992857,1.017992728618905
1789310169470885400,8.619885498046875,1.5594085400938986,9.635931029766798,0.9420497450146823
1789310169480896300,8.629896240234375,1.5511530451849103,9.644209613290428,0.8680550459340214
1789310169490908400,8.639908447265626,1.5432621458046136,9.651918872493505,0.7932154935270548
1789310169500919300,8.649919189453126,1.5392869585633278,9.658663670578598,0.7149806726586073
1789310169510930200,8.65993017578125,1.5407337963707743,9.663727968230843,0.639433556504175
1789310169520942300,8.6699423828125,1.5420938326776026,9.66776350735724,0.5715690672742203
1789310169530953500,8.679953369140625,1.5410013612657785,9.671541856852173,0.506934828669764
1789310169540965400,8.68996533203125,1.5391531030505894,9.67501800853014,0.44206137448195365
1789310169550976300,8.699976318359376,1.5376707555383442,9.677983872598409,0.3775952955186367
1789310169560988400,8.709988525390624,1.5402087495833634,9.679783030974864,0.31614889317005873
1789310169570999300,8.719999267578125,1.5476543894141912,9.680251817530394,0.26056873424006627
1789310169581010400,8.730010498046875,1.5552845920316873,9.680155371418595,0.21462688461327925
1789310169591022300,8.740022216796875,1.5606769525945186,9.680067108613253,0.1760006552294828
1789310169601033500,8.750033447265626,1.5628689096808432,9.6802740293622,0.14185965410149656
1789310169611045400,8.76004541015625,1.563922364256531,9.68051894403398,0.10993626509089953
1789310169621056300,8.77005615234375,1.567514981921017,9.680249479442834,0.07768343406338245
1789310169631067400,8.7800673828125,1.5723375797718762,9.679663203987479,0.047539982705540024
1789310169641079600,8.79007958984375,1.5787021463677287,9.678724461832642,0.020042540928011294
1789310169651090400,8.80009033203125,1.5835377498306333,9.677954061982035,-0.0007876475988716265
1789310169661102300,8.810102294921874,1.5844459507167339,9.67779682559371,-0.013089030854037264
1789310169671113200,8.82011328125,1.5826649125188588,9.67807564253509,-0.020277911453309934
1789310169681125400,8.83012548828125,1.5816409762986003,9.678231125357746,-0.025167135666438842
1789310169691136300,8.84013623046875,1.5803165958270429,9.678438046106695,-0.028983323820575606
1789310169701147400,8.8501474609375,1.5791244634330273,9.678619832414388,-0.03290063197833951
1789310169711159300,8.8601591796875,1.5761653213664888,9.679103232017159,-0.03253834485445404
1789310169721170400,8.87017041015625,1.5726899003408847,9.679688922950625,-0.02569576721700141
1789310169731182300,8.880182373046875,1.5701694419525563,9.680122638192772,-0.013218469344917685
1789310169741193200,8.890193115234375,1.57063369846344,9.680056587219237,0.003258310244903259
1789310169751204400,8.900204345703125,1.5732460729189217,9.679607674407958,0.022251449149136897
1789310169761216500,8.910216552734376,1.574960037229955,9.679263391014933,0.04167452930482104
1789310169771227400,8.920227294921874,1.571978098809719,9.679645083808898,0.060993037124467075
1789310169781239300,8.9302392578125,1.5672851186878978,9.680255909183622,0.08144009231631644
1789310169791250200,8.940250244140625,1.5636366791829466,9.680646954327822,0.10239269044408573
1789310169801261300,8.95026123046875,1.5632359894275665,9.680455231148004,0.1243618726027198
1789310169811273200,8.960273193359376,1.5642454587310552,9.679954880410433,0.1482749827702064
1789310169821284400,8.970284423828126,1.5638422847576439,9.679553313872217,0.17613712282441554
1789310169831296500,8.980296630859375,1.5622453709550201,9.679310152766108,0.20182581869652494
1789310169841307400,8.990307373046875,1.5589793548963964,9.679346393123268,0.22417340571349487
1789310169851319800,9.00031982421875,1.5576980829142033,9.679135965242981,0.24144701393442228
1789310169861330700,9.01033056640625,1.5572861411124468,9.678888712483644,0.25371667638821527
1789310169871341800,9.020341796875,1.5573733810044825,9.678587099188565,0.26444641592362894
1789310169881353700,9.030353759765624,1.5582622926682232,9.678229956313967,0.27217249839734287
1789310169891364900,9.04036474609375,1.5595613925680518,9.677895609793067,0.27656892499169333
1789310169901376800,9.050376708984375,1.5612266954317688,9.677596919107437,0.27760676187314093
1789310169911387600,9.0603876953125,1.5621670450218021,9.677499303951858,0.27571424439111725
1789310169921398800,9.070398681640626,1.5616266545347868,9.677695703306794,0.2718623364696279
1789310169931410700,9.08041064453125,1.5618972881697117,9.677824298122525,0.26568945652097464
1789310169941421800,9.090421875,1.5630520111627877,9.677879243180156,0.25672499135872345
1789310169951433700,9.100433837890625,1.5638788173757492,9.678050508093833,0.2449832983017899
1789310169961444900,9.11044482421875,1.5636866558045148,9.678402974793315,0.2319163114578463
1789310169971456800,9.120456787109376,1.562697644767165,9.678850718560815,0.21959365844149142
1789310169981467600,9.130467529296874,1.5632200612060725,9.679003863295913,0.2088238426240161
1789310169991478800,9.140478759765625,1.5650167353644966,9.678938981366157,0.1981155842680484
1789310170001491000,9.150490966796875,1.5665261170141398,9.678934889712929,0.18604750880096108
1789310170011501800,9.160501708984375,1.566699866145849,9.679164606815576,0.17211804164247585
1789310170021513700,9.170513671875,1.5673291039600967,9.679308399200439,0.15769138381788506
1789310170031524600,9.180524658203124,1.5690562200136482,9.679259883883596,0.1427108915028162
1789310170041535700,9.19053564453125,1.5705014503858983,9.679241763705015,0.12724584880750625
1789310170051547600,9.200547607421875,1.5704925364270805,9.679447515410184,0.11058341302117332
1789310170061558800,9.210558837890625,1.5700523914441464,9.679709965738654,0.09244344289503059
1789310170071571000,9.220571044921876,1.5714033676616848,9.679650344505905,0.0739030844076071
1789310170081581800,9.230581787109376,1.574687942290306,9.679241763705015,0.05489282055322546
1789310170091592700,9.2405927734375,1.5768667476341127,9.678987496683002,0.03312049212396378
1789310170101604600,9.2506044921875,1.5771303670063614,9.678997433555125,0.00800873077341821
1789310170111615700,9.26061572265625,1.576458605224639,9.679092126101255,-0.01787899023555219
1789310170121628000,9.2706279296875,1.5750192200712858,9.67924994701147,-0.04274530947464518
1789310170131638800,9.280638671875,1.575732921298593,9.679004447817801,-0.06558781300224363
1789310170141650700,9.290650634765624,1.579153835657984,9.6782790561527,-0.08701677820379845
1789310170151661800,9.300661865234375,1.5830335997007787,9.677443774372339,-0.10722346246824599
1789310170161672700,9.310672607421875,1.58541362670511,9.676818335950374,-0.12660860121673903
1789310170171684900,9.320684814453125,1.5861137377984822,9.67645242524743,-0.14450840591145678
1789310170181695700,9.33069580078125,1.5856176248446106,9.676261871111393,-0.1617219179756008
1789310170191708000,9.3407080078125,1.5868489202052354,9.675698976531624,-0.1820316242231056
1789310170201718800,9.35071875,1.5915947995580733,9.674543376755715,-0.2009991951466538
1789310170211729700,9.360729736328125,1.5961146150700747,9.673523970580101,-0.21388242292152718
1789310170221741600,9.370741455078125,1.5981433444187043,9.673055768546462,-0.2198521997798234
1789310170231753000,9.3807529296875,1.5971895508252083,9.673238139376044,-0.2187474351420067
1789310170241764900,9.390764892578124,1.5945402053602038,9.673797526824474,-0.21325229005813598
1789310170251775700,9.400775634765624,1.5920817062921822,9.67432651913464,-0.20750037546791136
1789310170261787600,9.41078759765625,1.5918642641492187,9.67447381865084,-0.202209155458305
1789310170271798800,9.420798828125,1.5915677654206752,9.674688338184357,-0.19416193300513548
1789310170281810000,9.430809814453125,1.5900898018226026,9.675170568743347,-0.18182479480570182
1789310170291821800,9.44082177734375,1.5871056714452803,9.675976039907336,-0.1641811111633666
1789310170301832700,9.450832763671874,1.582094857545942,9.677109427851438,-0.14467588969916104
1789310170311844900,9.460844970703125,1.5763307410612701,9.678332247644663,-0.12434584391652606
1789310170321855700,9.470855712890625,1.5717575879268346,9.679341132426261,-0.10165031111156567
1789310170331866600,9.48086669921875,1.5687341484524309,9.680059509828686,-0.07691334474002942
1789310170341878500,9.49087841796875,1.5667466278970241,9.680561614131927,-0.04916779396992642
1789310170351890000,9.500889892578124,1.564769774866104,9.68098656154573,-0.019656402571080252
1789310170361901800,9.51090185546875,1.5599527299731968,9.681778588706255,0.00932476411256066
1789310170371912700,9.52091259765625,1.5537226034119724,9.682712654685973,0.037558670934231486
1789310170381924900,9.5309248046875,1.5485390632942317,9.683395960775018,0.06524180344301275
1789310170391935700,9.540935791015626,1.5456221529342233,9.683625093355774,0.09395509870015084
1789310170401947000,9.55094677734375,1.544007995735854,9.683529816287756,0.1252852801911067
1789310170411958800,9.560958740234375,1.54254625262022,9.68327964091897,0.15820282220505177
1789310170421969700,9.5709697265625,1.5396743504457175,9.68314636992812,0.19094596663331612
1789310170431981800,9.58098193359375,1.5356122155733405,9.683096685567497,0.22341539042042566
1789310170441992700,9.59099267578125,1.5322171663075685,9.6828301435858,0.2559608385858126
1789310170452003800,9.60100390625,1.5297102980531752,9.682281277531384,0.28946247323118146
1789310170462015700,9.611015625,1.528640769125521,9.681347796073556,0.32425902479160573
1789310170472027000,9.62102685546875,1.5281963863588868,9.680137835761904,0.3604541180383414
1789310170482038800,9.631038818359375,1.5254527867391705,9.67917629725337,0.3961696841398254
1789310170492049700,9.641049560546875,1.5221763954170047,9.678229956313967,0.43035731002166866
1789310170502061800,9.651061767578126,1.5202861977562308,9.676833533519506,0.4668960290743038
1789310170512072700,9.66107275390625,1.520303295021504,9.674920393374562,0.5049667434671894
1789310170522083800,9.671083740234375,1.5216183231428264,9.672619130694866,0.5436177419660613
1789310170532095700,9.681095703125,1.521441066879779,9.670382749944924,0.5824981287740171
1789310170542107000,9.69110693359375,1.5208046686723828,9.668120650231838,0.6204639214877039
1789310170552118800,9.701118896484376,1.5204752905875443,9.665584994274377,0.6595579875789582
1789310170562129700,9.711129638671874,1.5223038211889564,9.662658293172717,0.6971505630660801
1789310170572141600,9.7211416015625,1.527699104361236,9.658963530308007,0.7354868695925921
1789310170582153000,9.731153076171875,1.5332985318034886,9.654919223353266,0.775836780963838
1789310170592163800,9.741163818359375,1.5356849885486066,9.65120049509108,0.8163171868469565
1789310170602175700,9.75117578125,1.5368702528104186,9.647356679144501,0.8584452868718654
1789310170612186600,9.7611865234375,1.5406687683105469,9.64273311099708,0.9024568625558167
1789310170622198800,9.77119873046875,1.54491049753353,9.638048168051242,0.9442854681774974
1789310170632209700,9.781209716796875,1.5525142505355178,9.632928925341368,0.9832305542521178
1789310170642220800,9.791220703125,1.5583254210323094,9.628087330529093,1.0207576632875948
1789310170652232700,9.801232666015625,1.562737099994719,9.623657823649049,1.0552091642700134
1789310170662243800,9.811243896484376,1.567114292165637,9.61900912106037,1.0905092449057847
1789310170672255700,9.821255859375,1.5722287125699221,9.614131285890936,1.1255967057041822
1789310170682266600,9.8312666015625,1.5786590378783643,9.609206104448438,1.1581790518138557
1789310170692277800,9.84127783203125,1.5857563026629387,9.604138299664854,1.190077580377832
1789310170702290000,9.8512900390625,1.5902375397302209,9.599401334270834,1.221892083920166
1789310170712300800,9.86130078125,1.5936604999162256,9.595056583064794,1.2511974541857838
1789310170722312700,9.871312744140624,1.5953580976143478,9.591106384134292,1.2790262490928173
1789310170732323600,9.881323486328125,1.599070250005275,9.587000117859244,1.3049145774565636
1789310170742335700,9.891335693359375,1.6031044739574194,9.583285481250286,1.327053344028443
1789310170752347000,9.901346923828125,1.607090620984137,9.579841478276252,1.346955875980854
1789310170762357800,9.911357666015626,1.6095470742255449,9.57714215618968,1.3631214133620262
1789310170772370000,9.921369873046874,1.6091403931207955,9.57510685096979,1.3778174627125261
1789310170782380800,9.931380859375,1.6076057308994232,9.573241057097912,1.3924914463616906
1789310170792392700,9.941392822265625,1.6073597933143375,9.571666355127096,1.4035612680390477
1789310170802403600,9.951403564453125,1.6083657554864883,9.570790741336346,1.4083733444958924
1789310170812414700,9.961414794921875,1.6064996693536637,9.571115150985122,1.4083018866948782
1789310170822427000,9.971427001953124,1.6020499964684247,9.572437924021482,1.4043627936802803
1789310170832437800,9.981437744140624,1.595642029122263,9.574525251689552,1.397412536150962
1789310170842449700,9.99144970703125,1.5906727162770926,9.576722469472884,1.387991358463466
1789310170852460500,10.00146044921875,1.587657021717727,9.578871171939372,1.3765797376111149
1789310170862472400,10.011472412109375,1.5850690510511398,9.581260112902521,1.3628653927743435
1789310170872483600,10.021483642578126,1.5791054664716124,9.584653846994042,1.3458167889483272
1789310170882494700,10.03149462890625,1.572514543773979,9.588606968533993,1.3252223292089997
1789310170892506600,10.041506591796875,1.5669341132931411,9.59282487848997,1.301082305817306
1789310170902517500,10.051517578125,1.5625586746878921,9.597103578722477,1.2745201698452233
1789310170912529700,10.06152978515625,1.5575107436485587,9.60159270683527,1.2465791467353702
1789310170922540500,10.07154052734375,1.5489710249707103,9.606754619643091,1.21709834683761
1789310170932551700,10.0815517578125,1.539633287782967,9.612111178240179,1.1862624060038476
1789310170942563600,10.0915634765625,1.5312315162710846,9.617319268277287,1.1545032128453254
1789310170952574500,10.101574462890625,1.5249585734814404,9.622073184806109,1.1227666699100285
1789310170962586600,10.111586669921875,1.5186299549818039,9.62680664306879,1.0902984516993164
1789310170972597500,10.121597412109375,1.5120923699066042,9.631732993555069,1.0553206618204711
1789310170982609400,10.131609375,1.5033790482275187,9.637088383108377,1.0182312866151333
1789310170992620800,10.141620849609374,1.4967561229564248,9.642076108393072,0.9800313198193907
1789310171002631700,10.151631591796875,1.4908528902620077,9.646721888372301,0.9426129318553954
1789310171012643600,10.1616435546875,1.486083191642165,9.650881930661201,0.9068790629122405
1789310171022654500,10.171654541015625,1.4808793393887578,9.65470879547298,0.8740607160896062
1789310171032666600,10.18166650390625,1.4771740551300345,9.658151629403234,0.8417018034722655
1789310171042677800,10.191677734375,1.4761838750489056,9.661211016973853,0.8076276113696396
1789310171052688600,10.201688720703125,1.4739220675967633,9.664545129832625,0.771048523773998
1789310171062700500,10.211700439453125,1.4690132527671753,9.668039986211062,0.7357892866052687
1789310171072711700,10.221711669921875,1.4635015036083756,9.671406832295656,0.7017392060305923
1789310171082723600,10.2317236328125,1.4609433435581625,9.67415993039608,0.6683321725998074
1789310171092734500,10.241734375,1.4625355811856686,9.676095866894721,0.6360548007860779
1789310171102746400,10.251746337890625,1.4647892053313551,9.677840664735436,0.6034811859721317
1789310171112757800,10.2617578125,1.4650672916203737,9.679782446452975,0.5707592121960595
1789310171122768600,10.2717685546875,1.462872265794128,9.68193757866025,0.5389632672237232
1789310171132780500,10.281780517578126,1.4592323018565774,9.684149994012714,0.5082068944321945
1789310171142791400,10.29179150390625,1.456516467026621,9.686078331726788,0.4783739931611344
1789310171152803600,10.301803466796875,1.454783213493228,9.68775474050641,0.44879744127132
1789310171162814700,10.311814697265625,1.4539350722312927,9.689133043122292,0.42091965612340715
1789310171172825600,10.32182568359375,1.4556880533784626,9.690045481792092,0.3929090749086812
1789310171182837500,10.33183740234375,1.4592122819818556,9.69047802799046,0.3683913773110136
1789310171192848600,10.3418486328125,1.461766642639786,9.690877256441116,0.34718320612013337
1789310171202860500,10.351860595703124,1.4628363176979124,9.691358317956327,0.3287087707420811
1789310171212871400,10.361871337890625,1.4639996623888611,9.691683896648883,0.31362985955383627
1789310171222883600,10.371883544921875,1.467175954337418,9.691661100295185,0.2991204370829277
1789310171232894700,10.381894775390625,1.470662773539871,9.691564069661498,0.28483773603998125
1789310171242905600,10.391905517578126,1.4717887088298798,9.691748194056748,0.2724722302625887
1789310171252917500,10.40191748046875,1.470740076559782,9.692206459218262,0.26163356872629373
1789310171262928400,10.411928466796875,1.4717064373739064,9.692314595767854,0.252042295168899
1789310171272940500,10.4219404296875,1.4754722196482122,9.691924135145545,0.24488489769492297
1789310171282951700,10.43195166015625,1.4776036787189541,9.691742348837852,0.23913641717080025
1789310171292962600,10.441962646484376,1.4785210858248172,9.69170727752447,0.23483809892237184
1789310171302974700,10.451974609375,1.476923295239359,9.692010644385219,0.2324274758503772
1789310171312985600,10.461985595703124,1.4750193613141773,9.692306412461399,0.23213828364545477
1789310171322997500,10.47199755859375,1.4732584891214966,9.692559510439633,0.2327156451419927
1789310171333008600,10.482008544921875,1.4735558646328746,9.692505149903893,0.23314475727425887
1789310171343020800,10.492020751953126,1.4754782109975815,9.69221230443716,0.23316837561186401
1789310171353031700,10.50203173828125,1.4794273870147763,9.691580436274409,0.23443209367105736
1789310171363042600,10.51204248046875,1.48112264662534,9.691267132541537,0.23660474326871334
1789310171373054500,10.522054443359375,1.4781640890806913,9.69167395977676,0.2384260221454315
1789310171383065600,10.532065673828125,1.475924493460357,9.691966220721602,0.24047120943851769
1789310171393077500,10.542077392578125,1.4776068935893476,9.691655839598178,0.24265816155616193
1789310171403088600,10.552088623046876,1.4809212788343429,9.691100543802976,0.2446090033629909
1789310171413099500,10.562099609375,1.482916544304788,9.690744569972157,0.24659500781474633
1789310171423111700,10.572111572265625,1.48350501171723,9.69058967167139,0.2491100959082134
1789310171433122600,10.58212255859375,1.4828944786034524,9.690632926291228,0.25104805996716023
1789310171443134500,10.592134521484375,1.4813403810292483,9.690900637316703,0.24990683577647432
1789310171453145600,10.6021455078125,1.481140036151558,9.690980132293701,0.2480341007071547
1789310171463157800,10.61215771484375,1.4813064787596464,9.691014034563302,0.24574706748221067
1789310171473168600,10.622168701171875,1.482583512958139,9.690914081320166,0.2419421405076049
1789310171483179500,10.632179443359375,1.483593420653045,9.690848614868521,0.2383067066146992
1789310171493191400,10.64219140625,1.482435190528631,9.69107482483983,0.236294782270398
1789310171503202600,10.65220263671875,1.4801904803417623,9.691406833273172,0.23675531245423478
1789310171513214500,10.66221435546875,1.480346401555836,9.691344873952865,0.238334708866477
1789310171523225600,10.6722255859375,1.483275586875528,9.69096201211512,0.2356356425082311
1789310171533237800,10.68223779296875,1.4858463141463696,9.690689624914526,0.2305726234976202
1789310171543248600,10.69224853515625,1.4864122774660586,9.690725865271688,0.22532935254927725
1789310171553259500,10.702259521484375,1.4840966940000653,9.69114847459793,0.22246181602263823
1789310171563271400,10.712271484375,1.4827239443421363,9.691358902478218,0.2224222694635391
1789310171573282600,10.722282470703124,1.4826165384449064,9.691388128572703,0.22182981999572365
1789310171583294700,10.732294677734375,1.4835137795455753,9.691301034811138,0.21970997829753905
1789310171593305600,10.7423056640625,1.4847705016084014,9.691078916493058,0.22100504134306684
1789310171603316500,10.75231640625,1.4874401592090725,9.690566290795802,0.22546622200300917
1789310171613328600,10.76232861328125,1.4887237692788242,9.690307932120561,0.22811330244569106
1789310171623339800,10.77233984375,1.4872215480223296,9.690549924182891,0.2276014987323433
1789310171633351700,10.7823515625,1.4838032640114425,9.691097621193528,0.22658269534492864
1789310171643362600,10.792362548828125,1.4809350150987506,9.691538350698352,0.22653169581005347
1789310171653374700,10.802374755859375,1.4813168540231882,9.691511462691425,0.2251850304414518
1789310171663385600,10.812385498046876,1.4828411409810185,9.691341366821527,0.22241662517404182
1789310171673396500,10.822396484375,1.4834886451043188,9.691270055150985,0.2211925632718019
1789310171683408400,10.832408447265625,1.4844053215578197,9.691078331971168,0.22349647456631064
1789310171693419800,10.842419677734375,1.4882500142872332,9.690396779447793,0.22742694588303564
1789310171703431700,10.852431640625,1.4879647676050662,9.690391518750786,0.229521744471509
1789310171713442600,10.862442626953126,1.4822370376080274,9.691277069413662,0.22919658590406178
1789310171723453400,10.872453369140626,1.4778760659195482,9.691947516021132,0.22896394619196653
1789310171733465600,10.882465576171874,1.4795251483008265,9.691706108480691,0.22856535706212744
1789310171743476700,10.892476806640625,1.4822082499049603,9.691322662121056,0.2274181232557632
1789310171753488600,10.902488525390625,1.4802202909581363,9.691599140974878,0.2285876967580989
1789310171763499500,10.91249951171875,1.475999312262237,9.692177233123779,0.2313017049571499
1789310171773511700,10.92251171875,1.4722406903810799,9.692675245773792,0.23437789753209798
1789310171783522600,10.9325224609375,1.4724172159917652,9.692614455497264,0.23581784894103183
1789310171793533400,10.942533447265625,1.4733072966992855,9.69256535565853,0.2322505483808927
1789310171803545600,10.952545654296875,1.4741186130821704,9.692572954443097,0.22672840569224206
1789310171813556700,10.962556640625,1.473556010763347,9.69271674682796,0.22421492503397164
1789310171823568600,10.972568603515626,1.4720922218210994,9.692898533135653,0.22596870989874004
1789310171833579500,10.98257958984375,1.4702582843922078,9.693146954938769,0.22720305573297664
1789310171843590400,10.99259033203125,1.4675233064703643,9.693632692629098,0.2241507189576514
1789310171853602600,11.0026025390625,1.465849235778302,9.693993342635036,0.21948435284812
1789310171863613700,11.01261376953125,1.4665955241009592,9.693953595146537,0.21619577789781613
1789310171873625900,11.0226259765625,1.4680821093969045,9.693754273182153,0.21504735678136347
1789310171883636700,11.03263671875,1.4684548882320523,9.693707511430977,0.21460907496195286
1789310171893648600,11.042648681640625,1.467045605956018,9.693935474967956,0.2139662652800791
1789310171903659800,11.05265966796875,1.4657853767618536,9.694138888585567,0.21340280444473028
1789310171913670700,11.062670654296875,1.46697634011209,9.693958855843544,0.21339292237153276
1789310171923682800,11.072682861328126,1.4685102716811,9.693731476828455,0.21314610800361258
1789310171933693700,11.082693603515626,1.4662427651405334,9.694106155359744,0.21174102697866037
1789310171943705900,11.092705810546875,1.4630072903506457,9.694630471494794,0.21005716554494575
1789310171953716700,11.102716796875,1.460429256556183,9.695081137871743,0.2071929169539362
1789310171963728600,11.112728759765625,1.4624693840816616,9.694833300590515,0.2044054416598752
1789310171973739500,11.122739501953125,1.465588246754557,9.694404846045375,0.20236356056872754
1789310171983751000,11.1327509765625,1.4668294789873062,9.694273913142084,0.19968438622104004
1789310171993762800,11.1427626953125,1.4643949453167617,9.694704705774784,0.19651074288729578
1789310172003773700,11.152773681640625,1.4598697229772806,9.695442372399569,0.19380497279362752
1789310172013785900,11.162785888671875,1.4561482182361185,9.696066057255864,0.19057908781599253
1789310172023796700,11.172796630859375,1.453369255042076,9.696581021040677,0.18547588292546568
1789310172033808000,11.182807861328126,1.4548182848066091,9.696473469012975,0.1796893171469681
1789310172043819800,11.19281982421875,1.4582231248140334,9.696060796558857,0.17430296619981525
1789310172053830700,11.20283056640625,1.461624603820592,9.695657476454972,0.16808166226586327
1789310172063842800,11.2128427734375,1.4612525556378066,9.69581062119007,0.16248667353671042
1789310172073853700,11.222853759765625,1.4580090436719357,9.696375853857397,0.1577219981518574
1789310172083865600,11.232865478515626,1.45538074099496,9.696859253460168,0.15220384665173478
1789310172093876700,11.242876708984374,1.456225667386502,9.69683587258458,0.14555839902157894
1789310172103888000,11.252887939453124,1.4586736450605093,9.696574006778,0.13825423175436444
1789310172113899800,11.262899658203125,1.4589429635211824,9.696638888707756,0.13069472888605668
1789310172123910700,11.27291064453125,1.459202783501148,9.696702601593731,0.12286536870095878
1789310172133922800,11.2829228515625,1.4602194131977855,9.696645318448542,0.1148730913054198
1789310172143933700,11.29293359375,1.4602721662983298,9.696737088385223,0.10622923639966174
1789310172153944800,11.30294482421875,1.4590559223763644,9.697019996979831,0.096742281733267
1789310172163956700,11.312956787109375,1.4601228209555148,9.696944009134173,0.08781295181647873
1789310172173968000,11.3229677734375,1.4636736453048884,9.696480483275652,0.07940853168978355
1789310172183979800,11.332979736328125,1.4687411578275262,9.695788993880152,0.06983553814117331
1789310172193990700,11.34299072265625,1.4714119844719766,9.695449386662244,0.05984304053885862
1789310172204002600,11.35300244140625,1.4712870429180562,9.695524789986013,0.050021520155854524
1789310172214013700,11.363013671875,1.470311037492752,9.69572002029717,0.03979457447684835
1789310172224024800,11.37302490234375,1.4727676368646323,9.695387427341938,0.028420673552691005
1789310172234036700,11.38303662109375,1.4763218222148715,9.69487597068846,0.015651351056137353
1789310172244047600,11.393047607421876,1.4769444841578603,9.694792968580126,0.001999705896011437
1789310172254059800,11.403059814453124,1.477574160363525,9.694688339161873,-0.012901246347109553
1789310172264070700,11.413070556640625,1.4804561455406249,9.694218383562564,-0.027746635332203003
1789310172274082600,11.42308251953125,1.4839657610967754,9.693623924800754,-0.0434071983163245
1789310172284093700,11.43309375,1.4844434616111217,9.693465519368647,-0.059583572185342194
1789310172294104800,11.443104736328126,1.483646027623117,9.69348013241589,-0.07498626740127802
1789310172304116700,11.45311669921875,1.4860489971116184,9.692972182893753,-0.09134610351184383
1789310172314127600,11.463127685546874,1.4911862138696015,9.692004214644431,-0.10870737174991518
1789310172324139800,11.473139892578125,1.4972536972150206,9.690848614868521,-0.12677881581764666
1789310172334151000,11.48315087890625,1.5045992376722395,9.689461544424296,-0.14452316508917137
1789310172344161800,11.493161865234375,1.510834917191416,9.688211836624145,-0.16218655807897447
1789310172354173700,11.503173583984376,1.5152597478963434,9.687185416185855,-0.18108471702812237
1789310172364184600,11.5131845703125,1.5158045222975314,9.686693833276628,-0.20170997376451266
1789310172374196700,11.52319677734375,1.5166943107441067,9.686073655551672,-0.22360245569143444
1789310172384207600,11.53320751953125,1.5207318956971168,9.684903442728519,-0.24575148792900145
1789310172394219500,11.543219482421875,1.5290663010612129,9.683009007284044,-0.26770339015927164
1789310172404231000,11.55323095703125,1.5361315632723271,9.681288174840807,-0.2886704095380381
1789310172414241800,11.56324169921875,1.5410837788522243,9.679912210312485,-0.3078394030515104
1789310172424253700,11.573253662109375,1.544750046274811,9.678713355916738,-0.3265176539059728
1789310172434264600,11.5832646484375,1.548931131351739,9.677354927045107,-0.3464056824089959
1789310172444276700,11.59327685546875,1.552986690352857,9.67594798285663,-0.3669503847224638
1789310172454288000,11.603287841796876,1.555699602573365,9.674699444100261,-0.3878170489992946
1789310172464299800,11.6132998046875,1.559422568619251,9.673260351207851,-0.408209446827881
1789310172474310700,11.623310546875,1.5644005031622945,9.671655254098772,-0.426752052071318
1789310172484321800,11.63332177734375,1.5696559394724665,9.669989951235056,-0.44483189864121375
1789310172494333700,11.643333740234375,1.5730755386576056,9.668580084437131,-0.46300588976796714
1789310172504344600,11.653344482421875,1.5760370188117026,9.667214056780933,-0.4811017376245931
1789310172514356700,11.663356689453124,1.5801916542731225,9.665603698974847,-0.49949225757885723
1789310172524368000,11.673367919921875,1.5851301335886119,9.663820322689414,-0.5180205055033787
1789310172534378800,11.683378662109375,1.5906505044452846,9.661903090891242,-0.5365240573780611
1789310172544390700,11.693390625,1.5974639838524163,9.65977952286601,-0.5542297734059393
1789310172554401500,11.703401611328125,1.6031310697034,9.657934771782159,-0.5697712971372529
1789310172564413700,11.71341357421875,1.6053199580498039,9.656748776867985,-0.583540587031655
1789310172574424800,11.7234248046875,1.6061400422610341,9.655838091763853,-0.5962408959876746
1789310172584436700,11.733436767578125,1.6108296613819897,9.654209029257297,-0.6098095487434416
1789310172594447600,11.743447509765625,1.6186217765629292,9.65204045304656,-0.6233608119729906
1789310172604458800,11.753458740234375,1.6252217593498528,9.650110361766815,-0.635936654299125
1789310172614470700,11.763470703125,1.6299325673893093,9.648568977543711,-0.6471575018197298
1789310172624481800,11.773481689453124,1.6336096484668552,9.64735784818828,-0.6558923777434974
1789310172634494000,11.783493896484375,1.6365693750552832,9.64629343382716,-0.6641197425365447
1789310172644504800,11.7935048828125,1.6385381909102201,9.645354107150435,-0.6728299954757094
1789310172654516700,11.803516845703125,1.6407349703021346,9.644373279419542,-0.6815065653409809
1789310172664527600,11.813527587890626,1.6437075563721357,9.643452657443284,-0.6873411897785962
1789310172674538500,11.82353857421875,1.6479530849874018,9.642456632143258,-0.691132325689867
1789310172684550700,11.833550537109375,1.651063910484314,9.641672788289188,-0.6946338310047984
1789310172694561800,11.843561767578125,1.6533737948618827,9.641032736819982,-0.6980122944619506
1789310172704573700,11.85357373046875,1.6550300376363098,9.640508420684933,-0.7013155007258057
1789310172714584800,11.863584716796876,1.6562436512097716,9.640119129106402,-0.7037964308213442
1789310172724596700,11.8735966796875,1.654551168078184,9.640325465333461,-0.7049500578358769
1789310172734607600,11.883607666015624,1.65109445175305,9.640863809993862,-0.7057051870521157
1789310172744618800,11.89361865234375,1.6514372738413512,9.640824062505365,-0.705439448788017
1789310172754631000,11.903630859375,1.6536396061912177,9.64077613171041,-0.7009219713635743
1789310172764641800,11.913641845703125,1.654676255762577,9.64103507490754,-0.6948794763289392
1789310172774653700,11.92365380859375,1.6532124668203294,9.641704352471232,-0.6890666983969509
1789310172784664600,11.93366455078125,1.6496126887626945,9.642644848191738,-0.6845085236359387
1789310172794676700,11.9436767578125,1.648173157478869,9.643300681751965,-0.6787102126207202
1789310172804687600,11.9536875,1.6476963337473571,9.644061144730449,-0.669002326946333
1789310172814698800,11.96369873046875,1.6462123787999152,9.645181088671087,-0.6563802343256772
1789310172824710700,11.973710693359376,1.64350867279917,9.646606153038144,-0.6420625898335128
1789310172834721800,11.9837216796875,1.6393455617703496,9.648317048609256,-0.6267994811847806
1789310172844733700,11.993733642578125,1.633097315030545,9.65035995261371,-0.6114903779698535
1789310172854744800,12.003744873046875,1.624991749986261,9.652724928179383,-0.5955459725260734
1789310172864756700,12.0137568359375,1.620097109812498,9.654568510219454,-0.5787796562401577
1789310172874768000,12.023767822265626,1.6191998687118292,9.655765026527643,-0.5610547971203923
1789310172884778800,12.03377880859375,1.6176016397349535,9.657022917634249,-0.5437280704727396
1789310172894791000,12.043791015625,1.6135045796796679,9.658615155261755,-0.5273846923066303
1789310172904801800,12.0538017578125,1.6084822214730083,9.660383333978057,-0.5100746975980699
1789310172914813700,12.063813720703125,1.6023868272073567,9.662309918126462,-0.49244401956778017
1789310172924824800,12.073824951171876,1.595715532749891,9.664229488012195,-0.47618181687910105
1789310172934836000,12.0838359375,1.591285295217484,9.665775548410416,-0.4592979751607403
1789310172944848000,12.093847900390625,1.589768314783275,9.66681015215516,-0.442524863807857
1789310172954858800,12.103858642578125,1.5885587928630411,9.667733696740866,-0.4263854107160121
1789310172964871000,12.113870849609375,1.5859594240196049,9.668812139627336,-0.4113215874990448
1789310172974881800,12.1238818359375,1.5813267957828938,9.670062431949377,-0.3995898313142359
1789310172984893700,12.133893798828124,1.576621832962334,9.671263039910793,-0.3890168532431125
1789310172994904800,12.14390478515625,1.5718674780420958,9.672430914646387,-0.3790524720570072
1789310173004916000,12.153916015625,1.5671569622635841,9.673519294404983,-0.37073889028523116
1789310173014928000,12.163927978515625,1.563704775983095,9.674369189232587,-0.3630310193216428
1789310173024938800,12.173938720703125,1.5627050974212586,9.674735099935532,-0.357535161851719
1789310173034950700,12.18395068359375,1.5591614334650337,9.675496147435902,-0.3523839531010017
1789310173044962000,12.193962158203124,1.5540629412822424,9.676441319331527,-0.34894426097590475
1789310173054974000,12.203973876953125,1.549392757514119,9.677190091872214,-0.3489384157570079
1789310173064984800,12.21398486328125,1.5451831769950688,9.677755909061432,-0.35192338638454673
1789310173074995700,12.22399560546875,1.5419384959854185,9.678070966359972,-0.35746279073525217
1789310173085008000,12.2340078125,1.540623760125041,9.67805693783462,-0.3634238180315122
1789310173095018800,12.244018798828124,1.5412842698603868,9.677727267488837,-0.36933172690104693
1789310173105030700,12.25403076171875,1.543277197243273,9.677132808727025,-0.37655214314125474
1789310173115041800,12.264041748046875,1.5442464806668459,9.676622521117329,-0.3855683202244341
1789310173125054000,12.274053955078125,1.543003348737955,9.676456516900657,-0.39463041880857197
1789310173135064800,12.28406494140625,1.5420925175033509,9.676150811952352,-0.40550544856619086
1789310173145075700,12.29407568359375,1.5401540967866778,9.675981300604343,-0.41678931485302745
1789310173155088000,12.304087890625,1.5408078845202922,9.675359953835606,-0.42861905151959506
1789310173165099000,12.31409912109375,1.5434382330238818,9.674349315488337,-0.4417620262091979
1789310173175111000,12.32411083984375,1.5476489825867115,9.673083825597166,-0.4545478945568204
1789310173185121800,12.334121826171875,1.549584042302519,9.672148006051778,-0.4676977739112451
1789310173195134000,12.344134033203124,1.5496036237858235,9.67143547386825,-0.48212249550707637
1789310173205144800,12.354144775390624,1.5506731527134776,9.670542908942698,-0.4963785094724968
1789310173215155700,12.36415576171875,1.553042804454267,9.669500121891499,-0.5091302563548088
1789310173225168000,12.37416796875,1.5576546821638941,9.668131171625852,-0.5208897407967596
1789310173235179000,12.384178955078125,1.5621712828055023,9.666904844701289,-0.5300607796480878
1789310173245191000,12.39419091796875,1.5658846042402088,9.665866149303316,-0.5379880289833993
1789310173255201800,12.404201904296874,1.5643883743330835,9.66565513690114,-0.5460729530984535
1789310173265213700,12.414213623046875,1.5603952130436896,9.665915249142051,-0.5528619191188365
1789310173275224800,12.424224853515625,1.556332493649423,9.66623381357193,-0.5587039596779272
1789310173285236000,12.434236083984375,1.5567871055491267,9.665876086175441,-0.5636147107362747
1789310173295248000,12.444247802734376,1.5600291562102735,9.665179920604825,-0.5665611394517124
1789310173305258800,12.4542587890625,1.5626426997095346,9.66473860657811,-0.5668943169288337
1789310173315271000,12.46427099609375,1.5636238197013734,9.664669048473238,-0.5653763135813177
1789310173325281800,12.47428173828125,1.5615335694238544,9.665223759746551,-0.5616538955247029
1789310173335293000,12.48429296875,1.560628583408147,9.665754505622386,-0.5550039726488292
1789310173345304800,12.494304931640626,1.5625709496475755,9.665845691037177,-0.5478936657195911
1789310173355316000,12.50431591796875,1.5654652097843587,9.665736969965696,-0.5414887305807322
1789310173365328000,12.514327880859375,1.5667498427674174,9.665886607569455,-0.535083320517838
1789310173375338800,12.5243388671875,1.5644738606594502,9.66671604413092,-0.5266913397476076
1789310173385351000,12.534350830078125,1.5632121701605617,9.667573537743092,-0.5145653235482052
1789310173395361800,12.54436181640625,1.5626749945439398,9.668354458987713,-0.5013485164374113
1789310173405373000,12.554373046875,1.5616494508884846,9.669119013619422,-0.4896661158196628
1789310173415384800,12.564384765625,1.5615652797363697,9.66960942748487,-0.48013650932163
1789310173425395700,12.574395751953125,1.5604514732755719,9.670210900509357,-0.47158425995577125
1789310173435408000,12.584407958984375,1.5588050212427973,9.670964349225162,-0.46147798608094454
1789310173445418800,12.594418701171875,1.5589382922336459,9.671431382215022,-0.45113414059057827
1789310173455430700,12.6044306640625,1.5598615445584059,9.671781510826944,-0.44031025649830696
1789310173465442000,12.614442138671874,1.5584931788146494,9.672431499168276,-0.4307728320199996
1789310173475453000,12.624452880859375,1.5552924830771981,9.673309451046585,-0.4225303427230567
1789310173485464800,12.63446484375,1.55170819484964,9.674250531288981,-0.4140656620427966
1789310173495475700,12.644475830078125,1.549544148683548,9.674954295644163,-0.40565114064719526
1789310173505488000,12.65448779296875,1.5512304943352937,9.675050157234072,-0.39685160198938096
1789310173515498800,12.664498779296874,1.5549869242593646,9.674740360632539,-0.3896573065711185
1789310173525511000,12.674510986328125,1.5574052374474703,9.674624040776491,-0.38278237930033354
1789310173535521800,12.684521728515625,1.5558565467007457,9.675067692890762,-0.37783261140584945
1789310173545533000,12.694532958984375,1.5492993801422417,9.676148473864794,-0.37710948476307093
1789310173555544800,12.704544921875,1.544778833977878,9.676848731088638,-0.37769576021842655
1789310173565555700,12.7145556640625,1.5468119472406803,9.6765278285712,-0.37757878277525303
1789310173575568000,12.72456787109375,1.5528496199697255,9.675541740143299,-0.3780652145853266
1789310173585579000,12.7345791015625,1.5595368426486849,9.674356329751014,-0.38086459951289
1789310173595591000,12.7445908203125,1.563413976342976,9.673584176334739,-0.3845413152642548
1789310173605601800,12.754601806640625,1.562210738033056,9.673670101052522,-0.38729119849428534
1789310173615612700,12.76461279296875,1.558709598044306,9.674172789877652,-0.38884405395947397
1789310173625624800,12.774624755859374,1.5585618601366877,9.674157007786631,-0.38983164022471756
1789310173635636000,12.784635986328125,1.5648643212817608,9.67304057097733,-0.39226412806864824
1789310173645648000,12.79464794921875,1.5710840725794433,9.671955113828181,-0.3941634223513305
1789310173655659000,12.804658935546875,1.576168828497827,9.671074239340424,-0.39547476067822424
1789310173665671000,12.8146708984375,1.5790286018431186,9.670556352946162,-0.39673382082860914
1789310173675681800,12.824681884765624,1.58062054720968,9.670268768176436,-0.3974390099558979
1789310173685692700,12.834692626953125,1.5807393512837589,9.67020505529046,-0.39846769541651006
1789310173695704800,12.844704833984375,1.5831249312460423,9.669751466304064,-0.4000017365833744
1789310173705716000,12.854716064453125,1.588839509500563,9.668771223095058,-0.40104134529680013
1789310173715728000,12.864727783203126,1.593851930835098,9.667927758008242,-0.40151221421156075
1789310173725738800,12.87473876953125,1.5969168713636694,9.6674087025702,-0.40179252899028356
