time,seconds_elapsed,z,y,x
1789310160899886600,0.048886474609375,0.011841213330626488,-0.7962510585784912,0.14998923242092133
1789310160909898500,0.0588984375,0.024147413671016693,-0.8669635653495789,0.16049407422542572
1789310160919909400,0.068909423828125,0.03732526674866676,-0.859409511089325,0.19261525571346283
1789310160929921500,0.078921630859375,0.03449485823512077,-0.8158332705497742,0.2495158165693283
1789310160939932700,0.0889326171875,0.045641787350177765,-0.718705415725708,0.30714476108551025
1789310160949943600,0.098943603515625,0.08821774274110794,-0.6138439774513245,0.34368520975112915
1789310160959955700,0.108955810546875,0.13640683889389038,-0.5962015986442566,0.37486788630485535
1789310160969966600,0.118966552734375,0.16481637954711914,-0.620971143245697,0.4133604168891907
1789310160979977700,0.128977783203125,0.1722274273633957,-0.6652142405509949,0.4674135446548462
1789310160989989600,0.13898974609375,0.16161739826202393,-0.7290970683097839,0.5230746865272522
1789310161000000500,0.14900048828125,0.1329074501991272,-0.799694299697876,0.5786082148551941
1789310161010012700,0.1590126953125,0.09056878089904785,-0.8657731413841248,0.6227319836616516
1789310161020023600,0.1690234375,0.059293150901794434,-0.880017101764679,0.6464716792106628
1789310161030034400,0.179034423828125,0.0832461565732956,-0.7951261401176453,0.624873697757721
1789310161040046600,0.189046630859375,0.10476475954055786,-0.769519031047821,0.5321033000946045
1789310161050057700,0.1990576171875,0.08516602963209152,-0.9385775923728943,0.4123007357120514
1789310161060068600,0.209068603515625,0.042284607887268066,-1.1938908100128174,0.3127850592136383
1789310161070080500,0.21908056640625,0.022065887227654457,-1.3389811515808105,0.25126099586486816
1789310161080091400,0.22909130859375,0.006918360013514757,-1.3908449411392212,0.2252296507358551
1789310161090103600,0.239103515625,-0.026748523116111755,-1.4202404022216797,0.20984697341918945
1789310161100114700,0.24911474609375,-0.07469687610864639,-1.4609798192977905,0.20148997008800507
1789310161110125600,0.25912548828125,-0.13490642607212067,-1.5227645635604858,0.18175195157527924
1789310161120137700,0.2691376953125,-0.18175755441188812,-1.5267455577850342,0.13966362178325653
1789310161130148600,0.279148681640625,-0.15929538011550903,-1.3656575679779053,0.048589639365673065
1789310161140159500,0.289159423828125,-0.0757453590631485,-1.0468454360961914,-0.07417196780443192
1789310161150171400,0.29917138671875,0.008903213776648045,-0.6121219992637634,-0.20774680376052856
1789310161160182500,0.3091826171875,0.0230557844042778,-0.18282467126846313,-0.3246297538280487
1789310161170193700,0.319193603515625,-0.06173393875360489,0.09460320323705673,-0.4103925824165344
1789310161180205600,0.32920556640625,-0.20441626012325287,0.002719353651627898,-0.429139643907547
1789310161190216400,0.339216552734375,-0.46220892667770386,-0.37017354369163513,-0.36283546686172485
1789310161200228600,0.349228515625,-0.6918692588806152,-0.6223804950714111,-0.15928685665130615
1789310161210239700,0.35923974609375,-0.824287474155426,-0.6346669793128967,0.08441208302974701
1789310161220250600,0.369250732421875,-1.0399771928787231,-0.524742841720581,0.2917468845844269
1789310161230262500,0.379262451171875,-1.1231958866119385,-0.08276225626468658,0.5124768614768982
1789310161240273700,0.389273681640625,-1.1130257844924927,0.21370190382003784,0.6989418268203735
1789310161250284500,0.399284423828125,-1.0862035751342773,0.3269730508327484,0.8127917051315308
1789310161260296700,0.409296630859375,-1.042771577835083,0.40917739272117615,0.8857948184013367
1789310161270307600,0.4193076171875,-0.9429246783256531,0.5263450145721436,0.9083312749862671
1789310161280319700,0.42931982421875,-0.7989352941513062,0.6225695610046387,0.8745197653770447
1789310161290330600,0.43933056640625,-0.6874969005584717,0.6213626265525818,0.7794678211212158
1789310161300341500,0.449341552734375,-0.6237296462059021,0.47529542446136475,0.6278833746910095
1789310161310353400,0.459353515625,-0.5596944689750671,0.2654511034488678,0.46235859394073486
1789310161320364800,0.46936474609375,-0.46397697925567627,0.12502795457839966,0.3128441870212555
1789310161330375700,0.479375732421875,-0.30726033449172974,0.12243883311748505,0.18156899511814117
1789310161340387600,0.4893876953125,-0.12059379369020462,0.0643819198012352,0.01716007851064205
1789310161350398500,0.4993984375,-0.013858557678759098,0.05836503952741623,-0.15834437310695648
1789310161360410600,0.50941064453125,0.006238188594579697,0.08077766746282578,-0.29390671849250793
1789310161370421800,0.519421875,0.019238142296671867,0.04536055773496628,-0.38045811653137207
1789310161380432600,0.5294326171875,0.04526707902550697,0.039252329617738724,-0.38743719458580017
1789310161390444500,0.539444580078125,0.05259529873728752,0.07079534232616425,-0.3580358922481537
1789310161400455700,0.54945556640625,0.02466406673192978,0.13559217751026154,-0.30551597476005554
1789310161410466600,0.559466552734375,-0.010511230677366257,0.19304002821445465,-0.24241024255752563
1789310161420478500,0.569478515625,-0.03489033877849579,0.2193422019481659,-0.20397257804870605
1789310161430489600,0.579489501953125,-0.05331115797162056,0.22600729763507843,-0.17208680510520935
1789310161440501800,0.589501708984375,-0.07535307854413986,0.1668718010187149,-0.11974877119064331
1789310161450512600,0.5995126953125,-0.10206591337919235,0.06256271153688431,-0.033673807978630066
1789310161460523500,0.6095234375,-0.14670182764530182,-0.06416114419698715,0.10702898353338242
1789310161470535400,0.619535400390625,-0.21967163681983948,-0.12101217359304428,0.36083728075027466
1789310161480546800,0.629546875,-0.2525467574596405,-0.14328178763389587,0.4973703622817993
1789310161490557700,0.6395576171875,-0.25492575764656067,-0.1271345168352127,0.5605605244636536
1789310161500569600,0.649569580078125,-0.2446129471063614,-0.04814915359020233,0.5384344458580017
1789310161510580500,0.65958056640625,-0.22004102170467377,0.05624516308307648,0.4573148190975189
1789310161520591600,0.669591552734375,-0.1846896857023239,0.10820210725069046,0.3693127930164337
1789310161530603500,0.679603515625,-0.15209072828292847,0.07418794184923172,0.2957802414894104
1789310161540614700,0.68961474609375,-0.12213443219661713,0.060858823359012604,0.23286014795303345
1789310161550625500,0.69962548828125,-0.07681834697723389,0.07702607661485672,0.14649756252765656
1789310161560637700,0.7096376953125,-0.05439320206642151,0.12503275275230408,0.07327181845903397
1789310161570648600,0.719648681640625,-0.0706440731883049,0.16849154233932495,0.019461847841739655
1789310161580660500,0.729660400390625,-0.08410129696130753,0.14466503262519836,0.002846652874723077
1789310161590671600,0.739671630859375,-0.08216837048530579,0.0771203488111496,0.022823557257652283
1789310161600682500,0.7496826171875,-0.09613612294197083,0.01619308441877365,0.07350298017263412
1789310161610694700,0.759694580078125,-0.13531148433685303,-0.009978864341974258,0.1412668526172638
1789310161620705500,0.76970556640625,-0.17463652789592743,0.010840663686394691,0.19262351095676422
1789310161630716700,0.779716552734375,-0.19122667610645294,0.04754940792918205,0.19628189504146576
1789310161640728800,0.789728759765625,-0.17644640803337097,0.05613410845398903,0.16453514993190765
1789310161650739700,0.79973974609375,-0.15955877304077148,0.0159443449229002,0.11600782722234726
1789310161660751600,0.809751708984375,-0.1503056138753891,0.0008327704854309559,0.06419815868139267
1789310161670762500,0.819762451171875,-0.12631985545158386,0.033725205808877945,0.015469769947230816
1789310161680773400,0.8297734375,-0.08803238719701767,0.04563033580780029,-0.025534387677907944
1789310161690785500,0.83978564453125,-0.050396062433719635,0.016456471756100655,-0.046790674328804016
1789310161700796700,0.849796630859375,-0.02762097492814064,0.011350658722221851,-0.04875954985618591
1789310161710807600,0.8598076171875,-0.026249714195728302,0.0015662050573155284,-0.03821156919002533
1789310161720819700,0.86981982421875,-0.02967134304344654,-0.006376406643539667,-0.016465259715914726
1789310161730830600,0.87983056640625,-0.021952170878648758,-0.014565360732376575,0.011273426935076714
1789310161740841700,0.889841796875,-0.027348533272743225,-0.045586924999952316,0.051771052181720734
1789310161750853600,0.899853515625,-0.04083904251456261,-0.09014560282230377,0.10354716330766678
1789310161760864500,0.909864501953125,-0.05944521725177765,-0.09014587104320526,0.14586585760116577
1789310161770875600,0.919875732421875,-0.07313226908445358,-0.06452253460884094,0.1519133597612381
1789310161780887600,0.929887451171875,-0.06334834545850754,-0.05582784488797188,0.11448556929826736
1789310161790898700,0.939898681640625,-0.05198969691991806,-0.07925673574209213,0.061398379504680634
1789310161800910600,0.94991064453125,-0.04555363580584526,-0.1160869225859642,0.024386033415794373
1789310161810921700,0.959921630859375,-0.04728788509964943,-0.13398629426956177,0.01727246306836605
1789310161820932600,0.9699326171875,-0.06373796612024307,-0.14164768159389496,0.03515132889151573
1789310161830944500,0.979944580078125,-0.09715238213539124,-0.14550580084323883,0.0773182213306427
1789310161840955400,0.989955322265625,-0.11326131224632263,-0.14808213710784912,0.12644661962985992
1789310161850966300,0.99996630859375,-0.12959101796150208,-0.12461622804403305,0.15806260704994202
1789310161860978200,1.009978271484375,-0.1455465406179428,-0.08136782795190811,0.1639985293149948
1789310161870989000,1.019989013671875,-0.13136707246303558,-0.0628436803817749,0.13946016132831573
1789310161881000000,1.03,-0.10954780131578445,-0.08255985379219055,0.10572749376296997
1789310161891012000,1.04001220703125,-0.0852120965719223,-0.11908724159002304,0.0809750109910965
1789310161901023200,1.050023193359375,-0.05830112472176552,-0.15237675607204437,0.053878676146268845
1789310161911034000,1.0600341796875,-0.04326704517006874,-0.18325717747211456,0.032875657081604004
1789310161921046000,1.0700458984375,-0.03050491213798523,-0.16407708823680878,0.01631266064941883
1789310161931057200,1.08005712890625,-0.041005488485097885,-0.12959980964660645,0.009431851096451283
1789310161941069000,1.090069091796875,-0.06101621687412262,-0.070047527551651,0.03990320861339569
1789310161951080200,1.100080078125,-0.07525108009576797,0.004287689458578825,0.0991114005446434
1789310161961091000,1.110091064453125,-0.08836022019386292,0.03290015831589699,0.14298857748508453
1789310161971103200,1.120103271484375,-0.08888459950685501,0.04499277472496033,0.14377234876155853
1789310161981114000,1.130114013671875,-0.059909671545028687,0.04211016744375229,0.08485177159309387
1789310161991125000,1.140125,-0.03080718033015728,0.03327140212059021,0.008889631368219852
1789310162001137000,1.150136962890625,-0.009753028862178326,0.022233933210372925,-0.04578293487429619
1789310162011148300,1.160148193359375,-0.013266270980238914,-0.0011446266435086727,-0.04218367114663124
1789310162021159200,1.1701591796875,-0.04183826223015785,-0.04117433354258537,0.028082234784960747
1789310162031171000,1.180171142578125,-0.07656721025705338,-0.07554083317518234,0.13784654438495636
1789310162041182000,1.190181884765625,-0.11660037934780121,-0.0948796421289444,0.23742426931858063
1789310162051193300,1.200193359375,-0.14623816311359406,-0.1031104028224945,0.2878376543521881
1789310162061205200,1.210205322265625,-0.15779229998588562,-0.10470164567232132,0.26527082920074463
1789310162071216000,1.220216064453125,-0.1455119252204895,-0.1091078445315361,0.19913972914218903
1789310162081228300,1.230228271484375,-0.11712555587291718,-0.09324765205383301,0.11793196201324463
1789310162091239200,1.2402392578125,-0.10118786990642548,-0.07487370818853378,0.05848701298236847
1789310162101250000,1.25025,-0.10327871888875961,-0.0748412162065506,0.05235162004828453
1789310162111262200,1.26026220703125,-0.11886566877365112,-0.055933039635419846,0.0980922132730484
1789310162121273000,1.270273193359375,-0.1549946367740631,-0.02936561219394207,0.15428385138511658
1789310162131284200,1.2802841796875,-0.1896974891424179,-0.0022509037517011166,0.21257245540618896
1789310162141296000,1.290296142578125,-0.20303113758563995,0.040466997772455215,0.2670426070690155
1789310162151307000,1.30030712890625,-0.23059406876564026,0.09891033172607422,0.3196712136268616
1789310162161318100,1.310318115234375,-0.2510937452316284,0.12304310500621796,0.36473163962364197
1789310162171330300,1.320330322265625,-0.2970964014530182,0.06395208835601807,0.37811827659606934
1789310162181341200,1.330341064453125,-0.3687380850315094,-0.07892969995737076,0.32877230644226074
1789310162191352000,1.34035205078125,-0.3567141890525818,-0.3216339647769928,0.28810209035873413
1789310162201364000,1.350364013671875,-0.42744454741477966,-0.43768227100372314,0.2186117023229599
1789310162211375400,1.360375244140625,-0.5416960120201111,-0.25576600432395935,0.22986675798892975
1789310162221386200,1.37038623046875,-0.6535655856132507,0.04238021373748779,0.2930755615234375
1789310162231398100,1.380398193359375,-0.8109914064407349,0.4076484739780426,0.33370155096054077
1789310162241409000,1.390408935546875,-0.9699618816375732,0.8526440262794495,0.3375388979911804
1789310162251421200,1.400421142578125,-1.091241717338562,1.257064700126648,0.3686816394329071
1789310162261432000,1.41043212890625,-1.1527034044265747,1.4948594570159912,0.416511207818985
1789310162271443200,1.420443115234375,-1.1477545499801636,1.5233802795410156,0.47522270679473877
1789310162281455000,1.430455078125,-1.0721989870071411,1.3567087650299072,0.5475943684577942
1789310162291466200,1.44046630859375,-0.9152741432189941,0.8887376189231873,0.6126682162284851
1789310162301477000,1.45047705078125,-0.7195852994918823,0.24613919854164124,0.7042918801307678
1789310162311489000,1.460489013671875,-0.561873733997345,-0.2298116236925125,0.7800630331039429
1789310162321500200,1.470500244140625,-0.5109266638755798,-0.30750909447669983,0.792900562286377
1789310162331511000,1.480510986328125,-0.5587535500526428,-0.014810637570917606,0.7629096508026123
1789310162341523200,1.490523193359375,-0.6059202551841736,0.24197667837142944,0.8489787578582764
1789310162351534000,1.5005341796875,-0.6457982063293457,0.4103366732597351,1.0315285921096802
1789310162361545000,1.510544921875,-0.7353177070617676,0.9164177179336548,0.9424077272415161
1789310162371557000,1.52055712890625,-0.689863920211792,0.9014968276023865,1.070246934890747
1789310162381568300,1.530568359375,-0.66065514087677,0.5473259091377258,1.1832987070083618
1789310162391579100,1.5405791015625,-0.5868789553642273,-0.12710095942020416,1.1965899467468262
1789310162401591000,1.550591064453125,-0.3632466495037079,-0.9410391449928284,1.1988469362258911
1789310162411602000,1.560601806640625,0.011895807459950447,-1.0799474716186523,0.8925975561141968
1789310162421614000,1.570614013671875,0.4212721288204193,-1.641905426979065,0.7053297162055969
1789310162431625200,1.580625244140625,0.6708697080612183,-2.1454591751098633,0.6010847687721252
1789310162441636000,1.590635986328125,0.8450157046318054,-2.6173343658447266,0.7929274439811707
1789310162451648300,1.600648193359375,0.9696391224861145,-2.8331704139709473,1.1624807119369507
1789310162461659100,1.6106591796875,1.1236501932144165,-2.7866179943084717,1.615092396736145
1789310162471670300,1.620670166015625,1.3074355125427246,-2.539207935333252,2.0489678382873535
1789310162481682200,1.63068212890625,1.438374638557434,-2.0233030319213867,2.5211071968078613
1789310162491693000,1.640693115234375,1.4169937372207642,-1.3986735343933105,3.017514705657959
1789310162501704200,1.6507041015625,1.1984096765518188,-0.7759774923324585,3.3323111534118652
1789310162511716000,1.660716064453125,0.8105612993240356,-0.4601303040981293,3.4855833053588867
1789310162521727000,1.67072705078125,0.35434210300445557,-0.4934432804584503,3.5354690551757812
1789310162531738000,1.680738037109375,-0.07069121301174164,-0.764881432056427,3.5434980392456055
1789310162541750300,1.690750244140625,-0.35554611682891846,-1.006162166595459,3.46256422996521
1789310162551761200,1.70076123046875,-0.5243870615959167,-1.0761394500732422,3.2714741230010986
1789310162561772000,1.71077197265625,-0.6399307250976562,-1.0213680267333984,3.0069639682769775
1789310162571784000,1.720783935546875,-0.6839926838874817,-0.9169255495071411,2.707068920135498
1789310162581795300,1.73079541015625,-0.6420204639434814,-0.8397295475006104,2.388427972793579
1789310162591807200,1.74080712890625,-0.5939403176307678,-0.7691991925239563,2.002833127975464
1789310162601818000,1.750818115234375,-0.5632686614990234,-0.7578213810920715,1.6198099851608276
1789310162611829000,1.7608291015625,-0.5413495302200317,-0.8322884440422058,1.345586895942688
1789310162621841200,1.770841064453125,-0.5107021331787109,-0.9677064418792725,1.2530657052993774
1789310162631852000,1.78085205078125,-0.48812973499298096,-1.0422635078430176,1.2874873876571655
1789310162641863200,1.79086328125,-0.5032681822776794,-0.983652651309967,1.301938533782959
1789310162651875000,1.800875,-0.5453525185585022,-0.8781381845474243,1.2828683853149414
1789310162661886200,1.81088623046875,-0.6007406711578369,-0.7493229508399963,1.311076283454895
1789310162671897000,1.82089697265625,-0.6574708223342896,-0.5586531758308411,1.4214246273040771
1789310162681909000,1.830908935546875,-0.7173961997032166,-0.20963577926158905,1.560989260673523
1789310162691920100,1.840920166015625,-0.8004468679428101,0.2931634485721588,1.630556344985962
1789310162701931300,1.85093115234375,-0.9026811122894287,0.7648326754570007,1.6263128519058228
1789310162711943200,1.860943115234375,-0.956085741519928,1.1008330583572388,1.5600992441177368
1789310162721954000,1.8709541015625,-0.9028382301330566,1.2414591312408447,1.4614026546478271
1789310162731966000,1.880966064453125,-0.7315847277641296,1.2887248992919922,1.3685153722763062
1789310162741977000,1.89097705078125,-0.48385560512542725,1.320784568786621,1.2697798013687134
1789310162751988200,1.90098828125,-0.25888535380363464,1.3575553894042969,1.1463971138000488
1789310162762000100,1.911000244140625,-0.11704832315444946,1.4005390405654907,0.9621875882148743
1789310162772011000,1.921010986328125,-0.04975397512316704,1.387195348739624,0.7110432386398315
1789310162782022100,1.931022216796875,-0.03837961331009865,1.289631724357605,0.3538140058517456
1789310162792034000,1.941033935546875,-0.07273838669061661,0.9424423575401306,-0.0032288164366036654
1789310162802045200,1.951045166015625,-0.10027307271957397,0.48761335015296936,-0.26785966753959656
1789310162812056000,1.96105615234375,-0.1215732991695404,0.07184968888759613,-0.4570317268371582
1789310162822068200,1.971068115234375,-0.1611526757478714,-0.23017728328704834,-0.5729833841323853
1789310162832079000,1.9810791015625,-0.19165384769439697,-0.3293541967868805,-0.5686554908752441
1789310162842091000,1.991091064453125,-0.21448540687561035,-0.22325651347637177,-0.4032023251056671
1789310162852102700,2.0011025390625,-0.24499377608299255,0.019845077767968178,-0.11996927857398987
1789310162862113800,2.01111376953125,-0.2669086456298828,0.2551867663860321,0.19908779859542847
1789310162872126000,2.0211259765625,-0.23543834686279297,0.3826901316642761,0.4928203523159027
1789310162882136800,2.03113671875,-0.1801047921180725,0.4643072187900543,0.7001895308494568
1789310162892147700,2.041147705078125,-0.1284056454896927,0.4843680262565613,0.8507755398750305
1789310162902159600,2.05115966796875,-0.062255386263132095,0.5428845882415771,0.937630295753479
1789310162912170800,2.061170654296875,0.016154468059539795,0.6676696538925171,0.9424857497215271
1789310162922183000,2.071182861328125,0.0795142650604248,0.846181333065033,0.8975579738616943
1789310162932193800,2.08119384765625,0.09838861972093582,0.9917848706245422,0.8477755188941956
1789310162942204700,2.09120458984375,0.0349087156355381,0.9915995001792908,0.7573763728141785
1789310162952216800,2.101216796875,-0.07013967633247375,0.8175044059753418,0.5951626896858215
1789310162962227700,2.111227783203125,-0.18194077908992767,0.5784955620765686,0.3761507272720337
1789310162972239600,2.121239501953125,-0.30044025182724,0.333543598651886,0.15189845860004425
1789310162982250800,2.131250732421875,-0.3961009979248047,0.2582933306694031,-0.04857072979211807
1789310162992261600,2.14126171875,-0.43381190299987793,0.35767266154289246,-0.20550495386123657
1789310163002273800,2.151273681640625,-0.4252847135066986,0.5526126027107239,-0.34284496307373047
1789310163012284700,2.16128466796875,-0.3610338270664215,0.7045890688896179,-0.4931447207927704
1789310163022295800,2.1712958984375,-0.2530556917190552,0.7903420329093933,-0.6608266830444336
1789310163032308000,2.181307861328125,-0.1404753476381302,0.8387218117713928,-0.8016842007637024
1789310163042318800,2.19131884765625,-0.07578743994235992,0.7894075512886047,-0.8304135799407959
1789310163052330800,2.201330810546875,-0.0566350482404232,0.7515520453453064,-0.7287447452545166
1789310163062341600,2.211341552734375,-0.0732603669166565,0.7730575799942017,-0.5782667994499207
1789310163072352800,2.221352783203125,-0.09409134835004807,0.8428334593772888,-0.46607157588005066
1789310163082364700,2.23136474609375,-0.08889711648225784,0.9393230080604553,-0.47520193457603455
1789310163092375800,2.241375732421875,-0.06343197077512741,0.956148087978363,-0.5742598176002502
1789310163102387700,2.2513876953125,-0.031206121668219566,0.9376468062400818,-0.6564052700996399
1789310163112398800,2.26139892578125,0.01239009015262127,0.9591696858406067,-0.6539636850357056
1789310163122409700,2.27140966796875,0.08205439150333405,0.8989638686180115,-0.5241311192512512
1789310163132421600,2.281421630859375,0.1858670711517334,0.8301944136619568,-0.38523903489112854
1789310163142432800,2.291432861328125,0.3210190236568451,0.7808974385261536,-0.40622714161872864
1789310163152443600,2.301443603515625,0.4894256293773651,0.7763466238975525,-0.6069836616516113
1789310163162455800,2.311455810546875,0.6179143786430359,0.8241474032402039,-0.8398379683494568
1789310163172466700,2.321466796875,0.6462178826332092,0.8217716217041016,-0.8964018821716309
1789310163182478600,2.331478515625,0.6228864789009094,0.7987504601478577,-0.7397087216377258
1789310163192490000,2.341489990234375,0.6121256947517395,0.7164113521575928,-0.4916922450065613
1789310163202500900,2.3515009765625,0.6050869822502136,0.5868829488754272,-0.17980757355690002
1789310163212512800,2.3615126953125,0.5619075298309326,0.5096225142478943,0.0982288345694542
1789310163222523600,2.371523681640625,0.5125471949577332,0.4661397337913513,0.24291224777698517
1789310163232534500,2.381534423828125,0.4526042342185974,0.44320034980773926,0.26742905378341675
1789310163242546700,2.391546630859375,0.3994467258453369,0.4775804281234741,0.22669439017772675
1789310163252557800,2.401557861328125,0.40434959530830383,0.4964904487133026,0.21344970166683197
1789310163262569700,2.41156982421875,0.45543330907821655,0.3597584366798401,0.3059189021587372
1789310163272580900,2.421580810546875,0.5072352290153503,0.32434797286987305,0.42302581667900085
1789310163282591700,2.431591796875,0.5153565406799316,0.4274895489215851,0.5505049824714661
1789310163292603600,2.441603759765625,0.5337241291999817,0.36706510186195374,0.6969093084335327
1789310163302614800,2.45161474609375,0.5334567427635193,0.32293304800987244,0.7951245307922363
1789310163312625700,2.461625732421875,0.5057774186134338,0.2575058341026306,0.8837705254554749
1789310163322637800,2.471637939453125,0.4861067831516266,0.2693268060684204,0.8917354941368103
1789310163332648700,2.481648681640625,0.4918091595172882,0.2675352990627289,0.8623171448707581
1789310163342660600,2.49166064453125,0.4773857295513153,0.18271414935588837,0.7929069399833679
1789310163352671700,2.501671630859375,0.4416045844554901,-0.04018443822860718,0.6405925154685974
1789310163362683000,2.511682861328125,0.3579922318458557,-0.28428685665130615,0.4828881025314331
1789310163372694800,2.52169482421875,0.21158547699451447,-0.442325234413147,0.3849945664405823
1789310163382705700,2.53170556640625,0.09565195441246033,-0.5639853477478027,0.3204224705696106
1789310163392716500,2.541716552734375,-0.005754558369517326,-0.6355119943618774,0.29803356528282166
1789310163402728700,2.551728759765625,-0.26428279280662537,-0.00010146643762709573,0.0904068648815155
1789310163412739800,2.56173974609375,-0.3378638029098511,-0.006509298458695412,0.08102907240390778
1789310163422751700,2.571751708984375,-0.23992711305618286,0.015863118693232536,0.10215166956186295
1789310163432763000,2.581762939453125,-0.19775249063968658,0.008920257911086082,0.17502453923225403
1789310163442773800,2.591773681640625,-0.125115305185318,-1.0301754474639893,-0.3239719569683075
1789310163452785700,2.60178564453125,-0.34503117203712463,-0.9562569856643677,-0.18610595166683197
1789310163462796800,2.611796875,-0.4829610586166382,-0.9921470880508423,-0.05152231454849243
1789310163472807700,2.6218076171875,-0.38103070855140686,-0.9173340797424316,0.032882582396268845
1789310163482819800,2.63181982421875,-0.16596446931362152,-0.806498646736145,0.13653360307216644
1789310163492830700,2.641830810546875,-0.07330644130706787,-0.6377003192901611,0.17435768246650696
1789310163502842600,2.651842529296875,-0.07145261019468307,-0.4717142581939697,0.07489395141601562
1789310163512853800,2.661853759765625,-0.0816008523106575,-0.2936971187591553,-0.06822406500577927
1789310163522865000,2.671864990234375,-0.10079878568649292,-0.1445489227771759,-0.17624694108963013
1789310163532876800,2.681876708984375,-0.05034333094954491,0.058107778429985046,-0.2994879186153412
1789310163542887700,2.6918876953125,0.09178104996681213,0.2506961226463318,-0.318480521440506
1789310163552898600,2.701898681640625,0.231831893324852,0.36899107694625854,-0.2719007432460785
1789310163562910700,2.71191064453125,0.28863686323165894,0.3982640206813812,-0.16031883656978607
1789310163572921900,2.721921875,0.25770771503448486,0.3365897238254547,-0.004618720151484013
1789310163582933800,2.731933837890625,0.18416397273540497,0.2131546139717102,0.13382144272327423
1789310163592945000,2.74194482421875,0.048342231661081314,0.07905806601047516,0.22020027041435242
1789310163602955800,2.751955810546875,-0.09924563020467758,0.005275189410895109,0.24683508276939392
1789310163612967700,2.7619677734375,-0.16842736303806305,0.05704943835735321,0.19111377000808716
1789310163622978600,2.771978515625,-0.15664926171302795,0.21244116127490997,0.11695724725723267
1789310163632989700,2.78198974609375,-0.11552233248949051,0.3310479521751404,0.095658078789711
1789310163643001900,2.792001953125,-0.07706841826438904,0.4120402932167053,0.09235389530658722
1789310163653012700,2.8020126953125,-0.07173038274049759,0.4653399884700775,0.07014260441064835
1789310163663024600,2.812024658203125,-0.08279315382242203,0.49628299474716187,0.019711386412382126
1789310163673035800,2.822035888671875,-0.10326886177062988,0.5274403691291809,-0.06745573878288269
1789310163683047000,2.832046875,-0.13325685262680054,0.5540480017662048,-0.19155265390872955
1789310163693058800,2.842058837890625,-0.032951824367046356,0.5212834477424622,-0.26738670468330383
1789310163703069700,2.852069580078125,0.1197516992688179,0.4265774190425873,-0.22429275512695312
1789310163713080600,2.86208056640625,0.19902415573596954,0.2346673607826233,-0.08112334460020065
1789310163723092700,2.8720927734375,0.20195868611335754,0.0641062781214714,0.01581731252372265
1789310163733103900,2.882103759765625,0.18621274828910828,-0.015089470893144608,0.04754195362329483
1789310163743115800,2.89211572265625,0.2138691395521164,0.026813238859176636,0.05488269031047821
1789310163753127000,2.902126953125,0.28558459877967834,0.23232299089431763,0.052621930837631226
1789310163763137800,2.9121376953125,0.3197295367717743,0.5057768821716309,0.03171185776591301
1789310163773149700,2.922149658203125,0.3080978989601135,0.697413444519043,0.035601403564214706
1789310163783160600,2.93216064453125,0.2672351598739624,0.6635854244232178,0.08130524307489395
1789310163793171700,2.942171630859375,0.2749902904033661,0.4767844080924988,0.11782649904489517
1789310163803183900,2.952183837890625,0.30949366092681885,0.23833853006362915,0.15463165938854218
1789310163813194800,2.96219482421875,0.32787641882896423,0.05319717526435852,0.19181230664253235
1789310163823206700,2.97220654296875,0.3521718978881836,-0.0017720673931762576,0.18979017436504364
1789310163833217800,2.9822177734375,0.3720257580280304,0.0710424855351448,0.14670395851135254
1789310163843229000,2.99222900390625,0.3628961741924286,0.17172782123088837,0.10922609269618988
1789310163853240000,3.002239990234375,0.347696453332901,0.22792237997055054,0.09265004098415375
1789310163863251200,3.012251220703125,0.3456202447414398,0.2942694425582886,0.05795704200863838
1789310163873262000,3.022261962890625,0.34339091181755066,0.4203072786331177,-0.0650186836719513
1789310163883274000,3.03227392578125,0.30704542994499207,0.5109599232673645,-0.19974134862422943
1789310163893285000,3.04228515625,0.24457299709320068,0.4981570541858673,-0.2685006856918335
1789310163903297300,3.05229736328125,0.20143085718154907,0.41640040278434753,-0.2773914039134979
1789310163913308200,3.06230810546875,0.20988665521144867,0.3219870924949646,-0.27542945742607117
1789310163923319000,3.072319091796875,0.24945616722106934,0.22544990479946136,-0.2474159151315689
1789310163933331000,3.0823310546875,0.27369067072868347,0.12105158716440201,-0.1993701010942459
1789310163943342300,3.09234228515625,0.2630305588245392,0.04867885634303093,-0.17873433232307434
1789310163953353200,3.102353271484375,0.23705142736434937,0.013214072212576866,-0.157297745347023
1789310163963365000,3.112365234375,0.19121097028255463,-0.006402771919965744,-0.11304666101932526
1789310163973376000,3.1223759765625,0.11842118203639984,0.005516205448657274,-0.11311350762844086
1789310163983388200,3.13238818359375,0.027158116921782494,-0.09631454944610596,-0.13674293458461761
1789310163993399000,3.14239892578125,-0.013215137645602226,-0.3966570794582367,-0.09464821219444275
1789310164003410200,3.15241015625,-0.03423599898815155,-0.8904502987861633,-0.036800358444452286
1789310164013422000,3.162422119140625,-0.07430698722600937,-1.2286759614944458,-0.08202695846557617
1789310164023433200,3.17243310546875,-0.1152389720082283,-1.3729647397994995,-0.13937200605869293
1789310164033444000,3.182444091796875,-0.1447630375623703,-1.2380082607269287,-0.21534587442874908
1789310164043456000,3.1924560546875,-0.14961212873458862,-0.9226101040840149,-0.2647634744644165
1789310164053467100,3.202467041015625,-0.16045545041561127,-0.5005941390991211,-0.29891639947891235
1789310164063479300,3.212479248046875,-0.1798565834760666,-0.09489721804857254,-0.33787551522254944
1789310164073490200,3.222490234375,-0.21382200717926025,0.11715085804462433,-0.35616743564605713
1789310164083501000,3.2325009765625,-0.24062858521938324,0.027885427698493004,-0.30120670795440674
1789310164093513000,3.242512939453125,-0.2493578940629959,-0.13373622298240662,-0.2127482146024704
1789310164103524000,3.252524169921875,-0.25648796558380127,-0.23774012923240662,-0.13277003169059753
1789310164113535200,3.26253515625,-0.23067128658294678,-0.2461612969636917,-0.09619257599115372
1789310164123547100,3.272547119140625,-0.22886140644550323,-0.2662612497806549,-0.04047898203134537
1789310164133558000,3.28255810546875,-0.24346831440925598,-0.27119341492652893,0.013644439168274403
1789310164143570200,3.292570068359375,-0.2824048101902008,-0.13755492866039276,0.017246365547180176
1789310164153581000,3.3025810546875,-0.33649253845214844,0.060271330177783966,-0.016211725771427155
1789310164163592200,3.31259228515625,-0.34944722056388855,0.17326419055461884,-0.03525865450501442
1789310164173604000,3.32260400390625,-0.3491443991661072,0.18680396676063538,-0.028073713183403015
1789310164183615200,3.332615234375,-0.343294233083725,0.16417935490608215,-0.0014343785587698221
1789310164193626000,3.342626220703125,-0.33134332299232483,0.18129922449588776,0.013800234533846378
1789310164203638000,3.352637939453125,-0.320833683013916,0.20012536644935608,0.03729996830224991
1789310164213649200,3.362649169921875,-0.3102814257144928,0.2857806086540222,0.06183726713061333
1789310164223661300,3.372661376953125,-0.304889053106308,0.3905733525753021,0.06961876153945923
1789310164233672200,3.382672119140625,-0.29145368933677673,0.37235039472579956,0.04155756160616875
1789310164243683000,3.39268310546875,-0.2906206548213959,0.21223236620426178,-0.022413697093725204
1789310164253695000,3.402695068359375,-0.31831273436546326,-0.016992565244436264,-0.09590788930654526
1789310164263706000,3.4127060546875,-0.34264522790908813,-0.2061728686094284,-0.1772964894771576
1789310164273717200,3.42271728515625,-0.35869690775871277,-0.20216268301010132,-0.2939645051956177
1789310164283729200,3.432729248046875,-0.36767736077308655,-0.15640585124492645,-0.39196938276290894
1789310164293740000,3.442739990234375,-0.3711983263492584,-0.19365282356739044,-0.4323311746120453
1789310164303752200,3.452752197265625,-0.36369433999061584,-0.16494980454444885,-0.4674156606197357
1789310164313763000,3.46276318359375,-0.330290824174881,-0.05879966542124748,-0.5027787089347839
1789310164323774200,3.472774169921875,-0.2976202368736267,0.03948642313480377,-0.52608323097229
1789310164333786000,3.4827861328125,-0.2500905394554138,0.026558106765151024,-0.5213646292686462
1789310164343797200,3.49279736328125,-0.18748094141483307,-0.006219279952347279,-0.5072227120399475
1789310164353808100,3.50280810546875,-0.11320564895868301,0.03263464197516441,-0.4966217577457428
1789310164363820000,3.512820068359375,-0.06637902557849884,0.05468082055449486,-0.4874894917011261
1789310164373831000,3.522830810546875,-0.027284352108836174,0.038178544491529465,-0.46861302852630615
1789310164383843000,3.532843017578125,0.014044445939362049,-0.00045140579459257424,-0.42968320846557617
1789310164393854200,3.542854248046875,0.028970930725336075,0.016700150445103645,-0.38031139969825745
1789310164403865000,3.552864990234375,-0.03892023488879204,-0.03990107774734497,-0.2469908744096756
1789310164413877000,3.562876953125,-0.06233714520931244,0.03268257901072502,-0.15827618539333344
1789310164423888100,3.57288818359375,-0.06000501289963722,0.06792152673006058,-0.09499894827604294
1789310164433900000,3.582900146484375,-0.08254707604646683,0.09545541554689407,-0.0664682388305664
1789310164443911200,3.5929111328125,-0.1087520495057106,0.08775488287210464,-0.0662786215543747
1789310164453922000,3.602922119140625,-0.14785709977149963,0.09552732110023499,-0.09649831056594849
1789310164463934200,3.612934326171875,-0.1953101009130478,0.07606946676969528,-0.13417351245880127
1789310164473945000,3.622945068359375,-0.2343568354845047,0.022893864661455154,-0.18633152544498444
1789310164483956200,3.632956298828125,-0.2406163364648819,-0.03086044453084469,-0.216212198138237
1789310164493968100,3.642968017578125,-0.1878061145544052,-0.05470186099410057,-0.25310763716697693
1789310164503979300,3.652979248046875,-0.07489980757236481,-0.17014749348163605,-0.26098260283470154
1789310164513991200,3.6629912109375,0.07168324291706085,-0.17206524312496185,-0.30080297589302063
1789310164524002000,3.673001953125,0.13651417195796967,-0.22048763930797577,-0.33244451880455017
1789310164534013000,3.683012939453125,0.1361578404903412,-0.25652313232421875,-0.3541319668292999
1789310164544025000,3.693025146484375,0.1104479506611824,-0.2284637987613678,-0.40115460753440857
1789310164554036200,3.7030361328125,0.07723939418792725,-0.20654278993606567,-0.49583184719085693
1789310164564047000,3.713047119140625,0.08402939140796661,-0.23394910991191864,-0.5786876082420349
1789310164574059000,3.72305908203125,0.10582815855741501,-0.2296350598335266,-0.6668369174003601
1789310164584070100,3.733070068359375,0.12656539678573608,-0.25657132267951965,-0.7281615138053894
1789310164594082000,3.74308203125,0.12603355944156647,-0.2658034563064575,-0.7599111795425415
1789310164604093200,3.75309326171875,0.09815266728401184,-0.1824720799922943,-0.7819770574569702
1789310164614104000,3.76310400390625,0.05007275566458702,-0.12458080798387527,-0.7940499782562256
1789310164624116200,3.7731162109375,0.017549699172377586,-0.20587673783302307,-0.7446328997612
1789310164634127000,3.783127197265625,0.04525269940495491,-0.16593091189861298,-0.6691546440124512
1789310164644139000,3.793138916015625,0.03500432148575783,0.523992657661438,-0.3194749355316162
1789310164654150000,3.80314990234375,0.04982135072350502,-0.11779826879501343,0.05156119540333748
1789310164664161300,3.813161376953125,0.0590398833155632,-0.005370530765503645,0.005305016878992319
1789310164674173200,3.823173095703125,0.04072266072034836,0.2066487818956375,-0.12366175651550293
1789310164684184000,3.83318408203125,0.02106453850865364,0.21077801287174225,-0.11894822865724564
1789310164694195000,3.84319482421875,0.010143714025616646,0.13585875928401947,-0.08314149081707001
1789310164704207000,3.85320703125,0.010008691810071468,0.15891535580158234,-0.09567645937204361
1789310164714218200,3.86321826171875,0.010776481591165066,0.18468596041202545,-0.10841462761163712
1789310164724230100,3.873230224609375,0.00951121374964714,0.15125823020935059,-0.09061272442340851
1789310164734241000,3.883240966796875,0.006160157732665539,0.1142413541674614,-0.0686911791563034
1789310164744252200,3.893252197265625,0.004479170776903629,0.08033665269613266,-0.05336229130625725
1789310164754264000,3.90326416015625,0.0009318400407209992,0.07065499573945999,-0.04893238842487335
1789310164764275200,3.913275146484375,-0.0046386937610805035,0.04580077901482582,-0.04091840609908104
1789310164774287000,3.923287109375,-0.008285094052553177,-0.0002561961009632796,-0.013881194405257702
1789310164784298200,3.93329833984375,-0.014156032353639603,-0.003632285399362445,-0.01236239355057478
1789310164794309000,3.94330908203125,-0.018741730600595474,-0.004867726005613804,-0.013098757714033127
1789310164804321000,3.953321044921875,-0.022476812824606895,-0.012863067910075188,-0.013042565435171127
1789310164814332000,3.963331787109375,-0.026068085804581642,-0.017077520489692688,-0.012930179946124554
1789310164824343300,3.97334326171875,-0.024810275062918663,-0.019785422831773758,-0.01600399985909462
1789310164834355200,3.983355224609375,-0.021192369982600212,-0.047452203929424286,0.0017781927017495036
1789310164844366000,3.993365966796875,-0.02088158018887043,-0.03353532403707504,-0.011175422929227352
1789310164854378800,4.003378662109375,-0.019879166036844254,-0.03922649845480919,-0.010583136230707169
1789310164864389600,4.0133896484375,-0.021673602983355522,-0.047633033245801926,-0.007990015670657158
1789310164874400800,4.02340087890625,-0.02574877254664898,-0.0456676185131073,-0.011789281852543354
1789310164884412700,4.03341259765625,-0.02714427001774311,-0.04536774754524231,-0.010935472324490547
1789310164894423800,4.043423828125,-0.02407790534198284,-0.046963512897491455,-0.007456318475306034
1789310164904436000,4.05343603515625,-0.017559818923473358,-0.050941210240125656,-0.007472297176718712
1789310164914446800,4.06344677734375,-0.011207113973796368,-0.05368799716234207,-0.004631503485143185
1789310164924457700,4.073457763671875,-0.00959563534706831,-0.04730866104364395,-0.01034531556069851
1789310164934469600,4.0834697265625,-0.01483274158090353,-0.04297756031155586,-0.0123605290427804
1789310164944480800,4.093480712890625,-0.02251303195953369,-0.03750476613640785,-0.006096508353948593
1789310164954492000,4.103491943359375,-0.021222731098532677,-0.02785160392522812,-0.008115184493362904
1789310164964503800,4.11350390625,-0.018454108387231827,-0.0388944037258625,-0.0010527475969865918
1789310164974514700,4.1235146484375,-0.011293933726847172,-0.036376118659973145,-0.0015105449128895998
1789310164984526800,4.13352685546875,-0.011607387103140354,-0.03405464068055153,-0.0018724685069173574
1789310164994537700,4.143537841796875,-0.006295979022979736,-0.038052577525377274,-0.004310858901590109
1789310165004548900,4.153548828125,-0.005792375188320875,-0.0424041822552681,-0.004606203176081181
1789310165014560800,4.163560791015625,-0.008320514112710953,-0.04469902813434601,-0.006689594127237797
1789310165024571600,4.173571533203125,-0.013133112341165543,-0.04482100158929825,-0.005800630897283554
1789310165034583800,4.183583740234375,-0.012431102804839611,-0.04019349068403244,-0.003964914008975029
1789310165044594700,4.1935947265625,-0.010441722348332405,-0.03970640152692795,-0.0034104441292583942
1789310165054605800,4.203605712890625,-0.004697815980762243,-0.04231656342744827,-0.002951048780232668
1789310165064618000,4.213617919921875,-0.002427737694233656,-0.045517418533563614,-0.00307648372836411
1789310165074628900,4.22362890625,-0.006256564520299435,-0.038846466690301895,-0.006074403878301382
1789310165084640800,4.233640869140625,-0.009743707254529,-0.03191718831658363,-0.005771336145699024
1789310165094651600,4.243651611328125,-0.01261166576296091,-0.028492361307144165,-0.0057135457172989845
1789310165104662800,4.253662841796875,-0.009424393996596336,-0.030015690252184868,-0.004641090985387564
1789310165114674700,4.2636748046875,-0.007567904889583588,-0.032413333654403687,-0.004761998075991869
1789310165124685800,4.273685791015625,-0.0067881313152611256,-0.032096948474645615,-0.005997971165925264
1789310165134696700,4.28369677734375,-0.006931675598025322,-0.03141092136502266,-0.00621129060164094
1789310165144708900,4.293708984375,-0.006396646611392498,-0.033126529306173325,-0.006355367600917816
1789310165154719700,4.3037197265625,-0.008043278940021992,-0.03537184000015259,-0.006954312324523926
1789310165164731600,4.313731689453125,-0.00469541922211647,-0.03546291962265968,-0.009801231324672699
1789310165174742800,4.32374267578125,-0.0038637141697108746,-0.030054837465286255,-0.008234760724008083
1789310165184753700,4.333753662109375,-0.0021931130904704332,-0.027059581130743027,-0.005008340813219547
1789310165194765800,4.343765869140625,-0.0016207997687160969,-0.02491493709385395,-0.003537476761266589
1789310165204776700,4.353776611328125,-0.0009691243176348507,-0.02148878015577793,-0.005637379363179207
1789310165214788600,4.36378857421875,-0.0017449031583964825,-0.018385399132966995,-0.0057098171673715115
1789310165224799700,4.3737998046875,-0.0013307816116139293,-0.010598315857350826,-0.006758037488907576
1789310165234811000,4.383810791015625,0.0007222492713481188,-0.005428054835647345,-0.006658701691776514
1789310165244822800,4.39382275390625,0.00452923821285367,-0.004963066894561052,-0.003973436541855335
1789310165254833700,4.403833740234375,0.008134093135595322,-0.0007262440049089491,-0.0022620889358222485
1789310165264845800,4.413845703125,0.006852313410490751,0.0025454494170844555,-0.0015552861150354147
1789310165274856700,4.423856689453125,0.008099205791950226,0.006396646611392498,-0.0024471788201481104
1789310165284867800,4.433867919921875,0.012015117332339287,0.014878282323479652,-0.0070248860865831375
1789310165294879700,4.443879638671875,0.017124125733971596,0.01281806081533432,-0.00833542738109827
1789310165304891000,4.453890869140625,0.017591243609786034,0.018429340794682503,-0.009385778568685055
1789310165314901800,4.46390185546875,0.0187209565192461,0.02376285381615162,-0.015470036305487156
1789310165324913700,4.47391357421875,0.02323022112250328,0.02293035015463829,-0.013825800269842148
1789310165334924800,4.4839248046875,0.024565797299146652,0.0184027086943388,-0.011814847588539124
1789310165344937000,4.49393701171875,0.02989851124584675,0.012176771648228168,-0.013906494714319706
1789310165354947800,4.50394775390625,0.029919549822807312,0.015674034133553505,-0.016817862167954445
1789310165364958700,4.513958740234375,0.017662616446614265,0.013344833627343178,-0.00720411678776145
1789310165374970600,4.523970703125,0.006075469311326742,0.014053767547011375,-0.016865799203515053
1789310165384981800,4.533981689453125,0.0005145227187313139,-0.0046213832683861256,-0.006160690449178219
1789310165394993700,4.54399365234375,-0.007664311211556196,-0.016997626051306725,-0.0012471582740545273
1789310165405004800,4.5540048828125,-0.009212939068675041,-0.024039288982748985,-0.004473311826586723
1789310165415015700,4.564015625,-0.004969192203134298,-0.04222681745886803,0.0032919333316385746
1789310165425027800,4.57402783203125,-0.01088620349764824,-0.05975334346294403,-0.000586161739192903
1789310165435038700,4.584038818359375,-0.006898918654769659,-0.07323186844587326,-0.015617841854691505
1789310165445050600,4.594050537109375,0.010548247955739498,-0.10148295015096664,-0.021327126771211624
1789310165455061800,4.604061767578125,0.03502696007490158,-0.11285118758678436,-0.026363430544734
1789310165465073000,4.614072998046875,0.04188460111618042,-0.1307380348443985,-0.024520521983504295
1789310165475084800,4.624084716796875,0.040224120020866394,-0.13574744760990143,-0.022114889696240425
1789310165485095700,4.634095703125,0.03569860756397247,-0.13448403775691986,-0.020835774019360542
1789310165495106800,4.64410693359375,0.032758213579654694,-0.13456660509109497,-0.01266972254961729
1789310165505118700,4.65411865234375,0.015410647727549076,-0.1359248161315918,-0.0044200485572218895
1789310165515129900,4.6641298828125,-0.008253668434917927,-0.12498268485069275,-0.008500809781253338
1789310165525141800,4.674141845703125,-0.02744254283607006,-0.11283466964960098,-0.007539941463619471
1789310165535152600,4.684152587890625,-0.03063194453716278,-0.10428991913795471,-0.01130991242825985
1789310165545163800,4.694163818359375,-0.028687836602330208,-0.10795922577381134,-0.007290403358638287
1789310165555175700,4.70417578125,-0.025355957448482513,-0.10620686411857605,-0.0038213697262108326
1789310165565186800,4.714186767578125,-0.01992763578891754,-0.10205366462469101,-0.005536978133022785
1789310165575198700,4.72419873046875,-0.014146445319056511,-0.0963347926735878,-0.01522688940167427
1789310165585209900,4.7342099609375,-0.009209477342665195,-0.08833146095275879,-0.015440475195646286
1789310165595220700,4.744220703125,-0.007589476183056831,-0.07681728154420853,-0.01685727760195732
1789310165605232600,4.754232666015625,-0.01750016398727894,-0.06453664600849152,-0.02088743820786476
1789310165615243800,4.764243896484375,-0.04005926847457886,-0.04210404306650162,-0.022353243082761765
1789310165625255000,4.7742548828125,-0.043226033449172974,-0.03080345317721367,-0.04244333133101463
1789310165635266800,4.784266845703125,-0.012807141989469528,-0.036615002900362015,-0.04947354272007942
1789310165645277700,4.794277587890625,-0.019034944474697113,-0.029443642124533653,-0.0351281613111496
1789310165655289600,4.80428955078125,-0.027589816600084305,-0.01782187446951866,-0.028242290019989014
1789310165665300700,4.81430078125,-0.024471521377563477,-0.017059409990906715,-0.019768910482525826
1789310165675311900,4.824311767578125,-0.011244398541748524,-0.027156520634889603,-0.007877363823354244
1789310165685323800,4.83432373046875,-0.0006490123341791332,-0.03641979396343231,0.006071474403142929
1789310165695334700,4.844334716796875,-0.003462641965597868,-0.03641553223133087,0.010468353517353535
1789310165705346800,4.854346923828125,-0.00820972677320242,-0.02574451081454754,0.007798800710588694
1789310165715357700,4.864357666015625,-0.0107695572078228,-0.01979261264204979,0.0033252229914069176
1789310165725368800,4.874368896484375,-0.016518522053956985,-0.007705323863774538,0.0024288028944283724
1789310165735380700,4.884380615234375,-0.02358202449977398,0.012649215757846832,0.000006924218723725062
1789310165745391900,4.894391845703125,-0.02021312527358532,0.029575735330581665,-0.0016916398890316486
1789310165755403800,4.90440380859375,-0.010866229422390461,0.039017438888549805,-0.0015486282063648105
1789310165765414700,4.91441455078125,-0.006393717136234045,0.05043920502066612,-0.005307679995894432
1789310165775425800,4.92442578125,-0.004703408572822809,0.056589510291814804,-0.0031201594974845648
1789310165785437700,4.934437744140625,-0.0041763694025576115,0.062557652592659,-0.007105846423655748
1789310165795448800,4.94444873046875,0.0014809839194640517,0.06466794013977051,-0.008196410723030567
1789310165805459700,4.954459716796875,0.005331115797162056,0.0729232057929039,-0.010272344574332237
1789310165815471600,4.9644716796875,0.011443602852523327,0.08709309250116348,-0.020714599639177322
1789310165825482800,4.974482666015625,0.020005932077765465,0.09994124621152878,-0.025351695716381073
1789310165835494700,4.98449462890625,0.03176432102918625,0.10550911724567413,-0.020229371264576912
1789310165845505800,4.994505859375,0.03093421459197998,0.11679452657699585,-0.01381141971796751
1789310165855517000,5.004516845703125,0.026611637324094772,0.12712866067886353,-0.010250240564346313
1789310165865528800,5.01452880859375,0.026450516656041145,0.13266749680042267,-0.011215370148420334
1789310165875539700,5.024539794921875,0.03145432844758034,0.13390479981899261,-0.018245583400130272
1789310165885551900,5.0345517578125,0.03448793664574623,0.12792281806468964,-0.017797905951738358
1789310165895563000,5.04456298828125,0.03437155485153198,0.1252862811088562,-0.018269285559654236
1789310165905574000,5.054573974609375,0.03497529402375221,0.1203296035528183,-0.025052621960639954
1789310165915586000,5.0645859375,0.036135099828243256,0.0985444188117981,-0.012089153751730919
1789310165925597000,5.074596923828125,0.038962844759225845,0.07552165538072586,0.011742143891751766
1789310165935607800,5.08460791015625,0.04391419515013695,0.06720726937055588,0.023749804124236107
1789310165945619700,5.09461962890625,0.040162332355976105,0.06488685309886932,0.03517929092049599
1789310165955630800,5.104630859375,0.038840338587760925,0.05752188339829445,0.04446813091635704
1789310165965643000,5.11464306640625,0.04171708598732948,0.048468198627233505,0.048949964344501495
1789310165975654000,5.12465380859375,0.03800597041845322,0.059305667877197266,0.03868534415960312
1789310165985664800,5.134664794921875,0.026253174990415573,0.08233322203159332,0.028295287862420082
1789310165995677000,5.144677001953125,0.013836986385285854,0.09424793720245361,0.01537709217518568
1789310166005688000,5.15468798828125,0.006895989179611206,0.08739802241325378,0.0051774512976408005
1789310166015700000,5.164699951171875,0.003168629016727209,0.08034144341945648,-0.0034413367975503206
1789310166025710800,5.1747109375,0.0010357033461332321,0.07158657163381577,-0.0037084517534822226
1789310166035721700,5.1847216796875,0.006839263718575239,0.053774815052747726,-0.003459978848695755
1789310166045734000,5.19473388671875,0.01258077286183834,0.026851586997509003,-0.006357764359563589
1789310166055744800,5.204744873046875,0.016986440867185593,0.00282082031480968,-0.018485000357031822
1789310166065756700,5.214756591796875,0.0176389142870903,-0.015867646783590317,-0.025592444464564323
1789310166075768000,5.22476806640625,0.004455202259123325,-0.029147231951355934,-0.02413116954267025
1789310166085779000,5.234779052734375,-0.001574194524437189,-0.041783664375543594,-0.01920298859477043
1789310166095790800,5.244790771484375,-0.004080761689692736,-0.05547497794032097,-0.012852415442466736
1789310166105801700,5.2548017578125,-0.010265154764056206,-0.0651523694396019,-0.010037187486886978
1789310166115814000,5.26481396484375,-0.017348896712064743,-0.06949944794178009,-0.012878780253231525
1789310166125825000,5.274824951171875,-0.020894097164273262,-0.07143557071685791,-0.010661698877811432
1789310166135836000,5.2848359375,-0.02377776801586151,-0.06355101615190506,-0.009927998296916485
1789310166145847800,5.294847900390625,-0.030183734372258186,-0.06262476742267609,-0.005991579964756966
1789310166155859000,5.30485888671875,-0.028249748051166534,-0.05686168372631073,-0.020608605816960335
1789310166165869800,5.314869873046875,-0.027531759813427925,-0.0641385093331337,-0.024933045729994774
1789310166175882000,5.324882080078125,-0.03206499293446541,-0.07838401943445206,-0.02178678847849369
1789310166185892900,5.334892822265625,-0.03687040135264397,-0.08743983507156372,-0.011350126005709171
1789310166195905000,5.344905029296875,-0.03165566548705101,-0.0859639123082161,-0.012005530297756195
1789310166205916000,5.354916015625,-0.030917169526219368,-0.09906479716300964,-0.010302438400685787
1789310166215926800,5.3649267578125,-0.03454093262553215,-0.10792593657970428,-0.012771988287568092
1789310166225938700,5.374938720703125,-0.03539900481700897,-0.11638040840625763,-0.012722453102469444
1789310166235950000,5.3849501953125,-0.03440937399864197,-0.12781868875026703,-0.013606090098619461
1789310166245962000,5.3949619140625,-0.03197018429636955,-0.12684395909309387,-0.01781921088695526
1789310166255972900,5.404972900390625,-0.037755634635686874,-0.13602282106876373,-0.013097958639264107
1789310166265983700,5.414983642578125,-0.0464942641556263,-0.14150840044021606,-0.008420116268098354
1789310166275996000,5.424995849609375,-0.05344831198453903,-0.1406705677509308,-0.004458398092538118
1789310166286007000,5.435007080078125,-0.05662386491894722,-0.1399959921836853,-0.00330285239033401
1789310166296019000,5.44501904296875,-0.058451857417821884,-0.14467835426330566,-0.0037971350830048323
1789310166306029800,5.45502978515625,-0.05392368510365486,-0.1481788158416748,-0.009094960987567902
1789310166316041000,5.465041015625,-0.052258145064115524,-0.15190909802913666,-0.0073532541282474995
1789310166326052900,5.475052978515625,-0.05360064283013344,-0.14824512600898743,-0.007434213999658823
1789310166336063700,5.485063720703125,-0.05036516860127449,-0.14335210621356964,-0.005991845857352018
1789310166346075600,5.49507568359375,-0.05391542986035347,-0.13784095644950867,-0.0043838294222950935
1789310166356087000,5.505087158203125,-0.055021174252033234,-0.13228213787078857,-0.006370814051479101
1789310166366098000,5.515097900390625,-0.055145543068647385,-0.13225524127483368,-0.007357514929026365
1789310166376109800,5.52510986328125,-0.05547577515244484,-0.12663277983665466,-0.007189735770225525
1789310166386120700,5.53512060546875,-0.0518869012594223,-0.12286440283060074,-0.00947792362421751
1789310166396132000,5.545132080078125,-0.04748442769050598,-0.12165959179401398,-0.007322094868868589
1789310166406144000,5.55514404296875,-0.04535256698727608,-0.1204124316573143,-0.005788380745798349
1789310166416155000,5.56515478515625,-0.04609319195151329,-0.11691543459892273,-0.005299157928675413
1789310166426166800,5.575166748046875,-0.049910835921764374,-0.11514949053525925,-0.0060416474007070065
1789310166436178000,5.585177978515625,-0.04717789962887764,-0.10888200998306274,-0.007424360606819391
1789310166446188800,5.595188720703125,-0.04296717420220375,-0.10202489793300629,-0.006164418999105692
1789310166456201000,5.605200927734375,-0.0393679104745388,-0.0954815149307251,-0.008860602974891663
1789310166466211800,5.6152119140625,-0.03639582544565201,-0.09079807996749878,-0.006881874520331621
1789310166476224000,5.62522412109375,-0.03640487790107727,-0.08196491003036499,-0.004807271994650364
1789310166486235000,5.63523486328125,-0.03517822548747063,-0.07551366835832596,-0.005997971165925264
1789310166496245800,5.645245849609375,-0.035949211567640305,-0.06906215846538544,-0.006174272391945124
1789310166506257700,5.655257568359375,-0.03253663703799248,-0.06413078308105469,-0.007703459821641445
1789310166516269000,5.66526904296875,-0.03257552161812782,-0.05674716830253601,-0.007864048704504967
1789310166526281000,5.675281005859375,-0.031682293862104416,-0.051114317029714584,-0.006946855690330267
1789310166536291800,5.685291748046875,-0.028179973363876343,-0.04512673243880272,-0.0062917182222008705
1789310166546302700,5.695302734375,-0.02694959193468094,-0.03774258494377136,-0.010582337155938148
1789310166556315000,5.70531494140625,-0.028753085061907768,-0.02743987925350666,-0.010396980680525303
1789310166566326000,5.715325927734375,-0.03236512839794159,-0.01943628303706646,-0.010459565557539463
1789310166576338000,5.725337890625,-0.03376755118370056,-0.009065666235983372,-0.006729808170348406
1789310166586348800,5.735348876953125,-0.02888491190969944,-0.0024402544368058443,-0.01019724365323782
1789310166596360000,5.74535986328125,-0.02906387485563755,0.0008215851848945022,-0.01290248241275549
1789310166606371800,5.755371826171875,-0.03069666028022766,0.01552516408264637,-0.02069862000644207
1789310166616382700,5.7653828125,-0.03229482099413872,0.021524200215935707,0.006100769154727459
1789310166626395000,5.775394775390625,-0.03325995057821274,0.02612028457224369,-0.015247396193444729
1789310166636406000,5.785406005859375,-0.036558277904987335,0.038240596652030945,-0.01926610618829727
1789310166646417000,5.7954169921875,-0.02646782621741295,0.010666492395102978,-0.015139005146920681
1789310166656428800,5.8054287109375,-0.03994981199502945,0.006104764062911272,-0.010549313388764858
1789310166666439700,5.815439697265625,-0.050566770136356354,0.01901816576719284,-0.020502345636487007
1789310166676451800,5.825451904296875,-0.051721516996622086,0.013277988880872726,-0.006050701718777418
1789310166686463000,5.835462890625,-0.04266916587948799,-0.0004540689697023481,-0.01381062064319849
1789310166696473900,5.845473876953125,-0.04897579923272133,-0.007001183927059174,-0.016218118369579315
1789310166706486000,5.855486083984375,-0.05439852550625801,-0.012189820408821106,-0.018496451899409294
1789310166716497000,5.865496826171875,-0.06704428046941757,-0.025466211140155792,-0.019522035494446754
1789310166726508800,5.8755087890625,-0.06883978098630905,-0.04333149641752243,-0.01037674117833376
1789310166736520000,5.88552001953125,-0.0702802911400795,-0.05751389265060425,-0.010329336859285831
1789310166746530800,5.89553076171875,-0.07313599437475204,-0.06607702374458313,-0.012930179946124554
1789310166756543000,5.90554296875,-0.08024397492408752,-0.06061114743351936,-0.007545001804828644
1789310166766553900,5.915553955078125,-0.09315764158964157,-0.0592111237347126,-0.01649402268230915
1789310166776565800,5.925565673828125,-0.08216943591833115,-0.05890939012169838,-0.01582370325922966
1789310166786577000,5.935576904296875,-0.08469198644161224,-0.06287643313407898,-0.01329929381608963
1789310166796588000,5.945588134765625,-0.07918936014175415,-0.04117300361394882,-0.01926583983004093
1789310166806600000,5.955599853515625,-0.08308423310518265,-0.021585453301668167,-0.01239488460123539
1789310166816610800,5.96561083984375,-0.07562365382909775,-0.02214844524860382,-0.008650213479995728
1789310166826623000,5.975623046875,-0.07184942066669464,-0.03280242159962654,-0.010482735000550747
1789310166836633900,5.9856337890625,-0.07375997304916382,-0.03323731571435928,-0.013341638259589672
1789310166846645000,5.99564501953125,-0.08443552255630493,-0.01019724365323782,-0.027060380205512047
1789310166856656400,6.005656494140625,-0.10513920336961746,0.029628997668623924,-0.03482376039028168
1789310166866667300,6.015667236328125,-0.10293703526258469,0.05934881046414375,-0.028814071789383888
1789310166876679400,6.025679443359375,-0.07010265439748764,0.07872170954942703,-0.013050287961959839
1789310166886690300,6.035690185546875,-0.02647262066602707,0.10256365686655045,-0.01233283244073391
1789310166896701400,6.045701416015625,-0.014022075571119785,0.14052915573120117,-0.013086507096886635
1789310166906713300,6.05571337890625,-0.004819788970053196,0.20466366410255432,-0.022881614044308662
1789310166916724500,6.065724365234375,0.02076653018593788,0.2608715295791626,-0.02690804749727249
1789310166926736400,6.075736328125,0.0552520714700222,0.3017502725124359,-0.01985892653465271
1789310166936747300,6.085747314453125,0.08415375649929047,0.33787044882774353,-0.009588445536792278
1789310166946758100,6.095758056640625,0.09892977774143219,0.37653130292892456,-0.008046475239098072
1789310166956770300,6.105770263671875,0.10460098087787628,0.4136480391025543,-0.012739497236907482
1789310166966781400,6.115781494140625,0.12097648531198502,0.44885823130607605,-0.01449958048760891
1789310166976793300,6.12579345703125,0.14803873002529144,0.4840390980243683,-0.014038853347301483
1789310166986804200,6.13580419921875,0.17891329526901245,0.5154223442077637,-0.013346165418624878
1789310166996815400,6.1458154296875,0.2018825262784958,0.5495510101318359,-0.007733287289738655
1789310167006827300,6.1558271484375,0.22587759792804718,0.5799667239189148,-0.0022303974255919456
1789310167016838400,6.16583837890625,0.24913498759269714,0.6038571000099182,-0.0013728595804423094
1789310167026850600,6.1758505859375,0.26742932200431824,0.6143127083778381,0.0010106696281582117
1789310167036861400,6.185861328125,0.2901966869831085,0.6271134614944458,-0.00004447478931979276
1789310167046872300,6.195872314453125,0.30402886867523193,0.6434192061424255,0.0017246630741283298
1789310167056884200,6.20588427734375,0.32029226422309875,0.6498064994812012,0.0013970943400636315
1789310167066895400,6.215895263671875,0.33924809098243713,0.6434929370880127,0.0033963292371481657
1789310167076907500,6.225907470703125,0.3529497981071472,0.6285654306411743,0.010526410304009914
1789310167086918400,6.23591845703125,0.35990092158317566,0.611417293548584,0.01378079317510128
1789310167096929300,6.24592919921875,0.3694334328174591,0.5999233722686768,0.013997041620314121
1789310167106941400,6.25594140625,0.3732723891735077,0.584376871585846,0.012004198506474495
1789310167116952300,6.265952392578125,0.38341450691223145,0.5680333375930786,0.007588943932205439
1789310167126964200,6.275964111328125,0.3889373540878296,0.544096827507019,0.009441704489290714
1789310167136975400,6.285975341796875,0.3923989534378052,0.5262073278427124,0.009860353544354439
1789310167146986200,6.295986328125,0.388714462518692,0.5060210824012756,0.010176737792789936
1789310167156998400,6.305998291015625,0.38864147663116455,0.48085930943489075,0.01061882171779871
1789310167167009300,6.31600927734375,0.39155498147010803,0.456448495388031,0.011418303474783897
1789310167177021200,6.326021240234375,0.39832472801208496,0.43912675976753235,0.005530586466193199
1789310167187032600,6.336032470703125,0.39843472838401794,0.43284010887145996,0.006947122048586607
1789310167197043500,6.34604345703125,0.39955803751945496,0.42707329988479614,0.0062610916793346405
1789310167207055400,6.356055419921875,0.40299513936042786,0.4199264347553253,0.007745005190372467
1789310167217066200,6.366066162109375,0.4140493869781494,0.4071137011051178,0.006172941066324711
1789310167227078400,6.376078369140625,0.4226205050945282,0.39287617802619934,0.006714894436299801
1789310167237089300,6.38608935546875,0.4293742775917053,0.38099342584609985,0.0034698324743658304
1789310167247100400,6.396100341796875,0.4338771402835846,0.3661031424999237,0.0011653993278741837
1789310167257112300,6.4061123046875,0.43186619877815247,0.35329973697662354,-0.0022173479665070772
1789310167267123500,6.41612353515625,0.4244453012943268,0.3382701873779297,-0.004479703027755022
1789310167277135400,6.42613525390625,0.4154563248157501,0.3217862844467163,0.0016207997687160969
1789310167287146200,6.436146240234375,0.40808814764022827,0.30494898557662964,0.001591771375387907
1789310167297157400,6.446157470703125,0.40488624572753906,0.28120025992393494,-0.00045327001134864986
1789310167307169500,6.45616943359375,0.4079914689064026,0.24855202436447144,-0.004679706413298845
1789310167317180400,6.466180419921875,0.40424254536628723,0.20641495287418365,-0.0070730894804000854
1789310167327192300,6.4761923828125,0.3943302631378174,0.16982312500476837,-0.012080631218850613
1789310167337203200,6.486203125,0.38199982047080994,0.13382038474082947,-0.010334929451346397
1789310167347214300,6.49621435546875,0.36574310064315796,0.10012660175561905,-0.011183944530785084
1789310167357226500,6.5062265625,0.35813257098197937,0.06453238427639008,-0.01369397435337305
1789310167367237400,6.5162373046875,0.3625528812408447,0.03188442811369896,-0.010355968028306961
1789310167377249300,6.526249267578125,0.36530181765556335,0.013265471905469894,-0.010868093930184841
1789310167387260400,6.536260498046875,0.3678320646286011,0.003087668912485242,-0.018221082165837288
1789310167397271300,6.546271240234375,0.3675391376018524,-0.0059987702406942844,-0.022229405120015144
1789310167407283200,6.556283203125,0.3649103343486786,-0.02388882078230381,-0.022112226113677025
1789310167417294300,6.56629443359375,0.35121849179267883,-0.04779814928770065,-0.016442622989416122
1789310167427306500,6.576306396484375,0.3448828160762787,-0.07363906502723694,-0.013893711380660534
1789310167437317400,6.5863173828125,0.3374171853065491,-0.1013532504439354,-0.01323937252163887
1789310167447328300,6.596328369140625,0.3235487639904022,-0.12244415283203125,-0.013321131467819214
1789310167457340200,6.606340087890625,0.31443676352500916,-0.124564029276371,-0.018680743873119354
1789310167467351600,6.6163515625,0.30458971858024597,-0.11761930584907532,-0.019569439813494682
1789310167477363500,6.626363525390625,0.29818642139434814,-0.10470777004957199,-0.019823240116238594
1789310167487374300,6.636374267578125,0.2963123619556427,-0.08972881734371185,-0.021225925534963608
1789310167497385200,6.64638525390625,0.29241082072257996,-0.06831194460391998,-0.01606924831867218
1789310167507397400,6.6563974609375,0.28562936186790466,-0.04450834542512894,-0.012555472552776337
1789310167517408300,6.666408203125,0.2785826325416565,-0.016111858189105988,-0.008579373359680176
1789310167527420200,6.676420166015625,0.2683321237564087,0.01308384444564581,-0.005586512852460146
1789310167537431300,6.686431396484375,0.25999510288238525,0.04085661843419075,-0.007956193760037422
1789310167547443500,6.696443359375,0.25157976150512695,0.06816760450601578,-0.01287665031850338
1789310167557454300,6.706454345703125,0.243427574634552,0.09367536008358002,-0.012073973193764687
1789310167567465200,6.71646533203125,0.23622770607471466,0.11973359435796738,-0.010180199518799782
1789310167577477400,6.726477294921875,0.23068301379680634,0.14268551766872406,-0.007195594720542431
1789310167587488500,6.736488525390625,0.22307808697223663,0.16544701159000397,-0.0020421119406819344
1789310167597500400,6.74650048828125,0.20567460358142853,0.17935271561145782,0.001880191732198
1789310167607511300,6.75651123046875,0.18599969148635864,0.18963997066020966,-0.00045912896166555583
1789310167617522200,6.766522216796875,0.16754931211471558,0.1900831162929535,-0.00558251840993762
1789310167627534300,6.776534423828125,0.1545773297548294,0.1843179166316986,-0.006499977316707373
1789310167637545500,6.78654541015625,0.14250415563583374,0.17803071439266205,-0.010996990837156773
1789310167647557400,6.796557373046875,0.12798087298870087,0.16772907972335815,-0.006187588442116976
1789310167657568500,6.806568603515625,0.11165329068899155,0.15348702669143677,-0.0001371527905575931
1789310167667579400,6.816579345703125,0.10293197631835938,0.13210450112819672,0.0019291938515380025
1789310167677591300,6.82659130859375,0.09658566117286682,0.10321933031082153,0.0015004249289631844
1789310167687602200,6.836602294921875,0.086009182035923,0.0804453045129776,-0.00384400668554008
1789310167697614300,6.8466142578125,0.07419700175523758,0.05949635058641434,-0.012735236436128616
1789310167707625500,6.85662548828125,0.06078052520751953,0.0417461134493351,-0.012032161466777325
1789310167717637400,6.866637451171875,0.05451623722910881,0.018203770741820335,-0.008599613793194294
1789310167727648300,6.876648193359375,0.05078009143471718,-0.002898584585636854,-0.004021373111754656
1789310167737659400,6.886659423828125,0.04207714647054672,-0.020181434229016304,0.0017592841759324074
1789310167747671300,6.89667138671875,0.03635960444808006,-0.028424717485904694,0.0005739112384617329
1789310167757682400,6.906682373046875,0.028658276423811913,-0.03533162549138069,-0.00247540813870728
1789310167767694300,6.9166943359375,0.02786358818411827,-0.035894084721803665,-0.013078517280519009
1789310167777705500,6.92670556640625,0.03062155842781067,-0.03819532319903374,-0.012686233967542648
1789310167787716400,6.93671630859375,0.030957916751503944,-0.03813140466809273,-0.011684352532029152
1789310167797728300,6.946728271484375,0.03887150064110756,-0.040516000241041183,-0.0062304651364684105
1789310167807739100,6.9567392578125,0.0409943051636219,-0.04048830270767212,0.0016554208705201745
1789310167817751300,6.966751220703125,0.03947870060801506,-0.03701900318264961,0.004309260752052069
1789310167827762400,6.976762451171875,0.03946671634912491,-0.023298131301999092,-0.0017741979099810123
1789310167837773300,6.986773193359375,0.04110615700483322,-0.01125025749206543,-0.008959672413766384
1789310167847785200,6.99678515625,0.04565217345952988,-0.0033300165086984634,-0.012943761423230171
1789310167857796000,7.006796142578125,0.05570746958255768,0.009836651384830475,-0.00845526996999979
1789310167867808000,7.01680810546875,0.06388816982507706,0.027274496853351593,-0.001463406952098012
1789310167877819100,7.026819091796875,0.06884031742811203,0.04695472493767738,0.0019563580863177776
1789310167887831300,7.036831298828125,0.07356849312782288,0.06028011813759804,-0.0005193164106458426
1789310167897842200,7.04684228515625,0.07877550274133682,0.0682525560259819,-0.008872587233781815
1789310167907853000,7.05685302734375,0.08606936782598495,0.07228591293096542,-0.015132347121834755
1789310167917865000,7.066864990234375,0.09619870781898499,0.08079338073730469,-0.01900458335876465
1789310167927876000,7.0768759765625,0.104119211435318,0.09411158412694931,-0.012509932741522789
1789310167937888300,7.08688818359375,0.10973874479532242,0.10951903462409973,-0.001085504423826933
1789310167947899100,7.096899169921875,0.11679799109697342,0.12551771104335785,0.002305232221260667
1789310167957910000,7.106909912109375,0.1269686073064804,0.14329217374324799,0.0011374361347407103
1789310167967922200,7.116922119140625,0.13151222467422485,0.1610938161611557,0.0006578007596544921
1789310167977933000,7.12693310546875,0.1360342651605606,0.1778019517660141,-0.0016626114957034588
1789310167987945000,7.136945068359375,0.1450171023607254,0.19273270666599274,-0.002698581200093031
1789310167997956000,7.1469560546875,0.15059669315814972,0.2045331597328186,-0.002466087229549885
1789310168007968300,7.15696826171875,0.1637343317270279,0.21567051112651825,-0.0036514601670205593
1789310168017979100,7.166979248046875,0.17332172393798828,0.22624938189983368,0.0014197311829775572
1789310168027990000,7.176989990234375,0.17851968109607697,0.23647990822792053,0.0070619042962789536
1789310168038002000,7.187001953125,0.17880436778068542,0.24679167568683624,0.007148989476263523
1789310168048013300,7.197013427734375,0.183336541056633,0.2526860535144806,-0.008816661313176155
1789310168058025200,7.207025146484375,0.18646813929080963,0.25226208567619324,-0.013230051845312119
1789310168068036000,7.2170361328125,0.19733943045139313,0.2515227794647217,-0.004849616438150406
1789310168078047000,7.227046875,0.20040392875671387,0.25062528252601624,0.006108758971095085
1789310168088059100,7.23705908203125,0.19874344766139984,0.24906335771083832,0.015019163489341736
1789310168098070300,7.2470703125,0.19417640566825867,0.24660764634609222,0.012386095710098743
1789310168108082200,7.257082275390625,0.19647496938705444,0.24623426795005798,-0.004162520635873079
1789310168118093000,7.267093017578125,0.19907155632972717,0.24906708300113678,-0.01793106272816658
1789310168128105200,7.277105224609375,0.20242980122566223,0.25451964139938354,-0.02028210274875164
1789310168138116000,7.2871162109375,0.2087675929069519,0.2511043846607208,-0.01206731516867876
1789310168148127000,7.297126953125,0.2104102373123169,0.24282729625701904,-0.000264718197286129
1789310168158139000,7.307138916015625,0.21432827413082123,0.2405196577310562,0.01110564824193716
1789310168168150300,7.317150390625,0.2083638608455658,0.2505488693714142,0.0009302421822212636
1789310168178162200,7.327162109375,0.1973586082458496,0.2670958936214447,-0.00817989930510521
1789310168188173000,7.337173095703125,0.20364341139793396,0.2687552869319916,-0.009411345236003399
1789310168198184000,7.347183837890625,0.22677534818649292,0.25305089354515076,-0.0013821806060150266
1789310168208196000,7.357196044921875,0.23419545590877533,0.24881407618522644,-0.003067961661145091
1789310168218207200,7.367207275390625,0.22748588025569916,0.2715763747692108,-0.00504056503996253
1789310168228219100,7.37721923828125,0.20543570816516876,0.2936883568763733,-0.004653341136872768
1789310168238230000,7.38722998046875,0.19501475989818573,0.29919469356536865,0.005335909314453602
1789310168248242200,7.3972421875,0.20206227898597717,0.28331318497657776,0.01728045381605625
1789310168258253000,7.407253173828125,0.2116459310054779,0.2673496901988983,0.018687134608626366
1789310168268264000,7.417263916015625,0.208722323179245,0.2584286332130432,0.004352670628577471
1789310168278276000,7.427276123046875,0.20136027038097382,0.2631269693374634,-0.012746421620249748
1789310168288287200,7.437287353515625,0.19313058257102966,0.26734861731529236,-0.01624874398112297
1789310168298299100,7.447299072265625,0.18373441696166992,0.2791498899459839,-0.013806359842419624
1789310168308310000,7.45731005859375,0.18145954608917236,0.27455008029937744,0.010538660921156406
1789310168318321000,7.46732080078125,0.19129033386707306,0.26138579845428467,0.03201146051287651
1789310168328333000,7.4773330078125,0.19424191117286682,0.24587634205818176,0.02967320755124092
1789310168338344200,7.48734423828125,0.1993168294429779,0.23957477509975433,0.01613289676606655
1789310168348356000,7.497356201171875,0.1673290729522705,0.23111417889595032,-0.0024732777383178473
1789310168358367200,7.5073671875,0.14116857945919037,0.21398313343524933,-0.006472812965512276
1789310168368379100,7.517379150390625,0.14303971827030182,0.20399999618530273,-0.0021499700378626585
1789310168378390000,7.52739013671875,0.15002678334712982,0.20123404264450073,0.007120227441191673
1789310168388401200,7.537401123046875,0.16071538627147675,0.2164801061153412,0.032286565750837326
1789310168398413000,7.5474130859375,0.16324883699417114,0.21035777032375336,0.024699753150343895
1789310168408424200,7.557424072265625,0.1563938707113266,0.2043829709291458,0.02028796076774597
1789310168418436000,7.56743603515625,0.12362872809171677,0.20118877291679382,0.00785552617162466
1789310168428447000,7.577447021484375,0.11209990829229355,0.21548861265182495,-0.0010508833220228553
1789310168438458000,7.5874580078125,0.12797527015209198,0.2131602168083191,0.0011385013349354267
1789310168448470000,7.597469970703125,0.1488126516342163,0.20388148725032806,0.0007145261042751372
1789310168458481200,7.607481201171875,0.1482539176940918,0.21079319715499878,0.007919441908597946
1789310168468493000,7.6174931640625,0.12867063283920288,0.23790523409843445,0.014994928613305092
1789310168478504200,7.627504150390625,0.1293816864490509,0.2621477246284485,0.027768515050411224
1789310168488515000,7.63751513671875,0.12117382884025574,0.2785719633102417,-0.0018136126454919577
1789310168498527000,7.64752685546875,0.123432457447052,0.24984125792980194,0.028266524896025658
1789310168508538000,7.6575380859375,0.15292537212371826,0.2701910138130188,0.0400928258895874
1789310168518550300,7.66755029296875,0.14473187923431396,0.2602582275867462,0.019999807700514793
1789310168528561200,7.67756103515625,0.12759071588516235,0.2539350688457489,0.0011664645280689
1789310168538573000,7.687572998046875,0.10114339739084244,0.2555675804615021,-0.02250397764146328
1789310168548584000,7.697583984375,0.10487101972103119,0.24159078299999237,0.002651443239301443
1789310168558595000,7.707594970703125,0.12438320368528366,0.2396022081375122,0.034566499292850494
1789310168568607000,7.71760693359375,0.1420964151620865,0.2383398711681366,0.05901804566383362
1789310168578618000,7.7276181640625,0.13860101997852325,0.24509844183921814,0.0665031298995018
1789310168588630300,7.73763037109375,0.09881765395402908,0.2661730945110321,0.06540297716856003
1789310168598641200,7.74764111328125,0.08065596222877502,0.3382613956928253,0.020174777135252953
1789310168608652000,7.757652099609375,0.08859511464834213,0.3800879418849945,0.013451093807816505
1789310168618664000,7.767663818359375,0.0952996239066124,0.37335681915283203,0.02394847571849823
1789310168628675000,7.777675048828125,0.11268260329961777,0.38362088799476624,0.0335686132311821
1789310168638687200,7.787687255859375,0.10794004797935486,0.4205949008464813,0.0418718159198761
1789310168648698000,7.797697998046875,0.09052244573831558,0.45426443219184875,0.07167232036590576
1789310168658710000,7.8077099609375,0.07301162928342819,0.4872274398803711,0.07881545275449753
1789310168668721200,7.81772119140625,0.07242759317159653,0.4858228862285614,0.11196568608283997
1789310168678732000,7.82773193359375,0.08048791438341141,0.4993131458759308,0.08938181400299072
1789310168688744200,7.837744140625,0.08363790810108185,0.5048831701278687,0.06824483722448349
1789310168698755000,7.847755126953125,0.08242643624544144,0.510314404964447,0.06870716065168381
1789310168708767200,7.857767333984375,0.053590256720781326,0.4764840006828308,0.07122810930013657
1789310168718778000,7.867778076171875,0.017658889293670654,0.4450448453426361,0.08929925411939621
1789310168728789000,7.8777890625,-0.007822769694030285,0.4233989417552948,0.09489481896162033
1789310168738801000,7.88780078125,-0.012724850326776505,0.38786330819129944,0.09882058948278427
1789310168748812300,7.897812255859375,-0.009790845215320587,0.35610058903694153,0.09581547230482101
1789310168758824200,7.90782421875,-0.01571105234324932,0.3180203139781952,0.09371291100978851
1789310168768835000,7.9178349609375,-0.024159930646419525,0.293864905834198,0.08424164354801178
1789310168778847000,7.927846923828125,-0.06831035017967224,0.31359413266181946,0.058640144765377045
1789310168788858000,7.937858154296875,-0.09058582782745361,0.30003517866134644,0.07296901196241379
1789310168798869200,7.947869140625,-0.09377123415470123,0.2732778787612915,0.11608213186264038
1789310168808881200,7.957881103515625,-0.08271005749702454,0.25370338559150696,0.14847229421138763
1789310168818892000,7.96789208984375,-0.08234094828367233,0.2567974328994751,0.13158439099788666
1789310168828904200,7.977904296875,-0.06583840399980545,0.22731491923332214,0.11993598937988281
1789310168838915000,7.9879150390625,-0.11515454947948456,0.2303471863269806,0.09678832441568375
1789310168848926000,7.997926025390625,-0.1772349625825882,0.21293197572231293,0.0958077535033226
1789310168858938400,8.0079384765625,-0.22029508650302887,0.1902189403772354,0.10901650041341782
1789310168868949500,8.017949462890625,-0.2683323919773102,0.158121719956398,0.12735769152641296
1789310168878961400,8.02796142578125,-0.3049844205379486,0.11373375356197357,0.15125928819179535
1789310168888972300,8.03797216796875,-0.3385807275772095,0.06960012018680573,0.16905106604099274
1789310168898984400,8.047984375,-0.3568641245365143,0.04505615681409836,0.136975958943367
1789310168908995300,8.057995361328125,-0.36681902408599854,0.0026770094409585,0.12069978564977646
1789310168919006500,8.06800634765625,-0.35903966426849365,-0.03141145035624504,0.10609554499387741
1789310168929018400,8.078018310546875,-0.35754960775375366,-0.07632885873317719,0.08989126980304718
1789310168939029500,8.088029541015626,-0.36429592967033386,-0.15488731861114502,0.0928947851061821
1789310168949041400,8.09804150390625,-0.39269429445266724,-0.2535100281238556,0.10403025895357132
1789310168959052300,8.10805224609375,-0.4558833837509155,-0.35014015436172485,0.09816784411668777
1789310168969063200,8.118063232421875,-0.4875986874103546,-0.4347519874572754,0.07429100573062897
1789310168979075300,8.128075439453125,-0.4730442464351654,-0.48224785923957825,0.04344334825873375
1789310168989086500,8.13808642578125,-0.4366154074668884,-0.5613788962364197,0.050808850675821304
1789310168999098400,8.148098388671874,-0.3904215395450592,-0.616643488407135,0.05427362397313118
1789310169009109200,8.158109130859375,-0.3512270152568817,-0.6103275418281555,0.04771825298666954
1789310169019120400,8.168120361328125,-0.3716238737106323,-0.5487515330314636,0.03957537189126015
1789310169029132300,8.17813232421875,-0.40427449345588684,-0.46353358030319214,0.022241389378905296
1789310169039143400,8.188143310546875,-0.38213858008384705,-0.39068251848220825,0.015605324879288673
1789310169049155300,8.1981552734375,-0.3604694902896881,-0.35038596391677856,0.0196852870285511
1789310169059166500,8.20816650390625,-0.3136231601238251,-0.2790902256965637,0.002526541007682681
1789310169069178400,8.218178466796875,-0.27871260046958923,-0.19368425011634827,0.008050469681620598
1789310169079189200,8.228189208984375,-0.2771892547607422,-0.10548008978366852,0.03495212644338608
1789310169089200400,8.238200439453125,-0.2852618396282196,0.03982331231236458,0.03333132341504097
1789310169099212300,8.24821240234375,-0.2892403304576874,0.2164878249168396,0.043365318328142166
1789310169109223400,8.258223388671874,-0.17327457666397095,0.3519817292690277,0.062015432864427567
1789310169119235300,8.2682353515625,-0.05150766670703888,0.4891244173049927,0.04563246667385101
1789310169129246200,8.27824609375,0.1062321662902832,0.5596569180488586,0.03624056279659271
1789310169139257300,8.28825732421875,0.18455226719379425,0.5871292948722839,0.05434552952647209
1789310169149269200,8.298269287109376,0.19844305515289307,0.6253006458282471,0.07913476228713989
1789310169159280400,8.3082802734375,0.15996143221855164,0.6595688462257385,0.1023508757352829
1789310169169292500,8.31829248046875,0.12985387444496155,0.7105396389961243,0.09748633950948715
1789310169179303400,8.328303466796875,0.135427325963974,0.7466305494308472,0.07129655033349991
1789310169189315300,8.3383154296875,0.19136223196983337,0.7684804201126099,0.046968840062618256
1789310169199326200,8.348326171875,0.2492135465145111,0.7547792792320251,0.06061407923698425
1789310169209337300,8.35833740234375,0.2742597758769989,0.7200223207473755,0.06791247427463531
1789310169219349500,8.368349609375,0.28346046805381775,0.688976526260376,0.07947644591331482
1789310169229360400,8.3783603515625,0.3111986219882965,0.6316632032394409,0.11900308728218079
1789310169239372300,8.388372314453125,0.21447154879570007,0.6448655724525452,0.10248535871505737
1789310169249383400,8.398383544921876,0.1720156967639923,0.6425595283508301,0.07270829379558563
1789310169259394300,8.408394287109376,0.16423740983009338,0.612898051738739,0.053288254886865616
1789310169269406200,8.41840625,0.16424912214279175,0.5558879971504211,0.03569008782505989
1789310169279417300,8.428417236328125,0.18786178529262543,0.45274990797042847,0.07364412397146225
1789310169289429500,8.438429443359375,0.18773287534713745,0.36873435974121094,0.10288377106189728
1789310169299440400,8.4484404296875,0.14115898311138153,0.2871319055557251,0.0990339070558548
1789310169309451300,8.458451171875,0.10337725281715393,0.15780986845493317,0.10635174065828323
1789310169319463200,8.468463134765624,0.06275872141122818,0.007518370170146227,0.10537569224834442
1789310169329474600,8.478474609375,-0.0010546117555350065,-0.14527064561843872,0.08776580542325974
1789310169339486500,8.488486572265625,-0.14251932501792908,-0.29101133346557617,0.09436032176017761
1789310169349497300,8.498497314453125,-0.2733268737792969,-0.3697061538696289,0.05312234163284302
1789310169359509200,8.50850927734375,-0.3380345106124878,-0.5299397706985474,0.03664456307888031
1789310169369520400,8.518520263671874,-0.3851870894432068,-0.6887829303741455,0.015470835380256176
1789310169379531300,8.52853125,-0.45120951533317566,-0.9029993414878845,0.03690555319190025
1789310169389543200,8.538543212890625,-0.6033300757408142,-1.0228253602981567,0.031247135251760483
1789310169399554300,8.54855419921875,-0.7532263994216919,-1.06374990940094,-0.011121626943349838
1789310169409566500,8.55856640625,-0.8542589545249939,-1.1299622058868408,-0.05541558936238289
1789310169419577300,8.568577392578124,-0.8886364102363586,-1.2290406227111816,-0.029983997344970703
1789310169429588200,8.578588134765624,-0.8834541440010071,-1.2739866971969604,-0.0483614057302475
1789310169439600000,8.58860009765625,-0.921562910079956,-1.362377643585205,-0.05565553903579712
1789310169449611500,8.598611572265625,-0.9606935381889343,-1.397309422492981,-0.08063572645187378
1789310169459623400,8.60862353515625,-1.0208282470703125,-1.428078055381775,-0.08791787177324295
1789310169469634300,8.61863427734375,-1.0292515754699707,-1.4791582822799683,-0.07154475897550583
1789310169479646500,8.628646484375,-1.001589059829712,-1.495707392692566,-0.0590345561504364
1789310169489657300,8.6386572265625,-1.0289636850357056,-1.5099103450775146,-0.05985641106963158
1789310169499668500,8.64866845703125,-1.069435954093933,-1.4713349342346191,-0.11326583474874496
1789310169509680400,8.658680419921875,-0.9787992835044861,-1.503608226776123,-0.12848447263240814
1789310169519691300,8.668691162109376,-0.9299089908599854,-1.4905906915664673,-0.11400140076875687
1789310169529703400,8.678703369140624,-0.8953086733818054,-1.4766565561294556,-0.055039551109075546
1789310169539714300,8.68871435546875,-0.9002901315689087,-1.3466899394989014,-0.07211200892925262
1789310169549725200,8.69872509765625,-0.877183735370636,-1.3456028699874878,-0.04627269133925438
1789310169559737300,8.7087373046875,-0.8251980543136597,-1.2907278537750244,-0.10105045139789581
1789310169569748500,8.71874853515625,-0.7477234601974487,-1.2448232173919678,-0.13894696533679962
1789310169579760400,8.728760498046874,-0.6411283016204834,-1.2586402893066406,-0.10995100438594818
1789310169589771300,8.738771240234374,-0.5770167112350464,-1.1945233345031738,-0.07989855855703354
1789310169599783400,8.748783447265625,-0.5267333388328552,-1.1336948871612549,-0.04105715453624725
1789310169609794300,8.758794189453125,-0.49985775351524353,-1.0503288507461548,-0.03491537272930145
1789310169619805400,8.768805419921875,-0.4849693477153778,-0.9161324501037598,-0.06589166820049286
1789310169629817300,8.7788173828125,-0.43723803758621216,-0.7812188863754272,-0.07519115507602692
1789310169639828500,8.788828369140624,-0.3762178421020508,-0.6717352271080017,-0.07774432748556137
1789310169649840400,8.79884033203125,-0.2790585458278656,-0.5587658286094666,-0.04875901713967323
1789310169659851300,8.808851318359375,-0.1845805048942566,-0.48906928300857544,-0.0021784657146781683
1789310169669862100,8.818862060546875,-0.12952390313148499,-0.37766021490097046,0.0008040083339437842
1789310169679874300,8.828874267578126,-0.09358134865760803,-0.29817017912864685,0.008800681680440903
1789310169689885400,8.838885498046874,-0.07430698722600937,-0.17398084700107574,-0.0034943337086588144
1789310169699897300,8.8488974609375,-0.0443890355527401,-0.038119424134492874,0.0017278589075431228
1789310169709908200,8.858908203125,0.035423506051301956,0.04079829528927803,0.03516464680433273
1789310169719919400,8.86891943359375,0.1124839335680008,0.13119584321975708,0.027847610414028168
1789310169729931300,8.87893115234375,0.1878841519355774,0.18899761140346527,0.01685195043683052
1789310169739942400,8.8889423828125,0.2206127941608429,0.25863581895828247,-0.022240057587623596
1789310169749954600,8.89895458984375,0.25240615010261536,0.31318214535713196,-0.04177434369921684
1789310169759965400,8.90896533203125,0.2524349093437195,0.34076637029647827,-0.014063620939850807
1789310169769977300,8.918977294921875,0.2553500235080719,0.33437585830688477,0.044085968285799026
1789310169779988200,8.92898828125,0.26342976093292236,0.30742892622947693,0.0421900637447834
1789310169789999400,8.938999267578126,0.26060736179351807,0.2719031572341919,0.011841746047139168
1789310169800011500,8.949011474609375,0.2660961151123047,0.22389674186706543,-0.017242636531591415
1789310169810022400,8.9590224609375,0.28695160150527954,0.1909816712141037,-0.010055030696094036
1789310169820034300,8.969034423828125,0.321139931678772,0.21363398432731628,-0.01840776950120926
1789310169830045400,8.97904541015625,0.2834612727165222,0.1955985277891159,0.034697793424129486
1789310169840056300,8.989056396484376,0.2549803555011749,0.2231348156929016,0.028781846165657043
1789310169850068200,8.999068115234374,0.19044718146324158,0.2530224025249481,0.002713228575885296
1789310169860079900,9.009079833984375,0.15074236690998077,0.22930055856704712,-0.001219461439177394
1789310169870091800,9.019091796875,0.13653014600276947,0.1574849635362625,0.00941906776279211
1789310169880103000,9.02910302734375,0.08519558608531952,0.16190394759178162,-0.026221217587590218
1789310169890114800,9.03911474609375,0.04983413591980934,0.10550911724567413,-0.02225736901164055
1789310169900125700,9.049125732421874,0.00643712654709816,0.07547478377819061,-0.0205185916274786
1789310169910136600,9.059136474609375,-0.016588032245635986,0.059001002460718155,-0.011288341134786606
1789310169920148700,9.069148681640625,-0.04466360807418823,0.04026832804083824,0.000806138850748539
1789310169930159900,9.079159912109375,-0.06700167059898376,0.04331391677260399,-0.019528428092598915
1789310169940171800,9.089171875,-0.10206937789916992,0.0419037751853466,-0.02346724271774292
1789310169950182700,9.0991826171875,-0.12840937077999115,0.0177592895925045,-0.011797004379332066
1789310169960193800,9.10919384765625,-0.14458860456943512,-0.0373590886592865,-0.002246376359835267
1789310169970205700,9.119205810546875,-0.143794983625412,-0.13138039410114288,-0.0014764565275982022
1789310169980216800,9.129216796875,-0.14503762125968933,-0.22044076025485992,-0.023268571123480797
1789310169990228700,9.139228759765626,-0.16301901638507843,-0.2810063660144806,-0.03744244575500488
1789310170000239900,9.149239990234374,-0.18525055050849915,-0.3179630637168884,-0.023613451048731804
1789310170010250800,9.159250732421874,-0.20802803337574005,-0.35877254605293274,-0.013889450579881668
1789310170020262700,9.1692626953125,-0.21713711321353912,-0.3997444808483124,-0.020358800888061523
1789310170030273800,9.179273681640625,-0.24060408771038055,-0.48669400811195374,-0.02418922632932663
1789310170040286000,9.189285888671876,-0.25352227687835693,-0.5477871894836426,-0.03176192566752434
1789310170050296800,9.199296875,-0.28144338726997375,-0.6231299042701721,-0.007482683751732111
1789310170060308700,9.209308837890624,-0.3025337755680084,-0.669776201248169,-0.012489160522818565
1789310170070319600,9.219319580078125,-0.3140018582344055,-0.7308630347251892,-0.043528567999601364
1789310170080330800,9.229330810546875,-0.33200377225875854,-0.7845560908317566,-0.044255077838897705
1789310170090342700,9.2393427734375,-0.37368276715278625,-0.8016317486763,-0.03215287625789642
1789310170100353800,9.249353759765626,-0.4003588557243347,-0.805374264717102,-0.00023808660625945777
1789310170110366000,9.259365966796874,-0.3996241092681885,-0.7970923781394958,0.0004892227007076144
1789310170120376800,9.269376953125,-0.38586780428886414,-0.8068413734436035,0.009994843043386936
1789310170130387700,9.2793876953125,-0.3572308421134949,-0.7806087136268616,-0.027905400842428207
1789310170140399600,9.289399658203125,-0.34274882078170776,-0.7540783286094666,-0.03922649845480919
1789310170150410800,9.29941064453125,-0.326852411031723,-0.7221885323524475,-0.03941158950328827
1789310170160423000,9.3094228515625,-0.3147512972354889,-0.7141623497009277,-0.015198926441371441
1789310170170433800,9.319433837890625,-0.29676881432533264,-0.6901824474334717,-0.005382248666137457
1789310170180445700,9.32944580078125,-0.29205024242401123,-0.6755342483520508,0.01642477884888649
1789310170190456800,9.339456787109375,-0.3253312110900879,-0.5680099129676819,-0.03701048344373703
1789310170200467700,9.3494677734375,-0.2596273124217987,-0.5198807120323181,-0.04956462234258652
1789310170210479600,9.359479736328124,-0.1857466995716095,-0.45748794078826904,-0.040227048099040985
1789310170220490800,9.36949072265625,-0.10674029588699341,-0.4111846089363098,-0.009280850179493427
1789310170230503000,9.3795029296875,-0.02749367617070675,-0.3850401043891907,0.022640863433480263
1789310170240513800,9.389513671875,0.00708747049793601,-0.33419689536094666,0.02949237823486328
1789310170250524700,9.399524658203125,0.00917219277471304,-0.2654188871383667,0.01823439821600914
1789310170260536600,9.40953662109375,0.02237667888402939,-0.21716667711734772,-0.010853180661797523
1789310170270548000,9.4195478515625,0.06330972909927368,-0.19018538296222687,0.005859486758708954
1789310170280559900,9.429559814453125,0.12552224099636078,-0.1536971479654312,0.01876969262957573
1789310170290570800,9.43957080078125,0.17877987027168274,-0.08078166842460632,0.023194268345832825
1789310170300582700,9.449582763671875,0.2009757161140442,0.003531617810949683,0.05366881936788559
1789310170310593800,9.45959375,0.22959990799427032,0.08533673733472824,0.04349527880549431
1789310170320605000,9.46960498046875,0.26212695240974426,0.1326480507850647,0.03393133357167244
1789310170330616800,9.479616943359375,0.2900235652923584,0.17091874778270721,0.013685185462236404
1789310170340627700,9.489627685546875,0.3283267617225647,0.1873488575220108,0.005320729687809944
1789310170350639900,9.499639892578125,0.338060587644577,0.22209031879901886,0.018382202833890915
1789310170360650800,9.509650634765626,0.33700039982795715,0.26754435896873474,0.048959020525217056
1789310170370661600,9.51966162109375,0.33806112408638,0.321137011051178,0.05806782841682434
1789310170380673500,9.529673583984374,0.34147316217422485,0.3675633668899536,0.03576065972447395
1789310170390685000,9.539684814453125,0.367686927318573,0.4032555818557739,0.02268214337527752
1789310170400696800,9.54969677734375,0.4008025527000427,0.4346710443496704,0.007091199047863483
1789310170410707700,9.559707763671875,0.41380757093429565,0.4681437611579895,0.015980297699570656
1789310170420718600,9.569718505859376,0.41566139459609985,0.5082786679267883,0.04009255766868591
1789310170430730800,9.579730712890624,0.4194694459438324,0.552386462688446,0.043653205037117004
1789310170440742000,9.589741943359375,0.4263864755630493,0.5857399106025696,0.04092346504330635
1789310170450753800,9.59975390625,0.44833651185035706,0.6225472092628479,0.0325896330177784
1789310170460764700,9.6097646484375,0.4681304395198822,0.6573565602302551,0.020143084228038788
1789310170470776800,9.61977685546875,0.4877784550189972,0.7024638652801514,0.029144037514925003
1789310170480787700,9.62978759765625,0.48397547006607056,0.7745356559753418,0.061047375202178955
1789310170490798600,9.639798583984375,0.48607590794563293,0.8352112770080566,0.057736266404390335
1789310170500810800,9.649810791015625,0.5226703882217407,0.8561514019966125,0.05229862406849861
1789310170510822000,9.65982177734375,0.5379750728607178,0.8935861587524414,0.027290742844343185
1789310170520833800,9.669833740234376,0.5494253039360046,0.9357362389564514,0.031744346022605896
1789310170530844700,9.6798447265625,0.5474622845649719,0.9644421935081482,0.05685369670391083
1789310170540855600,9.68985546875,0.5529313683509827,0.998368501663208,0.05610108748078346
1789310170550867700,9.69986767578125,0.5639139413833618,1.036763310432434,0.06485356390476227
1789310170560878800,9.70987890625,0.5472031831741333,1.0715007781982422,0.03731727972626686
1789310170570890800,9.719890869140626,0.5858893394470215,1.1112385988235474,0.006405967753380537
1789310170580902000,9.72990185546875,0.596459150314331,1.1145530939102173,0.028744829818606377
1789310170590913800,9.739913818359375,0.5962511301040649,1.1164847612380981,0.07917498052120209
1789310170600924700,9.749924560546875,0.6324394941329956,1.1267027854919434,0.06453558057546616
1789310170610935800,9.759935791015625,0.6286109685897827,1.1082409620285034,0.05451357737183571
1789310170620947700,9.76994775390625,0.5910859107971191,1.0969107151031494,0.04062812030315399
1789310170630958800,9.779958740234376,0.583915114402771,1.1076939105987549,0.023505592718720436
1789310170640970800,9.789970703125,0.5540669560432434,1.097908616065979,0.05592558532953262
1789310170650981600,9.799981689453125,0.5269458293914795,1.0829232931137085,0.06875962018966675
1789310170660992800,9.80999267578125,0.5509219765663147,1.0704623460769653,0.06525836884975433
1789310170671004700,9.820004638671875,0.5256222486495972,1.0537062883377075,0.06145031005144119
1789310170681015800,9.830015869140626,0.5069715976715088,1.0548032522201538,0.046240996569395065
1789310170691028000,9.840028076171874,0.49790433049201965,1.031703233718872,0.053397711366415024
1789310170701038800,9.850038818359375,0.48966291546821594,0.9681993722915649,0.07542525231838226
1789310170711050800,9.86005078125,0.44932693243026733,0.9548436403274536,0.09051099419593811
1789310170721061600,9.8700615234375,0.4450658857822418,0.9191617965698242,0.0965406522154808
1789310170731072800,9.88007275390625,0.392904669046402,0.8693114519119263,0.06667862832546234
1789310170741085000,9.8900849609375,0.36480194330215454,0.8375199437141418,0.06229426711797714
1789310170751095800,9.900095703125,0.3300367593765259,0.8072478175163269,0.0605941042304039
1789310170761107700,9.910107666015625,0.279294490814209,0.7501174211502075,0.0849766731262207
1789310170771118800,9.920118896484375,0.27351251244544983,0.7050825357437134,0.10043925791978836
1789310170781129700,9.930129638671875,0.25023141503334045,0.603570818901062,0.10787693411111832
1789310170791141600,9.9401416015625,0.18515761196613312,0.5732187628746033,0.05604089796543121
1789310170801152800,9.95015283203125,0.11280244588851929,0.49818235635757446,0.06948746740818024
1789310170811165000,9.9601650390625,0.0644727349281311,0.46796080470085144,0.0937560498714447
1789310170821175800,9.97017578125,0.009408948011696339,0.4147697687149048,0.11388874799013138
1789310170831187700,9.980187744140625,-0.022842464968562126,0.3711751401424408,0.10142143070697784
1789310170841198600,9.990198486328126,-0.06130756437778473,0.29962506890296936,0.07382096350193024
1789310170851210000,10.0002099609375,-0.08507707715034485,0.27309492230415344,0.04728469252586365
1789310170861221600,10.0102216796875,-0.12588736414909363,0.19148235023021698,0.06304048746824265
1789310170871232500,10.020232421875,-0.17404450476169586,0.12956704199314117,0.0764380469918251
1789310170881244700,10.03024462890625,-0.2204149216413498,0.05524887517094612,0.06718702614307404
1789310170891255600,10.040255615234376,-0.2702682316303253,-0.002365952357649803,0.0379583016037941
1789310170901266700,10.0502666015625,-0.2944422960281372,-0.07532644271850586,0.03214462101459503
1789310170911278600,10.060278564453125,-0.31244713068008423,-0.10409284383058548,0.0338708832859993
1789310170921289700,10.070289794921875,-0.34598270058631897,-0.15579092502593994,0.07393573969602585
1789310170931301600,10.080301513671875,-0.35121554136276245,-0.17609646916389465,0.061825815588235855
1789310170941312500,10.0903125,-0.36874768137931824,-0.21437221765518188,0.037165213376283646
1789310170951324700,10.10032470703125,-0.37021586298942566,-0.24438896775245667,0.028617529198527336
1789310170961335600,10.11033544921875,-0.3904436528682709,-0.2764057517051697,0.02334180846810341
1789310170971346700,10.1203466796875,-0.4258138835430145,-0.3158152103424072,0.033116407692432404
1789310170981358600,10.130358642578125,-0.45216694474220276,-0.36132490634918213,0.0495598278939724
1789310170991369500,10.140369384765625,-0.456564337015152,-0.3735048770904541,0.005215268116444349
1789310171001381600,10.150381591796876,-0.45536085963249207,-0.4249478280544281,0.0030711572617292404
1789310171011392500,10.160392578125,-0.42560163140296936,-0.45082443952560425,0.0009294432238675654
1789310171021403600,10.170403564453125,-0.4058090150356293,-0.461081862449646,-0.001103880233131349
1789310171031415800,10.180415771484375,-0.4142592251300812,-0.4564064145088196,-0.026732278987765312
1789310171041426700,10.1904267578125,-0.4330153465270996,-0.444833904504776,-0.03633776679635048
1789310171051438600,10.2004384765625,-0.4498518407344818,-0.44335827231407166,-0.011485947296023369
1789310171061449500,10.210449462890624,-0.4302416741847992,-0.46844497323036194,0.015982961282134056
1789310171071461600,10.220461669921875,-0.4322528839111328,-0.5045113563537598,0.005212604999542236
1789310171081472500,10.230472412109375,-0.41772401332855225,-0.5083391070365906,-0.03574042022228241
1789310171091483600,10.240483642578125,-0.40979498624801636,-0.5053092241287231,-0.06753084063529968
1789310171101495600,10.25049560546875,-0.4149330258369446,-0.4813237488269806,-0.06524771451950073
1789310171111506700,10.260506591796876,-0.407056987285614,-0.4688420593738556,-0.024162061512470245
1789310171121518600,10.2705185546875,-0.394961953163147,-0.4477234482765198,-0.004493818152695894
1789310171131529500,10.280529541015625,-0.37669694423675537,-0.41388770937919617,0.006097839679569006
1789310171141540600,10.29054052734375,-0.3668192923069,-0.3824387192726135,-0.005143096670508385
1789310171151552800,10.300552734375,-0.35048824548721313,-0.36270204186439514,0.0014612764352932572
1789310171161563600,10.310563720703126,-0.3395887315273285,-0.34390997886657715,-0.03063194453716278
1789310171171575600,10.320575439453124,-0.3387881815433502,-0.32594960927963257,-0.047685764729976654
1789310171181586400,10.33058642578125,-0.2892549932003021,-0.3292527198791504,-0.06226044520735741
1789310171191598600,10.3405986328125,-0.26208221912384033,-0.3212975859642029,-0.039250731468200684
1789310171201609700,10.350609619140625,-0.22659851610660553,-0.3144857585430145,-0.028958147391676903
1789310171211620600,10.36062060546875,-0.19760601222515106,-0.30618494749069214,-0.03242531791329384
1789310171221632500,10.370632568359374,-0.19771839678287506,-0.2809147536754608,-0.05946625769138336
1789310171231643600,10.3806435546875,-0.18377995491027832,-0.26786234974861145,-0.04777204990386963
1789310171241655600,10.390655517578125,-0.1635838747024536,-0.260161817073822,-0.015422365628182888
1789310171251666400,10.40066650390625,-0.14511750638484955,-0.2435133159160614,-0.00270736962556839
1789310171261678600,10.4106787109375,-0.12479200214147568,-0.2228969931602478,-0.03434385731816292
1789310171271689700,10.420689697265624,-0.10137376189231873,-0.20831432938575745,-0.05950646847486496
1789310171281700600,10.43070068359375,-0.08673196285963058,-0.1930173933506012,-0.03155020251870155
1789310171291712500,10.44071240234375,-0.0681481584906578,-0.1937713325023651,-0.00953651312738657
1789310171301723400,10.450723388671875,-0.04626283794641495,-0.1906367987394333,0.0026929883752018213
1789310171311735600,10.460735595703126,-0.028323782607913017,-0.18865247070789337,0.014169348403811455
1789310171321746700,10.47074658203125,-0.018977154046297073,-0.17072780430316925,0.0014865765115246177
1789310171331757600,10.480757568359374,-0.020071713253855705,-0.1194869801402092,-0.02003149874508381
1789310171341769700,10.490769775390625,-0.013172261416912079,-0.08632875978946686,-0.03862275928258896
1789310171351780600,10.500780517578125,0.009236641228199005,-0.06235285475850105,-0.056713346391916275
1789310171361792500,10.51079248046875,0.013512613251805305,-0.034025076776742935,-0.00824807584285736
1789310171371803600,10.5208037109375,0.016052735969424248,-0.009559948928654194,0.029329126700758934
1789310171381815600,10.530815673828124,0.024899756535887718,0.020853349938988686,0.002122006844729185
1789310171391826700,10.54082666015625,0.023681627586483955,0.0279698483645916,-0.03903608396649361
1789310171401837600,10.550837646484375,0.019118832424283028,0.02875841036438942,-0.035413384437561035
1789310171411849500,10.560849365234375,0.02226029895246029,0.006036853417754173,-0.028182368725538254
1789310171421860600,10.570860595703126,0.023085877299308777,-0.006244047544896603,-0.014968562871217728
1789310171431872500,10.58087255859375,0.00833649281412363,-0.01776115410029888,-0.005766009911894798
1789310171441883600,10.590883544921875,-0.032892171293497086,-0.07177991420030594,0.010576744563877583
1789310171451894500,10.60089453125,-0.028263861313462257,-0.06437153369188309,-0.022303175181150436
1789310171461906700,10.61090673828125,-0.04591955617070198,-0.05739777907729149,-0.003760383464396
1789310171471917600,10.62091748046875,-0.04296610876917839,-0.018521752208471298,-0.030966704711318016
1789310171481929500,10.630929443359374,-0.03526318073272705,0.008793758228421211,-0.013058544136583805
1789310171491940600,10.640940673828124,-0.012476377189159393,-0.007464574184268713,0.006873086094856262
1789310171501952800,10.650952880859375,-0.000969923275988549,-0.04789349064230919,0.01888687163591385
1789310171511963600,10.660963623046875,-0.025225995108485222,-0.08742598444223404,-0.015359781682491302
1789310171521974500,10.670974609375,-0.056414272636175156,-0.09754599630832672,-0.04688255488872528
1789310171531986700,10.680986572265626,-0.07649264484643936,-0.11791066080331802,-0.033068206161260605
1789310171541997600,10.69099755859375,-0.07376024127006531,-0.13593359291553497,0.0012636699248105288
1789310171552009500,10.701009521484375,-0.04163666069507599,-0.1536409556865692,0.012403139844536781
1789310171562020600,10.7110205078125,-0.019779829308390617,-0.15384308993816376,-0.004583832807838917
1789310171572031500,10.721031494140625,-0.03732047230005264,-0.12223989516496658,-0.0057066213339567184
1789310171582043600,10.731043701171876,-0.038591332733631134,-0.10049384832382202,-0.03320535644888878
1789310171592054500,10.741054443359374,0.014810903929173946,-0.11753488332033157,-0.013467871583998203
1789310171602066400,10.75106640625,0.024386566132307053,-0.10368138551712036,-0.030113160610198975
1789310171612077800,10.761077880859375,0.014033260755240917,-0.02250397764146328,-0.01564260944724083
1789310171622089700,10.77108984375,-0.0179947130382061,0.016682308167219162,0.021949773654341698
1789310171632100600,10.7811005859375,-0.00464694993570447,0.004484230652451515,0.0344940610229969
1789310171642111500,10.791111572265624,-0.004057325888425112,-0.02478897012770176,0.013785586692392826
1789310171652123600,10.80112353515625,-0.027350930497050285,-0.011030812747776508,-0.032883912324905396
1789310171662134500,10.811134521484375,-0.036789972335100174,-0.03736095502972603,-0.007355650886893272
1789310171672146400,10.821146484375,-0.006332730874419212,-0.04165317118167877,-0.023552997037768364
1789310171682157600,10.831157470703126,0.030039392411708832,-0.03317419812083244,-0.030409837141633034
1789310171692169700,10.841169677734374,0.033539317548274994,-0.012660401873290539,-0.041969552636146545
1789310171702180600,10.8511806640625,0.009071258828043938,-0.0034021881874650717,0.016509467735886574
1789310171712191500,10.86119140625,-0.012797021307051182,-0.02479376271367073,0.06657902896404266
1789310171722203400,10.871203369140625,-0.01088833436369896,-0.042144790291786194,0.00854714959859848
1789310171732214800,10.88121484375,-0.010656905360519886,-0.02893497794866562,-0.04007524624466896
1789310171742226700,10.891226806640624,-0.012034025974571705,0.011461978778243065,-0.02659938670694828
1789310171752237600,10.901237548828124,0.0288859773427248,0.0300870630890131,0.03780996426939964
1789310171762248400,10.91124853515625,0.03554973751306534,0.040957819670438766,0.03386528789997101
1789310171772260600,10.921260498046875,0.031493477523326874,0.022493857890367508,0.019594740122556686
1789310171782271700,10.931271728515625,0.005428321193903685,0.05134334787726402,-0.024101074784994125
1789310171792283600,10.94128369140625,-0.047144077718257904,0.07269816845655441,-0.01503807120025158
1789310171802294500,10.95129443359375,-0.0447634756565094,0.0775909349322319,-0.014132330194115639
1789310171812306700,10.961306640625,-0.0035960664972662926,0.041140779852867126,0.0036195022985339165
1789310171822317600,10.971317626953125,0.03020903468132019,0.022465893998742104,0.012607404962182045
1789310171832328400,10.981328369140625,0.0010570086305961013,0.049070075154304504,0.01489079836755991
1789310171842340600,10.991340576171876,-0.03169481083750725,0.09936334192752838,0.01907462440431118
1789310171852351700,11.001351806640624,-0.034559573978185654,0.09256908297538757,-0.0005552690709009767
1789310171862364000,11.011364013671875,-0.02015986293554306,0.054118361324071884,-0.017790447920560837
1789310171872374800,11.021374755859375,0.0010040117194876075,0.03663044795393944,-0.024037426337599754
1789310171882385700,11.0313857421875,-0.004762264434248209,0.03870212286710739,-0.003275688039138913
1789310171892397600,11.0413974609375,-0.001139566651545465,0.04451606795191765,0.010595652274787426
1789310171902409000,11.051408935546876,0.002433596644550562,0.05429999157786369,0.00014913702034391463
1789310171912420900,11.0614208984375,0.008360727690160275,0.04915396496653557,-0.03370283544063568
1789310171922431700,11.071431640625,-0.0030565098859369755,0.04544444754719734,-0.008595085702836514
1789310171932443600,11.081443603515625,-0.011716044507920742,0.03532576560974121,0.027649205178022385
1789310171942454800,11.091454833984375,-0.02099875919520855,0.01986212097108364,0.02695651724934578
1789310171952465700,11.101465576171876,-0.03702592849731445,-0.00863103847950697,0.00965582299977541
1789310171962477600,11.1114775390625,-0.02917599491775036,-0.022104769945144653,-0.04993826523423195
1789310171972488700,11.12148876953125,-0.026791134849190712,-0.028484372422099113,-0.03242265433073044
1789310171982500900,11.1315009765625,-0.036616332828998566,-0.026854516938328743,-0.01347479596734047
1789310171992511700,11.14151171875,-0.04104916751384735,-0.04085288941860199,0.03130865469574928
1789310172002522600,11.151522705078126,-0.03903608396649361,-0.07222838699817657,0.030910778790712357
1789310172012534500,11.161534423828124,-0.05715702846646309,-0.10916004329919815,0.03320882096886635
1789310172022546000,11.1715458984375,-0.07955820858478546,-0.12729084491729736,0.0020956413354724646
1789310172032557800,11.181557861328125,-0.08140910416841507,-0.14230601489543915,-0.040223054587841034
1789310172042568700,11.191568603515625,-0.08193641155958176,-0.14902463555335999,-0.05469280481338501
1789310172052580900,11.201580810546876,-0.093116894364357,-0.16816850006580353,-0.036729518324136734
1789310172062591700,11.211591796875,-0.08565684407949448,-0.1881272941827774,0.004454935900866985
1789310172072602600,11.2216025390625,-0.0836229920387268,-0.22279632091522217,0.029574936255812645
1789310172082614800,11.23161474609375,-0.10019397735595703,-0.24562600255012512,0.004162520635873079
1789310172092625700,11.241625732421875,-0.116373211145401,-0.2626579999923706,-0.0376507043838501
1789310172102637800,11.251637939453126,-0.12127742916345596,-0.2861497402191162,-0.03337979316711426
1789310172112648700,11.261648681640626,-0.127338245511055,-0.31358882784843445,-0.006162022240459919
1789310172122660600,11.27166064453125,-0.1335170418024063,-0.32472217082977295,-0.016931844875216484
1789310172132671700,11.281671630859375,-0.13634878396987915,-0.34150832891464233,-0.019218968227505684
1789310172142683000,11.291682861328125,-0.14683391153812408,-0.3520435392856598,-0.005912750028073788
1789310172152694800,11.30169482421875,-0.1622277945280075,-0.3955414593219757,-0.008599081076681614
1789310172162705700,11.31170556640625,-0.15861894190311432,-0.456376850605011,-0.0354277640581131
1789310172172717800,11.3217177734375,-0.16412262618541718,-0.49100354313850403,-0.0650210753083229
1789310172182728700,11.331728759765625,-0.1884884238243103,-0.5195091962814331,-0.0641142725944519
1789310172192739800,11.34173974609375,-0.18050533533096313,-0.5301432013511658,-0.020061591640114784
1789310172202751700,11.351751708984375,-0.18554216623306274,-0.5294215083122253,-0.00038589202449657023
1789310172212763000,11.361762939453126,-0.19160352647304535,-0.5472249984741211,-0.013005813583731651
1789310172222774800,11.37177490234375,-0.21008506417274475,-0.5779387354850769,-0.042093925178050995
1789310172232785700,11.38178564453125,-0.22842544317245483,-0.5849577188491821,-0.045875079929828644
1789310172242797600,11.391797607421875,-0.24380093812942505,-0.6319825053215027,-0.002725212834775448
1789310172252808700,11.40180859375,-0.25098562240600586,-0.6312378644943237,-0.024345286190509796
1789310172262819800,11.41181982421875,-0.25588664412498474,-0.6472458839416504,-0.044672396034002304
1789310172272831700,11.421831787109374,-0.2679920196533203,-0.6484408378601074,-0.02803456410765648
1789310172282842600,11.431842529296874,-0.25871703028678894,-0.6286921501159668,-0.006215285509824753
1789310172292854800,11.441854736328125,-0.25823554396629333,-0.6165638566017151,0.006338057108223438
1789310172302865700,11.45186572265625,-0.26292723417282104,-0.5886158347129822,-0.04453204944729805
1789310172312877600,11.461877685546876,-0.2736096978187561,-0.5608060359954834,-0.05847955495119095
1789310172322888700,11.471888671875,-0.2755359709262848,-0.5487056970596313,-0.07514508068561554
1789310172332899800,11.48189990234375,-0.26235997676849365,-0.5126116275787354,-0.0819539874792099
1789310172342911700,11.491911865234375,-0.27098676562309265,-0.48795580863952637,-0.05560920014977455
1789310172352922600,11.501922607421875,-0.28212970495224,-0.47003060579299927,-0.03957750275731087
1789310172362934800,11.511934814453125,-0.29267528653144836,-0.46868279576301575,0.003961718175560236
1789310172372945700,11.521945556640626,-0.30828964710235596,-0.4788496792316437,-0.009271528571844101
1789310172382956800,11.531956787109374,-0.3076310455799103,-0.4813149571418762,-0.06483891606330872
1789310172392968700,11.54196875,-0.29975980520248413,-0.480398029088974,-0.08947395533323288
1789310172402979600,11.5519794921875,-0.2921775281429291,-0.4904994070529938,-0.06387218832969666
1789310172412991700,11.56199169921875,-0.27625927329063416,-0.4985775649547577,-0.028857480734586716
1789310172423002600,11.572002685546876,-0.2724357843399048,-0.4945617914199829,-0.03098135255277157
1789310172433014500,11.5820146484375,-0.29782795906066895,-0.5044631361961365,-0.03447408601641655
1789310172443026000,11.59202587890625,-0.29668015241622925,-0.5059475898742676,-0.026790602132678032
1789310172453036800,11.602036865234375,-0.3027398884296417,-0.5262046456336975,-0.012032427825033665
1789310172463048700,11.612048583984375,-0.29778534173965454,-0.5523481369018555,-0.03517822548747063
1789310172473059600,11.6220595703125,-0.28607675433158875,-0.5882352590560913,-0.032755281776189804
1789310172483071700,11.63207177734375,-0.28080877661705017,-0.5709167718887329,-0.03891943767666817
1789310172493083000,11.642082763671874,-0.29057005047798157,-0.5754861831665039,-0.0070395334623754025
1789310172503094800,11.6520947265625,-0.27928462624549866,-0.5631597638130188,-0.01569826900959015
1789310172513105700,11.662105712890625,-0.29110532999038696,-0.5779203176498413,-0.02936055138707161
1789310172523116800,11.67211669921875,-0.2931314706802368,-0.5859817266464233,-0.03164314851164818
1789310172533128700,11.682128662109376,-0.2848093509674072,-0.5800750851631165,-0.0326538160443306
1789310172543139600,11.6921396484375,-0.27215829491615295,-0.555598258972168,-0.05874880030751228
1789310172553151500,11.7021513671875,-0.25596359372138977,-0.5747724771499634,-0.020111925899982452
1789310172563163000,11.712162841796875,-0.23010458052158356,-0.5697414875030518,0.014224209822714329
1789310172573173800,11.722173828125,-0.22933651506900787,-0.5576730966567993,0.012661732733249664
1789310172583185700,11.732185546875,-0.23434007167816162,-0.5327102541923523,-0.04626177251338959
1789310172593196500,11.742196533203124,-0.22481712698936462,-0.5138638615608215,-0.05434180051088333
1789310172603208700,11.752208740234375,-0.2138872593641281,-0.49967053532600403,-0.04258953779935837
1789310172613219800,11.7622197265625,-0.19444245100021362,-0.5078437924385071,-0.017124392092227936
1789310172623231700,11.772231689453125,-0.1732649952173233,-0.5135722160339355,-0.010521350428462029
1789310172633242600,11.78224267578125,-0.18037191033363342,-0.5146063566207886,-0.0075822859071195126
1789310172643253800,11.792253662109376,-0.18611633777618408,-0.5141501426696777,0.011138138361275196
1789310172653265700,11.802265625,-0.17261411249637604,-0.5164327621459961,0.0008056062506511807
1789310172663276800,11.81227685546875,-0.14151905477046967,-0.5344042778015137,-0.0034999263007193804
1789310172673288700,11.822288818359375,-0.13176175951957703,-0.539983868598938,-0.014799186028540134
1789310172683299800,11.8322998046875,-0.12987570464611053,-0.512774646282196,-0.0062280683778226376
1789310172693311700,11.842311767578124,-0.12076609581708908,-0.4840756058692932,0.008654207922518253
1789310172703322600,11.852322509765624,-0.11293134838342667,-0.4519149959087372,0.00552366254851222
1789310172713333500,11.86233349609375,-0.10030503571033478,-0.43539461493492126,0.016036756336688995
1789310172723345700,11.872345703125,-0.08179552853107452,-0.40899524092674255,0.055036354809999466
1789310172733356800,11.882356689453125,-0.07198897004127502,-0.3801744878292084,0.05573277175426483
1789310172743368700,11.89236865234375,-0.050817374140024185,-0.35131463408470154,-0.005125519819557667
1789310172753379800,11.9023798828125,-0.007148190401494503,-0.3592814803123474,-0.0033659692853689194
1789310172763391700,11.912391845703125,0.009641707874834538,-0.316131591796875,0.012006862089037895
1789310172773402600,11.922402587890625,0.00923104863613844,-0.24447765946388245,0.0379287414252758
1789310172783413800,11.932413818359375,0.010396447964012623,-0.17342185974121094,0.03725442662835121
1789310172793426000,11.942426025390626,0.048887383192777634,-0.11320777982473373,0.004661863669753075
1789310172803436800,11.952436767578124,0.10157456248998642,-0.0991968885064125,0.013410613872110844
1789310172813448700,11.96244873046875,0.12689189612865448,-0.03485571965575218,0.0129951611161232
1789310172823459600,11.97245947265625,0.1573973447084427,0.018620822578668594,0.018998991698026657
1789310172833470700,11.982470703125,0.1675325334072113,0.0740760937333107,0.041918687522411346
1789310172843482600,11.992482666015626,0.17953486740589142,0.11858469992876053,0.052617672830820084
1789310172853493800,12.00249365234375,0.19482994079589844,0.15687642991542816,0.0705103874206543
1789310172863506000,12.012505859375,0.2034873366355896,0.20660777390003204,-0.0032357405871152878
1789310172873516800,12.022516845703125,0.22239018976688385,0.20714972913265228,-0.004397145472466946
1789310172883529000,12.032529052734375,0.21485264599323273,0.24900396168231964,-0.002389121800661087
1789310172893539800,12.042539794921876,0.2113303542137146,0.27417829632759094,0.02785559929907322
1789310172903551000,12.052551025390626,0.2317032665014267,0.275860071182251,0.03080132231116295
1789310172913563000,12.06256298828125,0.22613060474395752,0.308770090341568,0.04713448882102966
1789310172923573800,12.07257373046875,0.21963435411453247,0.32473519444465637,0.04278421401977539
1789310172933586000,12.0825859375,0.22958818078041077,0.3313821852207184,0.007768174633383751
1789310172943596800,12.0925966796875,0.2239135205745697,0.3332674503326416,-0.0161235760897398
1789310172953608700,12.102608642578126,0.21801061928272247,0.3215053379535675,-0.010843059979379177
1789310172963619800,12.112619873046874,0.1960853487253189,0.31165456771850586,0.019941750913858414
1789310172973631000,12.122630859375,0.1618879735469818,0.3321497142314911,0.023998277261853218
1789310172983643000,12.132642822265625,0.1553829312324524,0.2937797009944916,0.02756611444056034
1789310172993653800,12.14265380859375,0.13855788111686707,0.2634817063808441,0.036074113100767136
1789310173003666000,12.152666015625,0.12055544555187225,0.24642229080200195,0.02093191258609295
1789310173013676800,12.1626767578125,0.10723511129617691,0.20854122936725616,0.010608435608446598
1789310173023688700,12.172688720703125,0.07379033416509628,0.16323420405387878,0.002002430846914649
1789310173033699800,12.182699951171875,0.06752977520227432,0.10629528015851974,0.03435530886054039
1789310173043711000,12.1927109375,0.03236539661884308,0.07865885645151138,0.04776699095964432
1789310173053723000,12.202722900390626,-0.007847802713513374,0.037094373255968094,0.03169800713658333
1789310173063733800,12.212733642578126,-0.04390886798501015,0.012371182441711426,0.033309485763311386
