time,seconds_elapsed,z,y,x
1789740866204184800,0.076184814453125,8.341977845177054,5.150380190938711,-0.23532018335089086
1789740866214263000,0.086262939453125,8.327584578165412,5.175071564602852,-0.20087348640775307
1789740866224341000,0.096341064453125,8.308877539607883,5.206472080516815,-0.15995467084106058
1789740866234418000,0.10641796875,8.286156004711986,5.243710216543078,-0.11622159243808128
1789740866244496000,0.116495849609375,8.26040839999318,5.2849949976116415,-0.0697849906974472
1789740866254572800,0.12657275390625,8.231272906401752,5.33069058085978,-0.016520748593588357
1789740866264650800,0.136650634765625,8.199288453119992,5.379643120077252,0.038654829857195726
1789740866274728700,0.146728759765625,8.167637761837243,5.427327246794104,0.06485710584120824
1789740866284806000,0.156805908203125,8.140767290568352,5.4676984201490875,0.05068986157120671
1789740866294883800,0.1668837890625,8.118776992556452,5.500484837463498,0.02286868828162551
1789740866304961800,0.1769619140625,8.096800138548016,5.532829356229305,-0.004005866648984374
1789740866315039000,0.1870390625,8.073713277471064,5.566404878094792,-0.026071532593679145
1789740866325117000,0.197116943359375,8.051784938779473,5.597959123265743,-0.04466163709051907
1789740866335195000,0.20719482421875,8.03207778326869,5.6260500762403005,-0.060610901372507214
1789740866345271800,0.217271728515625,8.012164291530848,5.654256180027127,-0.07067642311183735
1789740866355349800,0.227349853515625,7.987531370055675,5.689012436109781,-0.0696735799119575
1789740866365428000,0.237427978515625,7.954694099336862,5.734971638730168,-0.05767639599030371
1789740866375505000,0.2475048828125,7.912353087213635,5.793363621944189,-0.04458437060322612
1789740866385582800,0.257582763671875,7.8618088948905465,5.861842114886641,-0.0338986049235682
1789740866395660800,0.267660888671875,7.804088527327775,5.938455398967862,-0.03653289894991321
1789740866405738000,0.277738037109375,7.737803745037317,6.024411096411943,-0.057021320481901054
1789740866415816000,0.28781591796875,7.6620631521373985,6.120048814436793,-0.09048116637873463
1789740866425894000,0.297893798828125,7.578627913081646,6.222246621629595,-0.13576288072951137
1789740866435970800,0.307970703125,7.4874027508020395,6.330337578514218,-0.1897786033543758
1789740866446049000,0.318049072265625,7.383191850221157,6.449606347495317,-0.24786773116430266
1789740866456126000,0.3281259765625,7.262344872137904,6.582980214196443,-0.3051288106522523
1789740866466204000,0.338203857421875,7.128252043512463,6.7251610722094775,-0.3614141587095335
1789740866476281900,0.34828173828125,6.987279976767301,6.868468888425826,-0.4152579770999029
1789740866486359800,0.35835986328125,6.846704215863347,7.0052101857334375,-0.46910000539198515
1789740866496436700,0.368436767578125,6.711600164368749,7.13077600903213,-0.5261589133713394
1789740866506514700,0.3785146484375,6.582957417842746,7.245235331904888,-0.5844792926538736
1789740866516591900,0.388591796875,6.460684206348657,7.349676534110308,-0.6420199197355657
1789740866526670000,0.398670166015625,6.345878261995315,7.444112475129962,-0.6967169208891689
1789740866536748000,0.408748046875,6.242234347647428,7.526565132889151,-0.7454621740315109
1789740866546825000,0.418824951171875,6.153744163289666,7.594726814967394,-0.7886348877385259
1789740866556903000,0.42890283203125,6.082275840881467,7.648029950609803,-0.8270127683844417
1789740866566980900,0.43898095703125,6.0256076127201315,7.68927089253664,-0.8588052062254399
1789740866577057800,0.449057861328125,5.976642798542976,7.725337062174082,-0.8770897085219621
1789740866587135700,0.4591357421875,5.926446981266141,7.763589343678951,-0.8799451710183173
1789740866597214000,0.4692138671875,5.870595914706588,7.806805385071039,-0.8719375133905559
1789740866607291000,0.479290771484375,5.811133087390661,7.853034052282571,-0.8549757110651582
1789740866617368800,0.489368896484375,5.753136825495958,7.898389443790912,-0.8290022617012262
1789740866627446800,0.49944677734375,5.697513137951493,7.9417188824295994,-0.7986405142504721
1789740866637524000,0.50952392578125,5.639826672658324,7.986153651961684,-0.7642528722845018
1789740866647602000,0.519601806640625,5.572359402585029,8.037435510909557,-0.7202968261800706
1789740866657680000,0.529679931640625,5.488129798281192,8.099984029281138,-0.6641408583898097
1789740866667756800,0.5397568359375,5.38384407889843,8.17441704671383,-0.6029256709812209
1789740866677835000,0.5498349609375,5.2618490998238325,8.257404542002082,-0.5464384254099801
1789740866687913000,0.559912841796875,5.126531113317609,8.345224864274263,-0.49625999765936285
1789740866697990000,0.569989990234375,4.98292285284996,8.434272682514786,-0.45156540814731266
1789740866708067800,0.58006787109375,4.836444589903951,8.521236680218577,-0.40952195419855414
1789740866718144800,0.590144775390625,4.6890097568854685,8.605294435086845,-0.36397122278120364
1789740866728222700,0.60022265625,4.539459246887266,8.687225699320434,-0.309501746773161
1789740866738301000,0.610301025390625,4.386939365689456,8.767250837671757,-0.24590971069801598
1789740866748377900,0.6203779296875,4.224925387698412,8.848194844433666,-0.17273168002879247
1789740866758456000,0.6304560546875,4.039247625525295,8.935665622615813,-0.09342461768579668
1789740866768534000,0.640533935546875,3.8418630589455365,9.022759968701004,-0.016425237488484706
1789740866778611000,0.65061083984375,3.613655484078824,9.116362966027856,0.061601624876330606
1789740866788689000,0.66068896484375,3.354755541567504,9.214045926144719,0.13180903767035343
1789740866798766800,0.670766845703125,3.079275635655224,9.308776466196775,0.18743901795828713
1789740866808843800,0.68084375,2.812134811282158,9.392211120730638,0.22054926039958372
1789740866818921700,0.690921630859375,2.577952838180959,9.459041261944174,0.22601753574283792
1789740866828999700,0.700999755859375,2.3976659752659497,9.506721881529689,0.2093485606178641
1789740866839076900,0.711076904296875,2.2791759355723857,9.536379937690496,0.1822595694937743
1789740866849155000,0.721155029296875,2.212141942349821,9.552679330584406,0.15203069117506965
1789740866859233000,0.73123291015625,2.176206267224252,9.561375847259164,0.12084323348989709
1789740866869310000,0.74131005859375,2.148911725324392,9.56786988545358,0.09182310990644618
1789740866879388000,0.751387939453125,2.116734233688563,9.57527343970835,0.06287398289970587
1789740866889465900,0.7614658203125,2.0810886275507507,9.583235212367773,0.03246772502036765
1789740866899542800,0.771542724609375,2.053705676715076,9.589195582076906,-0.0012772155772334372
1789740866909620700,0.781620849609375,2.040106628821045,9.592038696548341,-0.033829935017973184
1789740866919699000,0.791698974609375,2.041154238177836,9.591703765505551,-0.05729833819183986
1789740866929775900,0.80177587890625,2.072690947692096,9.584905775928497,-0.06277446804798674
1789740866939853800,0.811853759765625,2.1317714976921676,9.571713116878271,-0.09090741070047952
1789740866949931800,0.821931884765625,2.203724388746917,9.554832709226012,-0.13847511709658428
1789740866960009000,0.832009033203125,2.2733475216798484,9.537581130173802,-0.1918914490561932
1789740866970087000,0.8420869140625,2.318959226036817,9.525119123485684,-0.25478457961436357
1789740866980163800,0.852163818359375,2.3304082562901076,9.520374559307097,-0.3194590771639719
1789740866990241800,0.86224169921875,2.306305203907937,9.5240073628515,-0.38029330243095755
1789740867000320000,0.872320068359375,2.25451261895895,9.53351928756237,-0.44673627095781265
1789740867010397000,0.88239697265625,2.1905038187764583,9.54454161683619,-0.523270096594654
1789740867020475000,0.892474853515625,2.1285873146981,9.55381154948473,-0.6034869946584105
1789740867030552800,0.902552734375,2.0775649834692476,9.559472059464454,-0.6860147634804249
1789740867040629800,0.912629638671875,2.0393017421789468,9.561443067276477,-0.768395525047183
1789740867050707700,0.922707763671875,2.0074165114879605,9.561447743451595,-0.8481696112468838
1789740867060785700,0.93278564453125,1.9731997691094874,9.560935702276229,-0.9302499285623431
1789740867070862800,0.94286279296875,1.9209059566400943,9.563291910013556,-1.0119022297240794
1789740867080941000,0.952941162109375,1.8465172167405486,9.569219546496868,-1.0912268916558474
1789740867091019000,0.96301904296875,1.7691320715039967,9.575046645215153,-1.1657803936630486
1789740867101096000,0.973095947265625,1.6933944012135267,9.580563947331905,-1.231095746399462
1789740867111174000,0.983173828125,1.6246864834293722,9.584734511014819,-1.2898235374391078
1789740867121251800,0.993251953125,1.569131038815528,9.586683891516923,-1.34302788888216
1789740867131328800,1.003328857421875,1.5280658918470142,9.586374679437279,-1.3916989808097482
1789740867141406700,1.01340673828125,1.4991345425255596,9.584875380790233,-1.432878255677223
1789740867151485000,1.02348486328125,1.4777385571449995,9.583744330933689,-1.4623666543595493
1789740867161561900,1.033561767578125,1.4635617093630133,9.583269699159263,-1.4796315312847494
1789740867171639800,1.043639892578125,1.4591142284348606,9.583385434493422,-1.4832712029613553
1789740867181717800,1.0537177734375,1.468329362156242,9.583474866342543,-1.4735706238105892
1789740867191795000,1.063794921875,1.4905826950185,9.583588848111033,-1.450301684165001
1789740867201873000,1.073872802734375,1.521218948561698,9.583694062051176,-1.4174170671731232
1789740867211949800,1.08394970703125,1.553897083196044,9.584095628589392,-1.378725371337682
1789740867222027800,1.09402783203125,1.5840256794780492,9.584970073336363,-1.3377540401324628
1789740867232106000,1.10410595703125,1.6081820694826543,9.58607540422976,-1.300491061925888
1789740867242183000,1.114182861328125,1.6239860800750552,9.587127543631196,-1.2728120507530867
1789740867252260900,1.1242607421875,1.628548273424059,9.588525719991326,-1.256334086421877
1789740867262338800,1.1343388671875,1.6185688773319125,9.591332594105602,-1.2477845770023763
1789740867272416000,1.144416015625,1.5955895682826637,9.596194647184014,-1.2399676196411251
1789740867282494000,1.154493896484375,1.5678586807921528,9.602402269652485,-1.227222412097454
1789740867292572000,1.164572021484375,1.5455463112190364,9.608332828745246,-1.2089812374860047
1789740867302648800,1.17464892578125,1.5363915293827652,9.612387072572112,-1.1882387475781142
1789740867312727000,1.18472705078125,1.5429199082382024,9.613941900798677,-1.1670032865215092
1789740867322805000,1.194804931640625,1.5617054188594222,9.613525136691331,-1.145247893244028
1789740867332882000,1.2048818359375,1.585973306414485,9.612210546961427,-1.1227069025468082
1789740867342959900,1.2149599609375,1.610357075434178,9.610480946689844,-1.1026235341347754
1789740867353037800,1.225037841796875,1.6318229111805558,9.608833179482817,-1.0853044428043066
1789740867363114800,1.23511474609375,1.650285619588196,9.60765069169998,-1.0677054385539144
1789740867373192700,1.245192626953125,1.6642228133954107,9.607322190397976,-1.0488603797651828
1789740867383270700,1.255270751953125,1.6713984041132033,9.6080633641541,-1.0304930945560336
1789740867393347800,1.265347900390625,1.6712664482966064,9.609859015399216,-1.0138247222192585
1789740867403426000,1.275426025390625,1.6636758470371364,9.612571781489253,-1.000510701811686
1789740867413504000,1.28550390625,1.6519412778407334,9.615366380643843,-0.9930762409619986
1789740867423581000,1.295580810546875,1.6426219530925155,9.617195349636674,-0.9908280236437916
1789740867433659000,1.305658935546875,1.6383303933784366,9.617739539515972,-0.9926387993928044
1789740867443736800,1.31573681640625,1.6406016993112862,9.616731239256262,-0.9986513376805931
1789740867453813800,1.325813720703125,1.6482294177107513,9.614364510124922,-1.0088203380607068
1789740867463891700,1.3358916015625,1.6598649104468524,9.610700142398477,-1.0245274641498923
1789740867473970000,1.345969970703125,1.6753125088170169,9.605053076422214,-1.0519714975230394
1789740867484046800,1.356046875,1.6839526191294192,9.599029578348993,-1.0923803725399077
1789740867494124800,1.366124755859375,1.6687950897470116,9.595456980559229,-1.1457260321497917
1789740867504202800,1.37620263671875,1.621788716161251,9.595581483721732,-1.2103743723448366
1789740867514280000,1.386280029296875,1.550747825384885,9.598096681413054,-1.2814528917178512
1789740867524358000,1.39635791015625,1.4734782693520188,9.60013549376428,-1.355232705938816
1789740867534435800,1.406435791015625,1.4047871565721928,9.600001638251543,-1.4272059091292322
1789740867544512800,1.4165126953125,1.3511277548380196,9.597908465364576,-1.4916487168148158
1789740867554591000,1.426591064453125,1.3137339898586273,9.593076807424426,-1.5547943242967128
1789740867564668000,1.43666796875,1.2848027866676448,9.586695581954718,-1.6170733780771493
1789740867574745900,1.446745849609375,1.2065461923588066,9.586962708458303,-1.6747478606715798
1789740867584823800,1.45682373046875,1.0622614939343185,9.59629576947093,-1.7184541697986424
1789740867594900700,1.466900634765625,0.9321169645432382,9.602253216570615,-1.760193416636437
1789740867604978700,1.476978759765625,0.8475380353450774,9.601533670124411,-1.8062696697652338
1789740867615056600,1.487056640625,0.7985460409000515,9.59870166156888,-1.8432642062939701
1789740867625133800,1.4971337890625,0.7696353690404445,9.59791898675859,-1.8595691521458326
1789740867635212000,1.5072119140625,0.7512486484784633,9.599273908498883,-1.8600969754122196
1789740867645290000,1.5172900390625,0.741569185180962,9.601727731391787,-1.8512891073174773
1789740867655367000,1.527366943359375,0.7389715699031949,9.60483504975736,-1.8361463371127842
1789740867665444900,1.53744482421875,0.7425535200431943,9.608350948923826,-1.816198650844395
1789740867675522800,1.547522705078125,0.7514922479759901,9.611784430503844,-1.7942234042711556
1789740867685599700,1.557599853515625,0.7636475998677313,9.614971243846416,-1.7718733330361545
1789740867695677700,1.567677734375,0.7738279253594577,9.618205987983941,-1.7497627696454523
1789740867705756000,1.577755859375,0.7765436871241778,9.621998366004227,-1.7275743187129498
1789740867715832800,1.587832763671875,0.7725138470862061,9.626017538517713,-1.706868507553637
1789740867725910800,1.597910888671875,0.7671103075422346,9.629302551537751,-1.6907012166067956
1789740867735988700,1.60798876953125,0.7617848016705363,9.631808981400727,-1.678786176276952
1789740867746066000,1.61806591796875,0.7608142761379479,9.633518707928062,-1.669384433942288
1789740867756143900,1.628143798828125,0.7643309790220111,9.634647419697046,-1.6612442359760402
1789740867766221800,1.638221923828125,0.7684202210970222,9.635586746373772,-1.6538932886913418
1789740867776298800,1.648298828125,0.7676300936326385,9.636594462111592,-1.6483907457523046
1789740867786377000,1.658376953125,0.7600020099069923,9.637766428500413,-1.6450727072454987
1789740867796455000,1.668454833984375,0.7457344881668686,9.639377955350279,-1.6421531665369868
1789740867806531800,1.67853173828125,0.7239110711544752,9.641438395011425,-1.6398193167619406
1789740867816609800,1.68860986328125,0.698365930205211,9.64337023985684,-1.6395320242531597
1789740867826687700,1.698687744140625,0.6697915776278823,9.644642159488797,-1.6439666456997393
1789740867836765000,1.708764892578125,0.6398083081007003,9.645638769310713,-1.6500469885267317
1789740867846843000,1.7188427734375,0.6107043786913157,9.646585694772005,-1.6555353568099438
1789740867856920800,1.7289208984375,0.5808323875188827,9.647818451437354,-1.6590990406408905
1789740867866997800,1.738997802734375,0.5515419590940699,9.649133041167259,-1.6614530564211307
1789740867877076000,1.749075927734375,0.5191732557350769,9.65077379411161,-1.6623500052608549
1789740867887154000,1.75915380859375,0.4754696865543723,9.653557287350296,-1.6592628529004751
1789740867897230800,1.76923095703125,0.4241375587239861,9.656222122645378,-1.657673099491
1789740867907308800,1.779308837890625,0.37051129207443445,9.657772859218715,-1.6614907580830156
1789740867917386800,1.78938671875,0.31392347220554945,9.658229370814562,-1.6704647765249012
1789740867927463700,1.799463623046875,0.2557939758526161,9.658488898533582,-1.6788469665534793
1789740867937541600,1.809541748046875,0.20160720750978214,9.659137133309244,-1.682501105146855
1789740867947618800,1.819618896484375,0.17531497452026232,9.66349123686552,-1.6602898578606544
1789740867957697000,1.829697021484375,0.21463254716908559,9.672132808482646,-1.6044162872083485
1789740867967775000,1.83977490234375,0.2892733073346317,9.683421095216273,-1.5225167332872747
1789740867977852000,1.849851806640625,0.3539593857241794,9.696552963989973,-1.4219555873855947
1789740867987929900,1.859929931640625,0.4167783550675958,9.707515087509154,-1.3269587976127861
1789740867998007800,1.8700078125,0.4994300059976056,9.712943542298675,-1.2568638093844056
1789740868008084700,1.880084716796875,0.5650200840221717,9.716911276885867,-1.1969902093105018
1789740868018162700,1.89016259765625,0.6183381615053862,9.720155957895516,-1.14307836718522
1789740868028241000,1.900240966796875,0.6606983897857368,9.722709734031557,-1.09671679430902
1789740868038317800,1.91031787109375,0.6909823227599263,9.725003397926688,-1.0569916637726127
1789740868048395800,1.920395751953125,0.7107122746244072,9.727419226896762,-1.021079296457395
1789740868058473700,1.9304736328125,0.7244563570123166,9.729533442571759,-0.9908180137064307
1789740868068551000,1.940551025390625,0.7346165895640849,9.730869659611582,-0.9699959557563066
1789740868078628900,1.95062890625,0.7374691294509917,9.731997202336787,-0.9564298602838068
1789740868088706800,1.960706787109375,0.7324802351225167,9.733433372619748,-0.9455915092747658
1789740868098783700,1.97078369140625,0.7200957506500184,9.735357034158707,-0.9352324662152677
1789740868108862000,1.980862060546875,0.7007301751185208,9.737654789707063,-0.925965236980468
1789740868118940000,1.99093994140625,0.6744862382501363,9.740251235941052,-0.9181190535247326
1789740868129016800,2.001016845703125,0.6407618094332516,9.743270291501283,-0.910215659989044
1789740868139094800,2.0110947265625,0.6017110344944522,9.746695005252956,-0.9001520927447825
1789740868149172700,2.0211728515625,0.5601637665648013,9.750352358716725,-0.8872632389467209
1789740868159249700,2.031249755859375,0.515424753389135,9.75409271428883,-0.8731372445691377
1789740868169327600,2.04132763671875,0.4638841339072212,9.758637371981143,-0.8509922674521804
1789740868179405800,2.05140576171875,0.4072258426180109,9.763893392813205,-0.8191042602822184
1789740868189483000,2.06148291015625,0.34597689907029266,9.768689394918084,-0.7895495183654129
1789740868199561000,2.07156103515625,0.2954574393296614,9.771924723577499,-0.7697812072519212
1789740868209639000,2.081638916015625,0.2670088137575425,9.773011934292317,-0.7663794359844177
1789740868219715800,2.0917158203125,0.2535601158533245,9.772461899194122,-0.777865218051523
1789740868229793800,2.101793701171875,0.2777016005497426,9.771201085478067,-0.785410445799306
1789740868239871700,2.111871826171875,0.3386030458340421,9.77026351236701,-0.7730976383235305
1789740868249948700,2.12194873046875,0.3991233463136479,9.770027950045465,-0.7467633928231895
1789740868260027000,2.13202685546875,0.46161326636578887,9.767785724076628,-0.7400455558102578
1789740868270104800,2.142104736328125,0.4223112566122785,9.768212425056099,-0.7576808004178106
1789740868280181800,2.152181640625,0.303252038728632,9.76901205100119,-0.8030116420067847
1789740868290259700,2.162259765625,0.26103410499580204,9.763401809903979,-0.8821672309819608
1789740868300337700,2.172337646484375,0.2808575255637057,9.755138423949479,-0.9637401832971721
1789740868310414800,2.182414794921875,0.3202074478458613,9.748716866469383,-1.0150747222803533
1789740868320492800,2.192492919921875,0.35839203440938144,9.744776604411005,-1.0398380652021617
1789740868330571000,2.202571044921875,0.40331349147986617,9.739526428797841,-1.0720736437007785
1789740868340648000,2.21264794921875,0.44403318601157515,9.733178521075844,-1.1128546399656682
1789740868350727000,2.222726806640625,0.4718978924822062,9.728148710215091,-1.1449015640243887
1789740868360804900,2.232804931640625,0.4905558677336201,9.724581373122334,-1.1671565773870796
1789740868370881800,2.2428818359375,0.4966871370302513,9.721721892037987,-1.1881933010011911
1789740868380959700,2.252959716796875,0.5037497323602438,9.718556706005334,-1.2109064333949238
1789740868391038000,2.263037841796875,0.5095983853232116,9.71606722727716,-1.2283058234199882
1789740868401115000,2.273114990234375,0.5117180078256875,9.71457377384901,-1.2391850909613071
1789740868411192800,2.28319287109375,0.5097190525608137,9.713986913871764,-1.24460711601004
1789740868421270000,2.29327001953125,0.5027816545130684,9.714521166878939,-1.243244010963291
1789740868431348000,2.303347900390625,0.48998796818517143,9.71487304905653,-1.245609717181325
1789740868441426000,2.313426025390625,0.4710182601034641,9.712805595132709,-1.2688283879444002
1789740868451502800,2.3235029296875,0.44547458045892413,9.709413614606857,-1.3035456271909176
1789740868461580800,2.333580810546875,0.42530302230678496,9.705231360486149,-1.340899936942756
1789740868471659000,2.343658935546875,0.41983471043091264,9.701586866503954,-1.3686993596248327
1789740868481736000,2.35373583984375,0.42846506653428074,9.698861240932345,-1.38524235201627
1789740868491814000,2.36381396484375,0.4478723257830366,9.696396896645426,-1.39630691299662
1789740868501891800,2.373891845703125,0.4714902980620041,9.692314011245966,-1.416727331343293
1789740868511968800,2.38396875,0.49283221516776826,9.686832949486375,-1.4466379009604453
1789740868522046700,2.394046630859375,0.5121867943812162,9.67945628323853,-1.4886835833989083
1789740868532124700,2.404124755859375,0.525782371676527,9.670431265261769,-1.541653833825141
1789740868542201900,2.414201904296875,0.5285801126362756,9.660808865913749,-1.5999240903556347
1789740868552280000,2.424280029296875,0.5253598719481378,9.65058557806313,-1.6614983568675814
1789740868562358000,2.43435791015625,0.5232821888912469,9.634939680641889,-1.7505714556798337
1789740868572435000,2.44443505859375,0.5260653168037533,9.615238954871892,-1.8549471914336084
1789740868582513000,2.454512939453125,0.5341282117500901,9.593389526635407,-1.962646518652141
1789740868592590800,2.4645908203125,0.5411623116379604,9.574097381666302,-2.052850082799047
1789740868602667800,2.474667724609375,0.5418724692013115,9.565449380308388,-2.0925931873835624
1789740868612745700,2.484745849609375,0.5319801668707281,9.57193698876202,-2.0652866627849638
1789740868622823700,2.49482373046875,0.5220568483473733,9.590497896847129,-1.9799485127173364
1789740868632900600,2.504900634765625,0.5283144839700311,9.614595980793236,-1.8576424218669532
1789740868642978800,2.514978759765625,0.55557472174149,9.641251348006724,-1.7052832841888068
1789740868653056800,2.525056884765625,0.6169562786929309,9.666943423146009,-1.5296895475260912
1789740868663134000,2.535134033203125,0.6812814513482153,9.690185182523727,-1.3440733062818646
1789740868673212000,2.5452119140625,0.7500793124381452,9.70698141902387,-1.1757109821774065
1789740868683289900,2.555289794921875,0.8238266126289964,9.71662661472559,-1.0386776431206612
1789740868693366800,2.56536669921875,0.9059965809892863,9.719531103995442,-0.9382227340724318
1789740868703444700,2.57544482421875,0.9917806481935083,9.716553549489378,-0.8805338576264679
1789740868713523000,2.58552294921875,1.0751830078929663,9.708966455361246,-0.8662306069858372
1789740868723600000,2.595599853515625,1.1515782653093338,9.699004448795318,-0.879534763586521
1789740868733677800,2.605677734375,1.2196543879959731,9.687968675518036,-0.9088877723861485
1789740868743755800,2.615755859375,1.2827522838786243,9.676123923945426,-0.9473873066503554
1789740868753832700,2.625832763671875,1.3454235518470405,9.663777652591467,-0.9857017666712403
1789740868763910700,2.63591064453125,1.403657714150846,9.652235683357715,-1.0170915419954807
1789740868773988600,2.645988525390625,1.4466585053570569,9.643752517172693,-1.0371119281738996
1789740868784065800,2.656065673828125,1.467119109583646,9.639719316133856,-1.0458315334632993
1789740868794144000,2.66614404296875,1.468547973342985,9.640380410391092,-1.0376985689554363
1789740868804222000,2.676221923828125,1.45871894550696,9.645601944431663,-1.0024350940030067
1789740868814299000,2.686298828125,1.4360828969374297,9.655758596786857,-0.9350648545634
1789740868824376800,2.696376953125,1.3863377460375428,9.672544896414875,-0.8308472319807857
1789740868834454800,2.706454833984375,1.2921259691625833,9.696477560666203,-0.6921791313290595
1789740868844531700,2.71653173828125,1.1451881989460437,9.724175130409002,-0.5471371847964823
1789740868854609700,2.726609619140625,0.9615588937353342,9.750771460911631,-0.4101958348721266
1789740868864687900,2.73668798828125,0.9395571244813501,9.756790282809733,-0.30436664890702814
1789740868874764800,2.746764892578125,0.9193270410750061,9.761178873157501,-0.21121461021807045
1789740868884842800,2.7568427734375,0.9047599518664181,9.763654907882213,-0.15111834383681416
1789740868894920700,2.766920654296875,0.9013140491962432,9.764235338118672,-0.13310048398668878
1789740868904998000,2.776997802734375,0.8979779635760933,9.764303142657875,-0.149684009317914
1789740868915075800,2.787075927734375,0.8965786181721835,9.763500009581445,-0.20152555710831657
1789740868925153800,2.79715380859375,0.9010516719330102,9.763015440934895,-0.20498797252187503
1789740868935230700,2.807230712890625,0.9090159288104623,9.762832485583424,-0.17652018559155985
1789740868945309000,2.817308837890625,0.9190331726949661,9.762518597328663,-0.1376955110262148
1789740868955387000,2.827386962890625,0.9285505772985517,9.762082543998956,-0.09963290687454864
1789740868965463800,2.8374638671875,0.936136429317668,9.76168273102641,-0.05979295888601336
1789740868975541800,2.847541748046875,0.940165319507569,9.76146061270833,-0.01816620625416399
1789740868985619700,2.85761962890625,0.9388475879725068,9.761565826648473,0.027792972391692455
1789740868995697000,2.86769677734375,0.9342775035779922,9.76172364755869,0.07904844793942757
1789740869005774800,2.87777490234375,0.9249602246563882,9.762017662069201,0.13357032998814247
1789740869015853000,2.88785302734375,0.907138444500789,9.762750067996977,0.1902615462994203
1789740869025930000,2.897929931640625,0.8761872797895223,9.764223063158989,0.2502095998490229
1789740869036008000,2.908008056640625,0.8387468261241913,9.765725868937373,0.31222032154947515
1789740869046086000,2.9180859375,0.8087695479463786,9.766229726806282,0.3701674105402082
1789740869056162800,2.928162841796875,0.7955068923998624,9.765085232946277,0.42503622459676116
1789740869066240800,2.93824072265625,0.7936061002798378,9.763115394178032,0.47132184615992007
1789740869076318700,2.948318603515625,0.7949594876501709,9.761637138319015,0.4988414289873093
1789740869086395600,2.958395751953125,0.8000980195824057,9.760648127281666,0.5098864815495908
1789740869096473900,2.968473876953125,0.8115953459568321,9.75934990416467,0.5165120371691883
1789740869106551800,2.9785517578125,0.8280944261413067,9.757380065396427,0.5274266682848334
1789740869116629000,2.98862890625,0.8424153585691004,9.75566098651886,0.5364707197556272
1789740869126707000,2.99870703125,0.8496124304663389,9.754667883828281,0.5431358036680147
1789740869136785000,3.008784912109375,0.8504432552672923,9.75427800772786,0.5488102691078558
1789740869146861800,3.01886181640625,0.8463038904402405,9.754250535199045,0.5556316760931164
1789740869156939800,3.028939697265625,0.8405567981556057,9.754512985527516,0.559754710839875
1789740869167018000,3.03901806640625,0.8342684386011212,9.754946700769663,0.561596758509986
1789740869177095000,3.049094970703125,0.8277917168676853,9.755675599566102,0.5584974042551591
1789740869187172900,3.0591728515625,0.823807469537109,9.756521402740479,0.5495564843652769
1789740869197250800,3.069250732421875,0.8249315781962127,9.757230427792667,0.5351146289715543
1789740869207327700,3.07932763671875,0.8333174214866012,9.757797998547554,0.51123088189587
1789740869217405700,3.08940576171875,0.841750830245763,9.758674196860193,0.47970111357904965
1789740869227483600,3.099483642578125,0.8508093121007084,9.759500126290321,0.4457239521101117
1789740869237560800,3.109560791015625,0.8752927421025931,9.75941127896309,0.3976914503470063
1789740869247639000,3.11963916015625,0.9137299517203122,9.758800453588366,0.3183030389966443
1789740869257717000,3.129717041015625,0.9568135258391499,9.757572373098135,0.21136496020788326
1789740869267794000,3.1397939453125,0.9931694722034037,9.7557322981894,0.09837200182694941
1789740869277871900,3.149871826171875,1.0110879907317458,9.75437153123021,-0.017925362686015432
1789740869287949800,3.15994970703125,1.0140367575347422,9.753121238908172,-0.1368955928201787
1789740869298026800,3.17002685546875,1.0198087650649248,9.750203890156746,-0.25278907668190076
1789740869308104700,3.180104736328125,1.0170794862315058,9.74687620703876,-0.3665125412944704
1789740869318183000,3.190182861328125,1.001310546952486,9.744538704001902,-0.46012876342907544
1789740869328259800,3.200259765625,0.9775129803229122,9.743170338258146,-0.5343173045814037
1789740869338337800,3.210337890625,0.9421051284637302,9.743017778044939,-0.5970331423439085
1789740869348415700,3.220415771484375,0.900116217713803,9.744082192406058,-0.6426981112580746
1789740869358492400,3.230492431640625,0.8549071028083562,9.74620225329995,-0.671608198595792
1789740869368570400,3.2405703125,0.8056568227533251,9.749166948324442,-0.6892425664205104
1789740869378648300,3.2506484375,0.7529527489826082,9.752623226258159,-0.6998611371990293
1789740869388725200,3.260725341796875,0.7105822915691882,9.755849202567338,-0.6991969011366367
1789740869398803200,3.27080322265625,0.702823859462142,9.75711293889284,-0.6893220613975077
1789740869408881400,3.28088134765625,0.6968999493058771,9.758417591750622,-0.6767500915288924
1789740869418958300,3.290958251953125,0.7039582703195512,9.758539172303676,-0.6676259970918298
1789740869429036300,3.301036376953125,0.7294851449597627,9.757053902181982,-0.6619165334038436
1789740869439114200,3.3111142578125,0.7608947940282523,9.75601462226212,-0.641552156093344
1789740869449192200,3.321192138671875,0.8039573984242975,9.755180509525538,-0.6004084274632856
1789740869459269400,3.331269287109375,0.8606066296242177,9.75368179540038,-0.5435502662204206
1789740869469347300,3.341347412109375,0.923454715464264,9.751452428913115,-0.476235848621279
1789740869479425500,3.351425537109375,0.959392071090266,9.751115159782767,-0.4070782143082469
1789740869489502500,3.36150244140625,0.9690340519215911,9.752848851707578,-0.33657932145409286
1789740869499580400,3.371580322265625,0.9720101451229304,9.754436413159965,-0.27668944609882307
1789740869509658400,3.381658447265625,0.9784570562399924,9.754846747526527,-0.23662984117735175
1789740869519735300,3.3917353515625,0.9943221493698656,9.75368471800983,-0.2175645820329897
1789740869529813200,3.401813232421875,0.9965318613085895,9.753675950181483,-0.20760233800504355
1789740869539891200,3.41189111328125,0.9887216990143061,9.754417123937607,-0.21014277973547577
1789740869549968100,3.421968017578125,0.9902891675267368,9.753837278223036,-0.22885184585331006
1789740869560046300,3.43204638671875,0.9936670464619993,9.752754159161448,-0.25846955173742026
1789740869570124300,3.442124267578125,0.9983864761993289,9.751319742444156,-0.2922015428062528
1789740869580201500,3.452201416015625,1.0172293430309742,9.748751353260873,-0.3121969041412696
1789740869590279400,3.462279541015625,1.0293226625371723,9.748057525777817,-0.2936771135178394
1789740869600357400,3.472357421875,1.0383238612469285,9.749172209021449,-0.21426649033566936
1789740869610434300,3.482434326171875,1.0598762062329798,9.748830263715982,-0.08569408736582845
1789740869620512300,3.49251220703125,1.092023521926254,9.74532839307487,0.08034464349611661
1789740869630590500,3.502590576171875,1.12453543314822,9.738602299690246,0.255838984038122
1789740869640667400,3.51266748046875,1.1539562464870512,9.729821027341485,0.4115482358617708
1789740869650745300,3.522745361328125,1.1751201766774058,9.721906600955128,0.5234689801676199
1789740869660823300,3.5328232421875,1.181050443509221,9.718339848384261,0.5739070817677304
1789740869670900200,3.542900146484375,1.182862315236777,9.717944711586833,0.5768578578647225
1789740869680978200,3.552978271484375,1.183757875837013,9.719504800510405,0.5480290921349078
1789740869691056000,3.56305615234375,1.1798480089168994,9.722188925027847,0.5073491816243156
1789740869701133300,3.57313330078125,1.1761260657843202,9.724911043468117,0.46175515905451026
1789740869711211500,3.58321142578125,1.1879969747114927,9.725408471596241,0.41888698125202206
1789740869721289500,3.59328955078125,1.1882067450046538,9.726713708975911,0.38676483653262256
1789740869731366400,3.603366455078125,1.1811056808277964,9.728357969051599,0.36663781164195386
1789740869741444400,3.6134443359375,1.173463641642034,9.729446933332085,0.3622750133225694
1789740869751522300,3.623522216796875,1.1666347454700619,9.729611183983087,0.37950584184769537
1789740869761599200,3.63359912109375,1.1624443811081349,9.728472535341977,0.4194279197283089
1789740869771677200,3.64367724609375,1.1625135738868266,9.725813545265794,0.4769691678645089
1789740869781755400,3.65375537109375,1.1649623552784323,9.721817169106005,0.5472944577174261
1789740869791832300,3.663832275390625,1.1669462956372647,9.71690250905752,0.6248354876354336
1789740869801910500,3.67391064453125,1.1722884603828192,9.710754507821798,0.705230482212454
1789740869811988500,3.683988525390625,1.185446997967735,9.703222358751296,0.7826713031589985
1789740869822066400,3.69406640625,1.2051977734245358,9.695164724501966,0.8495126964189111
1789740869832143400,3.704143310546875,1.2278449279099701,9.68721464228034,0.9058967008113861
1789740869842221300,3.71422119140625,1.2501911997526884,9.679906949615479,0.9522560817304998
1789740869852299500,3.724299560546875,1.2742444216437636,9.67344973630011,0.9854257262088357
1789740869862376400,3.73437646484375,1.302616237386316,9.667913729482889,1.002497491714731
1789740869872454400,3.744454345703125,1.339356945284456,9.662337390655278,1.007835418676585
1789740869882532400,3.754532470703125,1.3847139442279934,9.655915833175182,1.0080889550462364
1789740869892609300,3.764609375,1.4353499064877628,9.648799863690137,1.0053967202875762
1789740869902687200,3.774687255859375,1.489261529417336,9.64111047823131,1.0007361811306328
1789740869912765200,3.78476513671875,1.542857072135061,9.633898062634467,0.9889332959383725
1789740869922842400,3.79484228515625,1.5892412221692502,9.6283702391237,0.9691254565320908
1789740869932920300,3.80492041015625,1.6247908205866812,9.624245852670073,0.9509636307671666
1789740869942998500,3.81499853515625,1.6408898686029016,9.623017772179841,0.935618323727697
1789740869953075500,3.825075439453125,1.6395159499011933,9.624927405193448,0.9182227330949156
1789740869963153400,3.8351533203125,1.627024717118591,9.628575990828871,0.902051496625319
1789740869973231400,3.8452314453125,1.607542894796282,9.632740124770999,0.8924606614593416
1789740869983308300,3.855308349609375,1.58280256742388,9.637263739675284,0.8878376047685742
1789740869993386200,3.86538623046875,1.5579592180684207,9.64196797184348,0.8806849565349518
1789740870003464200,3.875464111328125,1.5310945920184253,9.64752619049251,0.8668110372222959
1789740870013541000,3.885541015625,1.495305047365278,9.654769585749506,0.8484670598234981
1789740870023619300,3.895619384765625,1.4541450617201626,9.663657241082191,0.818283810744807
1789740870033697300,3.905697265625,1.4099007001936434,9.674949619469047,0.7602046198070049
1789740870043774500,3.9157744140625,1.3679847816146908,9.685792500522732,0.6960225819494574
1789740870053852400,3.925852294921875,1.335841338378936,9.694826286327839,0.629509836122021
1789740870063930400,3.935930419921875,1.3195704409271478,9.701143798911572,0.5629734171580523
1789740870074007300,3.94600732421875,1.3209255087979137,9.704494278383255,0.4983296435402706
1789740870084085200,3.956085205078125,1.3413640473231672,9.704826871338486,0.4329676751831546
1789740870094163500,3.96616357421875,1.3744669832408427,9.702869892051815,0.3681623177954927
1789740870104240400,3.976240478515625,1.4100532604068516,9.69982219491899,0.3091670714586973
1789740870114318300,3.986318359375,1.439251297840476,9.697076111081241,0.25619022689489646
1789740870124396300,3.996396240234375,1.4532709092341363,9.696029232376814,0.21307068641353397
1789740870134474200,4.00647412109375,1.4465671738117933,9.697652449664472,0.18267512802472338
1789740870144551200,4.01655126953125,1.41706386982128,9.702368956792354,0.1623293823494576
1789740870154629000,4.026629150390625,1.3654635925740002,9.709944360482693,0.15125794410374946
1789740870164707300,4.036707275390625,1.2959138171382247,9.719489018419385,0.1500610350699164
1789740870174784500,4.046784423828125,1.2133182437770067,9.72993968528509,0.16283404393596573
1789740870184862500,4.056862548828125,1.1286441105760634,9.73973218050301,0.18480722641628233
1789740870194940400,4.0669404296875,1.050936455386877,9.747904965564608,0.21041593412104992
1789740870205017300,4.077017333984375,0.9851819075156003,9.754266317290067,0.23254333904869853
1789740870215095300,4.08709521484375,0.9332968950428068,9.759061734873056,0.245056107809674
1789740870225173200,4.09717333984375,0.8985119973875582,9.762081959477067,0.25457016967870294
1789740870235250200,4.107250244140625,0.8949864536099136,9.7617797616601,0.27756754410760476
1789740870245328400,4.117328369140625,0.9056318393301218,9.759791218191385,0.31096312456261366
1789740870255406300,4.12740625,0.9262716725811362,9.756780345937608,0.3429720546985045
1789740870265483300,4.137483154296875,0.9499825107753276,9.75360756112039,0.36752007436919953
1789740870275561200,4.147561279296875,0.9203983966335654,9.756493930211663,0.3661592708773911
1789740870285639200,4.15763916015625,0.8207887793030589,9.765710086846351,0.3572400878952816
1789740870295716400,4.16771630859375,0.7332874598521739,9.772145672851801,0.37127840398941186
1789740870305794300,4.177794189453125,0.698080025935918,9.774342306113242,0.3811984711097553
1789740870315872500,4.18787255859375,0.7328189655575901,9.77180957276523,0.3809101556876674
1789740870325949400,4.197949462890625,0.7768741611875594,9.768886378794909,0.3683823537543416
1789740870336027400,4.20802734375,0.8025458511259407,9.767844176265596,0.33986440753936764
1789740870346105300,4.218105224609375,0.820355940843746,9.767582310459018,0.30282559347748755
1789740870356183800,4.228183837890625,0.8361863279864191,9.767272513857483,0.26752839891854674
1789740870366260700,4.2382607421875,0.8452748396534472,9.767351424312592,0.23393159680301323
1789740870376338700,4.248338623046875,0.8509040046468377,9.767400524151325,0.21024782927883787
1789740870386417000,4.2584169921875,0.8584495246555656,9.767008894485235,0.19740745426500214
1789740870396493800,4.268493896484375,0.8700075682412832,9.766113991472125,0.19097674536406992
1789740870406571800,4.27857177734375,0.8853351934935897,9.764805246961116,0.18747076480342073
1789740870416649700,4.288649658203125,0.9044228288665414,9.763070970514416,0.186717060359288
1789740870426727000,4.298726806640625,0.9260223739951848,9.761037418860196,0.18705348923942072
1789740870436804900,4.308804931640625,0.9478750901672989,9.75894132336378,0.1869629248791374
1789740870446882800,4.3188828125,0.9694536655731498,9.756882637268305,0.18382290982035918
1789740870456959700,4.328959716796875,0.9941302800595759,9.754478498736024,0.17959440540513022
1789740870467038000,4.339037841796875,1.0284479985944925,9.751000008970498,0.1751673279441893
1789740870477116000,4.349115966796875,1.0776614537704736,9.745810039111971,0.1679674065027386
1789740870487192800,4.35919287109375,1.1413032472714781,9.73881857278943,0.15236575008202344
1789740870497270800,4.369270751953125,1.217083441529423,9.729989954167603,0.12798189886393957
1789740870507348700,4.3793486328125,1.3048279220864176,9.719009125947952,0.09305722741181961
1789740870517425700,4.38942578125,1.3903345605887472,9.707489368546009,0.0446563124614302
1789740870527503600,4.399503662109375,1.4323475098013878,9.70148106804192,0.005722775831530452
1789740870537581800,4.409581787109375,1.4399782969407737,9.700351187229156,0.004008003236321383
1789740870547659000,4.419658935546875,1.4514227971494198,9.69864555235505,0.00445765982887242
1789740870557737000,4.429737060546875,1.4633420752629638,9.696855746328831,-0.002474268600955838
1789740870567815000,4.43981494140625,1.4736844594486056,9.695285136011242,-0.009511109576828311
1789740870577892900,4.449892822265625,1.4827578466117382,9.693896896523237,-0.012748574252758407
1789740870587969800,4.4599697265625,1.490841638215631,9.69265887916088,-0.011973734547407366
1789740870598047700,4.4700478515625,1.4978401188008486,9.691582774361967,-0.00921728229598375
1789740870608126000,4.4801259765625,1.5042650372818112,9.69059025619328,-0.006975778417175752
1789740870618203000,4.490202880859375,1.5100085493698716,9.689697691267728,-0.005458821386675117
1789740870628280800,4.50028076171875,1.5144360104233026,9.689006786394119,-0.0026598951147156183
1789740870638358800,4.51035888671875,1.518309783116728,9.688400052672623,0.001774313770149456
1789740870648435700,4.520435791015625,1.52128543792665,9.687931850638986,0.005156216573508572
1789740870658513700,4.530513671875,1.5233034997507928,9.687615039774775,0.005877215762104606
1789740870668591600,4.540591552734375,1.5254317439511418,9.687280108731985,0.004437436170640285
1789740870678668800,4.550668701171875,1.5281884953133762,9.686848147055507,0.002357579280266509
1789740870688747000,4.5607470703125,1.5315331295661627,9.68631915474534,0.0022004607667164234
1789740870698825000,4.570824951171875,1.5348505835510788,9.685791916000843,0.005298034484527306
1789740870708902000,4.58090185546875,1.5386593281842766,9.685184013235569,0.010792649845435516
1789740870718979800,4.590979736328125,1.5437933300718665,9.68435866832733,0.01692321703081252
1789740870729057800,4.601057861328125,1.5521784427098928,9.683009591805934,0.021235956530238034
1789740870739134700,4.611134765625,1.5652427992053328,9.680906482046842,0.021134692679427098
1789740870749212700,4.621212646484375,1.581141794604808,9.678327571469545,0.018155962279718368
1789740870759291000,4.631290771484375,1.5955800698019562,9.675959673294425,0.017008460186939918
1789740870769367800,4.641367919921875,1.6082647793300449,9.673855979013442,0.018868485330091788
1789740870779445800,4.65144580078125,1.6192385932870208,9.672010058885812,0.026035283103364053
1789740870789523700,4.661523681640625,1.627196274293214,9.6706165587008,0.04230897301714867
1789740870799602000,4.671601806640625,1.6328996005013585,9.669530517029761,0.06492619815520011
1789740870809678800,4.681678955078125,1.6368875010937451,9.668661917501687,0.08934814376081339
1789740870819756800,4.6917568359375,1.6394859931543468,9.667981534022092,0.1122350983514916
1789740870829835000,4.7018349609375,1.6418329946719108,9.667371293169259,0.1292274876113981
1789740870839912000,4.711911865234375,1.64403547315225,9.666821258071064,0.1418307750668842
1789740870849990000,4.721989990234375,1.645856404969096,9.666378190478682,0.15059620139254257
1789740870860067800,4.73206787109375,1.6474087489776312,9.666034491607546,0.15555607055593282
1789740870870144800,4.742144775390625,1.648640044338256,9.665774963888525,0.15867805676767602
1789740870880222700,4.75222265625,1.6491829190433025,9.665638185766339,0.161307491955813
1789740870890300700,4.76230078125,1.6491300198122858,9.665612466803193,0.16337847127728164
1789740870900377900,4.7723779296875,1.6490454102687537,9.665568043139576,0.16685153594901783
1789740870910456000,4.7824560546875,1.6495124432586132,9.665427173364161,0.17034913227381185
1789740870920534000,4.792533935546875,1.6502845966748891,9.66526175366938,0.1722557148138061
1789740870930611000,4.80261083984375,1.6513139397226273,9.66505775552988,0.17378959158388896
1789740870940689000,4.81268896484375,1.6525038801595568,9.664821024164556,0.17559623914705588
1789740870950766800,4.822766845703125,1.6537776994876563,9.66453402391672,0.17939464504932984
1789740870960843800,4.83284375,1.6570976376906037,9.663834935736656,0.1862252034554258
1789740870970921700,4.842921630859375,1.6630786117963492,9.662706223967671,0.19141398600386456
1789740870981000000,4.853,1.6704817276597022,9.661505616006254,0.1875904639266431
1789740870991078000,4.863077880859375,1.6637544652312992,9.662554832798241,0.1932363425928168
1789740871001154800,4.87315478515625,1.657582644728571,9.663407065713406,0.20343100713714957
1789740871011232800,4.883232666015625,1.6579523548237978,9.66332464812696,0.2043280107758008
1789740871021310700,4.893310791015625,1.6581148519091307,9.663281978029012,0.2050301676957868
1789740871031388000,4.903387939453125,1.658014752535522,9.663300098207593,0.20497851057378574
1789740871041465900,4.9134658203125,1.6573779159367084,9.663419925194978,0.20447408644929527
1789740871051544000,4.9235439453125,1.6562810606107115,9.66362100072503,0.20384093964491037
1789740871061621000,4.93362109375,1.6552530327372252,9.663796941813827,0.2038288838809356
1789740871071699000,4.943698974609375,1.6540258290298282,9.663998601865767,0.2042297380330972
1789740871081777000,4.95377685546875,1.6533622505545615,9.664104400327801,0.2046216964927502
1789740871091853800,4.963853759765625,1.6529356957055628,9.664154084688425,0.20571776636745778
1789740871101931800,4.973931884765625,1.6427762668713926,9.665720603352785,0.2133450098428875
1789740871112009700,4.984009765625,1.6178896628960966,9.66962520957589,0.22624281413238495
1789740871122086700,4.994086669921875,1.5883474881999193,9.674259299117326,0.23712224607048554
1789740871132164600,5.00416455078125,1.5541059036411344,9.679693014603853,0.2421985629540868
1789740871142242800,5.014242919921875,1.561158452501148,9.679079851141571,0.22038458962347357
1789740871152320800,5.02432080078125,1.5899438174806535,9.675531218749285,0.16304383249543605
1789740871162398000,5.03439794921875,1.615936483001709,9.671943423390388,0.11250585985057987
1789740871172476000,5.044475830078125,1.6383865074798465,9.668625092622637,0.06134294654068071
1789740871182553900,5.054553955078125,1.6560304468505083,9.665790745979548,0.020781502177449875
1789740871192630800,5.064630859375,1.665732633436471,9.66414473233819,0.005136969021166442
1789740871202708700,5.074708740234375,1.6680781736493109,9.663739658668637,0.006141189044091152
1789740871212787000,5.084786865234375,1.6688320607565343,9.663609310287237,0.0055526325833925505
1789740871222864000,5.09486376953125,1.6687918748766184,9.663617493593692,0.004499536484020064
1789740871232941800,5.10494189453125,1.6680935173489153,9.663738489624857,0.0035717187236412426
1789740871243019800,5.115019775390625,1.6674178100444375,9.663855394002795,0.002284235482842632
1789740871253096700,5.1250966796875,1.6667811195760964,9.663965868639945,0.00025563934983401847
1789740871263174700,5.135174560546875,1.6660681490011513,9.66408803371489,-0.0019573778632424365
1789740871273252600,5.145252685546875,1.6653994559593497,9.664202600005268,-0.004171488700220652
1789740871283330800,5.155330810546875,1.6650506425216793,9.664261636716127,-0.005768748135661007
1789740871293408000,5.165407958984375,1.6652314059160649,9.664229488012195,-0.0067328821725473964
1789740871303486000,5.17548583984375,1.665690986251831,9.664149408513307,-0.007696323802156257
1789740871313564000,5.18556396484375,1.666163718330115,9.66406699092686,-0.008728891424264293
1789740871323640800,5.195640869140625,1.6664513030998407,9.664016722044348,-0.010329474471719004
1789740871333718800,5.20571875,1.666192798294127,9.664058223098516,-0.012051222513697574
1789740871343796700,5.215796630859375,1.6656104683615267,9.664157007297874,-0.013869557089725275
1789740871353873000,5.225872802734375,1.6651364211089907,9.66423650227487,-0.015253328181878896
1789740871363950800,5.235950927734375,1.664657551550865,9.664318919861316,-0.0160863095489447
1789740871374029000,5.246029052734375,1.6643207208119333,9.664375033962726,-0.016613478653138735
1789740871384106200,5.256106201171875,1.663486461944878,9.664518826347589,-0.017160714439471484
1789740871394184200,5.26618408203125,1.6626963344804941,9.664653266382217,-0.018004636184015543
1789740871404262100,5.27626220703125,1.6618980237096548,9.664787121894955,-0.019254573454672935
1789740871414339000,5.286339111328125,1.661036876835674,9.664932083323597,-0.020694572812668045
1789740871424417000,5.2964169921875,1.6603966792359948,9.66503905082941,-0.02210106262670597
1789740871434495000,5.306494873046875,1.6601804061368106,9.66507412214279,-0.02296204967048252
1789740871444573200,5.3165732421875,1.660038805709034,9.665097503018378,-0.023412193174334243
1789740871454650000,5.326650146484375,1.6600922894619405,9.665087566146253,-0.023647070509288458
1789740871464728000,5.33672802734375,1.6601280914276837,9.665079967361688,-0.024072145787253973
1789740871474806000,5.346805908203125,1.6600225852265953,9.6650963339746,-0.02477078644274734
1789740871484883000,5.356883056640625,1.6594284187257289,9.665197456261515,-0.025560413866920862
1789740871494961000,5.3669609375,1.6588279686145484,9.665297409504651,-0.02640992966861231
1789740871505039000,5.3770390625,1.6583134432211517,9.665384503266214,-0.027021481129119635
1789740871515116000,5.387115966796875,1.6577980410449207,9.665471597027778,-0.027387588194885754
1789740871525194200,5.3971943359375,1.6574723162218927,9.665527711129188,-0.02767299470725702
1789740871535272200,5.407272216796875,1.6572843924343585,9.665559275311232,-0.02785610532235587
1789740871545349000,5.41734912109375,1.657086677905172,9.665592008537054,-0.028204434702836442
1789740871555427000,5.427427001953125,1.6570879930794238,9.665589670449494,-0.02842525154639734
1789740871565505000,5.437505126953125,1.6568404480591414,9.665632340547441,-0.028572811357502358
1789740871575583000,5.4475830078125,1.6565214452378452,9.665687870126963,-0.028426021014666184
1789740871585660000,5.457659912109375,1.6561173944815992,9.665757428231835,-0.028206571860995608
1789740871595738000,5.467738037109375,1.6558045291401444,9.665811204245687,-0.02780350520214997
1789740871605816000,5.477816162109375,1.6555502621181308,9.665855627909302,-0.027436277041665742
1789740871615893200,5.487893310546875,1.6552600469999015,9.665908234879375,-0.026966485839139204
1789740871625971200,5.49797119140625,1.6547160032510757,9.666003511947393,-0.02630502397243399
1789740871636049200,5.508049072265625,1.6544753263629972,9.66604559752345,-0.025427131459629163
1789740871646126000,5.5181259765625,1.65449783045575,9.66604618204534,-0.024220874642138367
1789740871656204000,5.5282041015625,1.6544629052728415,9.666055534395575,-0.02260064161272021
1789740871666282200,5.5382822265625,1.6544186277396975,9.666066055789589,-0.020953308230533728
1789740871676359200,5.548359130859375,1.6542952936209738,9.666091774752736,-0.019027014059782958
1789740871686437000,5.55843701171875,1.6542578842200337,9.66610171162486,-0.017078859683673363
1789740871696515000,5.56851513671875,1.6542157986439763,9.666111648496985,-0.015211529158544726
1789740871706593000,5.578593017578125,1.6543233506716788,9.666095866405964,-0.013183214226801646
1789740871716670000,5.588669921875,1.6545507296867668,9.666061964136361,-0.010653323573136003
1789740871726748000,5.598747802734375,1.6546841468080877,9.666041505870222,-0.007808285431028343
1789740871736826000,5.608826171875,1.6546445454500616,9.666050858220457,-0.004733825301329489
1789740871746903300,5.6189033203125,1.6543911552108823,9.666093528318404,-0.0015180962488222575
1789740871756981200,5.628981201171875,1.6542079075984655,9.666124507978559,0.0016805615108198251
1789740871767059200,5.63905908203125,1.6539876889765261,9.666161332857609,0.005034202195613761
1789740871777136000,5.64913623046875,1.6539052713900804,9.666173607817292,0.008347070766135584
1789740871787214000,5.659214111328125,1.653900302954018,9.666171269729732,0.011682338968955446
1789740871797292000,5.6692919921875,1.6538474037230013,9.666174776861071,0.01535674289058079
1789740871807369000,5.679368896484375,1.6538469653315842,9.666168347120285,0.019187522400717714
1789740871817447200,5.689447265625,1.6537774072267115,9.666172438773513,0.022984309451351874
1789740871827525000,5.699525146484375,1.6537467198275029,9.666167178076504,0.02705267085182713
1789740871837603000,5.70960302734375,1.6535663948245345,9.666185882776976,0.03094303163716104
1789740871847680000,5.719679931640625,1.6534063819572329,9.666201080346108,0.03464895749998977
1789740871857758000,5.729758056640625,1.6532867011003196,9.666208094608782,0.038288343765516764
1789740871867836000,5.7398359375,1.6535067735917865,9.666154318594932,0.041969635227299296
1789740871877913000,5.7499130859375,1.65360774974823,9.666118662759661,0.045766086634504606
1789740871887991300,5.7599912109375,1.6537025884248315,9.666085345011949,0.04946155275211204
1789740871898069200,5.7700693359375,1.6535823230460285,9.666087098577618,0.05295450486782938
1789740871908146200,5.780146240234375,1.6534905531093478,9.66608476049006,0.056274210175336334
1789740871918224100,5.79022412109375,1.653397029606998,9.6660824224025,0.0593042711867718
1789740871928302000,5.800302001953125,1.6533245488926767,9.666075992661714,0.062251339223026295
1789740871938380000,5.810380126953125,1.6534620576672254,9.666034491607546,0.06490755738681182
1789740871948457000,5.82045703125,1.6535452059060334,9.666003511947393,0.06731735847489909
1789740871958535200,5.83053515625,1.6537791607923804,9.665949735933541,0.06954518602562602
1789740871968613000,5.840613037109375,1.653973806581646,9.665901805138587,0.07150724791279062
1789740871978690000,5.85068994140625,1.6540841350883244,9.665870240956544,0.07314259859623852
1789740871988768000,5.86076806640625,1.6541171605750917,9.665852705299853,0.07454651971056592
1789740871998846000,5.870845947265625,1.6540287516392767,9.665859135040641,0.075619190443377
1789740872008923100,5.880923095703125,1.6540402959465978,9.665851536256074,0.07645546773758251
1789740872019001000,5.8910009765625,1.6540053707636893,9.665850951734186,0.07730086448658258
1789740872029079300,5.901079345703125,1.654286379662156,9.665797760242222,0.07787888357024639
1789740872039157200,5.9111572265625,1.6545836090430617,9.66574573779404,0.0781142084297724
1789740872049234200,5.921234130859375,1.654692622375488,9.665727033093571,0.07811152328234165
1789740872059312000,5.93131201171875,1.6546126890070736,9.665743984228373,0.07775427080988884
1789740872069390000,5.94139013671875,1.6545730876490472,9.665757428231835,0.07704128196863456
1789740872079467000,5.951467041015625,1.6546030443958937,9.665758012753724,0.07618000723049044
1789740872089545000,5.961544921875,1.6547548739567397,9.665740477097033,0.07503428496120032
1789740872099623000,5.971622802734375,1.6547861458778381,9.66574573779404,0.07374810847502666
1789740872109700000,5.9817001953125,1.6548200481474398,9.665750998491049,0.07218810174984391
1789740872119778000,5.991778076171875,1.654967055402696,9.665739308053254,0.07028847867359872
1789740872129856000,6.00185595703125,1.6551283834442496,9.665727033093571,0.06815243932586162
1789740872139933200,6.01193310546875,1.6554057390809058,9.665695468911528,0.06587364420630037
1789740872150011100,6.02201123046875,1.655664682278037,9.665667996382712,0.06347847443176433
1789740872160089000,6.032089111328125,1.6557636126078665,9.665666827338933,0.06106805685574654
1789740872170167000,6.0421669921875,1.6559098892107604,9.665658644032478,0.05828505680740345
1789740872180244000,6.052243896484375,1.6561264545708894,9.665639354810118,0.05524452006772626
1789740872190322200,6.062322265625,1.6563154012717305,9.665624741762876,0.05196795521562453
1789740872200400100,6.072400146484375,1.6566104386955498,9.665592008537054,0.04845276386863552
1789740872210477000,6.08247705078125,1.6570244263239204,9.665538817045093,0.04479316821543034
1789740872220555000,6.092554931640625,1.6575155708417295,9.665472766071558,0.04073587848152965
1789740872230633000,6.102633056640625,1.6577781673006713,9.665444709020852,0.036477020027232354
1789740872240711000,6.1127109375,1.657698380062729,9.665473935115337,0.032245428605773487
1789740872250788000,6.1227880859375,1.65739369802773,9.665535894435644,0.028933609777200033
1789740872260866000,6.132865966796875,1.6570815633386373,9.665600776365398,0.02501718753542518
1789740872270944000,6.142944091796875,1.6571135659120977,9.665606037062407,0.01989292387384921
1789740872281021200,6.153021240234375,1.657053067896515,9.665625910806655,0.015911756699637042
1789740872291099100,6.16309912109375,1.6558111050114035,9.66584101486206,0.013994851411739364
1789740872301177000,6.173177001953125,1.6561641562327742,9.665787238848209,0.008471583061793353
1789740872311254000,6.18325390625,1.6576909274086356,9.665529464694856,0.0024645306603531935
1789740872321332000,6.19333203125,1.6591187682546675,9.66528279645741,0.003260218788788188
1789740872331410200,6.20341015625,1.6587079954966901,9.665352354562282,0.0056651410598919025
1789740872341488000,6.213488037109375,1.6581467083521186,9.665450554239749,0.003685648547313758
1789740872351565000,6.22356494140625,1.6567162371575832,9.665696053433418,0.00030487065604593226
1789740872361643000,6.23364306640625,1.6551953112006186,9.665957334718108,-0.0012275824478987488
1789740872371721000,6.243720947265625,1.6541329426661133,9.666137951982021,-0.0012248429296574613
1789740872381798100,6.253798095703125,1.6536843221157789,9.66621569339335,0.0002696189628628417
1789740872391876000,6.2638759765625,1.6538256302826106,9.666191143473982,0.0031161312888696555
1789740872401954000,6.2739541015625,1.654494323324412,9.666075408139823,0.005599463974870741
1789740872412031200,6.28403125,1.6548219478435813,9.666017540472746,0.008134559955794247
1789740872422109200,6.294109130859375,1.6548123032324016,9.666016371428967,0.010574689395952736
1789740872432187100,6.304187255859375,1.6536602105878293,9.666211017218231,0.012436164427385665
1789740872442265000,6.31426513671875,1.6517476549647747,9.666534257823228,0.015166957081167493
1789740872452342000,6.324342041015625,1.650090097016096,9.666807229545713,0.020460353064839728
1789740872462420000,6.334419921875,1.6487819370269774,9.667017072904109,0.026632269465690476
1789740872472498200,6.344498291015625,1.6476000337660313,9.667197105646133,0.03305863098506816
1789740872482575000,6.3545751953125,1.6468629516631363,9.66729472080171,0.04041840546361636
1789740872492653000,6.364653076171875,1.646464599995315,9.667329207593202,0.04802287085165735
1789740872502731000,6.37473095703125,1.6460925518125296,9.667356680122017,0.054632342986133876
1789740872512808200,6.38480810546875,1.6458249869175254,9.667360771775245,0.06137752009714022
1789740872522886100,6.39488623046875,1.6451918035805224,9.66740928709209,0.07022267886181362
1789740872532964000,6.404964111328125,1.644112776172161,9.667506317725778,0.08112003004909493
1789740872543042300,6.415042236328125,1.6426742678016424,9.667657708895206,0.09151872926554643
1789740872553119200,6.425119140625,1.641302394926548,9.667797994148732,0.10096038348549045
1789740872563197200,6.435197265625,1.6399176625698804,9.667924250876903,0.11079525654041207
1789740872573275100,6.445275146484375,1.6388395119443535,9.66798562567532,0.12102682816218584
1789740872583352000,6.45535205078125,1.6385145177736877,9.667906715220212,0.13121869796123356
1789740872593430000,6.465429931640625,1.6381408621557056,9.66781611432731,0.14219280417915434
1789740872603508000,6.475508056640625,1.6376614080756902,9.66770388612449,0.15475660900762303
1789740872613585000,6.4855849609375,1.63683650155887,9.667626144713163,0.1677545126707293
1789740872623663000,6.4956630859375,1.6360343913957476,9.667543727126716,0.17990500572426243
1789740872633741000,6.505740966796875,1.6354896169945596,9.667410456135869,0.19167910321345552
1789740872643819000,6.515819091796875,1.6348095257759094,9.66727718514502,0.20381902007404715
1789740872653896200,6.525896240234375,1.6340315271407364,9.667143914154172,0.21593429568372666
1789740872663974100,6.53597412109375,1.633191276924312,9.667000706291198,0.2283643363310024
1789740872674052000,6.546052001953125,1.6325049020953475,9.666784433192014,0.2420196261906065
1789740872684129000,6.55612890625,1.6314409261256455,9.666602646884321,0.2560807203721255
1789740872694207200,6.566207275390625,1.6301780665829777,9.666480481809376,0.26840145542602983
1789740872704285200,6.57628515625,1.6273203390643,9.66660498497188,0.2810164241861552
1789740872714363100,6.586363037109375,1.6242149203948675,9.666685648992656,0.2957797118202783
1789740872724440000,6.596440185546875,1.6200585313677787,9.666861590081453,0.31234573802743104
1789740872734518000,6.60651806640625,1.6179405163004994,9.666776249885558,0.32570637405570596
1789740872744596000,6.616595947265625,1.6184207010328768,9.666258363491297,0.3384828900530934
1789740872754673000,6.6266728515625,1.6205597588881848,9.665361706912517,0.3534968827789649
1789740872764751000,6.636751220703125,1.6226161068961023,9.66436685065627,0.37083000263478605
1789740872774829000,6.6468291015625,1.6233394527345895,9.663558456882834,0.3883091798977926
1789740872784906200,6.65690625,1.623504580168426,9.66282079025805,0.4056215492265299
1789740872794984200,6.666984130859375,1.624189055301249,9.662018826225399,0.42165071034431456
1789740872805062100,6.677062255859375,1.6251682755969463,9.66119815749228,0.436426948791556
1789740872815140000,6.68714013671875,1.6266021077923476,9.660237203505634,0.4520731019411236
1789740872825217000,6.697217041015625,1.6285853905640542,9.659064652594923,0.46965036928374315
1789740872835295200,6.707295166015625,1.6310538265042005,9.657712653464078,0.4885032095201313
1789740872845373200,6.717373291015625,1.6341646520011126,9.656210432207583,0.50743664071206
1789740872855450000,6.7274501953125,1.6376481102026998,9.654709379994868,0.5244820296676829
1789740872865528000,6.737528076171875,1.6410273773774504,9.653358549907804,0.538577117450349
1789740872875606000,6.74760595703125,1.6439909033581614,9.65207669340372,0.552354700249061
1789740872885684000,6.75768408203125,1.6468109292149542,9.650710665747523,0.5676068856449797
1789740872895761000,6.767760986328125,1.6497550198428332,9.649269819289445,0.5833281863899901
1789740872905838800,6.7778388671875,1.653236578348279,9.647730773153901,0.5987286211501807
1789740872915917000,6.7879169921875,1.6572206795483826,9.646067223855853,0.6142926855068653
1789740872925994200,6.797994140625,1.6617929558999835,9.644279755917191,0.6298241627682
1789740872936072200,6.808072265625,1.6665319671206176,9.642477090409397,0.6447380195878446
1789740872946150100,6.818150146484375,1.6713745848461985,9.640676762989163,0.6589714198626577
1789740872956227000,6.82822705078125,1.6760020985163748,9.6389459936738,0.6723838591434061
1789740872966305000,6.838304931640625,1.6805309741176664,9.637205287486314,0.685893840514496
1789740872976383000,6.848383056640625,1.6853445118792354,9.635350015008449,0.700018738913536
1789740872986461200,6.858461181640625,1.690490642596036,9.633377253630757,0.7146067247796803
1789740872996538000,6.8685380859375,1.6959680510938167,9.631343117454648,0.728910998333618
1789740873006616000,6.878615966796875,1.7020222365662454,9.629245268392562,0.7423852508042007
1789740873016694000,6.888694091796875,1.708027468330413,9.62721756195724,0.7547980845883488
1789740873026771000,6.89877099609375,1.7136873937882482,9.625235448229313,0.7671348574616015
1789740873036849000,6.908848876953125,1.7185092609867452,9.623333414000273,0.7801094898469746
1789740873046926800,6.9189267578125,1.722618449871242,9.621506783095002,0.7934546360451727
1789740873057004000,6.929004150390625,1.726563534235209,9.619702948543429,0.8066545285537838
1789740873067082200,6.939082275390625,1.730830836290866,9.617790392920375,0.8201893521051853
1789740873077160200,6.94916015625,1.7353597118921578,9.615793081623314,0.8339220363162457
1789740873087238100,6.959238037109375,1.7404951750844715,9.613719782480597,0.8470329353671521
1789740873097315000,6.969315185546875,1.7461833037234842,9.611613165590166,0.8591538004674016
1789740873107393000,6.97939306640625,1.7517441527210176,9.609436990594864,0.8720753144260496
1789740873117471000,6.989470947265625,1.7589597831882535,9.606842882448435,0.8860141156684607
1789740873127548000,6.9995478515625,1.7682631797149777,9.60371919746995,0.9012360885892062
1789740873137626000,7.009626220703125,1.7774264371186494,9.600631168326736,0.9159810916479676
1789740873147704000,7.0197041015625,1.7874296524778008,9.597323358952998,0.9310557650525122
1789740873157782000,7.029781982421875,1.7903657059296965,9.595645196607709,0.9426477109078317
1789740873167859200,7.039859130859375,1.7916675823085009,9.594066402983666,0.9561394259698689
1789740873177937200,7.049937255859375,1.7894404077783226,9.592961072090267,0.9712750357814133
1789740873188015000,7.06001513671875,1.7885757537730038,9.59153893033266,0.9867874430160969
1789740873198092000,7.070092041015625,1.7901871344923972,9.5896380651474,1.0022276617974042
1789740873208170200,7.080170166015625,1.794787760155648,9.587256722968815,1.016676093062386
1789740873218248200,7.090248291015625,1.801934417039901,9.584608254286646,1.0289294254358858
1789740873228326100,7.100326171875,1.8110704941757023,9.581890227499605,1.0381749542955307
1789740873238403000,7.110403076171875,1.819906565451622,9.579588380298018,1.043940897411108
1789740873248481000,7.12048095703125,1.8256912863329051,9.577993804582952,1.0484641469892113
1789740873258559000,7.13055908203125,1.8283926542460918,9.576984919801355,1.0529662807140499
1789740873268636000,7.140635986328125,1.8291542862683534,9.576406243130565,1.0569000399664044
1789740873278714000,7.150714111328125,1.8292644686445594,9.576046177646518,1.059968779887259
1789740873288792000,7.1607919921875,1.8300420288883148,9.575694295468926,1.06180176746808
1789740873298869200,7.170869140625,1.8316960797056554,9.575174655508995,1.0636398696154354
1789740873308947200,7.180947265625,1.8342177071377634,9.57443991149366,1.0658914479345083
1789740873319025200,7.191025146484375,1.837458734885603,9.573650806942581,1.0673973224528133
1789740873329103000,7.20110302734375,1.8408144750542939,9.573121814632415,1.066357823337242
1789740873339180000,7.211179931640625,1.8438943208910523,9.572757072973252,1.0643117775276303
1789740873349258200,7.22125830078125,1.8453658547483383,9.572619125807284,1.063010266475007
1789740873359337000,7.2313369140625,1.8451907904423772,9.572668810167908,1.0628704196128993
1789740873369414000,7.241413818359375,1.8441018261618911,9.572874561873078,1.062895919380337
1789740873379491800,7.251491943359375,1.8431036089047788,9.573138181245326,1.0622522146493196
1789740873389569800,7.26156982421875,1.8430917723365128,9.573315875899791,1.060672690372914
1789740873399647700,7.271647705078125,1.8440468811042605,9.573362053129076,1.0585895274233073
1789740873409724700,7.281724609375,1.8455568472757935,9.573314122334121,1.0563951591841876
1789740873419802600,7.291802734375,1.8468971559688447,9.573308861637114,1.0541003262452782
1789740873429880800,7.301880859375,1.8477409133166074,9.573400631573795,1.051782770017907
1789740873439957800,7.311957763671875,1.8478838289186357,9.57352455021441,1.0504076822724193
1789740873450035700,7.32203564453125,1.8478335600361226,9.573565466746688,1.0501194399155676
1789740873460113700,7.33211376953125,1.8476712090812621,9.573565466746688,1.0504004488140344
1789740873470191600,7.342191650390625,1.8470714896224438,9.573686462777852,1.0503609935864806
1789740873480268800,7.352268798828125,1.8465220390461383,9.573867080041765,1.04966701997295
1789740873490346800,7.3623466796875,1.847205345135182,9.57387877047956,1.0483612711366266
1789740873500425000,7.372425048828125,1.8492730913199484,9.573606383278966,1.0472082286439834
1789740873510502000,7.382501953125,1.8528934737741947,9.573017769736051,1.0461864843808113
1789740873520579800,7.392579833984375,1.8564806846112012,9.572535539177059,1.044223659875244
1789740873530657800,7.40265771484375,1.8596040773287414,9.572250877016781,1.0412892869237809
1789740873540735700,7.41273583984375,1.8608825728319585,9.572289455461501,1.0386383340235799
1789740873550812700,7.422812744140625,1.8630458883456884,9.572133388116955,1.0362022659830747
1789740873560890600,7.432890625,1.8657317664287982,9.571810732033848,1.0343376411549747
1789740873570968800,7.44296875,1.8688269559651611,9.571404489320516,1.0325142251200974
1789740873581045800,7.453045654296875,1.8723454854801296,9.570973696687817,1.0301267454616725
1789740873591123700,7.463123779296875,1.8760358644306658,9.570556348058581,1.0272962712761013
1789740873601201700,7.47320166015625,1.8800591285973787,9.570106850725411,1.0241216598279774
1789740873611279600,7.483279541015625,1.8833789206698537,9.569837386134266,1.0205332068819553
1789740873621356800,7.493356689453125,1.8855305457457898,9.569730418628454,1.0175595248334108
1789740873631434800,7.503434814453125,1.8867654943682253,9.56966319861114,1.0158913724254817
1789740873641512700,7.5135126953125,1.8882880277603864,9.569557984670997,1.0140519551038742
1789740873651589600,7.523589599609375,1.890768300268799,9.56953460379541,1.0096526241663843
1789740873661667800,7.533667724609375,1.8933821360290048,9.569826280218363,1.0019514752045273
1789740873671745800,7.543745849609375,1.8947041784130036,9.570500233957171,0.9929696387823671
1789740873681823700,7.55382373046875,1.8940205800630152,9.57141734880209,0.985412647531554
1789740873691900700,7.563900634765625,1.8916824925042688,9.572467734637856,0.9796801682941615
1789740873701978600,7.573978515625,1.8881046340174972,9.573566051268577,0.9758375944565981
1789740873712056600,7.584056640625,1.8847066621422766,9.574466799500584,0.9735852854851633
1789740873722133800,7.5941337890625,1.8824938083983958,9.574925649183989,0.9733484079893678
1789740873732211700,7.604211669921875,1.8820481104575097,9.574936170578003,0.9740974727910011
1789740873742289700,7.61428955078125,1.882881346411258,9.574894669523834,0.9728998605042696
1789740873752367600,7.62436767578125,1.8837208659753202,9.575079962962866,0.9694576110959052
1789740873762444800,7.63444482421875,1.8833615311436354,9.575375731039047,0.9672202804978937
1789740873772522800,7.644522705078125,1.882263068382442,9.5754634093225,0.9684930769126862
1789740873782600700,7.6546005859375,1.8808185686625538,9.575158288896084,0.9743030053004622
1789740873792677600,7.664677734375,1.8789431301794945,9.57468190355599,0.9825594500575214
1789740873802755800,7.674755859375,1.8766218476250767,9.574367430779338,0.9900366540703922
1789740873812833800,7.684833740234375,1.874972326852381,9.574147066026926,0.9952757968328892
1789740873822911700,7.694911865234375,1.8732570473670958,9.574097381666302,0.9989829077225177
1789740873832988700,7.70498876953125,1.8723815797068177,9.573852466994524,1.0029510076358914
1789740873843066600,7.715066650390625,1.873582187668234,9.573198386999964,1.006954763384536
1789740873853144600,7.72514453125,1.8758292359426616,9.572243278232216,1.011845969492197
1789740873863221800,7.7352216796875,1.8789784937538205,9.5711730186522,1.0160992430225013
1789740873873299700,7.7452998046875,1.8825860167264936,9.570440612724424,1.0163169043611735
1789740873883377700,7.755377685546875,1.883417499114573,9.570098082897067,1.0179957242935895
1789740873893455600,7.76545556640625,1.8871736367776988,9.568754851594568,1.0236639061231165
1789740873903532800,7.77553271484375,1.8910989935278892,9.567251461294292,1.0304510820452124
1789740873913610800,7.78561083984375,1.8937284652486441,9.56648924475014,1.032697472732514
1789740873923688700,7.795688720703125,1.8984815049946306,9.56539268168509,1.0341261903613805
1789740873933765600,7.805765625,1.9024577151492237,9.564032499247789,1.0393943400226533
1789740873943843800,7.81584375,1.9069855678372083,9.562022912991047,1.0495333105906843
1789740873953921800,7.825921875,1.9107824759021401,9.559950782892107,1.0614235087402164
1789740873963999700,7.835999755859375,1.91304355270192,9.55847311155498,1.0706155538469553
1789740873974076700,7.84607666015625,1.9143194178566336,9.557366611617804,1.0782041823450474
1789740873984154600,7.856154541015625,1.9157908055834472,9.556043254059553,1.0872787385519593
1789740873994232600,7.866232666015625,1.9171783144190906,9.554420036771893,1.0990198836196214
1789740874004309800,7.876309814453125,1.916516197248548,9.553073298338054,1.1118196708947419
1789740874014388000,7.886387939453125,1.9106769697010515,9.552808509922027,1.1240812596399337
1789740874024466000,7.8964658203125,1.9057424359083175,9.55267290084362,1.1335730914108455
1789740874034543900,7.9065439453125,1.9036746897235512,9.55209305512905,1.1418928106624633
1789740874044620800,7.916620849609375,1.9138840951792895,9.548498245507478,1.154833394647762
1789740874054698800,7.92669873046875,1.934409581335634,9.542027588188647,1.1739548592250793
1789740874064776700,7.936776611328125,1.9529738504216074,9.535784894406795,1.1937707358073442
1789740874074853600,7.946853515625,1.9576377505794167,9.532973344117403,1.2084935270342976
1789740874084931800,7.956931884765625,1.952753339538723,9.532451366069912,1.2204561328329144
1789740874095009800,7.967009765625,1.9469583895243703,9.53208194823563,1.2325364467270672
1789740874105087700,7.977087646484375,1.9456819398477672,9.530538225924968,1.2464042285598813
1789740874115164700,7.98716455078125,1.9500740373268723,9.52751157158017,1.2625871554672716
1789740874125242600,7.99724267578125,1.9543306718580424,9.524487839844822,1.2787146989256142
1789740874135320600,8.007320556640625,1.9603655681081116,9.521341943034528,1.292834994214773
1789740874145397800,8.017397705078125,1.9671904456920921,9.51837432540059,1.3042650275066494
1789740874155476000,8.02747607421875,1.9748016513481734,9.515445870733261,1.3140896714285015
1789740874165554000,8.037553955078126,1.9795335021756588,9.513110121262073,1.323845487897843
1789740874175632000,8.0476318359375,1.9831258275792,9.511054942297935,1.3332114282667635
1789740874185708800,8.057708740234375,1.9866933108024298,9.509081011876463,1.3419414088197053
1789740874195786800,8.067786865234375,1.990816528212279,9.506785009893774,1.3520543681636452
1789740874205864700,8.07786474609375,1.9942606773167848,9.504531678009032,1.3627810754917562
1789740874215941600,8.087941650390626,1.9971683814570307,9.502658869874477,1.3715687775813041
1789740874226019800,8.098019775390625,2.00103513988778,9.500980123007297,1.3775402532063423
1789740874236097800,8.108097900390625,2.0059554990246893,9.499312482056022,1.381874336887896
1789740874246175700,8.11817578125,2.0124280560396612,9.497434997746348,1.3853645170912146
1789740874256252700,8.128252685546874,2.0198614209108054,9.495161207595467,1.3901245710998773
1789740874266330600,8.13833056640625,2.026063490421325,9.49288157222569,1.3966555803038179
1789740874276408600,8.14840869140625,2.029972188297659,9.491143788647651,1.4027807851858436
1789740874286486800,8.15848681640625,2.032884130221605,9.490220244061947,1.4048071764469146
1789740874296564000,8.16856396484375,2.035143015064299,9.490004555484653,1.402999250242114
1789740874306642000,8.178641845703124,2.0357417116098104,9.49015711569786,1.4010954624474048
1789740874316719900,8.188719970703126,2.0357244682140645,9.490177573963999,1.4009779735475778
1789740874326796800,8.198796875,2.036347422417998,9.490056577932833,1.4008967250049114
1789740874336874800,8.208874755859375,2.0383742520704864,9.48997123773694,1.3985180131748318
1789740874346952700,8.21895263671875,2.040531868495792,9.489948441383243,1.3955278914481402
1789740874357030100,8.229030029296876,2.0407268065460027,9.49008229689598,1.3943379510112106
1789740874367107000,8.239107177734375,2.037657043711841,9.491057863929868,1.392183111064881
1789740874377185000,8.24918505859375,2.031374310180545,9.493246313884853,1.3864263011038302
1789740874387263200,8.25926318359375,2.0231611931085585,9.496153141242266,1.378508805977553
1789740874397340400,8.26934033203125,2.0153942123688755,9.499139463576673,1.3692787669479847
1789740874407418400,8.27941845703125,2.00945488544777,9.50173766337633,1.3599487746752799
1789740874417496300,8.289496337890625,2.0044636530317366,9.503914422893523,1.352081694561988
1789740874427574300,8.29957421875,1.9985979758687316,9.505864972439408,1.3470434081338345
1789740874437651200,8.309651123046875,1.9909623664237557,9.508017182037234,1.3431525381751357
1789740874447729200,8.319729248046874,1.9823884532153606,9.510396186128258,1.338978175099939
1789740874457807400,8.329807373046876,1.974071583507955,9.512861699458956,1.3337559104070067
1789740874467884300,8.33988427734375,1.9666433332033455,9.515458145692945,1.3261790454119442
1789740874477962200,8.349962158203125,1.9603534392789006,9.518022443223,1.3170597732804714
1789740874488040200,8.360040283203125,1.9544966760747133,9.5204990624696,1.3078313416860996
1789740874498118100,8.3701181640625,1.9482199338927864,9.522810846543312,1.3003468311496078
1789740874508195000,8.380195068359376,1.9416357331968843,9.524982345363497,1.294274963890016
1789740874518273000,8.39027294921875,1.9351430101767182,9.526853984454274,1.2902185281060636
1789740874528351200,8.400351318359375,1.9281553432464598,9.528623916736244,1.2876095146514475
1789740874538429200,8.41042919921875,1.9222192311957478,9.530152441477775,1.285165336369723
1789740874548506400,8.42050634765625,1.9169959435895083,9.531672198390961,1.2816935686059296
1789740874558584300,8.430584228515626,1.9120438741400836,9.533169743472337,1.2779445913359522
1789740874568662300,8.440662353515625,1.9082894900426268,9.534464459457993,1.2739008689031004
1789740874578739200,8.4507392578125,1.9054322009153664,9.535752161180973,1.2685193219952284
1789740874588817200,8.460817138671874,1.9038484388552606,9.53691009904444,1.2621787207968533
1789740874598895400,8.470895263671874,1.9027533370949328,9.537794480663537,1.2571363427154718
1789740874608973300,8.480973388671876,1.901873485520482,9.538506428325176,1.2530538957074284
1789740874619050200,8.49105029296875,1.9011659217730164,9.5392645532161,1.2483458641469478
1789740874629128200,8.501128173828125,1.90005883731395,9.540246549990773,1.2425221264295279
1789740874639206100,8.5112060546875,1.89856231514588,9.541436636558174,1.2356487335287034
1789740874649284000,8.5212841796875,1.8966743094421923,9.542930089986324,1.226984657818824
1789740874659361000,8.531361083984375,1.8937873558290301,9.544901682320237,1.2160626471143214
1789740874669439200,8.541439208984375,1.8925531378589568,9.546914191186428,1.2021017071053386
1789740874679517200,8.55151708984375,1.8914951532386242,9.548924946486949,1.1877191076181828
1789740874689594400,8.561594482421874,1.8913123440176247,9.55047217592895,1.1754986546009778
1789740874699672300,8.57167236328125,1.8908438497230409,9.551876197507976,1.1647957665398716
1789740874709750300,8.581750244140625,1.889654055416584,9.553479541051388,1.153532979573682
1789740874719828200,8.591828125,1.8879060427054761,9.55534007422626,1.1408999271675944
1789740874729905200,8.6019052734375,1.8857453575402496,9.557436754244565,1.1268209868021308
1789740874739983400,8.6119833984375,1.882302231349051,9.559733925271034,1.1130107803754508
1789740874750061300,8.622061279296876,1.8764763016745447,9.562547813647985,1.098583464963734
1789740874760139300,8.63213916015625,1.869148443004489,9.56561713809073,1.0842625325359403
1789740874770216200,8.64221630859375,1.8619392422780394,9.568630932953953,1.0699750639863312
1789740874780294100,8.652294189453125,1.856247021985799,9.571228548231721,1.0565594098351896
1789740874790372000,8.6623720703125,1.85178288218379,9.573329904425144,1.0452913621719926
1789740874800449000,8.672448974609376,1.848375996349752,9.575041384518146,1.035610729830712
1789740874810527200,8.68252734375,1.8453360441319644,9.576737082520127,1.0253006404794751
1789740874820605200,8.692605224609375,1.841989071791619,9.578630933442712,1.0135572303894906
1789740874830683100,8.70268310546875,1.836272009319067,9.5809836340487,1.0016210011411457
1789740874840760300,8.71276025390625,1.8290926192089914,9.583689970397948,0.9887799320075661
1789740874850838300,8.72283837890625,1.8223016438946127,9.586420272144675,0.9747592977005988
1789740874860916200,8.732916259765625,1.8182365864127874,9.588668927854298,0.9601233079742639
1789740874870994200,8.742994140625,1.8163193546146152,9.590441198223829,0.9459331623192876
1789740874881071000,8.753071044921874,1.8149720316588878,9.59204395724535,0.9321836000386625
1789740874891149300,8.7631494140625,1.8134994748882949,9.593698154193163,0.9179147631242871
1789740874901227300,8.773227294921876,1.8104395027957856,9.59577496046722,0.902113821271807
1789740874911304200,8.78330419921875,1.8055778881087898,9.598267361804842,0.885179710670933
1789740874921382100,8.793382080078125,1.7990549160808325,9.601015199208259,0.8685072466809302
1789740874931460000,8.803460205078125,1.7932061900526284,9.603571313431859,0.8521879069775342
1789740874941538000,8.8135380859375,1.7893530217558145,9.605672669625282,0.8364503126848488
1789740874951615000,8.823614990234375,1.786758767478913,9.607451954257488,0.8214332877516746
1789740874961693200,8.833693115234375,1.7848235616326331,9.608917350634933,0.8083906316313892
1789740874971771100,8.843771240234375,1.78276385262385,9.610248891499637,0.7970326406624167
1789740874981849000,8.85384912109375,1.7798504493951797,9.61164239168465,0.7866733784072101
1789740874991926300,8.86392626953125,1.775745790555328,9.613161564075947,0.777330161326751
1789740875002004200,8.874004150390626,1.7712939257130025,9.61475847787857,0.7676707909692079
1789740875012082200,8.884082275390625,1.7681401378571986,9.616167175632715,0.7572283074099571
1789740875022159000,8.8941591796875,1.7661306977309286,9.617340895587205,0.7469280818656087
1789740875032237300,8.9042373046875,1.764196660928428,9.61845265622139,0.737133394690603
1789740875042315300,8.914315185546876,1.7622519566014407,9.619523500323295,0.7277396895319223
1789740875052393200,8.924393310546876,1.7598754367284475,9.620667994183302,0.7183178542573004
1789740875062470100,8.93447021484375,1.7569718242414294,9.621937575727701,0.7083386773608624
1789740875072548000,8.944548095703125,1.7541168732017278,9.623172670480608,0.6985683209095149
1789740875082626000,8.9546259765625,1.751713465321809,9.624314826253055,0.6887913885869086
1789740875092704300,8.964704345703124,1.7498226831391452,9.625338908603787,0.6792205732956528
1789740875102781200,8.97478125,1.7475922937385737,9.626388125395774,0.6700245096009224
1789740875112859100,8.984859130859375,1.7449368107937275,9.627591655966638,0.6595824644330889
1789740875122937000,8.99493701171875,1.7418056731611489,9.628996262067556,0.6472510253220796
1789740875133014300,9.00501416015625,1.7382715076856314,9.630508420196175,0.6341374228574336
1789740875143092200,9.01509228515625,1.7338387859351931,9.63219827297926,0.6204458743743598
1789740875153170200,9.025170166015625,1.7300304796934127,9.63372679772079,0.6072135774334892
1789740875163248400,9.035248291015625,1.7270687072783708,9.635034957709907,0.594749744114466
1789740875173325300,9.0453251953125,1.7243351906612514,9.636312138038873,0.5818365595927462
1789740875183403300,9.0554033203125,1.72165705749318,9.637632572987675,0.5677176890756934
1789740875193481200,9.065481201171876,1.718447447796911,9.639125441893935,0.5518749173754826
1789740875203559200,9.07555908203125,1.714309763470292,9.640857964774966,0.5342137346090748
1789740875213636000,9.085635986328125,1.709647324617207,9.6426980396837,0.5156218103311956
1789740875223714000,9.095714111328125,1.7055433964297175,9.644403674557804,0.4969734066257253
1789740875233792300,9.105792236328124,1.7016303146392107,9.646031568020582,0.47845754325874146
1789740875243870200,9.1158701171875,1.6986716109640896,9.647484104916453,0.4593126247406006
1789740875253947100,9.125947021484375,1.6972817640408873,9.648630936864018,0.4399507390035316
1789740875264025000,9.136025146484375,1.695706185287237,9.649776599767804,0.4204547054927796
1789740875274103000,9.14610302734375,1.6936692726321518,9.650983052948117,0.4004756377054378
1789740875284181000,9.156180908203124,1.6913976744383572,9.652223408398031,0.3796387109797448
1789740875294258200,9.166258056640626,1.688297516465932,9.653598203882574,0.3578404649412259
1789740875304336400,9.17633642578125,1.6842133158922195,9.655074121654033,0.3366982716586441
1789740875314414300,9.186414306640625,1.6801852294199167,9.656483403930068,0.3157070311540738
1789740875324491300,9.1964912109375,1.676803478027135,9.657748309299349,0.2943065157288685
1789740875334569200,9.2065693359375,1.6745505845338104,9.658758363124727,0.27324637470655144
1789740875344647200,9.216647216796876,1.673356114052236,9.659517072537541,0.25299753180081025
1789740875354725000,9.22672509765625,1.6722035830162465,9.66018985723257,0.23423753921333698
1789740875364803000,9.236802978515625,1.6696926231086253,9.661035660406947,0.21657725149607285
1789740875374881000,9.246881103515625,1.666983364149928,9.661917703938483,0.1972467290116474
1789740875384959000,9.256958984375,1.665564875654131,9.662561847060918,0.17658170652044936
1789740875395037000,9.267036865234376,1.6642786352358758,9.66315513677895,0.15489333233088254
1789740875405113900,9.27711376953125,1.6628611696533857,9.663716862314939,0.13357598341079427
1789740875415191800,9.28719189453125,1.6607549911543726,9.66433177934289,0.11384749285103753
1789740875425269800,9.297269775390625,1.6584291785553096,9.664935590454936,0.09497544559068045
1789740875435348000,9.307347900390624,1.6560978129982948,9.66550374573171,0.07601466060094535
1789740875445425200,9.317425048828126,1.6529259049639105,9.666171269729732,0.0579704059342388
1789740875455503000,9.327503173828125,1.649146678686142,9.666907767310738,0.04011287404524628
1789740875465581000,9.3375810546875,1.6472876068159936,9.667284199407696,0.020911291153135243
1789740875475658000,9.347657958984374,1.6487486192792653,9.667057404914498,-0.0017594447091694746
1789740875485736000,9.35773583984375,1.6524525883637369,9.666391049960255,-0.025969439909094942
1789740875495814000,9.36781396484375,1.6562573874741793,9.665649876204132,-0.04918149370171595
1789740875505892000,9.37789208984375,1.6569306105606256,9.66540905318558,-0.06950399549871217
1789740875515969000,9.387968994140625,1.6549876597993074,9.665606621584296,-0.086309442785196
1789740875526047000,9.398046875,1.6523301310278475,9.665932784798741,-0.0996016988855321
1789740875536125000,9.408125,1.6495580359660087,9.666271222972869,-0.11187723395768552
1789740875546203000,9.418202880859376,1.648912723799795,9.666200495824217,-0.12672987124253995
1789740875556279800,9.42827978515625,1.650285619588196,9.66571242004633,-0.1447438403688371
1789740875566357800,9.438357666015625,1.6522287164799867,9.665084643536806,-0.16334438634458928
1789740875576436000,9.44843603515625,1.6519453694939612,9.664818101555108,-0.180948377297353
1789740875586514000,9.458513916015624,1.6511393138080834,9.66466612586379,-0.1957835428575985
1789740875596591000,9.468591064453125,1.6499446971960365,9.664594814193249,-0.2089556157775223
1789740875606669000,9.4786689453125,1.6485950361527502,9.664528178697823,-0.22226452161855995
1789740875616747000,9.4887470703125,1.6479123145855963,9.664302553248405,-0.23672619595760477
1789740875626825000,9.498824951171875,1.6475827903702853,9.663955347245931,-0.25265255428804084
1789740875636902000,9.50890185546875,1.6483941067531704,9.663371994400023,-0.2690803045356646
1789740875646980000,9.51897998046875,1.650743738619238,9.662496965131163,-0.2855934863107279
1789740875657058000,9.52905810546875,1.652780212882906,9.661634210821985,-0.302541570638027
1789740875667136000,9.539135986328125,1.653230733129382,9.660971362999081,-0.3206652380833402
1789740875677213000,9.549212890625,1.6523764543876052,9.66046984321773,-0.3396353480238467
1789740875687291000,9.559290771484376,1.651271561885625,9.659989950746297,-0.3581702083522454
1789740875697368800,9.569368896484375,1.650683094473183,9.659403090769052,-0.37623536880966274
1789740875707445800,9.57944580078125,1.6514854968972503,9.658557872116566,-0.3939832434788346
1789740875717524000,9.58952392578125,1.65241839383319,9.657701547548175,-0.4107074011234566
1789740875727602000,9.599601806640624,1.6526422657169402,9.656989599886536,-0.426256815900281
1789740875737680000,9.609679931640626,1.653067797652632,9.656261285611986,-0.4408775349922478
1789740875747757000,9.619757080078125,1.6535089655488728,9.655514851158857,-0.45534353844653813
1789740875757835000,9.6298349609375,1.6533013141475617,9.654905194827913,-0.4688242571905255
1789740875767913000,9.639912841796875,1.6534636651024222,9.65421955065131,-0.4821870851758867
1789740875777991200,9.6499912109375,1.653975121755898,9.653469609066843,-0.4952615612065419
1789740875788068000,9.660068115234376,1.655375636203587,9.652641926071047,-0.5065797316217795
1789740875798146000,9.67014599609375,1.6567447325997053,9.651938746237754,-0.5154342153372242
1789740875808224000,9.68022412109375,1.6567147758528589,9.651561145097016,-0.5225497098982333
1789740875818302000,9.690302001953125,1.6552474797792731,9.651473466813563,-0.5287828686667606
1789740875828379000,9.70037890625,1.654671725717932,9.651223875966668,-0.535104144110158
1789740875838456800,9.710456787109376,1.655573204602301,9.65073404662311,-0.541107768439129
1789740875848535000,9.72053515625,1.6564476493492721,9.650296239727735,-0.54620414173007
1789740875858613000,9.730613037109375,1.6566158455230295,9.65006184644997,-0.5498350090457126
1789740875868690000,9.74068994140625,1.6553921489469705,9.650145433080196,-0.5520472052024678
1789740875878767900,9.750767822265624,1.653757825743407,9.650317282515763,-0.5539481069203466
1789740875888845800,9.760845703125,1.6531985844254493,9.650310852774977,-0.5557245420083403
1789740875898923800,9.770923828125,1.652455510973185,9.650374565660952,-0.5568125199081376
1789740875909001000,9.7810009765625,1.6517665057957172,9.650449384462833,-0.5575741153977811
1789740875919079200,9.7910791015625,1.6511908978648482,9.650513681870699,-0.5581506731767207
1789740875929157000,9.8011572265625,1.6499201472766696,9.65075275132358,-0.5577720491226762
1789740875939234000,9.811234130859376,1.6485262087002395,9.651156071427463,-0.5549227971713989
1789740875949312000,9.82131201171875,1.6473017814718185,9.651608491370082,-0.5506666010316461
1789740875959390000,9.831389892578125,1.646140920998901,9.65209539810419,-0.5455948872579262
1789740875969468000,9.841468017578125,1.6458045286513865,9.652501640817523,-0.5393649068271741
1789740875979544800,9.851544921875,1.6451733911409974,9.652963413110374,-0.5329900015003979
1789740875989623000,9.861623046875,1.6442394712917505,9.653504680380225,-0.5260288937835023
1789740875999701000,9.871700927734375,1.6425956496074794,9.654187986469267,-0.5185892453020439
1789740876009779000,9.881779052734375,1.640700775771588,9.654941435185075,-0.5104735972551628
1789740876019856000,9.89185595703125,1.6395102508127688,9.655633509102463,-0.5011274210326373
1789740876029933800,9.901933837890626,1.638021765820682,9.656408000606298,-0.4909520274443552
1789740876040011800,9.91201171875,1.636811220987141,9.657144498187304,-0.4803832506243139
1789740876050090000,9.922090087890625,1.6360396520927547,9.65782254357934,-0.4692607854442671
1789740876060167200,9.932167236328125,1.6351676915638147,9.658479546183347,-0.45865222460310906
1789740876070245000,9.9422451171875,1.6342876938588917,9.65909037155807,-0.4488302475623786
1789740876080323000,9.952322998046874,1.6331090054683386,9.65976140268743,-0.4385701713653281
1789740876090401000,9.962401123046876,1.6323225312657654,9.660344755533337,-0.4285151162210852
1789740876100478000,9.97247802734375,1.6335560185834765,9.660591423770784,-0.41814624588731675
1789740876110556000,9.982555908203125,1.6348619866155087,9.660806527826189,-0.40792745154872534
1789740876120633900,9.9926337890625,1.6359930364720523,9.661020462837815,-0.39824444458726793
1789740876130712000,10.002712158203124,1.6352812349408865,9.661565821760892,-0.38781328613962973
1789740876140789000,10.0127890625,1.6331738873980939,9.662309918126462,-0.37803675567582246
1789740876150867000,10.022866943359375,1.632524191317707,9.662778120160102,-0.368779317182675
1789740876160945000,10.03294482421875,1.632323115787655,9.663152214169502,-0.3597121770972386
1789740876171022800,10.04302294921875,1.631930463208258,9.66352689270079,-0.3513628298923373
1789740876181099800,10.053099853515626,1.6317441468559204,9.663889880794287,-0.3421091907914728
1789740876191177700,10.063177734375,1.6319925686590373,9.664158760863542,-0.33321357134804125
1789740876201256000,10.073255859375,1.632662430744618,9.66433002577722,-0.3248540680753067
1789740876211334000,10.083333984375,1.6343473150916397,9.664300215160846,-0.3171868944482878
1789740876221411000,10.0934111328125,1.6344764944292605,9.664501875212787,-0.31027108717784285
1789740876231489000,10.103489013671876,1.6335975196376442,9.664857264521718,-0.3037883192961104
1789740876241567000,10.11356689453125,1.633126833385974,9.66513374337554,-0.29745984692694616
1789740876251645000,10.12364501953125,1.632635688868165,9.665396778225897,-0.29153412840608506
1789740876261721900,10.133721923828125,1.6316209588676691,9.665720018830894,-0.28646301742056385
1789740876271800000,10.143800048828124,1.6291444857515394,9.66626888488531,-0.28201023926278573
1789740876281878000,10.1538779296875,1.6265097533337771,9.66682827233374,-0.2780114336838946
1789740876291956000,10.1639560546875,1.625697414037585,9.667048052564263,-0.27505486716693267
1789740876302033000,10.174032958984375,1.625570865048468,9.667169633117318,-0.2715335063740611
1789740876312110800,10.18411083984375,1.6254722269795834,9.667330961158871,-0.2663346590893343
1789740876322188800,10.194188720703124,1.6231661419942973,9.667876320081948,-0.2605703416752629
1789740876332267000,10.20426708984375,1.6205946840710936,9.668407065957783,-0.2568341873542406
1789740876342344000,10.214343994140625,1.6201427025198936,9.668466687190532,-0.25742387860938903
1789740876352422000,10.224421875,1.6205075903095305,9.668320556718111,-0.2605619391730986
1789740876362499800,10.234499755859375,1.6225585314899682,9.667881580778955,-0.26408344609644263
1789740876372577800,10.244577880859374,1.6254602442808448,9.667299396976828,-0.2675549763982184
1789740876382654700,10.25465478515625,1.6279142133042215,9.66681073667705,-0.270294831424579
1789740876392732700,10.264732666015625,1.6291541303627193,9.666542441129684,-0.2724290487079881
1789740876402811000,10.274810791015625,1.6276701754152774,9.66671838221848,-0.2750515974976122
1789740876412888800,10.284888916015625,1.6248236999429762,9.667121117800473,-0.27765345055907964
1789740876422965800,10.2949658203125,1.6208181175634264,9.667697456383705,-0.281014287027996
1789740876433043700,10.305043701171876,1.6189152065515517,9.66789268669486,-0.2852508286192082
1789740876443121700,10.31512158203125,1.61948716122061,9.667639004194736,-0.29053739072000606
1789740876453198600,10.325198486328125,1.6227445555813609,9.666908351832628,-0.29662293944507834
1789740876463276500,10.335276611328124,1.6270112731151283,9.66600760360062,-0.30256650414988395
1789740876473354800,10.345354736328124,1.6291704969756304,9.665444124498963,-0.3088836148748174
1789740876483432700,10.3554326171875,1.6299493723936378,9.665082305449246,-0.31595797370783985
1789740876493510000,10.365510009765625,1.628326447366923,9.665088735190034,-0.32404125385507937
1789740876503587800,10.375587890625,1.6263044400200246,9.665122052937745,-0.33305290089361367
1789740876513665800,10.385665771484375,1.6250931645341216,9.665024437782169,-0.3416977239137515
1789740876523743700,10.39574365234375,1.6245441523492334,9.66481634798944,-0.35005751944743096
1789740876533821700,10.40582177734375,1.6258821229547262,9.664244685581325,-0.35953163289856166
1789740876543899000,10.41589892578125,1.6289751205340026,9.663333415955304,-0.369885926717706
1789740876553976800,10.425976806640625,1.632239236896485,9.662387075015902,-0.38003742797374723
1789740876564054800,10.4360546875,1.6323784992367028,9.66194225385785,-0.3906445640427991
1789740876574131700,10.446131591796876,1.630581240556389,9.661815997129677,-0.4011182099252939
1789740876584209700,10.456209716796875,1.6285491502068936,9.661734748587012,-0.41119544036872685
1789740876594287600,10.46628759765625,1.6272135176889597,9.661507954093814,-0.4216902751697227
1789740876604365800,10.47636572265625,1.6265616296514869,9.661154902872443,-0.43216355572603643
1789740876614442800,10.48644287109375,1.6261445732831954,9.660723525717854,-0.4432379439806565
1789740876624520700,10.496520751953126,1.627554293950647,9.659915716466307,-0.45551589933875947
1789740876634598700,10.5065986328125,1.6295820003859698,9.65899684805572,-0.467595153786987
1789740876644676600,10.516676513671875,1.6301736826688051,9.65832640144825,-0.47921899261791256
1789740876654753800,10.52675390625,1.6279875708013771,9.658148706793785,-0.49011068124938756
1789740876664831700,10.536831787109374,1.6249704149372874,9.65815455201268,-0.49988556774538007
1789740876674909700,10.54690966796875,1.6232177260510623,9.657955230048298,-0.5093757920810953
1789740876684988000,10.55698779296875,1.623311249553412,9.657432082957028,-0.5188931601520628
1789740876695065900,10.56706591796875,1.6241424396805464,9.656797292184828,-0.5280080483693629
1789740876705142800,10.577142822265625,1.6261057025775312,9.655968440145253,-0.5370628404298797
1789740876715220700,10.587220703125,1.6291005004793404,9.6549513720572,-0.5461913918463513
1789740876725298700,10.597298583984376,1.6308616649329661,9.654099723663926,-0.5558993505859747
1789740876735376600,10.607376708984376,1.629913424297422,9.653733228439092,-0.564968865291588
1789740876745453600,10.61745361328125,1.627023694205284,9.653786419931054,-0.5723502807797863
1789740876755531800,10.62753173828125,1.624489207291603,9.653817984113097,-0.578983508249186
1789740876765609700,10.637609619140624,1.6246265699356794,9.653388360524177,-0.5857197211690247
1789740876775687700,10.647687744140624,1.6263547089025376,9.652703300869465,-0.592179930159077
1789740876785764600,10.6577646484375,1.6273666624240577,9.652197689434885,-0.5976233267894014
1789740876795842600,10.667842529296875,1.6281662883691488,9.651802552637458,-0.6018005394088104
1789740876805920500,10.67792041015625,1.6296869220651686,9.651281159111857,-0.6060395652180537
1789740876815998700,10.687998779296874,1.6306059366062282,9.650825232037901,-0.6107878922563046
1789740876826076000,10.698075927734376,1.6297366064257919,9.650663319474457,-0.615662220294401
1789740876836153900,10.70815380859375,1.6285411130309104,9.650618311288952,-0.6195126851774752
1789740876846231800,10.718231689453125,1.6280504069045185,9.650551091271637,-0.6218345522537827
1789740876856309800,10.728309814453125,1.6293281717553734,9.650233111363649,-0.6234435218203812
1789740876866386700,10.73838671875,1.6306582513153551,9.649928575459121,-0.6246612270470708
1789740876876464600,10.748464599609376,1.6316589527904986,9.649701780965923,-0.6255522576026619
1789740876886542800,10.75854296875,1.6321350458696484,9.649622870510816,-0.6255351603373884
1789740876896620800,10.768620849609375,1.6326774821832775,9.649580200412869,-0.6247571617022156
1789740876906697700,10.77869775390625,1.6366370334640143,9.648999185654521,-0.6233826584786176
1789740876916775700,10.788775634765624,1.6403626298584042,9.6484789611727,-0.6216328191366046
1789740876926853600,10.798853515625,1.63878982758373,9.64883376595974,-0.6202793587010353
1789740876936931600,10.808931640625,1.6339001558460293,9.649761402198672,-0.6187414085440337
1789740876947008500,10.819008544921875,1.6270679717384278,9.651093527585267,-0.615970993982628
1789740876957086700,10.829086669921875,1.624930375187844,9.651693831565975,-0.61220236216411
1789740876967164700,10.83916455078125,1.6261790600746868,9.651771572977303,-0.6076299031494184
1789740876977242600,10.84924267578125,1.6286121324405074,9.65159095571339,-0.6039705038590356
1789740876987319800,10.85931982421875,1.630186834411323,9.651541855874656,-0.6005145181862637
1789740876997397800,10.869397705078125,1.6316843794927,9.651568743881583,-0.596000511360541
1789740877007475700,10.879475830078125,1.633349243965,9.651559391531348,-0.5915750596011057
1789740877017554000,10.889553955078124,1.6344151196308434,9.65161024493575,-0.5877925088550895
1789740877027630800,10.899630859375,1.6321284699983893,9.652233929792047,-0.5838792444014922
1789740877037708800,10.909708740234375,1.6288984020359814,9.653014851036668,-0.5799668567307293
1789740877047786800,10.919786865234375,1.6263425800733267,9.653685297644138,-0.5759955054143443
1789740877057864700,10.92986474609375,1.6246825379066168,9.654167528203129,-0.5725713031193241
1789740877067941600,10.939941650390624,1.62310535171777,9.654600074401497,-0.5697639175483956
1789740877078019600,10.95001953125,1.621836208564788,9.654937928053736,-0.5676491904167458
1789740877088097800,10.960097900390625,1.6229111443199216,9.654877722299098,-0.5655719457512721
1789740877098175700,10.97017578125,1.6263605541214345,9.654471479585766,-0.5625871212542056
1789740877108252700,10.980252685546875,1.628129609620571,9.654339377638697,-0.5597340333780273
1789740877118330600,10.99033056640625,1.6276412415817378,9.654503043767809,-0.558347985847108
1789740877128408600,11.00040869140625,1.6247795685403048,9.65500397902727,-0.5580148814352229
1789740877138486500,11.010486572265625,1.6216230042055249,9.655481533411145,-0.5589051448058336
1789740877148564700,11.020564697265625,1.6180185499727726,9.655969024667144,-0.5609301112947985
1789740877158642000,11.030641845703125,1.6164195903435348,9.656207509598135,-0.561440435437113
1789740877168720000,11.040719970703124,1.6172376287281511,9.656074823129176,-0.5613785126494243
1789740877178797800,11.0507978515625,1.6200047553539276,9.655550506994128,-0.5624227975379675
1789740877188875800,11.060875732421875,1.6225100161731243,9.654957801797986,-0.5653579742070287
1789740877198952700,11.07095263671875,1.6224555095069109,9.654814593935011,-0.5679813084479421
1789740877209030700,11.08103076171875,1.6186115474298595,9.65530383875668,-0.5706078210266307
1789740877219108900,11.09110888671875,1.6143404459819197,9.65582640132606,-0.5738446109907701
1789740877229186800,11.101186767578126,1.6107199173972009,9.656171269240975,-0.5781863665221258
1789740877239263700,11.111263671875,1.6085837821513413,9.656201079857349,-0.5836202281391247
1789740877249341700,11.121341796875,1.6104107053175567,9.655566289085149,-0.5890551126694307
1789740877259419600,11.131419677734375,1.615914709561318,9.654382632258534,-0.5933707839114591
1789740877269497600,11.14149755859375,1.6216745882622896,9.653141692286729,-0.5978341930611059
1789740877279574500,11.151574462890625,1.6247162940457462,9.652267247539758,-0.6036793023601174
1789740877289652700,11.16165283203125,1.6239366879753767,9.65189023092091,-0.6117301050098612
1789740877299730700,11.171730712890625,1.6210038493938743,9.651802552637458,-0.6208334854524582
1789740877309808600,11.18180859375,1.6175160072781145,9.651787355068326,-0.6300890973147004
1789740877319885800,11.1918857421875,1.6157602496519683,9.651524904739857,-0.6385814697194844
1789740877329963800,11.2019638671875,1.6164719050526617,9.65088251518309,-0.646432913872227
1789740877340041700,11.212041748046875,1.620608274205029,9.649694766703247,-0.6537692481096834
1789740877350119700,11.22211962890625,1.6253521077312527,9.648348612791299,-0.6618181145306676
1789740877360196400,11.2321962890625,1.6284486124418676,9.647197689190506,-0.6709034843925387
1789740877370274600,11.242274658203126,1.6286306910105048,9.646491586747764,-0.6805525525517762
1789740877380352500,11.2523525390625,1.6263172995015978,9.646230305463074,-0.6897125220198184
1789740877390430500,11.262430419921875,1.621318760561943,9.646405077508092,-0.6989834775816649
1789740877400508400,11.27250830078125,1.6170260318040848,9.646375851413607,-0.7092527234658599
1789740877410585300,11.28258544921875,1.6162059475928543,9.64569955958724,-0.7202380817301571
1789740877420663300,11.292663330078126,1.6178407091878353,9.644667878451942,-0.7303174310654401
1789740877430741500,11.302741455078126,1.6204625821240246,9.643596449828147,-0.7386109929624944
1789740877440819500,11.3128193359375,1.6229213734529913,9.642651277932524,-0.7454983413234353
1789740877450896400,11.322896484375,1.624775476887077,9.641772157010436,-0.7527972661599517
1789740877460974300,11.332974365234374,1.6251346655882895,9.641082421180606,-0.7608315195336938
1789740877471052300,11.34305224609375,1.6229152359731494,9.640826985114812,-0.7687706419698893
1789740877481130200,11.353130126953126,1.619757064203173,9.64072118665278,-0.7767154634945094
1789740877491207400,11.36320751953125,1.617543625937402,9.640523033732176,-0.7837402475647628
1789740877501285600,11.37328564453125,1.6171835604533553,9.64004723291397,-0.7902997522108256
1789740877511363600,11.383363525390624,1.6181132425189018,9.639348144733905,-0.79690068484582
1789740877521441500,11.393441650390624,1.6207099810138343,9.638473115465045,-0.8021929460350423
1789740877531518500,11.4035185546875,1.624161728902906,9.63754781731367,-0.8063242736861109
1789740877541596400,11.413596435546875,1.626580042091012,9.63682125660479,-0.8101298034489154
1789740877551674400,11.42367431640625,1.6257298550024628,9.636655252388119,-0.8137850380208342
1789740877561752600,11.433752685546875,1.6235114483006297,9.6367470223248,-0.8171316450349986
1789740877571829500,11.44382958984375,1.6219781012535095,9.636836454173922,-0.819117631220445
1789740877581907500,11.453907470703125,1.621474389515072,9.636804889991879,-0.8204866545513272
1789740877591985400,11.4639853515625,1.6227422174938022,9.636499769565463,-0.8215655358292162
1789740877602063400,11.4740634765625,1.624854825733602,9.636126844599842,-0.8217642002064734
1789740877612140500,11.484140625,1.6274460112705826,9.635741644674539,-0.8211498677004129
1789740877622218500,11.494218505859376,1.629629200528562,9.635463996776938,-0.8200723746620118
1789740877632296400,11.50429638671875,1.6304950235776603,9.635472180083394,-0.8182610143911093
1789740877642374400,11.51437451171875,1.6301606770567596,9.63570014362037,-0.8162391531746834
1789740877652452400,11.524452392578125,1.629203960853815,9.636041504403948,-0.8141033101897687
1789740877662529500,11.534529541015624,1.6268820937775075,9.636628948903084,-0.8117859731581062
1789740877672607500,11.544607421875,1.6247208240903912,9.63717723043561,-0.8096108941413461
1789740877682685400,11.554685546875,1.6246438133314252,9.637437927198409,-0.8066646846216171
1789740877692763600,11.564763671875,1.6248793756529687,9.637707391789554,-0.8029592542324214
1789740877702840600,11.574840576171875,1.6246758159048855,9.63801426578164,-0.7996852740630507
1789740877712918500,11.58491845703125,1.6253076840676366,9.638231707924604,-0.7957817638184875
1789740877722996500,11.59499658203125,1.6261216307990252,9.638532736697792,-0.7904367495287209
1789740877733074400,11.605074462890625,1.625673448640108,9.639041270741819,-0.7851444152742624
1789740877743151400,11.6151513671875,1.6257343850471078,9.639518825125693,-0.7791243512671441
1789740877753229300,11.625229248046875,1.6261568482428788,9.639944941583275,-0.7729429592184722
1789740877763307500,11.6353076171875,1.6246964203014969,9.64062532506287,-0.7675131892547011
1789740877773385500,11.645385498046876,1.6231293171152472,9.641381111866234,-0.7613076126128435
1789740877783463400,11.65546337890625,1.6218153119072316,9.642112933272124,-0.7548108710046857
1789740877793540400,11.665540283203125,1.6197076721034942,9.642980948278307,-0.74822403996028
1789740877803618300,11.675618408203125,1.6189806730031966,9.643742580300568,-0.7399405610658228
1789740877813696500,11.685696533203124,1.6185523645885287,9.644551558595895,-0.7302757838808
1789740877823774500,11.6957744140625,1.6192667964681982,9.645203885024785,-0.7200129677373915
1789740877833851600,11.7058515625,1.6203971156723795,9.645808280658722,-0.7092813650384545
1789740877843929600,11.7159296875,1.6204155281119048,9.646624857738614,-0.6980334833804518
1789740877854007600,11.726007568359375,1.620400038281828,9.64747241447866,-0.6862674230672419
1789740877864085500,11.73608544921875,1.6207574734173713,9.648317048609256,-0.6734463738083839
1789740877874162400,11.746162353515626,1.6205197191387415,9.649290862077475,-0.6599299626965075
1789740877884240400,11.756240478515625,1.621070923280716,9.650110946288704,-0.6464348866336047
1789740877894318300,11.766318359375,1.6217380088873206,9.650949150678516,-0.6320959070924669
1789740877904396500,11.776396484375,1.621261915808171,9.65194692954421,-0.6179160636357963
1789740877914473500,11.786473388671874,1.6195130263142288,9.653228786048292,-0.6022771804772317
1789740877924551400,11.796551513671876,1.616314960925281,9.654773677402734,-0.5858669476199895
1789740877934629400,11.80662939453125,1.6128823561280965,9.656313308060168,-0.569721758907102
1789740877944707300,11.816707275390625,1.6091307485096156,9.657890348118544,-0.5533860525907949
1789740877954785300,11.826785400390625,1.609634460248053,9.65873673581481,-0.5368911005921662
1789740877964862500,11.836862548828124,1.6127360795252024,9.659181556972861,-0.5192886257430538
1789740877974940400,11.8469404296875,1.6161419424459338,9.65953694628179,-0.5018116404371336
1789740877985018400,11.857018310546875,1.619726669064909,9.659756141990423,-0.48580041683483866
1789740877995096300,11.867096435546875,1.6203865942783653,9.66039327085018,-0.47070455451179294
1789740878005173500,11.877173583984375,1.6190892479442058,9.66130746308565,-0.4561518956873566
1789740878015251500,11.88725146484375,1.6159848521880804,9.662520346006751,-0.4412022734345868
1789740878025329400,11.897329345703126,1.6131624882437288,9.663642628034948,-0.4267093089081347
1789740878035407600,11.90740771484375,1.6142232493430375,9.664048870748282,-0.41333018737509847
1789740878045484500,11.917484619140625,1.616198933330178,9.664271573588252,-0.4001754126498475
1789740878055562500,11.9275625,1.6198996875442564,9.66415992990732,-0.3877159267123788
1789740878065640400,11.937640380859374,1.6236447192914782,9.664078096842765,-0.3738679455585778
1789740878075718400,11.947718505859376,1.6238912413984536,9.664559742879867,-0.3600858327152207
1789740878085795300,11.95779541015625,1.6216240271188318,9.665403207966685,-0.34742676908504216
1789740878095873300,11.967873291015625,1.6171885288894174,9.666565822005271,-0.3355564812123775
1789740878105951500,11.977951416015625,1.6130743715688585,9.66763198993206,-0.32445016344953326
1789740878116029400,11.988029541015624,1.6100936021924017,9.66852864651084,-0.3123187769552693
1789740878126107400,11.998107421875,1.6102422168828545,9.66889981791079,-0.2998101729127578
1789740878136184600,12.0081845703125,1.6140528612121938,9.668629184275865,-0.2877924941923469
1789740878146262500,12.018262451171875,1.6175762130327522,9.668380177950858,-0.2761540971131064
1789740878156340500,12.028340576171875,1.6186908962763844,9.668504096591471,-0.26503024369357153
1789740878166418400,12.03841845703125,1.6158081804469226,9.669301968970894,-0.25324041891228405
1789740878176495600,12.04849560546875,1.6076944320961832,9.670946813568472,-0.2418648557540029
1789740878186573600,12.058573486328125,1.5994056194394826,9.67259341173172,-0.23070377559661864
1789740878196651500,12.068651611328125,1.5944028427161276,9.673664255833625,-0.220200355630368
1789740878206729500,12.0787294921875,1.594908308020234,9.673798695868253,-0.21043829208333045
1789740878216806400,12.088806396484374,1.6002245346069335,9.673146369439364,-0.19978538064379245
1789740878226884400,12.09888427734375,1.6045068881012499,9.672657709139585,-0.18878340003825722
1789740878236962600,12.108962646484375,1.6064295267269015,9.672511578667164,-0.17969408465363085
1789740878247040500,12.11904052734375,1.605401498853415,9.672864045366644,-0.16955622833045197
1789740878257118500,12.129118408203125,1.5999441102303564,9.673944826340675,-0.15921875778194516
1789740878267195400,12.1391953125,1.5954476755939424,9.674854342401026,-0.14873530289148912
1789740878277273300,12.1492734375,1.5943462902233003,9.67520271744728,-0.1375074228418991
1789740878287351300,12.159351318359375,1.5946211616419255,9.675292733818292,-0.12764617323670535
1789740878297429500,12.169429443359375,1.5980515744820236,9.674830961525439,-0.1194380611333996
1789740878307506700,12.179506591796875,1.6018853074260055,9.674297293040155,-0.11102998774489387
1789740878317584600,12.189584716796874,1.6011770130261778,9.674510643529892,-0.1022288507850375
1789740878327662600,12.19966259765625,1.596069314623624,9.675442371422053,-0.09351522771185264
1789740878337740500,12.209740478515625,1.5904888841427862,9.676455347856878,-0.083290807350073
1789740878347817500,12.2198173828125,1.5857513342268763,9.677317517644166,-0.072856146337674
1789740878357895400,12.2298955078125,1.5846597395978868,9.677565354925393,-0.06295019907422829
1789740878367973600,12.2399736328125,1.5882456352606416,9.677041038790344,-0.0522571930863196
1789740878378051600,12.250051513671876,1.5937340035438536,9.67619114396274,-0.04178940612245351
1789740878388129800,12.2601298828125,1.5990873472705482,9.675345925310253,-0.031433390703680925
1789740878398206700,12.270206787109375,1.6029356932617722,9.67473743802309,-0.02057891967690084
1789740878408284700,12.28028466796875,1.6025976934790611,9.67481284134686,-0.009021656405073008
1789740878418362600,12.290362548828124,1.5989761419810353,9.675415483415126,0.0029118394613687993
1789740878428440600,12.300440673828126,1.595876276269555,9.675915249630808,0.014737255860434378
1789740878438517500,12.310517578125,1.5951314492516218,9.676015202873945,0.025697340402868574
1789740878448595500,12.320595458984375,1.5985555784814058,9.675419575068354,0.035230072723038026
1789740878458673700,12.330673583984375,1.6036635691449046,9.674532855361699,0.045322178791905754
1789740878468751600,12.340751708984374,1.6094085425376892,9.673523970580101,0.05575380303042475
1789740878478829600,12.35082958984375,1.6143210106290875,9.672639588961005,0.06622795123641845
1789740878488906500,12.360906494140625,1.6163729747228324,9.672223993897438,0.07619573452258482
1789740878498984400,12.370984375,1.6155746639519928,9.672285368695855,0.084794928302709
1789740878509062700,12.381062744140625,1.6132533813975751,9.672602764081955,0.0924849987481255
1789740878519140600,12.391140625,1.6103032994203268,9.673024788886307,0.09943143861885181
1789740878529217800,12.4012177734375,1.6096582795150578,9.67307681133449,0.10470055639450437
1789740878539295700,12.411295654296875,1.6121140021041034,9.67261094738841,0.10993392700334079
1789740878549373700,12.421373779296875,1.6146568184547125,9.672117026391625,0.11585362677536905
1789740878559451600,12.43145166015625,1.615693175765127,9.671873865285516,0.12149543205462396
1789740878569528600,12.441528564453124,1.6143357698068022,9.67203227071762,0.12673762529073282
1789740878579606500,12.4516064453125,1.6102594602786005,9.672661216270923,0.13063149092411622
1789740878589684700,12.461684814453125,1.604600849995017,9.673574239462614,0.13267936336463315
1789740878599762700,12.4717626953125,1.6014612367950378,9.674078097331524,0.1338327985829208
1789740878609840600,12.481840576171875,1.6016839396350084,9.674036596277356,0.13412663043034262
1789740878619917600,12.49191748046875,1.6053136744394898,9.67345090534389,0.13303168393364176
1789740878629995500,12.50199560546875,1.6104318942360578,9.672617377129196,0.13178343743821605
1789740878640073500,12.512073486328125,1.6130029137678443,9.672201197543739,0.13084116988573222
1789740878650151700,12.522151611328125,1.611142088332027,9.67253495954275,0.12910899406457318
1789740878660228600,12.532228515625,1.6066101439908147,9.673336339053511,0.12548149688295088
1789740878670306600,12.542306640625,1.6008796375147998,9.67436159044802,0.11950799369760788
1789740878680384500,12.552384521484376,1.595826738039404,9.675282212424278,0.11227531163087114
1789740878690462500,12.56246240234375,1.5936945483162999,9.675714174100756,0.10518370940210298
1789740878700540400,12.57254052734375,1.5942822850763796,9.675694884878396,0.09785884640673174
1789740878710617600,12.58261767578125,1.597341526516527,9.675270521986484,0.08955287255267612
1789740878720695800,12.59269580078125,1.6015743417806922,9.674659112089872,0.0796119179079309
1789740878730773800,12.602773681640626,1.6039384405635297,9.674351069054007,0.0686456890357891
1789740878740851700,12.612851806640625,1.6026766039341687,9.674627547907829,0.058217539962567386
1789740878750928600,12.6229287109375,1.5974265744514762,9.67555693771243,0.04701067986811976
1789740878761006600,12.633006591796875,1.5906782692350445,9.676720136272907,0.0346712515301886
1789740878771084500,12.64308447265625,1.5840376621767878,9.677845925432443,0.022011317967041394
1789740878781162800,12.653162841796876,1.5813558757469057,9.678306528681516,0.009054929057834669
1789740878791240700,12.66324072265625,1.5836529006429017,9.677933603715896,-0.004516345198692579
1789740878801317600,12.673317626953125,1.588248265609145,9.677164957430959,-0.018383882434212136
1789740878811395600,12.6833955078125,1.5930751012437045,9.676333767303824,-0.032721233990555626
1789740878821473500,12.6934736328125,1.595132472164929,9.67593161624372,-0.04775858019255101
1789740878831551500,12.703551513671876,1.5929247329875826,9.676215109360218,-0.06185747650065459
1789740878841628700,12.713628662109375,1.5869693317145108,9.677080786278843,-0.07750558414529077
1789740878851706600,12.72370654296875,1.5829587808988987,9.677592827454209,-0.09392255727057344
1789740878861784600,12.73378466796875,1.5810872879385947,9.677736035317182,-0.10955780543363652
1789740878871862500,12.743862548828124,1.5814881238244474,9.677482352817059,-0.12501491141766308
1789740878881940500,12.7539404296875,1.5837173441812396,9.676915366584062,-0.13980642049927264
1789740878892017700,12.764017578125,1.5841966521307824,9.676617260420322,-0.1541896775735542
1789740878902095600,12.774095703125,1.5820150703079998,9.676737671929597,-0.16841896792883052
1789740878912173600,12.784173583984375,1.5790090203598142,9.676984340167046,-0.1819435623471625
1789740878922251800,12.794251708984374,1.575630922228843,9.677301151031255,-0.19391239695716647
1789740878932328700,12.80432861328125,1.5739035139143467,9.67732920808196,-0.20618697304809463
1789740878942406700,12.81440673828125,1.5741783853329716,9.67701415078342,-0.2184991777356714
1789740878952484600,12.824484619140625,1.5759597157917915,9.676460024031996,-0.22993569556726143
1789740878962562600,12.8345625,1.576707757680118,9.676083007413148,-0.24038411567695436
1789740878972640500,12.844640625,1.5769089793406426,9.675769703680276,-0.25140500191235915
1789740878982717400,12.854717529296876,1.5775386555463076,9.675366968098283,-0.2626968140436336
1789740878992795600,12.864795654296875,1.577475381051749,9.675065939325094,-0.2739446226364001
1789740879002873600,12.87487353515625,1.5776707574933766,9.674745621329546,-0.2839846811409108
1789740879012951600,12.88495166015625,1.5760187525026499,9.674761987942457,-0.29246265969416124
1789740879023028700,12.89502880859375,1.571452029109001,9.675230774497985,-0.3014081826939247
1789740879033106700,12.905106689453126,1.5681934657044707,9.675438279768825,-0.3115100909208879
1789740879043184600,12.9151845703125,1.5676022218130528,9.675230774497985,-0.32078754928875713
1789740879053262600,12.9252626953125,1.5701649119079113,9.674539285102487,-0.32903880641404537
1789740879063340500,12.935340576171875,1.5746762518525124,9.673525724145769,-0.3371861282408237
1789740879073417700,12.945417724609374,1.5779237093411385,9.672729605332016,-0.3447597783654928
1789740879083495700,12.95549560546875,1.5769962192326783,9.672637835395335,-0.35151444025747475
1789740879093573600,12.96557373046875,1.5739055597409606,9.672938279646635,-0.35702505690511316
1789740879103651600,12.975651611328125,1.570712024396658,9.67330243678391,-0.36118447813950477
