time,seconds_elapsed,z,y,x
1789740866181512000,0.053511962890625,-0.14138349890708923,-0.28022313117980957,0.044265199452638626
1789740866191590000,0.06358984375,-0.100130595266819,-0.33819589018821716,0.1291622519493103
1789740866201666800,0.073666748046875,-0.04515070095658302,-0.3768186569213867,0.22289486229419708
1789740866211744800,0.083744873046875,0.004008323885500431,-0.42179757356643677,0.3179108500480652
1789740866221823000,0.093822998046875,0.035657063126564026,-0.48038792610168457,0.3939172029495239
1789740866231900000,0.10389990234375,0.06327857077121735,-0.4829016625881195,0.4611052870750427
1789740866241977900,0.113977783203125,0.11266423016786575,-0.49376365542411804,0.504196047782898
1789740866252055000,0.124054931640625,0.1614040732383728,-0.5582033395767212,0.5655278563499451
1789740866262133000,0.134133056640625,0.18763168156147003,-0.5407196879386902,0.5949565768241882
1789740866272211000,0.1442109375,0.07765617966651917,-0.11574550718069077,0.5745450258255005
1789740866282287900,0.154287841796875,0.12055703997612,0.3585413694381714,0.458391010761261
1789740866292365800,0.16436572265625,0.20623598992824554,0.49599164724349976,0.3846861720085144
1789740866302444000,0.174444091796875,0.16296601295471191,0.4360713064670563,0.40262627601623535
1789740866312521000,0.18452099609375,0.08011720329523087,0.31177014112472534,0.41225412487983704
1789740866322599000,0.194598876953125,0.01329876109957695,0.23238743841648102,0.3764202296733856
1789740866332676900,0.2046767578125,-0.05518016591668129,0.1552974432706833,0.33472418785095215
1789740866342753800,0.21475390625,-0.14346608519554138,0.00387303507886827,0.35543081164360046
1789740866352831700,0.224831787109375,-0.2524738013744354,-0.2279527336359024,0.4596887528896332
1789740866362909700,0.23490966796875,-0.3806341588497162,-0.42900168895721436,0.6110692024230957
1789740866372987000,0.24498681640625,-0.46096786856651306,-0.498774915933609,0.7741015553474426
1789740866383065000,0.255065185546875,-0.5304660201072693,-0.5044703483581543,0.8947139978408813
1789740866393143000,0.26514306640625,-0.5847066044807434,-0.343768835067749,0.9964222311973572
1789740866403220000,0.275219970703125,-0.6237344145774841,-0.16418121755123138,1.1368680000305176
1789740866413298000,0.2852978515625,-0.6949002146720886,-0.07946446537971497,1.2732865810394287
1789740866423376000,0.2953759765625,-0.7677462100982666,0.008976717479526997,1.3609309196472168
1789740866433452800,0.305452880859375,-0.8322442173957825,0.04188060387969017,1.469840407371521
1789740866443530800,0.31553076171875,-0.9030027985572815,0.008388424292206764,1.675032138824463
1789740866453607700,0.325607666015625,-0.9819855093955994,-0.1057320237159729,1.901100754737854
1789740866463686000,0.335685791015625,-1.070238709449768,-0.21997417509555817,2.042449712753296
1789740866473763800,0.345763916015625,-1.0883628129959106,-0.30466562509536743,2.0803613662719727
1789740866483841800,0.355841796875,-1.0541105270385742,-0.283481240272522,2.0066521167755127
1789740866493919000,0.3659189453125,-0.9827927350997925,-0.17941290140151978,1.8783525228500366
1789740866503997000,0.375996826171875,-0.8653190732002258,-0.06775853782892227,1.7526811361312866
1789740866514073900,0.386073974609375,-0.7205073237419128,0.06525304168462753,1.6285903453826904
1789740866524151800,0.39615185546875,-0.586982786655426,0.1560061126947403,1.4935859441757202
1789740866534230000,0.40622998046875,-0.4841586947441101,0.17061035335063934,1.311362624168396
1789740866544307000,0.416306884765625,-0.4086165130138397,0.1751454472541809,1.0882357358932495
1789740866554385000,0.426385009765625,-0.33225491642951965,0.19107834994792938,0.8527660369873047
1789740866564462800,0.436462890625,-0.24955150485038757,0.17737185955047607,0.6705333590507507
1789740866574539800,0.446539794921875,-0.13992780447006226,0.05660894885659218,0.6094377636909485
1789740866584617700,0.45661767578125,-0.03804192319512367,-0.05664410442113876,0.6612056493759155
1789740866594695700,0.46669580078125,0.03756468743085861,-0.12368838489055634,0.7459884285926819
1789740866604772900,0.47677294921875,0.09727062284946442,-0.19491197168827057,0.7799608111381531
1789740866614850800,0.486850830078125,0.14228364825248718,-0.27508509159088135,0.7477189302444458
1789740866624929000,0.496928955078125,0.19934053719043732,-0.25913622975349426,0.7179703712463379
1789740866635006000,0.507005859375,0.2867497503757477,-0.22044289112091064,0.7543299794197083
1789740866645084000,0.517083984375,0.40069282054901123,-0.25251615047454834,0.8991228342056274
1789740866655161900,0.527161865234375,0.508979082107544,-0.31711724400520325,1.120098352432251
1789740866665238800,0.53723876953125,0.5431962013244629,-0.2961792051792145,1.3518307209014893
1789740866675316700,0.547316650390625,0.5214623808860779,-0.21671366691589355,1.5344526767730713
1789740866685394700,0.557394775390625,0.4867696464061737,-0.14685975015163422,1.6536552906036377
1789740866695471900,0.567471923828125,0.4635689854621887,-0.0812932550907135,1.717150330543518
1789740866705550000,0.577550048828125,0.437878280878067,-0.07827723026275635,1.7153830528259277
1789740866715627000,0.587626953125,0.4746706485748291,-0.12439145892858505,1.7127563953399658
1789740866725705000,0.597705078125,0.5556129217147827,-0.1759614497423172,1.7247397899627686
1789740866735783000,0.607782958984375,0.6534920334815979,-0.17801474034786224,1.7433534860610962
1789740866745859800,0.61785986328125,0.7294589877128601,-0.2997680604457855,1.8948678970336914
1789740866755937800,0.627937744140625,0.8030064702033997,-0.12863068282604218,2.101330041885376
1789740866766015700,0.638015625,0.7935346364974976,-0.1508299857378006,2.2282602787017822
1789740866776092700,0.6480927734375,0.6738710999488831,-0.42199304699897766,2.5845961570739746
1789740866786171000,0.6581708984375,0.5611107349395752,-0.44374096393585205,2.868025779724121
1789740866796248800,0.668248779296875,0.35751232504844666,-0.5542408227920532,2.9528701305389404
1789740866806326000,0.678325927734375,0.08372419327497482,-0.6432652473449707,2.7647104263305664
1789740866816404000,0.688404052734375,-0.15571503341197968,-0.49037957191467285,2.3370838165283203
1789740866826482000,0.69848193359375,-0.27609550952911377,-0.18828389048576355,1.7151644229888916
1789740866836558800,0.708558837890625,-0.28222715854644775,0.053404103964567184,1.0736262798309326
1789740866846636800,0.71863671875,-0.26005128026008606,0.2694181501865387,0.5767847895622253
1789740866856715000,0.728715087890625,-0.22716231644153595,0.39580777287483215,0.31273314356803894
1789740866866792000,0.7387919921875,-0.22908538579940796,0.3001102805137634,0.2706727683544159
1789740866876870000,0.748869873046875,-0.2830120027065277,0.08664008975028992,0.3542526066303253
1789740866886947800,0.75894775390625,-0.3556356132030487,-0.14213690161705017,0.36339071393013
1789740866897024800,0.769024658203125,-0.4011668562889099,-0.19489678740501404,0.25049346685409546
1789740866907102700,0.779102783203125,-0.3582340478897095,-0.16482676565647125,0.10061874985694885
1789740866917180700,0.7891806640625,-0.2552035450935364,-0.22027936577796936,-0.03121757321059704
1789740866927257900,0.7992578125,0.018759572878479958,0.2331126183271408,-0.42945948243141174
1789740866937336000,0.809336181640625,-0.3075527548789978,0.3794706165790558,-0.6682206392288208
1789740866947414000,0.8194140625,-0.4153346121311188,0.42017650604248047,-0.7790430784225464
1789740866957491000,0.829490966796875,-0.4214548170566559,0.6511915922164917,-0.7070748805999756
1789740866967569000,0.83956884765625,-0.4810912609100342,0.8405242562294006,-0.41547176241874695
1789740866977645800,0.849645751953125,-0.46734482049942017,0.8046290874481201,-0.051411792635917664
1789740866987723800,0.859723876953125,-0.46522441506385803,0.6673018932342529,0.3181454837322235
1789740866997801700,0.8698017578125,-0.5684946179389954,0.6479899883270264,0.569416880607605
1789740867007878700,0.879878662109375,-0.6759694218635559,0.6085831522941589,0.649974524974823
1789740867017956900,0.889956787109375,-0.7199310064315796,0.5305852890014648,0.592279314994812
1789740867028034800,0.900034912109375,-0.7634193301200867,0.4705105125904083,0.46342384815216064
1789740867038112000,0.910112060546875,-0.7652369737625122,0.39246100187301636,0.3369271457195282
1789740867048190000,0.92018994140625,-0.7671880125999451,0.26282548904418945,0.30084025859832764
1789740867058268000,0.930267822265625,-0.8254536986351013,0.1908370554447174,0.3469363749027252
1789740867068344800,0.9403447265625,-0.856777548789978,-0.12147343158721924,0.6420305967330933
1789740867078422800,0.9504228515625,-0.8453328609466553,-0.11967074126005173,0.8123935461044312
1789740867088501000,0.9605009765625,-0.7836585640907288,-0.15902747213840485,0.8204027414321899
1789740867098578000,0.970577880859375,-0.6978310346603394,-0.2830977439880371,0.8129245638847351
1789740867108655900,0.98065576171875,-0.6527889966964722,-0.327077716588974,0.7295884490013123
1789740867118733800,0.99073388671875,-0.6096087694168091,-0.4360279142856598,0.5965709686279297
1789740867128811000,1.00081103515625,-0.5716118216514587,-0.5107561945915222,0.45732253789901733
1789740867138889000,1.010888916015625,-0.4865579307079315,-0.5402880311012268,0.34594595432281494
1789740867148967000,1.020966796875,-0.3528054654598236,-0.5595085620880127,0.28171104192733765
1789740867159043800,1.0310439453125,-0.23058287799358368,-0.5473499298095703,0.21039745211601257
1789740867169122000,1.0411220703125,-0.08097181469202042,-0.5117471814155579,0.09527724981307983
1789740867179200000,1.051199951171875,0.07081558555364609,-0.40901893377304077,-0.07243584841489792
1789740867189277000,1.06127685546875,0.2357475459575653,-0.2625994086265564,-0.2229614406824112
1789740867199355000,1.07135498046875,0.33848562836647034,-0.13059023022651672,-0.3147563338279724
1789740867209431800,1.081431884765625,0.407546728849411,-0.03598729521036148,-0.3320524990558624
1789740867219509800,1.091509765625,0.42959317564964294,0.015993081033229828,-0.30568721890449524
1789740867229587700,1.101587646484375,0.37952548265457153,0.08436574786901474,-0.2421492487192154
1789740867239665000,1.111664794921875,0.2848367989063263,0.1617729216814041,-0.16240622103214264
1789740867249743000,1.1217431640625,0.18706762790679932,0.2700954079627991,-0.048471663147211075
1789740867259821000,1.131821044921875,0.13654825091362,0.3736889064311981,0.09600376337766647
1789740867269898000,1.14189794921875,0.15422818064689636,0.40862902998924255,0.21210932731628418
1789740867279976000,1.151975830078125,0.2151128351688385,0.40944451093673706,0.23575925827026367
1789740867290054000,1.162053955078125,0.25665122270584106,0.35360705852508545,0.16020405292510986
1789740867300130800,1.172130859375,0.2563265860080719,0.2532953917980194,0.022411566227674484
1789740867310208800,1.182208740234375,0.24427658319473267,0.171905979514122,-0.12984535098075867
1789740867320287000,1.192286865234375,0.23437973856925964,0.059777047485113144,-0.2236645221710205
1789740867330364000,1.202364013671875,0.22986967861652374,-0.049969159066677094,-0.25209030508995056
1789740867340441900,1.21244189453125,0.17740780115127563,-0.07855499535799026,-0.23628629744052887
1789740867350519800,1.222519775390625,0.1648792326450348,-0.04976755753159523,-0.207638680934906
1789740867360597000,1.232596923828125,0.19101309776306152,0.027057183906435966,-0.18536879122257233
1789740867370675000,1.242675048828125,0.2129673957824707,0.10527608543634415,-0.14220987260341644
1789740867380753000,1.2527529296875,0.20102711021900177,0.09271875023841858,-0.06635798513889313
1789740867390829800,1.262829833984375,0.16856157779693604,0.0017478326335549355,0.018018415197730064
1789740867400907800,1.27290771484375,0.11027750372886658,-0.08578121662139893,0.11014994233846664
1789740867410986000,1.282986083984375,0.03660834580659866,-0.13682815432548523,0.13826467096805573
1789740867421063000,1.29306298828125,-0.009436378255486488,-0.1213807538151741,0.09690017998218536
1789740867431140900,1.303140869140625,-0.043349605053663254,-0.08115823566913605,0.04216183349490166
1789740867441218800,1.31321875,-0.0775427296757698,-0.02580603025853634,-0.04048644006252289
1789740867451295700,1.323295654296875,-0.12034638226032257,-0.04312936216592789,-0.08277130872011185
1789740867461373700,1.333373779296875,-0.21804071962833405,-0.1959090530872345,-0.10872089117765427
1789740867471451600,1.34345166015625,-0.354831337928772,-0.2154230922460556,-0.14027641713619232
1789740867481528800,1.35352880859375,-0.4792555272579193,-0.15669827163219452,-0.042702190577983856
1789740867491607000,1.36360693359375,-0.6009915471076965,-0.06881075352430344,0.24598580598831177
1789740867501685000,1.37368505859375,-0.6903752684593201,0.02256682887673378,0.5675025582313538
1789740867511762000,1.383761962890625,-0.755474328994751,-0.040578585118055344,0.7864120006561279
1789740867521839900,1.39383984375,-0.7901484370231628,-0.1580977588891983,0.8165746927261353
1789740867531917800,1.403917724609375,-0.768024206161499,-0.24867212772369385,0.7140536904335022
1789740867541994800,1.413994873046875,-0.7139521837234497,-0.4105995297431946,0.5720957517623901
1789740867552072700,1.42407275390625,-0.717593789100647,-0.4623849391937256,0.42328575253486633
1789740867562150000,1.43414990234375,-0.7023980617523193,-0.46656718850135803,0.3438947796821594
1789740867572227800,1.444227783203125,-0.6270079612731934,-0.4340299963951111,1.1243921518325806
1789740867582305800,1.454305908203125,-0.41039127111434937,0.027717115357518196,1.5907524824142456
1789740867592383000,1.464383056640625,-0.4290219247341156,0.1643436700105667,1.2005804777145386
1789740867602461000,1.4744609375,-0.49160221219062805,-0.08370448648929596,0.7756014466285706
1789740867612539000,1.484538818359375,-0.3597608506679535,-0.28619420528411865,0.4868641793727875
1789740867622615800,1.49461572265625,-0.140466570854187,-0.30892083048820496,0.3229532837867737
1789740867632693800,1.50469384765625,0.00993225909769535,-0.2189672291278839,0.21158495545387268
1789740867642771700,1.514771728515625,0.10287391394376755,-0.08933494240045547,0.0945531353354454
1789740867652848600,1.5248486328125,0.1683482676744461,-0.05902949720621109,0.021082382649183273
1789740867662926800,1.5349267578125,0.20932020246982574,-0.09931540489196777,-0.03152596950531006
1789740867673004800,1.5450048828125,0.21553601324558258,-0.18652567267417908,-0.06945577263832092
1789740867683082000,1.55508203125,0.20776304602622986,-0.2689822018146515,-0.083299420773983
1789740867693160000,1.565159912109375,0.20290836691856384,-0.29594138264656067,-0.04091734066605568
1789740867703238000,1.57523779296875,0.20638112723827362,-0.3049399256706238,0.04984106123447418
1789740867713314800,1.585314697265625,0.1810142546892166,-0.29536134004592896,0.10720901191234589
1789740867723392800,1.595392822265625,0.13256682455539703,-0.2578784227371216,0.10010023415088654
1789740867733471000,1.605470947265625,0.0895615741610527,-0.2947320342063904,0.10198388993740082
1789740867743548000,1.6155478515625,0.06626956909894943,-0.34053999185562134,0.055650744587183
1789740867753625900,1.6256259765625,0.05956612527370453,-0.27874961495399475,0.0007808388327248394
1789740867763703800,1.635703857421875,0.05594662204384804,-0.21814697980880737,0.0004886900424025953
1789740867773780700,1.64578076171875,0.0358770415186882,-0.1737222522497177,0.05874693766236305
1789740867783858700,1.655858642578125,0.01997424103319645,-0.14578649401664734,0.11542273312807083
1789740867793936600,1.6659365234375,0.011035873554646969,-0.23227185010910034,0.20565329492092133
1789740867804013800,1.676013916015625,-0.0005022721597924829,-0.29650917649269104,0.29001665115356445
1789740867814092000,1.686092041015625,-0.03341974318027496,-0.37289395928382874,0.32931265234947205
1789740867824170000,1.696169921875,-0.08164239674806595,-0.36654630303382874,0.367084264755249
1789740867834247000,1.706246826171875,-0.08547388762235641,-0.33059096336364746,0.36493614315986633
1789740867844324900,1.716324951171875,-0.07044300436973572,-0.2915109395980835,0.3517543077468872
1789740867854402800,1.72640283203125,-0.046964045614004135,-0.2510988116264343,0.35812699794769287
1789740867864479700,1.736479736328125,-0.042995668947696686,-0.3238145411014557,0.34771960973739624
1789740867874557700,1.7465576171875,-0.028981583192944527,-0.393123596906662,0.41243496537208557
1789740867884636000,1.756635986328125,0.03123914636671543,-0.3197103440761566,0.5394432544708252
1789740867894712800,1.766712890625,-0.0026551715563982725,-0.15693102777004242,0.5648348927497864
1789740867904790800,1.776790771484375,-0.056598562747240067,-0.025646507740020752,0.564257800579071
1789740867914868700,1.78686865234375,-0.09316190332174301,0.049741458147764206,0.586826741695404
1789740867924946000,1.79694580078125,-0.08006900548934937,0.050695933401584625,0.5903815031051636
1789740867935023900,1.80702392578125,-0.022894131019711494,0.0018429075134918094,0.5414360761642456
1789740867945100800,1.817100830078125,0.3286615014076233,-0.29404494166374207,0.2071816772222519
1789740867955178800,1.8271787109375,0.6251291036605835,-0.8328170776367188,-0.4659391939640045
1789740867965257000,1.837257080078125,0.8859676122665405,-0.8285403251647949,-0.6509127616882324
1789740867975334000,1.847333984375,1.0503997802734375,-0.583091139793396,-0.5185043811798096
1789740867985411800,1.857411865234375,0.912513256072998,-0.4087584614753723,-0.5735511779785156
1789740867995489800,1.86748974609375,0.637566089630127,-0.4473165273666382,-0.7159740924835205
1789740868005566700,1.877566650390625,0.5720089077949524,-0.4501458704471588,-0.577123761177063
1789740868015644700,1.887644775390625,0.5144180655479431,-0.3554885983467102,-0.46712297201156616
1789740868025722600,1.89772265625,0.42374569177627563,-0.33146926760673523,-0.3662445545196533
1789740868035799800,1.9077998046875,0.3789513111114502,-0.35381612181663513,-0.22971069812774658
1789740868045878000,1.9178779296875,0.32846176624298096,-0.3364701569080353,-0.1489841490983963
1789740868055956000,1.9279560546875,0.2658391296863556,-0.3592319190502167,-0.08697590976953506
1789740868066033000,1.938032958984375,0.16264031827449799,-0.285869300365448,-0.06813404709100723
1789740868076110800,1.94811083984375,0.10152608901262283,-0.28004682064056396,0.020020047202706337
1789740868086188800,1.958188720703125,0.09152991324663162,-0.26522794365882874,0.10021395236253738
1789740868096265700,1.968265625,0.07724898308515549,-0.2675808370113373,0.16690510511398315
1789740868106343700,1.97834375,0.07325290888547897,-0.2958465814590454,0.24951928853988647
1789740868116422000,1.988421875,0.05482889339327812,-0.2748089134693146,0.3091573119163513
1789740868126498800,1.998498779296875,0.06075682491064072,-0.30459266901016235,0.3869112432003021
1789740868136576800,2.00857666015625,0.09978412091732025,-0.31743335723876953,0.4489322602748871
1789740868146654700,2.01865478515625,0.11921161413192749,-0.30763664841651917,0.4556788504123688
1789740868156732000,2.02873193359375,0.12106756865978241,-0.37951695919036865,0.49053457379341125
1789740868166809900,2.038809814453125,0.2306870073080063,-0.7200657725334167,0.6070510745048523
1789740868176887800,2.0488876953125,0.3052690923213959,-0.7079169750213623,0.6394108533859253
1789740868186964700,2.05896484375,0.2603437006473541,-0.7169013619422913,0.6965308785438538
1789740868197043000,2.06904296875,0.13639672100543976,-1.093206524848938,0.5454063415527344
1789740868207121000,2.079120849609375,-0.05248983949422836,-1.6089407205581665,0.3502533435821533
1789740868217197800,2.08919775390625,-0.21608543395996094,-2.365682363510132,0.29645511507987976
1789740868227275800,2.09927587890625,-0.11606694757938385,-2.93515682220459,-0.14686933159828186
1789740868237353700,2.109353759765625,0.08568134903907776,-3.432476758956909,-0.3836970627307892
1789740868247431000,2.119430908203125,0.13220863044261932,-3.881892204284668,-0.3008762001991272
1789740868257508900,2.1295087890625,-0.2150750309228897,-4.145452499389648,-0.38788488507270813
1789740868267587000,2.139587158203125,-0.1930839717388153,-0.5328484773635864,1.1127994060516357
1789740868277664000,2.1496640625,-0.5945488214492798,-0.21572989225387573,1.1207878589630127
1789740868287742000,2.159741943359375,-0.8533422946929932,-0.3251346945762634,0.25440192222595215
1789740868297820000,2.16981982421875,-0.8138753175735474,-0.14427834749221802,-0.320984423160553
1789740868307896800,2.179896728515625,-0.4192659854888916,-0.24147707223892212,-0.37140631675720215
1789740868317974800,2.189974853515625,-0.22750453650951385,-0.36749279499053955,-0.3582782447338104
1789740868328052700,2.200052734375,-0.4047871530056,-0.2591865658760071,-0.45126572251319885
1789740868338129700,2.210129638671875,-0.41117528080940247,-0.21182650327682495,-0.36477503180503845
1789740868348209000,2.220208984375,-0.3184807598590851,-0.23746076226234436,-0.217913419008255
1789740868358286800,2.230286865234375,-0.20013442635536194,-0.23172111809253693,-0.14140692353248596
1789740868368363800,2.24036376953125,-0.25634390115737915,-0.10929559916257858,-0.027351995930075645
1789740868378441700,2.250441650390625,-0.2205696552991867,0.0059748017229139805,-0.07844127714633942
1789740868388519700,2.260519775390625,-0.16297613084316254,0.037148699164390564,-0.05801163613796234
1789740868398596900,2.270596923828125,-0.09345032274723053,0.09053043276071548,-0.02213459648191929
1789740868408674800,2.2806748046875,-0.03543335944414139,0.09188411384820938,0.01678137667477131
1789740868418751700,2.290751708984375,0.039680302143096924,0.12144680321216583,0.07437116652727127
1789740868428830000,2.300829833984375,-0.0391753651201725,0.14722487330436707,0.1291353553533554
1789740868438908000,2.310907958984375,-0.2974364757537842,0.14946219325065613,0.19159047305583954
1789740868448984800,2.32098486328125,-0.35886043310165405,0.1652374267578125,0.25474813580513
1789740868459062800,2.331062744140625,-0.3678469955921173,0.28127747774124146,0.13796985149383545
1789740868469140700,2.341140625,-0.23444606363773346,0.4209190011024475,-0.0490487702190876
1789740868479217700,2.3512177734375,-0.1242215484380722,0.3578156530857086,-0.17269667983055115
1789740868489295600,2.361295654296875,-0.10436155647039413,0.249892920255661,-0.2554624080657959
1789740868499373800,2.371373779296875,-0.22620703279972076,0.18554402887821198,-0.2738877534866333
1789740868509451000,2.381450927734375,-0.32001397013664246,0.2052205353975296,-0.23729723691940308
1789740868519529000,2.391529052734375,-0.45193684101104736,0.20274539291858673,-0.22962041199207306
1789740868529607000,2.40160693359375,-0.5640793442726135,0.0849686861038208,-0.13041047751903534
1789740868539683800,2.411683837890625,-0.5945743918418884,0.08006500452756882,-0.015631424263119698
1789740868549761800,2.42176171875,-0.6379775404930115,0.16493888199329376,0.017822140827775
1789740868559839700,2.43183984375,-0.985817015171051,0.21225394308567047,-0.02696344070136547
1789740868569916700,2.441916748046875,-1.1052606105804443,0.008876582607626915,-0.04505269601941109
1789740868579995000,2.451994873046875,-1.1025124788284302,0.11288926750421524,-0.13134311139583588
1789740868590072800,2.46207275390625,-0.8544747233390808,-0.06583147495985031,-0.07797043025493622
1789740868600149800,2.472149658203125,-0.2799685299396515,-0.3055652379989624,0.14901398122310638
1789740868610227700,2.482227783203125,0.44591355323791504,-0.27965429425239563,0.1565864086151123
1789740868620305700,2.4923056640625,1.002099871635437,-0.14875832200050354,0.11524909734725952
1789740868630382800,2.5023828125,1.3237625360488892,-0.283739298582077,-0.0591093935072422
1789740868640460800,2.512460693359375,1.6189316511154175,-0.5632780194282532,-0.24789422750473022
1789740868650539000,2.5225390625,1.835066556930542,-0.8295688033103943,-0.44388529658317566
1789740868660616000,2.532615966796875,1.8554517030715942,-0.7822471261024475,-0.5471304655075073
1789740868670694000,2.54269384765625,1.603063702583313,-0.586093544960022,-0.6384928822517395
1789740868680771800,2.552771728515625,1.272730827331543,-0.5308929085731506,-0.7113327383995056
1789740868690848800,2.562848876953125,0.8738329410552979,-0.602813720703125,-0.794543981552124
1789740868700926700,2.5729267578125,0.4226987957954407,-0.5144979357719421,-0.8306431174278259
1789740868711004700,2.583004638671875,-0.0005898901727050543,-0.409111350774765,-0.8007656335830688
1789740868721081900,2.593081787109375,-0.22454096376895905,-0.3167915344238281,-0.7300179600715637
1789740868731159800,2.603159912109375,-0.36964142322540283,-0.242665633559227,-0.6510108113288879
1789740868741237800,2.61323779296875,-0.451593279838562,-0.3178749084472656,-0.6086180806159973
1789740868751315000,2.62331494140625,-0.4522457718849182,-0.5157813429832458,-0.5926433801651001
1789740868761393000,2.633392822265625,-0.37871962785720825,-0.5474351048469543,-0.5240610837936401
1789740868771470800,2.643470947265625,-0.22299446165561676,-0.31897613406181335,-0.35425102710723877
1789740868781547800,2.6535478515625,-0.06136162951588631,0.01744663529098034,-0.152721107006073
1789740868791625700,2.663625732421875,0.15909084677696228,0.14484533667564392,0.0039041941054165363
1789740868801704000,2.673703857421875,0.4530644118785858,0.0678754523396492,0.11899536103010178
1789740868811780900,2.68378076171875,0.7836617827415466,0.02750512771308422,0.27254363894462585
1789740868821858800,2.69385888671875,1.1763204336166382,0.015086540952324867,0.590198814868927
1789740868831936800,2.703936767578125,1.4818544387817383,-0.03967257961630821,1.097141981124878
1789740868842014000,2.714013916015625,1.5392978191375732,0.48476696014404297,1.6051374673843384
1789740868852092000,2.724091796875,1.5789247751235962,1.432023525238037,2.0021400451660156
1789740868862169900,2.734169921875,0.9315971732139587,0.22134117782115936,-0.2445780485868454
1789740868872246800,2.744246826171875,0.955260157585144,0.07612113654613495,0.3702896535396576
1789740868882325000,2.754324951171875,0.42685091495513916,-0.5012623071670532,0.0971025824546814
1789740868892403000,2.76440283203125,0.05037448927760124,-0.5923709273338318,0.03171025961637497
1789740868902480000,2.77447998046875,-0.29577386379241943,-0.2877172827720642,0.041544780135154724
1789740868912557800,2.784557861328125,-0.5974514484405518,0.11334466934204102,0.0034226945135742426
1789740868922635800,2.7946357421875,0.9191216230392456,-0.14396116137504578,-0.08584833145141602
1789740868932712700,2.804712646484375,0.12311074882745743,0.5694416165351868,-0.06747624278068542
1789740868942790700,2.814790771484375,0.3531343638896942,-0.08472234755754471,-0.10884951800107956
1789740868952868900,2.824868896484375,0.4344654381275177,-0.1410098522901535,-0.10749290138483047
1789740868962946000,2.834946044921875,0.3994656503200531,-0.1709432452917099,-0.0645797923207283
1789740868973024000,2.84502392578125,0.3943614363670349,-0.24594585597515106,-0.026557041332125664
1789740868983102000,2.85510205078125,0.4480619430541992,-0.24227522313594818,0.029799707233905792
1789740868993179000,2.865178955078125,0.5269452929496765,-0.11599398404359818,0.05329571291804314
1789740869003256800,2.8752568359375,0.5636399388313293,-0.014846590347588062,0.10659648478031158
1789740869013334800,2.885334716796875,0.5719729661941528,-0.10306273400783539,0.20026491582393646
1789740869023411700,2.89541162109375,0.5874429941177368,-0.39888960123062134,0.3364717662334442
1789740869033490000,2.905489990234375,0.6026877164840698,-0.3171294927597046,0.38244616985321045
1789740869043567900,2.91556787109375,0.6235000491142273,0.4772096872329712,0.2777373492717743
1789740869053644800,2.925644775390625,0.6710391044616699,1.380162239074707,0.15603886544704437
1789740869063722800,2.93572265625,0.604305624961853,1.9963351488113403,0.09874442219734192
1789740869073800700,2.94580078125,0.3896060883998871,2.069161891937256,0.08315720409154892
1789740869083878000,2.9558779296875,0.1900642067193985,1.5898314714431763,0.010673949494957924
1789740869093955800,2.965955810546875,0.13280491530895233,0.6016890406608582,-0.09868689626455307
1789740869104034000,2.976033935546875,0.07627080380916595,-0.1175556555390358,-0.19528400897979736
1789740869114111000,2.986111083984375,0.08014942705631256,-0.22633805871009827,-0.13773176074028015
1789740869124189000,2.99618896484375,0.05553862452507019,-0.004553472623229027,-0.05492956191301346
1789740869134267000,3.006266845703125,0.055264055728912354,0.06281065195798874,0.007507717236876488
1789740869144343800,3.01634375,0.08068818598985672,0.0795784518122673,0.05969608575105667
1789740869154421800,3.026421875,0.0394107885658741,0.11030600219964981,0.06149664893746376
1789740869164499700,3.036499755859375,0.033129990100860596,0.2062932550907135,0.07676322013139725
1789740869174576600,3.04657666015625,-0.021375862881541252,0.3484165668487549,0.08379609882831573
1789740869184654800,3.05665478515625,-0.0648980364203453,0.44823771715164185,0.05470532178878784
1789740869194732800,3.06673291015625,-0.11752529442310333,0.5474615097045898,-0.0017741979099810123
1789740869204810000,3.07681005859375,-0.21027255058288574,0.7289907932281494,-0.06299468129873276
1789740869214888000,3.086887939453125,-0.24910835921764374,0.7958438992500305,-0.027155987918376923
1789740869224966000,3.0969658203125,-0.31981900334358215,0.5600353479385376,-0.08874557912349701
1789740869235042800,3.107042724609375,-0.5236773490905762,0.07930201292037964,-0.2971557676792145
1789740869245120800,3.117120849609375,-0.9124472141265869,-0.08393165469169617,-0.42156508564949036
1789740869255198700,3.12719873046875,-1.179643154144287,-0.4241406321525574,-0.4486667513847351
1789740869265275600,3.137275634765625,-1.2132762670516968,-0.69120854139328,-0.3496999442577362
1789740869275353900,3.147353759765625,-1.2272768020629883,-0.20677714049816132,-0.12270834296941757
1789740869285431800,3.157431884765625,-1.2370713949203491,-0.36930426955223083,-0.0037265613209456205
1789740869295508700,3.1675087890625,-1.2439616918563843,-0.586230993270874,-0.05877649784088135
1789740869305586700,3.177586669921875,-1.142120599746704,-0.02267788164317608,0.06925017386674881
1789740869315665000,3.187664794921875,-0.8668642640113831,0.20556408166885376,0.1787063628435135
1789740869325741800,3.197741943359375,-0.6527079939842224,0.6793159246444702,0.22837591171264648
1789740869335819800,3.20781982421875,-0.4987243115901947,1.112626314163208,0.3256657123565674
1789740869345898000,3.21789794921875,-0.323340505361557,0.9808739423751831,0.3723735809326172
1789740869355974400,3.227974365234375,-0.1892077475786209,0.7042763829231262,0.4195972681045532
1789740869366052400,3.23805224609375,-0.12281513214111328,0.45334166288375854,0.47940894961357117
1789740869376130300,3.24813037109375,-0.06054510176181793,0.3592955768108368,0.5168015956878662
1789740869386207200,3.258207275390625,0.0676131322979927,0.2964010238647461,0.35257747769355774
1789740869396285200,3.26828515625,0.11732955276966095,0.29772621393203735,0.03515079617500305
1789740869406363100,3.278363037109375,0.1189998909831047,-0.33371245861053467,0.08106023073196411
1789740869416440300,3.2884404296875,0.04553339630365372,-0.24799728393554688,-0.13619644939899445
1789740869426518500,3.2985185546875,0.053957242518663406,-0.215375155210495,-0.2647048830986023
1789740869436596500,3.308596435546875,0.21289949119091034,-0.6240915656089783,-0.2968708276748657
1789740869446674400,3.31867431640625,0.4032968580722809,-0.8006836175918579,-0.424315869808197
1789740869456751400,3.32875146484375,0.5373449325561523,-0.8833532333374023,-0.5606433153152466
1789740869466829300,3.338829345703125,0.6403504014015198,-0.6508230566978455,-0.6075376272201538
1789740869476907300,3.3489072265625,0.685685396194458,-0.22637508809566498,-0.2541009783744812
1789740869486984200,3.358984130859375,0.6886865496635437,-0.27187439799308777,-0.04965836554765701
1789740869497062400,3.3690625,0.5501004457473755,-0.200407937169075,-0.019289808347821236
1789740869507140400,3.379140380859375,0.345420241355896,-0.07566466927528381,-0.08550477772951126
1789740869517217300,3.38921728515625,0.16732987761497498,0.03927523270249367,-0.1498297154903412
1789740869527295200,3.399295166015625,0.06840808689594269,-0.09194616973400116,0.027154656127095222
1789740869537373200,3.409373291015625,-0.07410112768411636,-0.18552032113075256,0.09932898730039597
1789740869547450400,3.419450439453125,-0.2476353645324707,-0.23229901492595673,-0.0400928258895874
1789740869557528300,3.4295283203125,-0.37221723794937134,-0.2757556736469269,-0.017067667096853256
1789740869567606500,3.4396064453125,-0.3805542588233948,-0.47543948888778687,-0.04368436336517334
1789740869577683500,3.449683349609375,-0.2282736450433731,-0.6352941393852234,-0.1972006857395172
1789740869587761400,3.459761474609375,0.3192269802093506,-0.11349567025899887,-0.07636241614818573
1789740869597839400,3.46983935546875,0.9572394490242004,-0.07438235729932785,-0.10516344010829926
1789740869607916300,3.479916259765625,1.3958481550216675,-0.1843906193971634,-0.256693035364151
1789740869617994200,3.489994140625,1.7258223295211792,-0.47836416959762573,-0.3491151034832001
1789740869628072200,3.500072265625,1.705213189125061,-0.4904181957244873,-0.33699268102645874
1789740869638149400,3.5101494140625,1.4606969356536865,-0.550362765789032,-0.3171289563179016
1789740869648227300,3.520227294921875,0.9220209717750549,-0.5733950734138489,-0.20969383418560028
1789740869658305300,3.53030517578125,0.3038214147090912,-0.5509675741195679,-0.06294860690832138
1789740869668382500,3.540382568359375,-0.16214603185653687,-0.6710705161094666,-0.058339204639196396
1789740869678460400,3.55046044921875,-0.458468496799469,-0.9368161559104919,-0.06285752356052399
1789740869688538400,3.560538330078125,-0.5706576108932495,-1.1178128719329834,0.0037119139451533556
1789740869698615300,3.570615234375,-0.5807451605796814,-0.9293150901794434,0.050996072590351105
1789740869708693200,3.580693359375,-0.4476776421070099,-0.4238511323928833,-0.13194365799427032
1789740869718771200,3.590771240234375,-0.30974000692367554,-0.0309310182929039,0.02618100307881832
1789740869728848100,3.60084814453125,-0.17144685983657837,0.026191657409071922,0.0766202062368393
1789740869738926300,3.61092626953125,0.000441818410763517,-0.01176051888614893,0.07420525699853897
1789740869749004300,3.62100439453125,0.2291674017906189,-0.061945125460624695,0.06349535286426544
1789740869759081500,3.63108154296875,0.44794341921806335,-0.11519583314657211,0.028620459139347076
1789740869769159400,3.641159423828125,0.6152442693710327,-0.11148738116025925,-0.020609404891729355
1789740869779237400,3.6512373046875,0.7422080636024475,-0.03003779426217079,-0.0275016650557518
1789740869789314300,3.661314208984375,0.8153368830680847,0.09234244376420975,-0.013138172216713428
1789740869799392300,3.671392333984375,0.8423929810523987,0.12933295965194702,-0.061463359743356705
1789740869809470500,3.681470458984375,0.7852990627288818,0.08651864528656006,-0.14473694562911987
1789740869819548400,3.69154833984375,0.6503798961639404,-0.02640390954911709,-0.2139759361743927
1789740869829625300,3.701625244140625,0.5274566411972046,-0.1871776133775711,-0.25763073563575745
1789740869839703300,3.711703369140625,0.41224002838134766,-0.28537848591804504,-0.2586957514286041
1789740869849781200,3.72178125,0.27069246768951416,-0.2323983609676361,-0.2772499918937683
1789740869859858200,3.731858154296875,0.11356784403324127,-0.1600559800863266,-0.32266300916671753
1789740869869936000,3.74193603515625,0.00990376342087984,-0.15915502607822418,-0.4159652590751648
1789740869880014300,3.752014404296875,-0.03346261754631996,-0.17838598787784576,-0.5120664834976196
1789740869890091500,3.762091552734375,-0.05152684077620506,-0.13240064680576324,-0.5423381328582764
1789740869900169500,3.77216943359375,-0.05625874549150467,0.00030892668291926384,-0.5620422959327698
1789740869910247400,3.782247314453125,-0.18164169788360596,-0.13808970153331757,-0.5613264441490173
1789740869920324400,3.792324462890625,-0.26758483052253723,-0.3165228068828583,-0.4954819083213806
1789740869930402300,3.80240234375,-0.1818494200706482,-0.0555570013821125,-0.3341207206249237
1789740869940480300,3.812480224609375,-0.08578281849622726,0.4550849497318268,-0.06664320826530457
1789740869950557200,3.82255712890625,-0.05663398280739784,0.7524601817131042,0.12518508732318878
1789740869960635400,3.832635498046875,-0.04938539117574692,0.6450698375701904,0.20566900074481964
1789740869970713300,3.84271337890625,-0.029276661574840546,0.3039300739765167,0.24960742890834808
1789740869980790300,3.852790283203125,-0.02797171287238598,0.09030140191316605,0.2704964578151703
1789740869990868200,3.8628681640625,-0.06343356519937515,0.157878577709198,0.26214534044265747
1789740870000946200,3.8729462890625,-0.13204751908779144,0.18677440285682678,0.30824118852615356
1789740870011023400,3.8830234375,-0.18622180819511414,0.04174744710326195,0.3970818519592285
1789740870021101300,3.893101318359375,-0.37061241269111633,-0.11775832623243332,0.41114920377731323
1789740870031179500,3.903179443359375,-0.4995887875556946,1.1641939878463745,0.5540445446968079
1789740870041256400,3.91325634765625,-0.5604190826416016,0.7954550385475159,0.47695669531822205
1789740870051334400,3.92333447265625,-0.6369192004203796,0.3776697814464569,0.32235246896743774
1789740870061412400,3.933412353515625,-0.6773414611816406,0.006041381042450666,0.12180792540311813
1789740870071489300,3.9434892578125,-0.7148422598838806,-0.4436860978603363,-0.0873761847615242
1789740870081567200,3.953567138671875,-0.764504611492157,-0.6533064246177673,-0.2907881736755371
1789740870091645200,3.963645263671875,-0.7650611996650696,-0.767641007900238,-0.39047080278396606
1789740870101722400,3.973722412109375,-0.7381477952003479,-1.040724754333496,-0.3978073000907898
1789740870111800300,3.98380029296875,-0.6688952445983887,-0.9415238499641418,-0.3005901873111725
1789740870121878300,3.993878173828125,-0.5201478600502014,-0.6932802200317383,-0.11488743871450424
1789740870131956200,4.003956298828125,-0.34658512473106384,-0.46027547121047974,0.11432550847530365
1789740870142033400,4.014033447265625,-0.20729966461658478,-0.1404537856578827,0.362860769033432
1789740870152111400,4.024111328125,-0.04746578633785248,0.2925519645214081,0.582648754119873
1789740870162189300,4.034189208984375,0.12621891498565674,0.8242217302322388,0.7656854391098022
1789740870172266200,4.044266357421875,0.2866639792919159,0.9123366475105286,0.8819028735160828
1789740870182344400,4.054344482421875,0.3730734586715698,1.1367063522338867,0.8763056993484497
1789740870192422400,4.06442236328125,0.3818509578704834,1.0461459159851074,0.7876754403114319
1789740870202499300,4.074499267578125,0.28650686144828796,0.7859393358230591,0.6505130529403687
1789740870212577300,4.084577392578125,0.16763879358768463,0.6694813966751099,0.5101335644721985
1789740870222655200,4.0946552734375,0.13208159804344177,0.5744971036911011,0.3806344270706177
1789740870232732400,4.104732421875,0.30549120903015137,0.37890470027923584,-0.007090666331350803
1789740870242810400,4.114810302734375,0.3291608393192291,-0.31242635846138,-0.15389448404312134
1789740870252888300,4.124888427734375,0.2598781883716583,-0.5566344857215881,-0.24747903645038605
1789740870262965500,4.134965576171875,0.19472581148147583,-0.46386513113975525,-0.2759775221347809
1789740870273043500,4.14504345703125,0.07259457558393478,2.2040393352508545,0.6787412166595459
1789740870283121400,4.155121337890625,0.254300981760025,3.20306658744812,1.2142879962921143
1789740870293198300,4.1651982421875,0.36510393023490906,2.4405860900878906,0.9113749861717224
1789740870303276300,4.1752763671875,0.1335492730140686,0.9713427424430847,0.2478896975517273
1789740870313354200,4.185354248046875,-0.05048501119017601,-0.07529927790164948,-0.43636560440063477
1789740870323431200,4.19543115234375,-0.14515000581741333,-0.056768208742141724,-0.44514206051826477
1789740870333509400,4.20550927734375,-0.35623881220817566,-0.033252496272325516,-0.1864423155784607
1789740870343587300,4.21558740234375,-0.3666735887527466,0.01986558362841606,-0.1791473776102066
1789740870353665800,4.225665771484375,-0.35306963324546814,-0.02298068255186081,-0.1660371720790863
1789740870363742700,4.23574267578125,-0.34178316593170166,-0.07081345468759537,-0.07546892762184143
1789740870373820700,4.245820556640625,-0.21098200976848602,-0.08183281123638153,-0.059309929609298706
1789740870383898600,4.255898681640625,-0.11297821998596191,-0.06551642715930939,-0.08418465405702591
1789740870393975800,4.265975830078125,-0.056114137172698975,-0.04146355390548706,-0.11988858878612518
1789740870404054000,4.276053955078125,-0.031621843576431274,-0.019345467910170555,-0.1625702679157257
1789740870414132000,4.286132080078125,-0.0022085595410317183,-0.00854714959859848,-0.20716729760169983
1789740870424209000,4.296208984375,0.0018690064316615462,-0.022160429507493973,-0.22584111988544464
1789740870434286800,4.306286865234375,-0.011717376299202442,-0.039996951818466187,-0.22202827036380768
1789740870444364800,4.31636474609375,-0.04500023275613785,-0.04598293825984001,-0.22222667932510376
1789740870454441700,4.326441650390625,-0.04693954437971115,-0.04441380500793457,-0.2669294476509094
1789740870464519700,4.336519775390625,-0.047993890941143036,-0.04355946183204651,-0.38487496972084045
1789740870474598000,4.346597900390625,-0.09411264955997467,-0.03925579413771629,-0.5518085956573486
1789740870484674800,4.3566748046875,-0.1955079734325409,-0.04619332775473595,-0.6839884519577026
1789740870494752800,4.366752685546875,-0.2658274173736572,-0.044673461467027664,-0.8000644445419312
1789740870504830700,4.376830810546875,-0.3891405761241913,-0.01044385228306055,-0.9286485314369202
1789740870514908000,4.386907958984375,-0.49148717522621155,0.7020955681800842,-0.830342173576355
1789740870524985900,4.39698583984375,-0.26039668917655945,0.0562124066054821,-0.26947781443595886
1789740870535063800,4.407063720703125,0.03836682811379433,-0.06766240298748016,-0.08372871577739716
1789740870545140700,4.417140625,-0.027031617239117622,-0.046605851501226425,-0.1258825659751892
1789740870555219000,4.427218994140625,-0.0896926000714302,-0.04710439592599869,-0.11366052180528641
1789740870565297000,4.437296875,-0.07347661256790161,-0.0496346652507782,-0.10393492132425308
1789740870575374800,4.447374755859375,-0.029462018981575966,-0.04102466627955437,-0.08654847741127014
1789740870585451800,4.45745166015625,0.012260926887392998,-0.025897642597556114,-0.07959575951099396
1789740870595529700,4.46752978515625,0.03002394549548626,-0.0192506592720747,-0.0679130032658577
1789740870605607700,4.477607666015625,0.019355587661266327,-0.008298676460981369,-0.0685923770070076
1789740870615684900,4.487684814453125,0.018341723829507828,0.007448861375451088,-0.05525340139865875
1789740870625762800,4.4977626953125,0.03477742150425911,0.004290885291993618,-0.0457933209836483
1789740870635840800,4.5078408203125,0.04827006161212921,0.0046605318784713745,-0.0368988960981369
1789740870645918000,4.51791796875,0.03198802471160889,0.006085323169827461,-0.0289956983178854
1789740870655996000,4.527995849609375,0.00038722361205145717,0.0070222229696810246,-0.020112991333007812
1789740870666073900,4.538073974609375,-0.017166469246149063,0.022242454811930656,-0.025180187076330185
1789740870676150800,4.54815087890625,-0.015290539711713791,0.031035946682095528,-0.02978159673511982
1789740870686228700,4.558228759765625,0.011302188970148563,0.03316833823919296,-0.036430712789297104
1789740870696307000,4.568306884765625,0.04259752854704857,0.034865304827690125,-0.03545386344194412
1789740870706384000,4.5783837890625,0.06650232523679733,0.04255811125040054,-0.04011945798993111
1789740870716461800,4.5884619140625,0.06993114948272705,0.0511942133307457,-0.06079810485243797
1789740870726539800,4.598539794921875,0.049255963414907455,0.07370670884847641,-0.09756357222795486
1789740870736617000,4.608616943359375,-0.0012183962389826775,0.07900107651948929,-0.14390496909618378
1789740870746695000,4.61869482421875,-0.019470637664198875,0.0902196392416954,-0.16594688594341278
1789740870756772900,4.62877294921875,0.009707488119602203,0.07060252875089645,-0.13494344055652618
1789740870766849800,4.638849853515625,0.036142293363809586,0.07388913631439209,-0.1310320496559143
1789740870776928000,4.648927978515625,0.10675494372844696,0.06932048499584198,-0.10607956349849701
1789740870787006000,4.659005859375,0.2004753053188324,0.07214849442243576,-0.07481352239847183
1789740870797084000,4.669083984375,0.2565268576145172,0.0802527591586113,-0.0555839017033577
1789740870807160800,4.679160888671875,0.27062031626701355,0.09040366858243942,-0.036663737148046494
1789740870817238800,4.68923876953125,0.24031805992126465,0.10489126294851303,-0.02287309058010578
1789740870827316700,4.699316650390625,0.17720647156238556,0.11059841513633728,-0.022473350167274475
1789740870837393700,4.7093935546875,0.14118988811969757,0.11158698052167892,-0.0216514989733696
1789740870847471900,4.719471923828125,0.0999164804816246,0.11168099194765091,-0.01661199890077114
1789740870857549800,4.7295498046875,0.060315802693367004,0.12035331130027771,-0.01702665351331234
1789740870867627000,4.739626953125,0.05080033093690872,0.1217365562915802,-0.010121343657374382
1789740870877705000,4.749705078125,0.04592381417751312,0.1184435561299324,-0.0008966863388195634
1789740870887783000,4.759782958984375,0.038129810243844986,0.11312922090291977,0.0052083441987633705
1789740870897859800,4.76985986328125,0.05946172773838043,0.11017310619354248,0.00038695731200277805
1789740870907937800,4.779937744140625,0.04868578165769577,0.11284452676773071,-0.007841677404940128
1789740870918015700,4.790015625,0.03525971993803978,0.11030307412147522,-0.007397196255624294
1789740870928092700,4.8000927734375,0.03313291817903519,0.10510005056858063,-0.010792993009090424
1789740870938171000,4.8101708984375,0.036252811551094055,0.09607673436403275,-0.012801814824342728
1789740870948248800,4.820248779296875,0.06472120434045792,0.09898330271244049,-0.02027597650885582
1789740870958325800,4.83032568359375,0.08205172419548035,0.07309631258249283,-0.04060468450188637
1789740870968403700,4.84040380859375,0.049144644290208817,0.06762325018644333,-0.06597395986318588
1789740870978481700,4.850481689453125,-0.06403438001871109,0.05952085182070732,-0.0798647403717041
1789740870988559600,4.8605595703125,0.1998278945684433,-0.15250910818576813,0.21715602278709412
1789740870998636800,4.87063671875,0.024396952241659164,-0.024756211787462234,-0.003171558491885662
1789740871008715000,4.880715087890625,0.011530422605574131,0.020232301205396652,-0.015459117479622364
1789740871018793000,4.89079296875,0.013072658330202103,0.02189784124493599,0.0021499700378626585
1789740871028870000,4.900869873046875,0.00012863067968282849,0.022957779467105865,-0.000011984225238848012
1789740871038947800,4.91094775390625,-0.0010684601729735732,0.02448883093893528,0.008161257021129131
1789740871049025800,4.92102587890625,-0.005634449888020754,0.009432117454707623,0.009064335376024246
1789740871059102700,4.931102783203125,0.0030977888964116573,0.007071757689118385,0.011196994222700596
1789740871069180700,4.9411806640625,0.006456833798438311,0.009980995208024979,0.010733870789408684
1789740871079259000,4.9512587890625,0.006975617725402117,0.018193650990724564,0.004782238509505987
1789740871089335800,4.961335693359375,0.0038690404035151005,0.01389717310667038,-0.0006122607155703008
1789740871099413800,4.971413818359375,0.09999237954616547,0.004700212739408016,0.13437512516975403
1789740871109491700,4.98149169921875,0.13931448757648468,0.005255215801298618,0.2866858243942261
1789740871119569000,4.99156884765625,0.10998348891735077,0.023857396095991135,0.3040437698364258
1789740871129646800,5.001646728515625,0.06292171031236649,0.15533658862113953,0.39285993576049805
1789740871139724800,5.011724853515625,-0.39686718583106995,0.017944112420082092,-0.3212030529975891
1789740871149803000,5.021802978515625,-0.6170735955238342,-0.009527192451059818,-0.2933945953845978
1789740871159880000,5.0318798828125,-0.5133951306343079,-0.008717325516045094,-0.24697622656822205
1789740871169958000,5.0419580078125,-0.5275943279266357,-0.060982126742601395,-0.23023240268230438
1789740871180035800,5.052035888671875,-0.3976901173591614,-0.06240718439221382,-0.16364538669586182
1789740871190112800,5.06211279296875,-0.07300043851137161,-0.04562367871403694,-0.07643911242485046
1789740871200190700,5.072190673828125,0.0057010287418961525,-0.0357220433652401,-0.012083028443157673
1789740871210268700,5.0822685546875,-0.012889965437352657,-0.022549783810973167,-0.007686415687203407
1789740871220345900,5.092345947265625,-0.015445002354681492,-0.011049721390008926,0.0030658310279250145
1789740871230423800,5.102423828125,-0.010101369582116604,-0.007520766928792,0.007081078831106424
1789740871240501800,5.112501708984375,-0.01372220367193222,-0.004584898240864277,0.008235825225710869
1789740871250579000,5.122578857421875,-0.02443876303732395,0.0029467877466231585,0.007477091159671545
1789740871260657000,5.132656982421875,-0.02756797894835472,-0.0026429209392517805,0.004950284026563168
1789740871270734800,5.14273486328125,-0.022164957597851753,-0.0024170849937945604,0.0028192223981022835
1789740871280812800,5.152812744140625,-0.013591442257165909,-0.0057468353770673275,0.0038285604678094387
1789740871290889700,5.1628896484375,-0.010073939338326454,-0.006340720225125551,-0.003626692807301879
1789740871300968000,5.172968017578125,-0.009546900168061256,-0.0027180220931768417,-0.005426723510026932
1789740871311046000,5.1830458984375,-0.014956578612327576,-0.000294545607175678,-0.0030543794855475426
1789740871321122800,5.193122802734375,-0.017662083730101585,-0.0003414172388147563,-0.0028216191567480564
1789740871331200800,5.20320068359375,-0.018641328439116478,0.0005225121858529747,0.003469566348940134
1789740871341278700,5.21327880859375,-0.019544405862689018,-0.002633067313581705,0.005546565633267164
1789740871351355100,5.223355224609375,-0.01677711494266987,-0.007383347954601049,0.0033103092573583126
1789740871361433000,5.23343310546875,-0.0101362569257617,-0.01931031420826912,0.0029119004029780626
1789740871371511000,5.243510986328125,-0.009675797075033188,-0.02985296957194805,0.004171841777861118
1789740871381588000,5.253587890625,-0.012597550638020039,-0.03674789518117905,0.005004345905035734
1789740871391666200,5.263666259765625,-0.016698019579052925,-0.041795115917921066,0.007836084812879562
1789740871401744100,5.273744140625,-0.020917266607284546,-0.03807121887803078,0.00714685907587409
1789740871411821000,5.283821044921875,-0.022544723004102707,-0.036554280668497086,0.008950351737439632
1789740871421899000,5.29389892578125,-0.020602213218808174,-0.039085082709789276,0.005118861794471741
1789740871431977000,5.30397705078125,-0.014783740043640137,-0.040660079568624496,0.0008586031035520136
1789740871442055000,5.314054931640625,-0.009832124225795269,-0.04538905248045921,-0.00022184131375979632
1789740871452132000,5.324132080078125,-0.013551761396229267,-0.04526441544294357,-0.0017803232185542583
1789740871462210300,5.334210205078125,-0.013732057064771652,-0.048107340931892395,0.0005331648280844092
1789740871472288300,5.344288330078125,-0.018501779064536095,-0.047931041568517685,0.001998702296987176
1789740871482365200,5.354365234375,-0.01577230542898178,-0.05078568309545517,0.008136489428579807
1789740871492443100,5.364443115234375,-0.01722079887986183,-0.04543059691786766,0.007983091287314892
1789740871502521000,5.37452099609375,-0.014309164136648178,-0.043956272304058075,0.0054786549881100655
1789740871512598000,5.384597900390625,-0.009957293048501015,-0.0374901182949543,0.0019773971289396286
1789740871522676000,5.394676025390625,-0.0102592958137393,-0.038551654666662216,0.0037888791412115097
1789740871532754200,5.404754150390625,-0.01107235811650753,-0.03117682784795761,-0.0008231831016018987
1789740871542831000,5.4148310546875,-0.009651029482483864,-0.028544826433062553,-0.0006585997180081904
1789740871552909000,5.424908935546875,-0.004988633096218109,-0.02165176533162594,0.00014887070574332029
1789740871562987000,5.434987060546875,-0.004969991277903318,-0.017007213085889816,0.0010671286145225167
1789740871573065000,5.44506494140625,-0.0002820287481881678,-0.014800784178078175,0.002098304685205221
1789740871583142100,5.45514208984375,-0.0001323590986430645,-0.011892878450453281,0.0036248285323381424
1789740871593220000,5.46522021484375,0.004179564770311117,-0.008824916556477547,0.0033606430515646935
1789740871603298300,5.47529833984375,0.003326820908114314,-0.006391320377588272,0.0024264061357825994
1789740871613375200,5.485375244140625,0.00535614974796772,-0.0049763829447329044,0.0010998855577781796
1789740871623453200,5.495453125,0.009311743080615997,0.0009973538108170033,0.00504136411473155
1789740871633531100,5.50553125,0.01417360920459032,0.0070312777534127235,-0.00021145498612895608
1789740871643608000,5.515608154296875,0.016599217429757118,0.01494992058724165,-0.00017976337403524667
1789740871653686000,5.52568603515625,0.02263527177274227,0.017371799796819687,0.00020772656716872007
1789740871663764000,5.535763916015625,0.02106373943388462,0.023356188088655472,-0.0013486248208209872
1789740871673841000,5.5458408203125,0.02659858763217926,0.030125943943858147,-0.001421861699782312
1789740871683919000,5.555919189453125,0.026743464171886444,0.034391261637210846,-0.0012173309223726392
1789740871693997000,5.5659970703125,0.025407355278730392,0.03479206934571266,0.0002788329729810357
1789740871704075000,5.576074951171875,0.028440695255994797,0.03627731278538704,-0.0020383833907544613
1789740871714152200,5.586152099609375,0.03634842112660408,0.034751854836940765,-0.002730805426836014
1789740871724230100,5.596230224609375,0.03789651393890381,0.03286127746105194,-0.002817624481394887
1789740871734308000,5.60630810546875,0.04008057340979576,0.03449246287345886,0.00009800432599149644
1789740871744385000,5.616385009765625,0.041246239095926285,0.037694647908210754,0.0030626351945102215
1789740871754463200,5.626463134765625,0.04333016276359558,0.03773539513349533,0.0019379822770133615
1789740871764541200,5.636541259765625,0.04279486835002899,0.0399404913187027,0.005203017964959145
1789740871774618000,5.6466181640625,0.04542447254061699,0.042808715254068375,0.00024394555657636374
1789740871784696000,5.656696044921875,0.04422658309340477,0.043472643941640854,0.0011235876008868217
1789740871794774000,5.66677392578125,0.04962081462144852,0.04367637261748314,-0.0010186590952798724
1789740871804851000,5.676850830078125,0.04959471523761749,0.04659013822674751,0.0003147856332361698
1789740871814929000,5.686928955078125,0.048587776720523834,0.0471280962228775,-0.000005858954409632133
1789740871825007000,5.697007080078125,0.0506511926651001,0.04508358985185623,0.0030240193009376526
1789740871835085000,5.7070849609375,0.04559917747974396,0.043296340852975845,0.00515801040455699
1789740871845162200,5.717162353515625,0.04610437899827957,0.044545628130435944,0.0026051041204482317
1789740871855240200,5.727240234375,0.04586336389183998,0.04379222169518471,-0.003052515210583806
1789740871865318100,5.737318115234375,0.04526122286915779,0.04083983972668648,-0.0017989652696996927
1789740871875395000,5.74739501953125,0.04611210152506828,0.03885658457875252,-0.002276470186188817
1789740871885473000,5.75747314453125,0.04186861962080002,0.04152267426252365,-0.00041811628034338355
1789740871895551000,5.767551025390625,0.03825817257165909,0.04141055792570114,-0.003010969841852784
1789740871905628000,5.7776279296875,0.03783632814884186,0.03876763582229614,0.0007717840489931405
1789740871915706000,5.7877060546875,0.037818484008312225,0.03712419793009758,0.0026666230987757444
1789740871925784000,5.7977841796875,0.03441869467496872,0.03771355748176575,0.0002868224401026964
1789740871935862000,5.807862060546875,0.03452388942241669,0.03364930674433708,-0.0006913566030561924
1789740871945939000,5.81793896484375,0.03116324543952942,0.0315810963511467,0.0012418320402503014
1789740871956017000,5.828016845703125,0.02623772993683815,0.030948061496019363,-0.002097239252179861
1789740871966094800,5.8380947265625,0.024819063022732735,0.027698205783963203,-0.00196408131159842
1789740871976172000,5.848172119140625,0.01998143084347248,0.027249198406934738,-0.0009941579774022102
1789740871986250200,5.858250244140625,0.019516443833708763,0.03110918402671814,0.0013781858142465353
1789740871996328200,5.868328125,0.01727619208395481,0.03335662558674812,0.0013547500129789114
1789740872006405000,5.878405029296875,0.013293434865772724,0.03416942059993744,-0.0007605988066643476
1789740872016483000,5.888483154296875,0.012279302813112736,0.03305675461888313,-0.0038368161767721176
1789740872026561000,5.89856103515625,0.00805952399969101,0.034332673996686935,-0.005945773329585791
1789740872036639000,5.908638916015625,0.00481339730322361,0.033067673444747925,-0.005254150368273258
1789740872046716000,5.9187158203125,0.0008982842555269599,0.027052389457821846,-0.006209426559507847
1789740872056794000,5.928794189453125,-0.001970472978428006,0.022961242124438286,0.00037763622822239995
1789740872066872000,5.9388720703125,-0.00410419749096036,0.02311171032488346,-0.003469299990683794
1789740872076949000,5.948948974609375,-0.008052067831158638,0.020012591034173965,-0.003093794221058488
1789740872087027200,5.959027099609375,-0.010573548264801502,0.017185112461447716,-0.004231230355799198
1789740872097105200,5.969105224609375,-0.014644722454249859,0.013939517550170422,-0.003966245800256729
1789740872107182000,5.97918212890625,-0.017057813704013824,0.008529838174581528,-0.005140167195349932
1789740872117260000,5.989260009765625,-0.02107146382331848,0.005409945268183947,-0.0030269487760961056
1789740872127338200,5.999338134765625,-0.027247600257396698,0.0025837989524006844,-0.0036882117856293917
1789740872137415200,6.009415283203125,-0.02689286693930626,0.0007771103992126882,-0.00321896281093359
1789740872147493000,6.0194931640625,-0.028270253911614418,-0.005113002844154835,-0.0025510420091450214
1789740872157571000,6.029571044921875,-0.029711555689573288,-0.011461712419986725,-0.0032692966051399708
1789740872167649000,6.03964892578125,-0.03263384476304054,-0.01569880172610283,-0.0024351945612579584
1789740872177726000,6.049725830078125,-0.035950809717178345,-0.016744891181588173,-0.0033457293175160885
1789740872187804000,6.059803955078125,-0.04033543914556503,-0.01798406057059765,-0.003471164032816887
1789740872197882000,6.069882080078125,-0.0439930222928524,-0.023861655965447426,-0.0038253646343946457
1789740872207959300,6.079959228515625,-0.043543215841054916,-0.027334950864315033,-0.006421413738280535
1789740872218037200,6.090037353515625,-0.04914490878582001,-0.0360964834690094,-0.006166016682982445
1789740872228115200,6.100115234375,-0.056944508105516434,-0.05445099249482155,-0.005640575196594
1789740872238193200,6.110193115234375,-0.05595780909061432,-0.07500340044498444,-0.002960369922220707
1789740872248270000,6.12027001953125,-0.05128129571676254,-0.08850110322237015,0.002746251644566655
1789740872258348000,6.13034814453125,-0.06030675023794174,-0.10159000754356384,-0.0004213120846543461
1789740872268426200,6.14042626953125,-0.07118576020002365,-0.09640935808420181,-0.0014719291357323527
1789740872278503200,6.150503173828125,-0.04147713631391525,-0.0679476261138916,0.008038219064474106
1789740872288581000,6.1605810546875,-0.01967889629304409,-0.01504126749932766,0.00138084904756397
1789740872298659000,6.1706591796875,-0.05656234547495842,0.03453374281525612,0.007106379140168428
1789740872308736000,6.180736083984375,-0.05962631106376648,-0.020739633589982986,-0.02804574929177761
1789740872318814000,6.19081396484375,0.012911004945635796,-0.10313250869512558,-0.009468869306147099
1789740872328892000,6.200891845703125,-0.011777563951909542,-0.14909787476062775,0.005785451270639896
1789740872338970000,6.21097021484375,-0.043603669852018356,-0.07890866696834564,0.006491721607744694
1789740872349047300,6.22104736328125,-0.03948881849646568,-0.029329925775527954,0.019585952162742615
1789740872359125200,6.231125244140625,-0.015989085659384727,-0.034262631088495255,0.011949869804084301
1789740872369203200,6.241203125,-0.007489075418561697,-0.04786073416471481,0.013548033311963081
1789740872379280100,6.251280029296875,0.012374910525977612,-0.05103735253214836,0.002228799508884549
1789740872389358000,6.261358154296875,0.023839551955461502,-0.04736671596765518,-0.0005044027348048985
1789740872399436000,6.27143603515625,0.020855214446783066,-0.01630200818181038,-0.006201436743140221
1789740872409513000,6.281512939453125,0.02419907972216606,-0.012011655606329441,-0.001094825565814972
1789740872419591200,6.291591064453125,0.01793825440108776,-0.03406289592385292,0.00003328951424919069
1789740872429669000,6.301669189453125,0.00768854608759284,-0.04524923861026764,0.01455603912472725
1789740872439747000,6.3117470703125,0.02917999029159546,-0.03957777097821236,0.02075747586786747
1789740872449824000,6.321823974609375,0.05691441521048546,-0.027513116598129272,0.015526494942605495
1789740872459902000,6.33190185546875,0.062010638415813446,-0.009272327646613121,0.01374990027397871
1789740872469980000,6.34197998046875,0.0672440156340599,-0.00008788431296125054,0.011052118614315987
1789740872480057000,6.35205712890625,0.08053452521562576,0.006175071466714144,0.004613926634192467
1789740872490135300,6.36213525390625,0.0791131928563118,0.02028529718518257,0.005675462540239096
1789740872500213200,6.372213134765625,0.07268378883600235,0.04204172641038895,0.004858404863625765
1789740872510290200,6.382290283203125,0.08280060440301895,0.05867130309343338,0.002493784064427018
1789740872520368000,6.3923681640625,0.10660367459058762,0.03807254880666733,0.009518936276435852
1789740872530446000,6.402446044921875,0.1148725226521492,0.018008029088377953,0.012497149407863617
1789740872540524000,6.41252392578125,0.10670993477106094,0.019234415143728256,0.01128141675144434
1789740872550601000,6.42260107421875,0.10143101960420609,0.03256646543741226,0.016340624541044235
1789740872560679200,6.43267919921875,0.10648436844348907,0.03657026216387749,0.014028999954462051
1789740872570757000,6.442757080078125,0.11388608813285828,0.046896401792764664,0.008418518118560314
1789740872580834000,6.452833984375,0.1165577694773674,0.0634375587105751,0.005772667936980724
1789740872590912000,6.462912109375,0.12918542325496674,0.07394160330295563,0.006457100156694651
1789740872600990000,6.472989990234375,0.14691726863384247,0.08412739634513855,0.007371097337454557
1789740872611067100,6.483067138671875,0.14959535002708435,0.10137961804866791,0.00851599033921957
1789740872621145000,6.49314501953125,0.13984844088554382,0.10613042861223221,0.008860602974891663
1789740872631223300,6.503223388671875,0.13638287782669067,0.09421598166227341,0.005856557283550501
1789740872641301200,6.51330126953125,0.13791419565677643,0.07979176938533783,0.006220079027116299
1789740872651378200,6.523378173828125,0.13608646392822266,0.07105953246355057,0.008744489401578903
1789740872661456100,6.5334560546875,0.1405736207962036,0.06354568898677826,0.009548763744533062
1789740872671534000,6.5435341796875,0.15219007432460785,0.050987549126148224,0.010758372023701668
1789740872681611000,6.553611083984375,0.1496792435646057,0.03912849351763725,0.014152570627629757
1789740872691689000,6.56368896484375,0.12113947421312332,0.023861391469836235,0.012016182765364647
1789740872701767000,6.573766845703125,0.1285659670829773,-0.007112238090485334,0.03241679444909096
1789740872711845000,6.58384521484375,0.15872573852539062,-0.03242212161421776,0.033844515681266785
1789740872721922000,6.593922119140625,0.16987186670303345,0.01489079836755991,0.04440980777144432
1789740872732000000,6.604,0.1485242247581482,0.13005946576595306,0.01780456304550171
1789740872742078000,6.614077880859375,0.17391347885131836,0.2359856367111206,-0.001448759576305747
1789740872752155100,6.624155029296875,0.19995465874671936,0.2432832270860672,-0.019942283630371094
1789740872762233000,6.634233154296875,0.2190399318933487,0.2326524257659912,-0.010275008156895638
1789740872772311000,6.64431103515625,0.21220919489860535,0.21803300082683563,0.0024895230308175087
1789740872782388000,6.654387939453125,0.2206551432609558,0.2385246902704239,0.008674981072545052
1789740872792466200,6.664466064453125,0.20361943542957306,0.2705358862876892,0.001543834456242621
1789740872802544000,6.674544189453125,0.20474356412887573,0.31039541959762573,-0.00024341292737517506
1789740872812622000,6.6846220703125,0.21823379397392273,0.32307153940200806,-0.0028482507914304733
1789740872822699000,6.694698974609375,0.24132420122623444,0.32644760608673096,-0.006618488114327192
1789740872832777000,6.70477685546875,0.25139254331588745,0.3372821509838104,-0.009413475170731544
1789740872842855000,6.71485498046875,0.2552852928638458,0.3594425916671753,-0.01738698035478592
1789740872852932000,6.72493212890625,0.23309583961963654,0.37308382987976074,-0.01786954514682293
1789740872863010000,6.735010009765625,0.20639151334762573,0.3936562240123749,-0.013641243800520897
1789740872873088000,6.745087890625,0.21293863654136658,0.40059107542037964,-0.005059739574790001
1789740872883166000,6.755166015625,0.2292552888393402,0.39907175302505493,-0.0046509443782269955
1789740872893243100,6.7652431640625,0.2289935052394867,0.40289658308029175,-0.00815166998654604
1789740872903321000,6.775321044921875,0.228204146027565,0.4128698706626892,-0.013516341336071491
1789740872913399000,6.78539892578125,0.231941357254982,0.4138757288455963,-0.01641971990466118
1789740872923476000,6.79547607421875,0.23063108325004578,0.4208361804485321,-0.025361815467476845
1789740872933554200,6.80555419921875,0.22653380036354065,0.4349314868450165,-0.020842431113123894
1789740872943632100,6.815632080078125,0.22073690593242645,0.45528683066368103,-0.018278073519468307
1789740872953709000,6.825708984375,0.21991930902004242,0.47533831000328064,-0.015673235058784485
1789740872963787000,6.835787109375,0.22843077778816223,0.49079394340515137,-0.014515026472508907
1789740872973865000,6.845864990234375,0.23389850556850433,0.4992135465145111,-0.014434066601097584
1789740872983943000,6.85594287109375,0.23919473588466644,0.5069305896759033,-0.018569422885775566
1789740872994020000,6.86602001953125,0.23365509510040283,0.498965859413147,-0.02286376990377903
1789740873004098300,6.876098388671875,0.22258061170578003,0.4914003610610962,-0.026331473141908646
1789740873014176300,6.88617626953125,0.2086072713136673,0.4760512411594391,-0.02412610873579979
1789740873024253200,6.896253173828125,0.20844268798828125,0.45391184091567993,-0.024806279689073563
1789740873034331100,6.9063310546875,0.21349284052848816,0.4377264678478241,-0.013942447490990162
1789740873044409000,6.9164091796875,0.21361374855041504,0.4320797622203827,-0.006622482556849718
1789740873054486000,6.926486083984375,0.21499167382717133,0.43716269731521606,-0.004769987892359495
1789740873064564000,6.93656396484375,0.21992410719394684,0.44180405139923096,-0.006737797521054745
1789740873074642200,6.94664208984375,0.22438889741897583,0.4484933614730835,-0.010089918039739132
1789740873084720000,6.95672021484375,0.21293944120407104,0.4556620717048645,-0.016954747959971428
1789740873094797000,6.966797119140625,0.20677022635936737,0.4616967737674713,-0.020716464146971703
1789740873104875000,6.976875,0.21604149043560028,0.45682185888290405,-0.017615744844079018
1789740873114953000,6.986952880859375,0.21182942390441895,0.42136773467063904,-0.04880322515964508
1789740873125030100,6.997030029296875,0.27489814162254333,0.44527947902679443,0.0019302591681480408
1789740873135108000,7.007108154296875,0.20765359699726105,0.3870169520378113,-0.08526083827018738
1789740873145186300,7.017186279296875,0.21536797285079956,0.4120032787322998,-0.04404735192656517
1789740873155264300,7.02726416015625,0.17969413101673126,0.393647164106369,0.00012969593808520585
1789740873165341200,7.037341064453125,0.2459581047296524,0.45245856046676636,0.03681021183729172
1789740873175419100,7.047419189453125,0.22932933270931244,0.4243171811103821,0.06959452480077744
1789740873185497000,7.0574970703125,0.2369435727596283,0.43252798914909363,0.03971971571445465
1789740873195574000,7.067573974609375,0.2445863038301468,0.43074101209640503,0.024529045447707176
1789740873205652000,7.07765185546875,0.22894716262817383,0.45368465781211853,-0.006717024836689234
1789740873215730200,7.087730224609375,0.2113998681306839,0.47428926825523376,-0.03562963381409645
1789740873225808100,7.09780810546875,0.1782621443271637,0.4942086637020111,-0.04825754463672638
1789740873235885000,7.107885009765625,0.14085645973682404,0.4635969400405884,-0.03560806065797806
1789740873245963000,7.117962890625,0.1251446008682251,0.41786062717437744,-0.004470914602279663
1789740873256041000,7.128041015625,0.12139540165662766,0.3986930549144745,0.023367108777165413
1789740873266118100,7.1381181640625,0.11593832075595856,0.39480191469192505,0.03797774389386177
1789740873276196000,7.148196044921875,0.10235832631587982,0.3853335678577423,0.042514968663454056
1789740873286274300,7.1582744140625,0.08508054167032242,0.3624413013458252,0.025290442630648613
1789740873296351200,7.168351318359375,0.08029776811599731,0.2972244918346405,0.015279353596270084
1789740873306429200,7.17842919921875,0.06925123929977417,0.24040834605693817,-0.004017910920083523
1789740873316507100,7.188507080078125,0.05072442814707756,0.20803841948509216,-0.012862535193562508
1789740873326585000,7.198585205078125,0.02064162865281105,0.19700761139392853,-0.014995727688074112
1789740873336662000,7.208662109375,0.012310462072491646,0.18738028407096863,-0.011805793270468712
1789740873346740000,7.218739990234375,0.022820893675088882,0.16797888278961182,0.008729841560125351
1789740873356818700,7.228818603515625,0.02985243685543537,0.14227326214313507,0.02177746780216694
1789740873366895600,7.2388955078125,0.027846811339259148,0.13453970849514008,0.022324213758111
1789740873376973800,7.248973876953125,0.014181066304445267,0.12126491218805313,0.024707477539777756
1789740873387051800,7.2590517578125,-0.002520149340853095,0.0873362347483635,0.007479754276573658
1789740873397129700,7.269129638671875,-0.012315521948039532,0.05269117280840874,-0.011922439560294151
1789740873407206700,7.27920654296875,-0.02063656970858574,0.019087141379714012,-0.01353684812784195
1789740873417284600,7.28928466796875,-0.02629338949918747,0.006415554787963629,-0.01392673421651125
1789740873427362600,7.299362548828125,-0.020918332040309906,0.02389334887266159,-0.0068270135670900345
1789740873437439700,7.309439697265625,-0.0037465349305421114,0.04856860265135765,0.00458702864125371
1789740873447517700,7.319517578125,0.01666979119181633,0.09086279571056366,0.009827863425016403
1789740873457596000,7.329595947265625,0.027711255475878716,0.13540177047252655,0.016649549826979637
1789740873467673900,7.339673828125,0.02792590670287609,0.15761598944664001,0.02400733157992363
1789740873477750800,7.349750732421875,0.02148638293147087,0.16992032527923584,0.019036807119846344
1789740873487828700,7.359828857421875,0.019698070362210274,0.1773902326822281,0.008737831376492977
1789740873497906700,7.36990673828125,0.025475265458226204,0.1839408129453659,-0.007199323270469904
1789740873507983600,7.379983642578125,0.02906946837902069,0.20891860127449036,-0.01871136948466301
1789740873518061600,7.3900615234375,0.02039768360555172,0.24279986321926117,-0.012219115160405636
1789740873528139800,7.400139892578125,0.026428410783410072,0.2924198806285858,0.0016021577175706625
1789740873538217700,7.4102177734375,0.043426305055618286,0.35502147674560547,0.029231920838356018
1789740873548294700,7.420294677734375,0.06300053745508194,0.45128461718559265,0.01883760280907154
1789740873558372600,7.43037255859375,0.08697857707738876,0.539908230304718,0.029581859707832336
1789740873568450800,7.440450927734375,0.10431388765573502,0.6356480717658997,0.031190676614642143
1789740873578527700,7.45052783203125,0.11186661571264267,0.7224043011665344,0.03666160628199577
1789740873588605700,7.460605712890625,0.12167077511548996,0.7870205640792847,0.04122040793299675
1789740873598684000,7.470683837890625,0.12748445570468903,0.8129030466079712,0.0410318560898304
1789740873608761900,7.480761962890625,0.12010563164949417,0.8029212355613708,0.05281847342848778
1789740873618838800,7.4908388671875,0.12052002549171448,0.7622411847114563,0.059595152735710144
1789740873628916700,7.500916748046875,0.12136584520339966,0.6894444823265076,0.05871284753084183
1789740873638994700,7.51099462890625,0.0929427221417427,0.5899157524108887,0.041241712868213654
1789740873649071600,7.521071533203125,0.04200151190161705,0.48437201976776123,0.023383619263768196
1789740873659149600,7.531149658203125,-0.01258130557835102,0.3858121335506439,0.014311827719211578
1789740873669227800,7.541227783203125,-0.0355428121984005,0.29453495144844055,0.020382769405841827
1789740873679305700,7.5513056640625,-0.02888651005923748,0.2289639413356781,0.03351694718003273
1789740873689383000,7.5613828125,-0.0224981177598238,0.17173074185848236,0.043837230652570724
1789740873699460900,7.5714609375,-0.01332725677639246,0.10162755846977234,0.04663994163274765
1789740873709538800,7.581538818359375,-0.021214473992586136,-0.0000045273736759554595,0.03236379846930504
1789740873719615700,7.59161572265625,-0.023377494886517525,-0.12497123330831528,0.002880475018173456
1789740873729693700,7.601693603515625,-0.041493114084005356,-0.23825277388095856,-0.02864016592502594
1789740873739772000,7.61177197265625,-0.08547814935445786,-0.31252753734588623,-0.04406626150012016
1789740873749849900,7.621849853515625,-0.1072620078921318,-0.34224042296409607,-0.04493125528097153
1789740873759926800,7.6319267578125,-0.08752958476543427,-0.3568055331707001,-0.03135392814874649
1789740873770004700,7.642004638671875,-0.04489476978778839,-0.3477129638195038,-0.022411566227674484
1789740873780082700,7.652082763671875,0.007772968150675297,-0.3149760663509369,-0.018305504694581032
1789740873790159600,7.66215966796875,0.035048797726631165,-0.26100122928619385,-0.00785366166383028
1789740873800237600,7.672237548828125,0.03585866466164589,-0.19230952858924866,0.003643736941739917
1789740873810315800,7.682315673828125,0.02359507419168949,-0.12242764234542847,-0.001891909632831812
1789740873820393700,7.692393798828125,0.03975540027022362,-0.014772288501262665,0.02564011514186859
1789740873830471000,7.702470947265625,0.048710547387599945,0.07915180921554565,0.008502407930791378
1789740873840548900,7.712548828125,0.07578637450933456,0.17723870277404785,0.002953711897134781
1789740873850626800,7.722626708984375,0.10727425664663315,0.2645464241504669,-0.001454618526622653
1789740873860703700,7.732703857421875,0.09901420027017593,0.33113744854927063,-0.0019411781104281545
1789740873870781700,7.74278173828125,0.06834230571985245,0.3799459934234619,0.005901298485696316
1789740873880860000,7.75285986328125,0.10014470666646957,0.3793071210384369,0.038783881813287735
1789740873890937900,7.762937744140625,0.14403413236141205,0.3644392192363739,-0.020119914785027504
1789740873901014800,7.773014892578125,0.13031752407550812,0.34075066447257996,0.009302421472966671
1789740873911092700,7.7830927734375,0.0738060474395752,0.33154356479644775,-0.00007004113285802305
1789740873921170700,7.793170654296875,0.0879485011100769,0.3239130973815918,-0.01637311466038227
1789740873931247600,7.80324755859375,0.12346041947603226,0.2897029221057892,-0.006627542432397604
1789740873941325600,7.81332568359375,0.17038798332214355,0.26391711831092834,-0.02015107497572899
1789740873951403800,7.82340380859375,0.1692982167005539,0.24265924096107483,-0.01179300993680954
1789740873961481700,7.833481689453125,0.1274580955505371,0.21698370575904846,0.0070222229696810246
1789740873971559000,7.843558837890625,0.11370925605297089,0.16877543926239014,0.009096292778849602
1789740873981636900,7.853636962890625,0.12264016270637512,0.10033592581748962,0.0005576659459620714
1789740873991714800,7.86371484375,0.10951610654592514,-0.0006564692012034357,-0.0314284972846508
1789740874001791700,7.873791748046875,0.1488794982433319,0.022605976089835167,0.02184431254863739
1789740874011869700,7.88386962890625,0.14412255585193634,0.08046714216470718,0.07538876682519913
1789740874021948000,7.893947998046875,0.11166474223136902,0.13895894587039948,0.06461361050605774
1789740874032025900,7.90402587890625,0.11326770484447479,0.14817962050437927,0.022523151710629463
1789740874042102800,7.914102783203125,0.18234184384346008,0.1338302344083786,-0.13307097554206848
1789740874052180700,7.9241806640625,0.23700934648513794,0.12470491230487823,-0.21821382641792297
1789740874062258700,7.9342587890625,0.22706297039985657,0.1579563468694687,-0.15237168967723846
1789740874072335600,7.944335693359375,0.19296519458293915,0.25400856137275696,0.043288618326187134
1789740874082413600,7.95441357421875,0.17523014545440674,0.2882022261619568,0.0975119099020958
1789740874092491800,7.96449169921875,0.18207819759845734,0.2910025417804718,0.09383302181959152
1789740874102569700,7.97456982421875,0.20931380987167358,0.25798892974853516,0.020560668781399727
1789740874112647000,7.98464697265625,0.21335595846176147,0.2189355492591858,-0.018570221960544586
1789740874122724900,7.994724853515625,0.2137194722890854,0.23883947730064392,-0.012359198182821274
1789740874132802800,8.004802734375,0.19371114671230316,0.2820657789707184,-0.032225847244262695
1789740874142879700,8.014879638671875,0.1704910397529602,0.2947562634944916,-0.03557903319597244
1789740874152957700,8.024957763671875,0.1663157343864441,0.30371329188346863,-0.03609248995780945
1789740874163036000,8.035035888671874,0.16085253655910492,0.2834863066673279,-0.0025097629986703396
1789740874173113900,8.04511376953125,0.15443484485149384,0.2890610992908478,0.0009776464430615306
1789740874183190800,8.055190673828125,0.1566295623779297,0.3133387565612793,0.0070826769806444645
1789740874193268700,8.065268798828125,0.18062463402748108,0.3360893428325653,0.0027979169972240925
1789740874203346700,8.0753466796875,0.18496745824813843,0.3518643081188202,0.01931564137339592
1789740874213423600,8.085423583984374,0.1633492410182953,0.38505738973617554,0.02214951068162918
1789740874223501600,8.09550146484375,0.14615507423877716,0.426745742559433,0.014890532940626144
1789740874233579500,8.10557958984375,0.1406404674053192,0.4774011969566345,0.014180533587932587
1789740874243657700,8.11565771484375,0.15201935172080994,0.5523995161056519,0.0075575183145701885
1789740874253735000,8.12573486328125,0.1843586564064026,0.6057810187339783,0.010522682219743729
1789740874263812900,8.135812744140624,0.20705224573612213,0.6286189556121826,0.03136218339204788
1789740874273890800,8.145890869140626,0.19826382398605347,0.6606362462043762,0.05911099165678024
1789740874283968800,8.15596875,0.14689570665359497,0.6670962572097778,0.06770660728216171
1789740874294045700,8.166045654296875,0.10852514207363129,0.6311050057411194,0.0726398453116417
1789740874304123600,8.17612353515625,0.10282837599515915,0.5650638937950134,0.08107328414916992
1789740874314201900,8.186201904296874,0.11507678776979446,0.5101783275604248,0.07261348515748978
1789740874324278800,8.19627880859375,0.0974903404712677,0.47518303990364075,0.059244148433208466
1789740874334356700,8.206356689453125,0.06392119079828262,0.4512023329734802,0.0428374782204628
1789740874344434700,8.2164345703125,0.05504461005330086,0.3854305148124695,0.03313185274600983
1789740874354512100,8.22651220703125,0.04920855909585953,0.2777314782142639,0.041555967181921005
1789740874364589300,8.23658935546875,-0.0008463526028208435,0.1394079625606537,0.062311578541994095
1789740874374667300,8.246667236328125,-0.06790395081043243,0.006875482853502035,0.07030532509088516
1789740874384745200,8.2567451171875,-0.11168339103460312,-0.11105062067508698,0.07150933891534805
1789740874394822100,8.266822265625,-0.14147856831550598,-0.19097848236560822,0.047927312552928925
1789740874404900400,8.276900390625,-0.14876097440719604,-0.250567764043808,0.018989669159054756
1789740874414978300,8.286978271484376,-0.1397930532693863,-0.30716660618782043,0.004346811678260565
1789740874425056300,8.29705615234375,-0.12136610597372055,-0.35567474365234375,0.014133129268884659
1789740874435133200,8.30713330078125,-0.11968272179365158,-0.3866078853607178,0.02599724568426609
1789740874445211100,8.317211181640625,-0.1290368139743805,-0.40084701776504517,0.03218936175107956
1789740874455289000,8.3272890625,-0.1505700647830963,-0.4222841262817383,0.024353809654712677
1789740874465366000,8.337365966796876,-0.17969545722007751,-0.4561494290828705,0.01017034612596035
1789740874475444200,8.3474443359375,-0.2001434713602066,-0.494631826877594,-0.005482915788888931
1789740874485522200,8.357522216796875,-0.20297707617282867,-0.5349619388580322,-0.010894459672272205
1789740874495600000,8.36760009765625,-0.18716323375701904,-0.5445173978805542,-0.014284929260611534
1789740874505677300,8.37767724609375,-0.1658017486333847,-0.5199164152145386,-0.0019273296929895878
1789740874515755300,8.38775537109375,-0.1336565911769867,-0.4654015004634857,0.00276196445338428
1789740874525833200,8.397833251953125,-0.1090865358710289,-0.4078812301158905,0.013036706484854221
1789740874535911400,8.407911376953125,-0.0971478521823883,-0.3412976861000061,0.015565910376608372
1789740874545988400,8.41798828125,-0.09770286083221436,-0.28466662764549255,0.011095793917775154
1789740874556066300,8.42806640625,-0.08893626183271408,-0.24799808859825134,0.016712134703993797
1789740874566144300,8.438144287109376,-0.0815366730093956,-0.19390769302845,0.005343100056052208
1789740874576221200,8.44822119140625,-0.08734715729951859,-0.1345442235469818,0.006356965284794569
1789740874586299100,8.458299072265625,-0.07782475650310516,-0.05760497227311134,0.006744455546140671
1789740874596377000,8.468377197265625,-0.04420953989028931,0.025717880576848984,0.012034825049340725
1789740874606455300,8.478455322265624,-0.016522251069545746,0.11986834555864334,0.023193735629320145
1789740874616532200,8.4885322265625,-0.010007892735302448,0.22026659548282623,0.035351864993572235
1789740874626610200,8.498610107421875,-0.0004370247188489884,0.3124692142009735,0.05315669625997543
1789740874636688100,8.508688232421875,0.0004996090428903699,0.3930700421333313,0.06363649666309357
1789740874646766000,8.51876611328125,-0.006742591038346291,0.4486891031265259,0.08111988753080368
1789740874656843300,8.52884326171875,-0.016440225765109062,0.5158140659332275,0.09228039532899857
1789740874666921200,8.538921142578126,-0.038181740790605545,0.5713817477226257,0.07980002462863922
1789740874676999200,8.548999267578125,-0.024352744221687317,0.6134018898010254,0.08152575045824051
1789740874687076000,8.559076171875,0.01110298465937376,0.650194525718689,0.08165811002254486
1789740874697154300,8.569154296875,0.024264059960842133,0.6790704131126404,0.08208794891834259
1789740874707232300,8.579232177734376,0.018158497288823128,0.6871445775032043,0.09874548763036728
1789740874717310200,8.589310302734376,-0.007993744686245918,0.6505807042121887,0.09231235086917877
1789740874727387100,8.59938720703125,-0.03458886966109276,0.5706493854522705,0.09117944538593292
1789740874737465000,8.609465087890625,-0.05444193631410599,0.457825630903244,0.09132511913776398
1789740874747543000,8.61954296875,-0.08504299074411392,0.34948450326919556,0.10245713591575623
1789740874757621200,8.629621337890624,-0.09662827104330063,0.2670402228832245,0.1024336963891983
1789740874767698200,8.6396982421875,-0.11081812530755997,0.19887687265872955,0.08997063338756561
1789740874777776000,8.649776123046875,-0.1108679249882698,0.13655731081962585,0.06790528446435928
1789740874787854000,8.65985400390625,-0.09535075724124908,0.07428594678640366,0.04765913262963295
1789740874797931300,8.66993115234375,-0.08938926458358765,0.03925259783864021,0.03819319233298302
1789740874808009200,8.68000927734375,-0.10564999282360077,0.02773469127714634,0.02732616290450096
1789740874818087200,8.690087158203125,-0.1184302419424057,0.02070421352982521,0.03863181546330452
1789740874828165400,8.700165283203125,-0.12192617356777191,0.017306551337242126,0.06265352666378021
1789740874838242300,8.7102421875,-0.12704023718833923,0.04758775979280472,0.08117687702178955
1789740874848320300,8.7203203125,-0.12565432488918304,0.1159585639834404,0.07769559323787689
1789740874858398200,8.730398193359376,-0.11497025936841965,0.1906953752040863,0.05291168391704559
1789740874868476200,8.74047607421875,-0.10056016594171524,0.2413385808467865,0.03737853094935417
1789740874878553000,8.750552978515625,-0.09113150835037231,0.25363627076148987,0.03214941546320915
1789740874888631000,8.760631103515625,-0.10829398036003113,0.24327337741851807,0.039323437958955765
1789740874898709200,8.770709228515624,-0.1266588717699051,0.22042158246040344,0.049847982823848724
1789740874908786200,8.7807861328125,-0.14228789508342743,0.17853058874607086,0.0735061764717102
1789740874918864100,8.790864013671875,-0.14654523134231567,0.13398097455501556,0.07815977931022644
1789740874928942000,8.800942138671875,-0.15279033780097961,0.08109165728092194,0.0615544393658638
1789740874939020000,8.81102001953125,-0.15149657428264618,0.05290582403540611,0.03717293590307236
1789740874949097200,8.82109716796875,-0.1453036665916443,0.034278079867362976,0.024688301607966423
1789740874959175200,8.831175048828126,-0.12053307145833969,0.045269209891557693,0.019347865134477615
1789740874969253400,8.84125341796875,-0.10143714398145676,0.055817458778619766,0.025109879672527313
1789740874979331300,8.851331298828125,-0.09025000035762787,0.06446687132120132,0.03831063583493233
1789740874989408300,8.861408203125,-0.08416467905044556,0.0649595558643341,0.048588842153549194
1789740874999486200,8.871486328125,-0.09351077675819397,0.05674823373556137,0.04849909245967865
1789740875009564200,8.881564208984376,-0.09997107088565826,0.05451623722910881,0.027510453015565872
1789740875019641000,8.89164111328125,-0.09622453898191452,0.05245069041848183,0.021674135699868202
1789740875029719000,8.901718994140625,-0.08806141465902328,0.05331328883767128,0.02118784375488758
1789740875039797200,8.91179736328125,-0.08768723905086517,0.06700007617473602,0.017702564597129822
1789740875049875200,8.921875244140624,-0.08302218466997147,0.08610745519399643,0.02750326320528984
1789740875059952400,8.931952392578125,-0.08421394973993301,0.1023269072175026,0.03612604737281799
1789740875070030300,8.9420302734375,-0.08067460358142853,0.10438846051692963,0.03112196736037731
1789740875080108300,8.9521083984375,-0.08870217204093933,0.07012635469436646,0.025598304346203804
1789740875090186200,8.962186279296875,-0.0936010554432869,0.01617657206952572,0.015785621479153633
1789740875100263200,8.97226318359375,-0.10244781523942947,-0.04394402354955673,0.021684255450963974
1789740875110341400,8.98234130859375,-0.13026532530784607,-0.08945851027965546,0.015981629490852356
1789740875120419300,8.99241943359375,-0.14947204291820526,-0.11397956311702728,0.02221076376736164
1789740875130496300,9.002496337890625,-0.15961895883083344,-0.12293417751789093,0.02484649419784546
1789740875140574200,9.01257421875,-0.16436311602592468,-0.12559308111667633,0.037031788378953934
1789740875150652200,9.022652099609376,-0.15551476180553436,-0.11861905455589294,0.02768569067120552
1789740875160730000,9.032730224609375,-0.15273389220237732,-0.12900592386722565,0.02014947682619095
1789740875170807000,9.04280712890625,-0.15897633135318756,-0.14094513654708862,0.011035340838134289
1789740875180885200,9.05288525390625,-0.18061159551143646,-0.16411010921001434,0.016747022047638893
1789740875190963200,9.062963134765624,-0.2081201821565628,-0.1975570172071457,0.02183738723397255
1789740875201041200,9.073041259765626,-0.227064847946167,-0.23143349587917328,0.0318940170109272
1789740875211118300,9.083118408203125,-0.23889140784740448,-0.2579159736633301,0.031843151897192
1789740875221196300,9.0931962890625,-0.24447818100452423,-0.2696104347705841,0.024038223549723625
1789740875231274200,9.103274169921875,-0.23789910972118378,-0.26799577474594116,0.02069143019616604
1789740875241352200,9.113352294921874,-0.24399109184741974,-0.26207980513572693,0.009328254498541355
1789740875251429400,9.123429443359376,-0.24491573870182037,-0.262969046831131,-0.00199310970492661
1789740875261507300,9.13350732421875,-0.2517065405845642,-0.27679964900016785,0.004057592246681452
1789740875271585300,9.143585205078125,-0.25939854979515076,-0.28978416323661804,0.005656553898006678
1789740875281663200,9.153663330078125,-0.2735987901687622,-0.3105200529098511,0.010088853538036346
1789740875291740200,9.163740234375,-0.2818673551082611,-0.33380913734436035,0.020686103031039238
1789740875301818000,9.173818115234376,-0.2797331213951111,-0.36187511682510376,0.023996146395802498
1789740875311896300,9.183896240234375,-0.28279414772987366,-0.3747349977493286,0.028689967468380928
1789740875321973200,9.19397314453125,-0.28625813126564026,-0.37492647767066956,0.017057813704013824
1789740875332051200,9.20405126953125,-0.2807946503162384,-0.3650056719779968,0.0070643010549247265
1789740875342129200,9.214129150390624,-0.26506149768829346,-0.3506624102592468,-0.0023238742724061012
1789740875352207000,9.22420703125,-0.24496793746948242,-0.334548681974411,0.006344448775053024
1789740875362284800,9.234284912109375,-0.2370293289422989,-0.319676011800766,0.021389711648225784
1789740875372362800,9.24436279296875,-0.2582392692565918,-0.2962644100189209,0.016572052612900734
1789740875382441000,9.25444091796875,-0.26157593727111816,-0.2713177800178528,0.0014679343439638615
1789740875392519000,9.264518798828124,-0.27398520708084106,-0.26804661750793457,0.010689928196370602
1789740875402596000,9.27459619140625,-0.2612006962299347,-0.2549377381801605,0.011510714888572693
1789740875412674000,9.284674072265625,-0.2413734793663025,-0.23947224020957947,0.021325262263417244
1789740875422752000,9.294751953125,-0.235977903008461,-0.24245685338974,0.011697934940457344
1789740875432830000,9.304829833984375,-0.2407550811767578,-0.26678401231765747,0.023027021437883377
1789740875442907000,9.314906982421874,-0.23369558155536652,-0.3007363975048065,0.03220853582024574
1789740875452985000,9.324985107421876,-0.24772271513938904,-0.34218981862068176,0.03802301734685898
1789740875463063000,9.33506298828125,-0.26597627997398376,-0.35972860455513,0.0046541402116417885
1789740875473140000,9.345139892578125,-0.3045966625213623,-0.3639553189277649,-0.022334333509206772
1789740875483218000,9.355218017578125,-0.3167736828327179,-0.3814743757247925,-0.04730333387851715
1789740875493295900,9.3652958984375,-0.3014293611049652,-0.39619767665863037,-0.03237392008304596
1789740875503373800,9.375373779296876,-0.267711341381073,-0.394692987203598,0.0041193775832653046
1789740875513450800,9.38545068359375,-0.2327173948287964,-0.38976001739501953,0.027706729248166084
1789740875523529000,9.395529052734375,-0.19477002322673798,-0.3829910457134247,0.02401505410671234
1789740875533607000,9.40560693359375,-0.18691208958625793,-0.3781867027282715,0.027658792212605476
1789740875543684900,9.415684814453124,-0.22984199225902557,-0.37459757924079895,0.0014410364674404263
1789740875553762000,9.425761962890626,-0.254001647233963,-0.36113235354423523,-0.011440141126513481
1789740875563840000,9.435840087890625,-0.2591671049594879,-0.37998273968696594,-0.01763598434627056
1789740875573918000,9.44591796875,-0.24799968302249908,-0.4115270972251892,0.022117286920547485
1789740875583996200,9.45599609375,-0.2161104679107666,-0.41140779852867126,0.008042213506996632
1789740875594073000,9.466072998046876,-0.20701709389686584,-0.4177895188331604,0.025226261466741562
1789740875604151000,9.476151123046876,-0.20892418920993805,-0.4021591544151306,0.017310546711087227
1789740875614229000,9.48622900390625,-0.2197754979133606,-0.3876875340938568,0.01335548609495163
1789740875624307000,9.496306884765625,-0.23153549432754517,-0.3866467773914337,0.008677643723785877
1789740875634384000,9.5063837890625,-0.2392117828130722,-0.40177884697914124,-0.0017776599852368236
1789740875644461800,9.5164619140625,-0.24331864714622498,-0.42245805263519287,-0.017401626333594322
1789740875654540000,9.5265400390625,-0.2546733021736145,-0.4522095322608948,-0.004110322799533606
1789740875664618000,9.536617919921875,-0.2648617625236511,-0.4468318223953247,0.009815346449613571
1789740875674695000,9.54669482421875,-0.274208128452301,-0.44462379813194275,0.022341258823871613
1789740875684772900,9.55677294921875,-0.26418983936309814,-0.43223318457603455,0.0267687626183033
1789740875694850800,9.566850830078126,-0.26102519035339355,-0.4263390600681305,0.014903848059475422
1789740875704928000,9.576927978515625,-0.25062769651412964,-0.4144403338432312,0.00352868833579123
1789740875715006000,9.587005859375,-0.24072712659835815,-0.4064662754535675,0.008984173648059368
1789740875725084200,9.597084228515625,-0.22671197354793549,-0.37850335240364075,0.014336062595248222
1789740875735162000,9.607162109375,-0.2120635211467743,-0.36200109124183655,0.007441671099513769
1789740875745239000,9.617239013671876,-0.20892764627933502,-0.3502331078052521,0.01215812936425209
1789740875755317000,9.62731689453125,-0.1963609904050827,-0.32824763655662537,0.011683554388582706
1789740875765395000,9.63739501953125,-0.19130897521972656,-0.3077554404735565,0.01353391818702221
1789740875775473000,9.647472900390625,-0.18166354298591614,-0.28759557008743286,0.0030091057997196913
1789740875785549800,9.6575498046875,-0.15368463099002838,-0.2591705918312073,-0.005083441734313965
1789740875795628000,9.6676279296875,-0.12391342222690582,-0.2327038198709488,0.0024314660113304853
1789740875805706000,9.6777060546875,-0.10443107038736343,-0.2031608372926712,0.014676414430141449
1789740875815784000,9.687783935546875,-0.09204444289207458,-0.16406883299350739,0.021975606679916382
1789740875825860900,9.69786083984375,-0.08716259896755219,-0.12326494604349136,0.0054301852360367775
1789740875835938800,9.707938720703124,-0.07557092607021332,-0.09379892796278,-0.005143363028764725
1789740875846016800,9.718016845703126,-0.06331825256347656,-0.07349232584238052,-0.007121559232473373
1789740875856095000,9.728094970703125,-0.043173570185899734,-0.06164126098155975,0.002965163439512253
1789740875866172200,9.738172119140625,-0.026128539815545082,-0.046590406447649,0.018641328439116478
1789740875876250000,9.74825,-0.027958663180470467,-0.0424361415207386,0.016260461881756783
1789740875886328000,9.758328125,-0.02311304211616516,-0.027095001190900803,0.005613144487142563
1789740875896406000,9.768406005859376,-0.010430269874632359,-0.016140354797244072,0.00720544857904315
1789740875906483000,9.77848291015625,-0.0027603665366768837,0.009166600182652473,0.0034884747583419085
1789740875916561000,9.788560791015625,0.002214152133092284,0.03442588448524475,0.0021723404061049223
1789740875926638800,9.798638916015625,0.018334265798330307,0.041661426424980164,0.01128221582621336
1789740875936715800,9.8087158203125,0.04188912734389305,0.043595679104328156,0.004507133737206459
1789740875946794000,9.8187939453125,0.05139261856675148,0.03539154678583145,0.011534150689840317
1789740875956872000,9.828871826171875,0.06012778356671333,0.03175713121891022,0.007957791909575462
1789740875966950000,9.838949951171875,0.06752604991197586,0.019759057089686394,-0.0006578007596544921
1789740875977026800,9.84902685546875,0.0672280415892601,0.010791394859552383,0.0054674698039889336
1789740875987104800,9.859104736328124,0.07296369224786758,0.007051517721265554,0.008901615627110004
1789740875997182700,9.8691826171875,0.07911825180053711,0.0027470507193356752,0.0201066005975008
1789740876007261000,9.879260986328125,0.0864131823182106,0.006177468225359917,0.01519839372485876
1789740876017338000,9.889338134765625,0.10399483889341354,0.01985146850347519,0.00851732213050127
1789740876027416000,9.899416015625,0.10629235208034515,0.02413409762084484,0.015855129808187485
1789740876037494000,9.909493896484374,0.11361923813819885,0.03581365570425987,0.0030003173742443323
1789740876047572000,9.919572021484376,0.12324230372905731,0.053217414766550064,0.0035025894176214933
1789740876057649000,9.92964892578125,0.11474389582872391,0.06066707521677017,0.00691889226436615
1789740876067726800,9.939726806640625,0.11336331069469452,0.07472696900367737,0.007190801203250885
1789740876077805000,9.94980517578125,0.11749733239412308,0.08266105502843857,0.0068206219002604485
1789740876087883000,9.959883056640624,0.1158730760216713,0.09059914201498032,-0.00355931487865746
1789740876097960000,9.9699599609375,0.12838220596313477,0.12372167408466339,-0.024961009621620178
1789740876108038000,9.980037841796875,0.12597604095935822,0.146183043718338,-0.021625932306051254
1789740876118115800,9.99011572265625,0.12820856273174286,0.16887477040290833,-0.014407169073820114
1789740876128193800,10.00019384765625,0.1388140767812729,0.17508472502231598,0.00350392097607255
1789740876138271000,10.01027099609375,0.12452488392591476,0.16717194020748138,0.011635084636509418
1789740876148349000,10.020348876953125,0.12400716543197632,0.16955946385860443,-0.0027379959356039762
1789740876158427000,10.030427001953125,0.11726537346839905,0.1637449860572815,-0.005874933209270239
1789740876168504800,10.0405048828125,0.11288180947303772,0.15371073782444,-0.005066930316388607
1789740876178582000,10.05058203125,0.12385988980531693,0.14766429364681244,-0.004335093777626753
1789740876188660000,10.060659912109376,0.11108577251434326,0.13777437806129456,-0.009155414998531342
1789740876198738000,10.070738037109376,0.10808546096086502,0.13764627277851105,-0.01582610048353672
1789740876208816000,10.080816162109375,0.09747622162103653,0.12785303592681885,-0.02479988895356655
1789740876218893000,10.09089306640625,0.08858978748321533,0.12286839634180069,-0.0016892430139705539
1789740876228971000,10.100970947265624,0.0876331776380539,0.13102512061595917,0.0026381274219602346
1789740876239049000,10.111049072265626,0.0863247662782669,0.128324955701828,-0.003233610186725855
1789740876249127000,10.121126953125,0.07925274223089218,0.1303931623697281,-0.0009600695921108127
1789740876259203800,10.131203857421875,0.07237566262483597,0.1269502192735672,0.005342567339539528
1789740876269281800,10.14128173828125,0.06919611245393753,0.13629472255706787,0.021108480170369148
1789740876279360000,10.151360107421874,0.06494597345590591,0.1526705026626587,0.018366489559412003
1789740876289438000,10.16143798828125,0.05439826101064682,0.1627335250377655,-0.005047755315899849
1789740876299515100,10.17151513671875,0.06794842332601547,0.1608983427286148,-0.006339122075587511
1789740876309593000,10.181593017578125,0.08390768617391586,0.14239363372325897,-0.004920722916722298
1789740876319671000,10.191671142578125,0.07630515843629837,0.12787248194217682,0.02442065440118313
1789740876329749000,10.2017490234375,0.05156785249710083,0.13468830287456512,0.018810439854860306
1789740876339826000,10.211825927734376,0.008918926119804382,0.14808639883995056,-0.00407490273937583
1789740876349904100,10.221904052734375,-0.011799667961895466,0.15233707427978516,-0.012766394764184952
1789740876359981800,10.23198193359375,-0.015179751440882683,0.11939962953329086,-0.030293989926576614
1789740876370059800,10.242059814453125,-0.020202739164233208,0.08149752020835876,-0.03225993365049362
1789740876380136700,10.25213671875,-0.02056759223341942,0.0492333248257637,-0.03394944593310356
1789740876390214700,10.262214599609376,-0.018140122294425964,0.04737310856580734,-0.012357067316770554
1789740876400292600,10.272292724609375,-0.01782107539474964,0.05436044558882713,0.01985093578696251
1789740876410370800,10.282370849609375,-0.018426410853862762,0.060375992208719254,0.026455575600266457
1789740876420447700,10.29244775390625,-0.026911774650216103,0.054242201149463654,0.03880518674850464
1789740876430525700,10.302525634765624,-0.037162814289331436,0.052252817898988724,0.00695085059851408
1789740876440603600,10.312603759765626,-0.05361049622297287,0.035418443381786346,-0.01212990004569292
1789740876450680800,10.322680908203125,-0.0627661794424057,0.010900052264332771,-0.05176066607236862
1789740876460758800,10.3327587890625,-0.06083432212471962,-0.012694490142166615,-0.043120838701725006
1789740876470836700,10.342836669921875,-0.0708768367767334,-0.03934873640537262,-0.019960392266511917
1789740876480914700,10.352914794921874,-0.08300434052944183,-0.05416629835963249,-0.006262689363211393
1789740876490991600,10.36299169921875,-0.09613851457834244,-0.06308335810899734,0.020127639174461365
1789740876501069800,10.37306982421875,-0.10894113034009933,-0.0754697248339653,0.022941268980503082
1789740876511147800,10.383147705078125,-0.10285607725381851,-0.09671162813901901,0.014475079253315926
1789740876521225700,10.393225830078125,-0.10513174533843994,-0.11070866882801056,0.00552339619025588
1789740876531303700,10.4033037109375,-0.12363246083259583,-0.11554230749607086,-0.020953219383955002
1789740876541380600,10.413380615234376,-0.1303470879793167,-0.14602164924144745,-0.03056536614894867
1789740876551458600,10.42345849609375,-0.1346619427204132,-0.16686221957206726,-0.028787173330783844
1789740876561536800,10.433536865234375,-0.14139308035373688,-0.19236598908901215,0.01446815486997366
1789740876571613700,10.44361376953125,-0.1425321102142334,-0.19882334768772125,0.024687236174941063
1789740876581691600,10.453691650390626,-0.13910728693008423,-0.20207001268863678,0.02707422897219658
1789740876591769600,10.46376953125,-0.14535772800445557,-0.21409204602241516,0.017229586839675903
1789740876601847600,10.47384765625,-0.1432706117630005,-0.22186501324176788,0.016647685319185257
1789740876611924700,10.4839248046875,-0.15805888175964355,-0.22244133055210114,0.011837750673294067
1789740876622002700,10.494002685546874,-0.16468508541584015,-0.22153745591640472,-0.007444866932928562
1789740876632081000,10.504080810546874,-0.16238118708133698,-0.22606748342514038,-0.01540292426943779
1789740876642158800,10.514158935546876,-0.15754914283752441,-0.23271501064300537,0.010672084987163544
1789740876652235800,10.52423583984375,-0.14343120157718658,-0.22294946014881134,0.03869280219078064
1789740876662313700,10.534313720703125,-0.1361812800168991,-0.2138177454471588,0.03874846175312996
1789740876672391700,10.5443916015625,-0.13111060857772827,-0.2100171446800232,0.019356386736035347
1789740876682469600,10.5544697265625,-0.13553199172019958,-0.21682392060756683,0.0015614113071933389
1789740876692547800,10.5645478515625,-0.12849512696266174,-0.2210567444562912,0.002383529208600521
1789740876702624800,10.574624755859375,-0.1312839835882187,-0.23316827416419983,-0.013354421593248844
1789740876712702700,10.58470263671875,-0.1333247721195221,-0.23019671440124512,-0.020140955224633217
1789740876722780700,10.59478076171875,-0.14311854541301727,-0.23854972422122955,0.0008356999605894089
1789740876732858600,10.604858642578124,-0.13127732276916504,-0.24898745119571686,0.024864869192242622
1789740876742935600,10.614935546875,-0.11961881071329117,-0.26212987303733826,0.04752703756093979
1789740876753013500,10.625013427734375,-0.10906177014112473,-0.24791713058948517,0.03538835048675537
1789740876763091700,10.635091796875,-0.11054462194442749,-0.23142443597316742,0.0054458980448544025
1789740876773169700,10.645169677734375,-0.10483133792877197,-0.2304004430770874,-0.0059689427725970745
1789740876783246800,10.655246826171876,-0.09061458706855774,-0.234407439827919,0.002386192325502634
1789740876793324800,10.66532470703125,-0.07906445860862732,-0.2124166637659073,0.0070547135546803474
1789740876803402800,10.67540283203125,-0.07472643256187439,-0.1835208237171173,-0.008800415322184563
1789740876813480700,10.685480712890625,-0.07889427989721298,-0.16810858249664307,0.005283178761601448
1789740876823557600,10.6955576171875,-0.07954249531030655,-0.16686488687992096,0.013788782991468906
1789740876833635800,10.7056357421875,-0.05910167098045349,-0.1595904529094696,0.02502705529332161
1789740876843713800,10.7157138671875,-0.0471041277050972,-0.14694656431674957,0.00421285443007946
1789740876853791700,10.725791748046875,-0.03808986023068428,-0.13019156455993652,-0.009439574554562569
1789740876863868700,10.73586865234375,-0.0349113792181015,-0.1240851953625679,-0.007199323270469904
1789740876873946600,10.745946533203124,-0.02955363132059574,-0.10892541706562042,-0.003364105010405183
1789740876884024600,10.756024658203126,-0.017110809683799744,-0.10123101621866226,-0.0014889733865857124
1789740876894102800,10.766102783203126,-0.005506884306669235,-0.1006174236536026,-0.0010194580536335707
1789740876904179700,10.7761796875,-0.003120692213997245,-0.1047477200627327,-0.050584614276885986
1789740876914257700,10.786257568359375,0.002257561543956399,-0.10407686978578568,-0.018733739852905273
1789740876924335600,10.796335693359374,-0.0062395199202001095,-0.0874805822968483,0.030244721099734306
1789740876934413600,10.80641357421875,0.008058193139731884,-0.072214275598526,0.060261208564043045
1789740876944490800,10.81649072265625,0.015849269926548004,-0.07841065526008606,0.07597438991069794
1789740876954568700,10.826568603515625,0.03137337043881416,-0.07960667461156845,0.007740743923932314
1789740876964647000,10.83664697265625,0.033422406762838364,-0.07297594100236893,-0.01330062560737133
1789740876974724900,10.846724853515624,0.019238408654928207,-0.06943020969629288,-0.025488315150141716
1789740876984801800,10.8568017578125,0.025724271312355995,-0.06887707114219666,-0.01019804272800684
1789740876994879700,10.866879638671875,0.03666507080197334,-0.0625067874789238,-0.010369816794991493
1789740877004957700,10.876957763671875,0.03496384248137474,-0.054254449903964996,-0.01889432966709137
1789740877015035600,10.88703564453125,0.029228724539279938,-0.05101018771529198,-0.005455485545098782
1789740877025112600,10.897112548828124,0.033778734505176544,-0.041306693106889725,0.03623709827661514
1789740877035190800,10.907190673828126,0.0339859314262867,-0.021441109478473663,0.028404476121068
1789740877045268700,10.917268798828125,0.04248727113008499,0.019362779334187508,0.021328458562493324
1789740877055346700,10.9273466796875,0.039748743176460266,0.03762034699320793,0.010320281609892845
1789740877065423600,10.937423583984375,0.03442109003663063,0.053824350237846375,0.012402607128024101
1789740877075501600,10.94750146484375,0.032158467918634415,0.07546679675579071,0.005254949443042278
1789740877085579500,10.95757958984375,0.038423288613557816,0.10326593369245529,-0.026808178052306175
1789740877095657700,10.96765771484375,0.055334363132715225,0.12245693802833557,-0.04854170233011246
1789740877105735000,10.97773486328125,0.04210324585437775,0.1207602396607399,-0.017878333106637
1789740877115812900,10.987812744140625,0.02714027464389801,0.11525601893663406,0.0026559706311672926
1789740877125890800,10.997890869140624,0.0174410417675972,0.10532589256763458,0.027530960738658905
1789740877135968800,11.00796875,0.003510579001158476,0.0996759906411171,0.02346750907599926
1789740877146046700,11.018046630859375,-0.006859770510345697,0.07578957080841064,0.030604515224695206
1789740877156123600,11.02812353515625,0.004315652418881655,0.04474936053156853,0.006370014976710081
1789740877166201600,11.03820166015625,0.004329234827309847,0.012947224080562592,-0.02213353104889393
1789740877176279800,11.04827978515625,-0.019338810816407204,-0.011366104707121849,-0.034384872764348984
1789740877186357800,11.058357666015626,-0.03904673457145691,-0.039506662636995316,-0.022658441215753555
1789740877196434700,11.0684345703125,-0.036560941487550735,-0.06856600940227509,0.013807158917188644
1789740877206512600,11.0785126953125,-0.04188992455601692,-0.10453040152788162,0.047743022441864014
1789740877216590600,11.088590576171875,-0.05522037670016289,-0.11340538412332535,0.04549078643321991
1789740877226668500,11.09866845703125,-0.06954445689916611,-0.12138395011425018,0.045277997851371765
1789740877236745500,11.108745361328126,-0.08412552624940872,-0.13513384759426117,0.018385665491223335
1789740877246823700,11.11882373046875,-0.07787429541349411,-0.15555576980113983,-0.02564038150012493
1789740877256901600,11.128901611328125,-0.07316794991493225,-0.18003714084625244,-0.0536978505551815
1789740877266979600,11.1389794921875,-0.08054304867982864,-0.1967218518257141,-0.049979276955127716
1789740877277056800,11.149056884765624,-0.10046828538179398,-0.2080269753932953,-0.010085923597216606
1789740877287134700,11.159134765625,-0.12380556762218475,-0.21584095060825348,0.02647155523300171
1789740877297212700,11.169212646484375,-0.1342526078224182,-0.23277918994426727,0.04639386385679245
1789740877307291000,11.179290771484375,-0.13745532929897308,-0.25375211238861084,0.052191298454999924
1789740877317367800,11.189367919921875,-0.12974148988723755,-0.25322455167770386,0.028116855770349503
1789740877327445800,11.19944580078125,-0.120639868080616,-0.2449951022863388,-0.0017278589075431228
1789740877337523700,11.209523681640626,-0.11489462852478027,-0.2314489334821701,-0.03801475837826729
1789740877347601700,11.2196015625,-0.121715247631073,-0.23058047890663147,-0.030538467690348625
1789740877357678300,11.22967822265625,-0.137069433927536,-0.2287580817937851,-0.01062068622559309
1789740877367756300,11.23975634765625,-0.13893897831439972,-0.2344156950712204,0.01607244275510311
1789740877377834500,11.24983447265625,-0.13375459611415863,-0.24395620822906494,0.049013882875442505
1789740877387912400,11.259912353515626,-0.14270681142807007,-0.2637730538845062,0.07223264873027802
1789740877397990400,11.269990478515625,-0.156513974070549,-0.2814425826072693,0.0561588779091835
1789740877408067600,11.280067626953125,-0.15809562802314758,-0.2833518087863922,0.021889852359890938
1789740877418145500,11.2901455078125,-0.14842090010643005,-0.2865140438079834,-0.005407015793025494
1789740877428223500,11.300223388671874,-0.12823094427585602,-0.2837084233760834,-0.011601261794567108
1789740877438301400,11.310301513671876,-0.1129332110285759,-0.2634473443031311,-0.0034767568577080965
1789740877448378600,11.320378662109375,-0.12154320627450943,-0.2612161636352539,-0.0012159993639215827
1789740877458456600,11.33045654296875,-0.1212872788310051,-0.24487712979316711,0.01561038475483656
1789740877468534500,11.340534423828124,-0.12885119020938873,-0.2625733017921448,0.049379799515008926
1789740877478612500,11.350612548828124,-0.12688204646110535,-0.27629604935646057,0.05530213564634323
1789740877488689400,11.360689453125,-0.11885315179824829,-0.2915567457675934,0.041740257292985916
1789740877498767400,11.370767333984375,-0.11940042674541473,-0.3045678734779358,0.02467418648302555
1789740877508845600,11.380845458984375,-0.12118927389383316,-0.3165915310382843,0.010668090544641018
1789740877518923500,11.390923583984375,-0.10779863595962524,-0.3157041668891907,-0.00446878420189023
1789740877529000400,11.40100048828125,-0.09455553442239761,-0.3138580620288849,-0.013064136728644371
1789740877539078400,11.411078369140625,-0.09352675825357437,-0.3087453246116638,0.00654551712796092
1789740877549156400,11.42115625,-0.09313313663005829,-0.3092776834964752,0.03976152837276459
1789740877559234300,11.431234375,-0.0859210342168808,-0.3150586187839508,0.04869670048356056
1789740877569311500,11.4413115234375,-0.06927227973937988,-0.31401118636131287,0.038415830582380295
1789740877579389700,11.4513896484375,-0.07104168832302094,-0.3302479386329651,0.02877066098153591
1789740877589467600,11.461467529296876,-0.06509964168071747,-0.3244955241680145,0.002898584585636854
1789740877599545600,11.471545654296875,-0.05327121168375015,-0.3181031346321106,0.0041215079836547375
1789740877609622500,11.48162255859375,-0.046537142246961594,-0.31544503569602966,-0.000979244359768927
1789740877619700500,11.491700439453124,-0.04039189592003822,-0.31225723028182983,-0.0018937737913802266
1789740877629778400,11.5017783203125,-0.031437549740076065,-0.31064122915267944,0.02112232893705368
1789740877639856600,11.511856689453126,-0.035229094326496124,-0.3214866816997528,0.03297046571969986
1789740877649934600,11.5219345703125,-0.03185566887259483,-0.32565027475357056,0.039616119116544724
1789740877660011500,11.532011474609375,-0.0352538600564003,-0.34209370613098145,0.0557229183614254
1789740877670089500,11.54208935546875,-0.03786269202828407,-0.3545285165309906,0.05010657757520676
1789740877680167400,11.55216748046875,-0.027896879240870476,-0.3655715882778168,0.0219697467982769
1789740877690245400,11.562245361328126,-0.0246140006929636,-0.36664697527885437,0.03158269450068474
1789740877700322300,11.572322265625,-0.030718764290213585,-0.3630719482898712,0.028051607310771942
1789740877710400300,11.582400146484375,-0.015001586638391018,-0.343736857175827,0.014485998079180717
1789740877720478500,11.592478515625,-0.0002008023438975215,-0.33531835675239563,0.020537232980132103
1789740877730556400,11.602556396484376,-0.004566522315144539,-0.3331100642681122,0.033179525285959244
1789740877740633600,11.612633544921875,0.01041269302368164,-0.31722402572631836,0.021992383524775505
1789740877750711600,11.622711669921875,0.006003297865390778,-0.31455501914024353,0.019532155245542526
1789740877760789500,11.63278955078125,0.008128234185278416,-0.30894824862480164,0.0415775366127491
1789740877770867500,11.642867431640624,0.014189056120812893,-0.3029838502407074,0.04017378389835358
1789740877780945700,11.652945556640624,0.014101970940828323,-0.2836916446685791,0.03323332220315933
1789740877791022600,11.663022705078125,0.023498134687542915,-0.26574617624282837,0.04333176091313362
1789740877801100500,11.6731005859375,0.04833104833960533,-0.24530136585235596,0.015238607302308083
1789740877811178500,11.683178466796875,0.06496195495128632,-0.22036485373973846,0.025074193254113197
1789740877821256400,11.69325634765625,0.07417862117290497,-0.18583005666732788,-0.004187554586678743
1789740877831333400,11.70333349609375,0.08469491451978683,-0.15899311006069183,-0.0009629990672692657
1789740877841411300,11.713411376953125,0.09348174929618835,-0.13855122029781342,0.014458567835390568
1789740877851489500,11.723489501953125,0.09745492041110992,-0.12113761156797409,0.00019467707898002118
1789740877861567500,11.7335673828125,0.11770053207874298,-0.10564520210027695,0.0051838429644703865
1789740877871644400,11.74364453125,0.12244708836078644,-0.09091658890247345,0.005938316695392132
1789740877881722400,11.753722412109376,0.12913347780704498,-0.06496994197368622,-0.002156361471861601
1789740877891800300,11.76380029296875,0.140619158744812,-0.050755321979522705,-0.00472577940672636
1789740877901878300,11.773878173828125,0.14571432769298553,-0.03609675168991089,0.008974852971732616
1789740877911955500,11.78395556640625,0.16323180496692657,-0.01435390580445528,0.023923441767692566
1789740877922033700,11.79403369140625,0.16661560535430908,0.0019401127938181162,0.032226111739873886
1789740877932111600,11.804111572265626,0.17194433510303497,0.029350697994232178,0.034210968762636185
1789740877942189600,11.814189453125,0.17146550118923187,0.04659599810838699,0.03099812939763069
1789740877952267500,11.824267578125,0.18250855803489685,0.0518227182328701,-0.0206363033503294
1789740877962344400,11.834344482421875,0.1906823366880417,0.04914810508489609,-0.03905579075217247
1789740877972422400,11.84442236328125,0.1832619607448578,0.047383494675159454,-0.04012424871325493
1789740877982500600,11.85450048828125,0.17332038283348083,0.06551828980445862,-0.03885818272829056
1789740877992578600,11.86457861328125,0.1645015925168991,0.07700902968645096,-0.0042733084410429
1789740878002655500,11.874655517578125,0.16578443348407745,0.08714795112609863,0.010435597039759159
1789740878012733400,11.8847333984375,0.17032405734062195,0.09674065560102463,0.0332929752767086
1789740878022811400,11.894811279296874,0.1602535843849182,0.09878277033567429,0.01883281022310257
1789740878032889300,11.904889404296876,0.15606017410755157,0.11006978154182434,-0.026336265727877617
1789740878042966300,11.91496630859375,0.1509530246257782,0.10631205886602402,-0.02749181166291237
1789740878053044500,11.92504443359375,0.14548875391483307,0.1138024628162384,-0.054608650505542755
1789740878063122400,11.935122314453125,0.16600202023983002,0.12141963839530945,-0.040162332355976105
1789740878073200400,11.945200439453124,0.1573139876127243,0.12559734284877777,-0.00029774141148664057
1789740878083277600,11.955277587890626,0.15321671962738037,0.13742150366306305,0.023637153208255768
1789740878093355500,11.96535546875,0.14538303017616272,0.14349910616874695,0.03898654878139496
1789740878103433500,11.97543359375,0.1353413164615631,0.1455095261335373,0.03620647266507149
1789740878113511700,11.98551171875,0.15129311382770538,0.1483742892742157,0.017943046987056732
1789740878123589600,11.995589599609374,0.15133599936962128,0.14144155383110046,-0.013906494714319706
1789740878133666600,12.00566650390625,0.14580833911895752,0.13706330955028534,-0.055681370198726654
1789740878143744500,12.01574462890625,0.1420373022556305,0.12998703122138977,-0.03598330169916153
1789740878153822500,12.025822509765625,0.1322842687368393,0.11489968746900558,-0.011297661811113358
1789740878163900400,12.035900390625,0.1453457474708557,0.12385004013776779,0.04047951474785805
1789740878173977300,12.045977294921874,0.13582760095596313,0.1264657974243164,0.08608748018741608
1789740878184055600,12.0560556640625,0.13779382407665253,0.13597062230110168,0.07513709366321564
1789740878194133500,12.066133544921875,0.12987969815731049,0.141906276345253,0.0315515361726284
1789740878204211500,12.07621142578125,0.12354670464992523,0.14335262775421143,-0.023869646713137627
1789740878214288400,12.086288330078125,0.13678261637687683,0.14590874314308167,-0.06639766693115234
1789740878224366300,12.096366455078124,0.13969957828521729,0.15701624751091003,-0.03573615849018097
1789740878234444300,12.1064443359375,0.11410100758075714,0.15950657427310944,-0.020982246845960617
1789740878244522500,12.1165224609375,0.13603293895721436,0.17487487196922302,0.018393654376268387
1789740878254600400,12.126600341796875,0.13467073440551758,0.17395688593387604,0.05934801325201988
1789740878264677600,12.136677734375,0.13409015536308289,0.16063468158245087,0.03220480680465698
1789740878274755600,12.146755615234374,0.14274276793003082,0.1538662612438202,0.000857005245052278
1789740878284833500,12.15683349609375,0.11939217150211334,0.14553242921829224,-0.007694138679653406
1789740878294911500,12.166911376953125,0.1053229570388794,0.1417243778705597,-0.04505376145243645
1789740878304988400,12.176988525390625,0.1108812466263771,0.14227591454982758,-0.04081081226468086
1789740878315066600,12.187066650390625,0.11337742209434509,0.13698793947696686,0.022105835378170013
1789740878325144600,12.19714453125,0.10982929170131683,0.1305612027645111,0.059002332389354706
1789740878335222500,12.207222412109376,0.13297775387763977,0.13762417435646057,0.051535896956920624
1789740878345299500,12.217299560546875,0.12630121409893036,0.13765959441661835,0.04518558830022812
1789740878355377400,12.22737744140625,0.12344523519277573,0.14256007969379425,-0.006056294776499271
1789740878365455600,12.23745556640625,0.13892433047294617,0.14651353657245636,-0.05058674514293671
1789740878375533600,12.247533447265624,0.12992577254772186,0.14592072367668152,-0.06101728230714798
1789740878385611500,12.257611572265626,0.13022005558013916,0.16798581182956696,-0.05643691122531891
1789740878395688400,12.2676884765625,0.1453457474708557,0.18943916261196136,-0.03664136677980423
1789740878405766700,12.2777666015625,0.1554385870695114,0.20820273458957672,0.015602927654981613
1789740878415844600,12.2878447265625,0.15731319785118103,0.22468183934688568,0.03906164690852165
1789740878425922600,12.297922607421874,0.16201020777225494,0.2479139268398285,0.025608690455555916
1789740878435999700,12.307999755859376,0.15022705495357513,0.27906784415245056,-0.004831240512430668
