time,seconds_elapsed,z,y,x
1789740866204184800,0.076184814453125,-0.03386760130524635,-0.38990113139152527,0.24712318181991577
1789740866214263000,0.086262939453125,0.009954447858035564,-0.44719773530960083,0.33225247263908386
1789740866224341000,0.096341064453125,0.042176298797130585,-0.488393634557724,0.4146626591682434
1789740866234418000,0.10641796875,0.0727459266781807,-0.4856095612049103,0.4721461832523346
1789740866244496000,0.116495849609375,0.12589383125305176,-0.5112731456756592,0.5184106230735779
1789740866254572800,0.12657275390625,0.17283231019973755,-0.5713801383972168,0.5792257785797119
1789740866264650800,0.136650634765625,0.1596997231245041,-0.48457279801368713,0.5919053554534912
1789740866274728700,0.146728759765625,0.07177600264549255,0.02055029571056366,0.5552282929420471
1789740866284806000,0.156805908203125,0.14931605756282806,0.4144637882709503,0.42973586916923523
1789740866294883800,0.1668837890625,0.20668135583400726,0.4852316975593567,0.3857012987136841
1789740866304961800,0.1769619140625,0.13773797452449799,0.4014662206172943,0.4086923897266388
1789740866315039000,0.1870390625,0.058250874280929565,0.28344717621803284,0.4074026048183441
1789740866325117000,0.197116943359375,-0.0038825387600809336,0.21182306110858917,0.36113762855529785
1789740866335195000,0.20719482421875,-0.07737033814191818,0.11975491046905518,0.33535104990005493
1789740866345271800,0.217271728515625,-0.16656066477298737,-0.04619624465703964,0.37481749057769775
1789740866355349800,0.227349853515625,-0.28708308935165405,-0.3071724474430084,0.49686911702156067
1789740866365428000,0.237427978515625,-0.40462782979011536,-0.45035383105278015,0.6547458171844482
1789740866375505000,0.2475048828125,-0.4796850085258484,-0.5203872919082642,0.8064831495285034
1789740866385582800,0.257582763671875,-0.5444970726966858,-0.48543378710746765,0.9187034368515015
1789740866395660800,0.267660888671875,-0.5913125276565552,-0.29234689474105835,1.0302543640136719
1789740866405738000,0.277738037109375,-0.6387556791305542,-0.14239494502544403,1.1731479167938232
1789740866415816000,0.28781591796875,-0.7153873443603516,-0.06188119575381279,1.3011149168014526
1789740866425894000,0.297893798828125,-0.7819149494171143,0.018725497648119926,1.3817157745361328
1789740866435970800,0.307970703125,-0.8500530123710632,0.04277250915765762,1.5111275911331177
1789740866446049000,0.318049072265625,-0.9171332120895386,-0.024617981165647507,1.734079360961914
1789740866456126000,0.3281259765625,-1.0127209424972534,-0.1390625238418579,1.9425164461135864
1789740866466204000,0.338203857421875,-1.0828300714492798,-0.2501259446144104,2.063286066055298
1789740866476281900,0.34828173828125,-1.0828238725662231,-0.31715983152389526,2.072448968887329
1789740866486359800,0.35835986328125,-1.041953206062317,-0.26474136114120483,1.9759186506271362
1789740866496436700,0.368436767578125,-0.9589108824729919,-0.155564084649086,1.844574213027954
1789740866506514700,0.3785146484375,-0.8302022218704224,-0.03760974854230881,1.7222224473953247
1789740866516591900,0.388591796875,-0.6877877712249756,0.08910638839006424,1.5994176864624023
1789740866526670000,0.398670166015625,-0.5601728558540344,0.16066472232341766,1.4515278339385986
1789740866536748000,0.408748046875,-0.46056878566741943,0.16557133197784424,1.2591890096664429
1789740866546825000,0.418824951171875,-0.39310213923454285,0.1747315376996994,1.0240579843521118
1789740866556903000,0.42890283203125,-0.3133457899093628,0.19152942299842834,0.7990643978118896
1789740866566980900,0.43898095703125,-0.22477994859218597,0.14991886913776398,0.6399213075637817
1789740866577057800,0.449057861328125,-0.11262651532888412,0.017525941133499146,0.6172708868980408
1789740866587135700,0.4591357421875,-0.020185265690088272,-0.08094870299100876,0.6836658716201782
1789740866597214000,0.4692138671875,0.052360571920871735,-0.14101682603359222,0.7618677616119385
1789740866607291000,0.479290771484375,0.10862118005752563,-0.2256971001625061,0.774617612361908
1789740866617368800,0.489368896484375,0.15567950904369354,-0.28587281703948975,0.7359509468078613
1789740866627446800,0.49944677734375,0.2159963846206665,-0.25038644671440125,0.7167441844940186
1789740866637524000,0.50952392578125,0.3131010830402374,-0.22759166359901428,0.7773340344429016
1789740866647602000,0.519601806640625,0.4304990768432617,-0.2734811305999756,0.9477468132972717
1789740866657680000,0.529679931640625,0.5252743363380432,-0.32562899589538574,1.1800971031188965
1789740866667756800,0.5397568359375,0.5420970320701599,-0.2850230038166046,1.4030992984771729
1789740866677835000,0.5498349609375,0.5094320178031921,-0.2032780796289444,1.5690025091171265
1789740866687913000,0.559912841796875,0.48050206899642944,-0.13179802894592285,1.6764363050460815
1789740866697990000,0.569989990234375,0.4517793357372284,-0.07915852218866348,1.7207201719284058
1789740866708067800,0.58006787109375,0.440639853477478,-0.08992621302604675,1.7132641077041626
1789740866718144800,0.590144775390625,0.4904111325740814,-0.14863133430480957,1.7149357795715332
1789740866728222700,0.60022265625,0.5793983340263367,-0.1830601543188095,1.7310236692428589
1789740866738301000,0.610301025390625,0.6795334219932556,-0.17351537942886353,1.7505656480789185
1789740866748377900,0.6203779296875,0.7321580052375793,-0.3962762653827667,2.006654739379883
1789740866758456000,0.6304560546875,0.8182992935180664,-0.07686340808868408,2.1170804500579834
1789740866768534000,0.640533935546875,0.7557608485221863,-0.2546544373035431,2.3103580474853516
1789740866778611000,0.65061083984375,0.6553383469581604,-0.42008015513420105,2.661180257797241
1789740866788689000,0.66068896484375,0.5207184553146362,-0.4680463373661041,2.9168288707733154
1789740866798766800,0.670766845703125,0.2922975420951843,-0.596528947353363,2.929504871368408
1789740866808843800,0.68084375,0.01547153014689684,-0.6330462098121643,2.6808032989501953
1789740866818921700,0.690921630859375,-0.19194743037223816,-0.4244202971458435,2.194598436355591
1789740866828999700,0.700999755859375,-0.28536635637283325,-0.13010506331920624,1.5530054569244385
1789740866839076900,0.711076904296875,-0.27437520027160645,0.10091643780469894,0.930238664150238
1789740866849155000,0.721155029296875,-0.2562185823917389,0.31667670607566833,0.49046313762664795
1789740866859233000,0.73123291015625,-0.22058093547821045,0.3887737989425659,0.2823528051376343
1789740866869310000,0.74131005859375,-0.24185720086097717,0.24907900393009186,0.2839973270893097
1789740866879388000,0.751387939453125,-0.2971372604370117,0.01900585927069187,0.37195059657096863
1789740866889465900,0.7614658203125,-0.3721603751182556,-0.17955224215984344,0.34282466769218445
1789740866899542800,0.771542724609375,-0.3977312445640564,-0.1864626109600067,0.21520118415355682
1789740866909620700,0.781620849609375,-0.3499746322631836,-0.1930597871541977,0.06774969398975372
1789740866919699000,0.791698974609375,-0.12808562815189362,-0.08001898974180222,-0.1293383538722992
1789740866929775900,0.80177587890625,-0.03978666663169861,0.30957645177841187,-0.5084627270698547
1789740866939853800,0.811853759765625,-0.367206335067749,0.36354249715805054,-0.7014564275741577
1789740866949931800,0.821931884765625,-0.41100868582725525,0.46948036551475525,-0.7886943817138672
1789740866960009000,0.832009033203125,-0.4356764853000641,0.7061741352081299,-0.6478544473648071
1789740866970087000,0.8420869140625,-0.48619771003723145,0.8503164052963257,-0.32854998111724854
1789740866980163800,0.852163818359375,-0.4584971070289612,0.7640009522438049,0.041751377284526825
1789740866990241800,0.86224169921875,-0.4826700985431671,0.6489806175231934,0.39565327763557434
1789740867000320000,0.872320068359375,-0.6025272011756897,0.6399189233779907,0.6028173565864563
1789740867010397000,0.88239697265625,-0.6894368529319763,0.581829309463501,0.6467787027359009
1789740867020475000,0.892474853515625,-0.731752872467041,0.506232500076294,0.5625077486038208
1789740867030552800,0.902552734375,-0.7658205628395081,0.45025742053985596,0.4267486035823822
1789740867040629800,0.912629638671875,-0.7608824968338013,0.35565099120140076,0.31526896357536316
1789740867050707700,0.922707763671875,-0.7824621200561523,0.23854275047779083,0.30575481057167053
1789740867060785700,0.93278564453125,-0.8363770246505737,0.1496749222278595,0.38149139285087585
1789740867070862800,0.94286279296875,-0.8622791767120361,-0.17516574263572693,0.7250050902366638
1789740867080941000,0.952941162109375,-0.833442211151123,-0.11244670301675797,0.8155456185340881
1789740867091019000,0.96301904296875,-0.7641275525093079,-0.1997709572315216,0.8237891793251038
1789740867101096000,0.973095947265625,-0.6828274130821228,-0.2969728708267212,0.7969540953636169
1789740867111174000,0.983173828125,-0.6387004256248474,-0.36129459738731384,0.7027381062507629
1789740867121251800,0.993251953125,-0.6055294275283813,-0.4654121994972229,0.5605764389038086
1789740867131328800,1.003328857421875,-0.5541852712631226,-0.5256395936012268,0.42566975951194763
1789740867141406700,1.01340673828125,-0.4597296118736267,-0.5496775507926941,0.3281192481517792
1789740867151485000,1.02348486328125,-0.324281245470047,-0.5637752413749695,0.2667118012905121
1789740867161561900,1.033561767578125,-0.19115141034126282,-0.5452482104301453,0.18921352922916412
1789740867171639800,1.043639892578125,-0.044226955622434616,-0.49758559465408325,0.053185127675533295
1789740867181717800,1.0537177734375,0.11370541900396347,-0.37723201513290405,-0.11293672770261765
1789740867191795000,1.063794921875,0.2651929259300232,-0.23251159489154816,-0.2519761025905609
1789740867201873000,1.073872802734375,0.36068376898765564,-0.10626684129238129,-0.3253278136253357
1789740867211949800,1.08394970703125,0.4172322750091553,-0.026905173435807228,-0.32885196805000305
1789740867222027800,1.09402783203125,0.42436981201171875,0.025841396301984787,-0.2923120856285095
1789740867232106000,1.10410595703125,0.3595620393753052,0.09682156145572662,-0.22349813580513
1789740867242183000,1.114182861328125,0.2572050392627716,0.1812669336795807,-0.13634751737117767
1789740867252260900,1.1242607421875,0.1698712259531021,0.2941271960735321,-0.018844056874513626
1789740867262338800,1.1343388671875,0.1341012418270111,0.38358891010284424,0.13206343352794647
1789740867272416000,1.144416015625,0.16772738099098206,0.4087429940700531,0.22813057899475098
1789740867282494000,1.154493896484375,0.22917823493480682,0.39580854773521423,0.2271161675453186
1789740867292572000,1.164572021484375,0.26200273633003235,0.32591894268989563,0.13159045577049255
1789740867302648800,1.17464892578125,0.2555752098560333,0.2277047485113144,-0.015301252715289593
1789740867312727000,1.18472705078125,0.24437928199768066,0.13949579000473022,-0.16227233409881592
1789740867322805000,1.194804931640625,0.23026426136493683,0.02291857637465,-0.23711860179901123
1789740867332882000,1.2048818359375,0.2208433300256729,-0.07100924849510193,-0.25041842460632324
1789740867342959900,1.2149599609375,0.1710246503353119,-0.08119424432516098,-0.22900502383708954
1789740867353037800,1.225037841796875,0.16794736683368683,-0.044045012444257736,-0.20234571397304535
1789740867363114800,1.23511474609375,0.19882617890834808,0.04540843889117241,-0.17662569880485535
1789740867373192700,1.245192626953125,0.2130085825920105,0.1063183918595314,-0.12370362132787704
1789740867383270700,1.255270751953125,0.19442078471183777,0.06833692640066147,-0.04493105039000511
1789740867393347800,1.265347900390625,0.1557263880968094,-0.027174418792128563,0.04074736684560776
1789740867403426000,1.275426025390625,0.09241078794002533,-0.10845409333705902,0.12545719742774963
1789740867413504000,1.28550390625,0.021070027723908424,-0.14155718684196472,0.13075341284275055
1789740867423581000,1.295580810546875,-0.018696293234825134,-0.11968251317739487,0.08441602438688278
1789740867433659000,1.305658935546875,-0.05114877596497536,-0.076410673558712,0.02095874957740307
1789740867443736800,1.31573681640625,-0.08898723870515823,-0.015394989401102066,-0.05779784917831421
1789740867453813800,1.325813720703125,-0.13607670366764069,-0.08461720496416092,-0.08777332305908203
1789740867463891700,1.3358916015625,-0.2532592713832855,-0.22720257937908173,-0.12265194207429886
1789740867473970000,1.345969970703125,-0.3864644765853882,-0.20208977162837982,-0.1286240816116333
1789740867484046800,1.356046875,-0.5093083381652832,-0.14129087328910828,0.012826520949602127
1789740867494124800,1.366124755859375,-0.626478374004364,-0.05093008279800415,0.3281967341899872
1789740867504202800,1.37620263671875,-0.7062826752662659,0.01744251139461994,0.6348087787628174
1789740867514280000,1.386280029296875,-0.7702856659889221,-0.08035622537136078,0.8143444657325745
1789740867524358000,1.39635791015625,-0.7957063317298889,-0.1864035576581955,0.8011913895606995
1789740867534435800,1.406435791015625,-0.7399141788482666,-0.29208898544311523,0.6824018955230713
1789740867544512800,1.4165126953125,-0.7158511877059937,-0.4383164942264557,0.534040093421936
1789740867554591000,1.426591064453125,-0.7134796380996704,-0.46354594826698303,0.38677582144737244
1789740867564668000,1.43666796875,-0.7078835368156433,-0.49942219257354736,0.45501160621643066
1789740867574745900,1.446745849609375,-0.5649913549423218,-0.338544636964798,1.3412754535675049
1789740867584823800,1.45682373046875,-0.3947722017765045,0.10880810767412186,1.5362446308135986
1789740867594900700,1.466900634765625,-0.45174363255500793,0.11441805958747864,1.0833221673965454
1789740867604978700,1.476978759765625,-0.48225972056388855,-0.15898604691028595,0.6893298625946045
1789740867615056600,1.487056640625,-0.3012787401676178,-0.30769243836402893,0.43352842330932617
1789740867625133800,1.4971337890625,-0.09453088790178299,-0.3019953966140747,0.29279714822769165
1789740867635212000,1.5072119140625,0.03828068822622299,-0.19206464290618896,0.18052224814891815
1789740867645290000,1.5172900390625,0.12062189728021622,-0.07602858543395996,0.07192626595497131
1789740867655367000,1.527366943359375,0.1805478185415268,-0.0682407021522522,0.007578172255307436
1789740867665444900,1.53744482421875,0.21298246085643768,-0.12162509560585022,-0.04263412952423096
1789740867675522800,1.547522705078125,0.2137252241373062,-0.21621684730052948,-0.07641073316335678
1789740867685599700,1.557599853515625,0.20936855673789978,-0.28905990719795227,-0.07506530731916428
1789740867695677700,1.567677734375,0.20355939865112305,-0.30261778831481934,-0.02051790989935398
1789740867705756000,1.577755859375,0.20577141642570496,-0.30711984634399414,0.07141654193401337
1789740867715832800,1.587832763671875,0.16794414818286896,-0.2873416244983673,0.10754445195198059
1789740867725910800,1.597910888671875,0.12034333497285843,-0.2678486108779907,0.1066802516579628
1789740867735988700,1.60798876953125,0.08174960315227509,-0.31427550315856934,0.09537114202976227
1789740867746066000,1.61806591796875,0.062131159007549286,-0.34013718366622925,0.040115874260663986
1789740867756143900,1.628143798828125,0.06123553588986397,-0.26148977875709534,-0.005685701034963131
1789740867766221800,1.638221923828125,0.05497950688004494,-0.21475397050380707,0.012509015388786793
1789740867776298800,1.648298828125,0.031790561974048615,-0.16362129151821136,0.07749387621879578
1789740867786377000,1.658376953125,0.020303551107645035,-0.17157214879989624,0.13737131655216217
1789740867796455000,1.668454833984375,0.00793370045721531,-0.2554715871810913,0.23091457784175873
1789740867806531800,1.67853173828125,-0.006637252401560545,-0.32589036226272583,0.30331769585609436
1789740867816609800,1.68860986328125,-0.050169818103313446,-0.38468867540359497,0.33807194232940674
1789740867826687700,1.698687744140625,-0.08548440039157867,-0.3692149221897125,0.37447628378868103
1789740867836765000,1.708764892578125,-0.08475735783576965,-0.328010231256485,0.3588448762893677
1789740867846843000,1.7188427734375,-0.06589125841856003,-0.27524155378341675,0.346758633852005
1789740867856920800,1.7289208984375,-0.04369167611002922,-0.2627747654914856,0.3531621992588043
1789740867866997800,1.738997802734375,-0.039512377232313156,-0.3536548614501953,0.35652658343315125
1789740867877076000,1.749075927734375,-0.015584408305585384,-0.4153730869293213,0.45509442687034607
1789740867887154000,1.75915380859375,0.030007043853402138,-0.28437405824661255,0.5579054951667786
1789740867897230800,1.76923095703125,-0.009777385741472244,-0.13359227776527405,0.5681272745132446
1789740867907308800,1.779308837890625,-0.07919960469007492,0.003283281810581684,0.5610973238945007
1789740867917386800,1.78938671875,-0.08977741003036499,0.0587015300989151,0.5900290608406067
1789740867927463700,1.799463623046875,-0.07647359371185303,0.04196888953447342,0.5795998573303223
1789740867937541600,1.809541748046875,0.03044833056628704,-0.034347184002399445,0.49760061502456665
1789740867947618800,1.819618896484375,0.42017585039138794,-0.45102402567863464,0.04910484328866005
1789740867957697000,1.829697021484375,0.6832810044288635,-0.9030892252922058,-0.5779201984405518
1789740867967775000,1.83977490234375,0.9339893460273743,-0.7785059809684753,-0.6358548402786255
1789740867977852000,1.849851806640625,1.0470253229141235,-0.47502923011779785,-0.5157659649848938
1789740867987929900,1.859929931640625,0.8059453964233398,-0.7641147971153259,-0.8038949966430664
1789740867998007800,1.8700078125,0.6138270497322083,-0.5571962594985962,-0.6716948747634888
1789740868008084700,1.880084716796875,0.5581638216972351,-0.40783074498176575,-0.5579819083213806
1789740868018162700,1.89016259765625,0.4975350797176361,-0.3736512064933777,-0.43808531761169434
1789740868028241000,1.900240966796875,0.4021076261997223,-0.31166428327560425,-0.3390905559062958
1789740868038317800,1.91031787109375,0.36741942167282104,-0.3775580823421478,-0.19297011196613312
1789740868048395800,1.920395751953125,0.31546780467033386,-0.3429034352302551,-0.1328340768814087
1789740868058473700,1.9304736328125,0.24155312776565552,-0.3517451286315918,-0.08227261900901794
1789740868068551000,1.940551025390625,0.1439080536365509,-0.2886101007461548,-0.04411165416240692
1789740868078628900,1.95062890625,0.08969860523939133,-0.26651516556739807,0.03528570011258125
1789740868088706800,1.960706787109375,0.09831047058105469,-0.289829820394516,0.12399852275848389
1789740868098783700,1.97078369140625,0.07520274817943573,-0.2644863724708557,0.18256649374961853
1789740868108862000,1.980862060546875,0.06681352853775024,-0.3057238459587097,0.2609550654888153
1789740868118940000,1.99093994140625,0.05685224011540413,-0.2860731780529022,0.33728471398353577
1789740868129016800,2.001016845703125,0.0604589581489563,-0.2895773649215698,0.3908635079860687
1789740868139094800,2.0110947265625,0.10555426776409149,-0.3214780390262604,0.4511074125766754
1789740868149172700,2.0211728515625,0.12439559400081635,-0.342880517244339,0.4784730076789856
1789740868159249700,2.031249755859375,0.13680779933929443,-0.4583229720592499,0.5289380550384521
1789740868169327600,2.04132763671875,0.2612924575805664,-0.777259349822998,0.6345725655555725
1789740868179405800,2.05140576171875,0.3022556006908417,-0.6809184551239014,0.6551700234413147
1789740868189483000,2.06148291015625,0.23932884633541107,-0.7947574257850647,0.6765331029891968
1789740868199561000,2.07156103515625,0.08630893379449844,-1.2108901739120483,0.4977912902832031
1789740868209639000,2.081638916015625,-0.09827262908220291,-1.7894175052642822,0.3379121422767639
1789740868219715800,2.0917158203125,-0.21408924460411072,-2.5345940589904785,0.21746428310871124
1789740868229793800,2.101793701171875,-0.07666321098804474,-3.077521800994873,-0.26272308826446533
1789740868239871700,2.111871826171875,0.12737540900707245,-3.55395245552063,-0.3575175106525421
1789740868249948700,2.12194873046875,0.08286919444799423,-3.9562175273895264,-0.2845607399940491
1789740868260027000,2.13202685546875,-0.31009888648986816,-4.025622367858887,-0.3711787164211273
1789740868270104800,2.142104736328125,-0.21373024582862854,-0.11685404926538467,1.404129147529602
1789740868280181800,2.152181640625,-0.7176850438117981,-0.3177908658981323,0.8768640756607056
1789740868290259700,2.162259765625,-0.8719944357872009,-0.2705477476119995,0.08018580079078674
1789740868300337700,2.172337646484375,-0.732795000076294,-0.14332640171051025,-0.3823179304599762
1789740868310414800,2.182414794921875,-0.3355933129787445,-0.2869757115840912,-0.3505714535713196
1789740868320492800,2.192492919921875,-0.23036061227321625,-0.3873124420642853,-0.37713193893432617
1789740868330571000,2.202571044921875,-0.4413850009441376,-0.22116979956626892,-0.44699013233184814
1789740868340648000,2.21264794921875,-0.37973201274871826,-0.2286761850118637,-0.32442107796669006
1789740868350727000,2.222726806640625,-0.3059808313846588,-0.23663531243801117,-0.20698073506355286
1789740868360804900,2.232804931640625,-0.16853852570056915,-0.2349921315908432,-0.08437225967645645
1789740868370881800,2.2428818359375,-0.2542257606983185,-0.06355753540992737,-0.04898630455136299
1789740868380959700,2.252959716796875,-0.21040022373199463,0.014932747930288315,-0.07302851974964142
1789740868391038000,2.263037841796875,-0.139836847782135,0.04220857471227646,-0.05274801701307297
1789740868401115000,2.273114990234375,-0.07845231890678406,0.0930832102894783,-0.008434882387518883
1789740868411192800,2.28319287109375,-0.013422188349068165,0.09381211549043655,0.02733589895069599
1789740868421270000,2.29327001953125,0.0354449525475502,0.12201845645904541,0.08498268574476242
1789740868431348000,2.303347900390625,-0.09047675877809525,0.15558387339115143,0.14319512248039246
1789740868441426000,2.313426025390625,-0.31749340891838074,0.1637304723262787,0.2142477184534073
1789740868451502800,2.3235029296875,-0.3749644160270691,0.18553324043750763,0.23951499164104462
1789740868461580800,2.333580810546875,-0.33564871549606323,0.31700366735458374,0.0961969867348671
1789740868471659000,2.343658935546875,-0.20874853432178497,0.4227662980556488,-0.08274799585342407
1789740868481736000,2.35373583984375,-0.09525393694639206,0.30107396841049194,-0.1962660402059555
1789740868491814000,2.36381396484375,-0.14238415658473969,0.21696867048740387,-0.2664986550807953
1789740868501891800,2.373891845703125,-0.2463824599981308,0.18437130749225616,-0.2657492160797119
1789740868511968800,2.38396875,-0.3512100577354431,0.1970294862985611,-0.23175396025180817
1789740868522046700,2.394046630859375,-0.48655644059181213,0.17586880922317505,-0.2132955938577652
1789740868532124700,2.404124755859375,-0.5911265015602112,0.05103180557489395,-0.09023837000131607
1789740868542201900,2.414201904296875,-0.5757965445518494,0.09293877333402634,-0.0003633465967141092
1789740868552280000,2.424280029296875,-0.7469789981842041,0.1870916336774826,0.004563501104712486
1789740868562358000,2.43435791015625,-1.0181015729904175,0.17286983132362366,-0.035389240831136703
1789740868572435000,2.44443505859375,-1.1239577531814575,-0.01787908747792244,-0.04741714149713516
1789740868582513000,2.454512939453125,-1.072649598121643,0.11709550768136978,-0.09326452016830444
1789740868592590800,2.4645908203125,-0.70441073179245,-0.15342919528484344,-0.09244772791862488
1789740868602667800,2.474667724609375,-0.09344004839658737,-0.4049580991268158,0.20405130088329315
1789740868612745700,2.484745849609375,0.6114358305931091,-0.24061842262744904,0.17885753512382507
1789740868622823700,2.49482373046875,1.1005886793136597,-0.17054852843284607,0.06463643163442612
1789740868632900600,2.504900634765625,1.39651358127594,-0.3303605616092682,-0.07764295488595963
1789740868642978800,2.514978759765625,1.6252878904342651,-0.8032812476158142,-0.5044771432876587
1789740868653056800,2.525056884765625,1.8576819896697998,-0.8139996528625488,-0.4722890555858612
1789740868663134000,2.535134033203125,1.815692663192749,-0.740474283695221,-0.5595667362213135
1789740868673212000,2.5452119140625,1.5252553224563599,-0.5580949187278748,-0.6500710844993591
1789740868683289900,2.555289794921875,1.1774009466171265,-0.5591478943824768,-0.7385404706001282
1789740868693366800,2.56536669921875,0.7653694748878479,-0.5979174375534058,-0.8063057065010071
1789740868703444700,2.57544482421875,0.30413395166397095,-0.4851940870285034,-0.8351187109947205
1789740868713523000,2.58552294921875,-0.07283783704042435,-0.3845479190349579,-0.7914431095123291
1789740868723600000,2.595599853515625,-0.26267433166503906,-0.29955312609672546,-0.7124242186546326
1789740868733677800,2.605677734375,-0.3995818495750427,-0.24389757215976715,-0.6365989446640015
1789740868743755800,2.615755859375,-0.460936576128006,-0.37245768308639526,-0.605256974697113
1789740868753832700,2.625832763671875,-0.44418713450431824,-0.553074300289154,-0.5821210741996765
1789740868763910700,2.63591064453125,-0.34594231843948364,-0.5147977471351624,-0.48927390575408936
1789740868773988600,2.645988525390625,-0.1839321404695511,-0.23674671351909637,-0.3056907653808594
1789740868784065800,2.656065673828125,-0.010996307246387005,0.07805516570806503,-0.09825954586267471
1789740868794144000,2.66614404296875,0.22551502287387848,0.13084754347801208,0.036452457308769226
1789740868804222000,2.676221923828125,0.5318073034286499,0.04985655099153519,0.1468639224767685
1789740868814299000,2.686298828125,0.8709025382995605,0.03235851973295212,0.33290302753448486
1789740868824376800,2.696376953125,1.2825981378555298,-0.0195680633187294,0.7064177393913269
1789740868834454800,2.706454833984375,1.5100648403167725,0.02436823584139347,1.2265254259109497
1789740868844531700,2.71653173828125,1.526597023010254,1.0509979724884033,1.7458900213241577
1789740868854609700,2.726609619140625,1.4833717346191406,0.8597750067710876,1.6248162984848022
1789740868864687900,2.73668798828125,0.9639092087745667,0.21030960977077484,-0.10531000047922134
1789740868874764800,2.746764892578125,0.8569108247756958,0.05018758028745651,0.4412550926208496
1789740868884842800,2.7568427734375,0.30947145819664,-0.5411281585693359,0.05692045018076897
1789740868894920700,2.766920654296875,-0.031593192368745804,-0.5704831480979919,0.04193803668022156
1789740868904998000,2.776997802734375,-0.37724512815475464,-0.16377823054790497,0.029035286977887154
1789740868915075800,2.787075927734375,-0.6595662832260132,0.1703355610370636,-0.002155920257791877
1789740868925153800,2.79715380859375,0.7521665692329407,0.11635781824588776,-0.12960389256477356
1789740868935230700,2.807230712890625,0.37812456488609314,0.3952043354511261,-0.06699057668447495
1789740868945309000,2.817308837890625,0.3577471077442169,-0.11488872021436691,-0.0774591937661171
1789740868955387000,2.827386962890625,0.4031617343425751,-0.11046281456947327,-0.08552244305610657
1789740868965463800,2.8374638671875,0.38414648175239563,-0.19504959881305695,-0.054904352873563766
1789740868975541800,2.847541748046875,0.4248766303062439,-0.26579195261001587,-0.021276619285345078
1789740868985619700,2.85761962890625,0.4742116630077362,-0.22215285897254944,0.03648441657423973
1789740868995697000,2.86769677734375,0.5325002670288086,-0.08004552125930786,0.06423135846853256
1789740869005774800,2.87777490234375,0.5686249732971191,-0.013146382756531239,0.12386113405227661
1789740869015853000,2.88785302734375,0.5618948936462402,-0.2073265165090561,0.24799692630767822
1789740869025930000,2.897929931640625,0.600678026676178,-0.4342198669910431,0.3532698452472687
1789740869036008000,2.908008056640625,0.5942944288253784,-0.16905581951141357,0.37466007471084595
1789740869046086000,2.9180859375,0.6399652361869812,0.7071050405502319,0.24325783550739288
1789740869056162800,2.928162841796875,0.6642561554908752,1.591546654701233,0.12859995663166046
1789740869066240800,2.93824072265625,0.5614081025123596,2.045958995819092,0.09069252759218216
1789740869076318700,2.948318603515625,0.35797932744026184,2.0114834308624268,0.0863257423043251
1789740869086395600,2.958395751953125,0.155951127409935,1.3652479648590088,-0.018673112615942955
1789740869096473900,2.968473876953125,0.14190135896205902,0.35072049498558044,-0.12476066499948502
1789740869106551800,2.9785517578125,0.06084219738841057,-0.1921835094690323,-0.20070496201515198
1789740869116629000,2.98862890625,0.0729859471321106,-0.1800493448972702,-0.12167219817638397
1789740869126707000,2.99870703125,0.06168615445494652,0.015111621469259262,-0.0339849554002285
1789740869136785000,3.008784912109375,0.06527609378099442,0.059432484209537506,0.020487606525421143
1789740869146861800,3.01886181640625,0.06553255766630173,0.08441533148288727,0.06664152443408966
1789740869156939800,3.028939697265625,0.041438937187194824,0.12242795526981354,0.06710384786128998
1789740869167018000,3.03901806640625,0.021228209137916565,0.2321496605873108,0.08305858075618744
1789740869177095000,3.049094970703125,-0.03319934755563736,0.3735533654689789,0.07999381422996521
1789740869187172900,3.0591728515625,-0.07473800331354141,0.46934568881988525,0.045772723853588104
1789740869197250800,3.069250732421875,-0.13266922533512115,0.5684640407562256,-0.01665550097823143
1789740869207327700,3.07932763671875,-0.24618911743164062,0.7268201112747192,-0.08325130492448807
1789740869217405700,3.08940576171875,-0.24414753913879395,0.7612257599830627,-0.011687373742461205
1789740869227483600,3.099483642578125,-0.3598589599132538,0.4174681007862091,-0.1371544897556305
1789740869237560800,3.109560791015625,-0.6146800518035889,0.027469219639897346,-0.3377254009246826
1789740869247639000,3.11963916015625,-0.9982210397720337,-0.15445476770401,-0.43886932730674744
1789740869257717000,3.129717041015625,-1.2024877071380615,-0.5275686979293823,-0.4402560293674469
1789740869267794000,3.1397939453125,-1.209775686264038,-0.6373316645622253,-0.3005862832069397
1789740869277871900,3.149871826171875,-1.238466739654541,-0.13025356829166412,-0.07217095792293549
1789740869287949800,3.15994970703125,-1.2393604516983032,-0.5749399065971375,-0.022577572613954544
1789740869298026800,3.17002685546875,-1.237646222114563,-0.43814989924430847,-0.038948558270931244
1789740869308104700,3.180104736328125,-1.0787396430969238,0.046116672456264496,0.10407065600156784
1789740869318183000,3.190182861328125,-0.7993265986442566,0.27186882495880127,0.18781454861164093
1789740869328259800,3.200259765625,-0.6173823475837708,0.8409571051597595,0.2530364394187927
1789740869338337800,3.210337890625,-0.4568515419960022,1.1021095514297485,0.3397761285305023
1789740869348415700,3.220415771484375,-0.29088547825813293,0.9296432733535767,0.38098615407943726
1789740869358492400,3.230492431640625,-0.16372913122177124,0.6064494848251343,0.4395788908004761
1789740869368570400,3.2405703125,-0.11514054983854294,0.4321117699146271,0.4901922643184662
1789740869378648300,3.2506484375,-0.03252716362476349,0.3292889893054962,0.5199626684188843
1789740869388725200,3.260725341796875,0.11920484155416489,0.24094022810459137,0.11532650142908096
1789740869398803200,3.27080322265625,0.1190815344452858,0.22971101105213165,0.04979622736573219
1789740869408881400,3.28088134765625,0.10460112988948822,-0.4344771206378937,0.06138657033443451
1789740869418958300,3.290958251953125,0.025204841047525406,-0.18428243696689606,-0.20739296078681946
1789740869429036300,3.301036376953125,0.07887499034404755,-0.31007659435272217,-0.26652657985687256
1789740869439114200,3.3111142578125,0.2666366398334503,-0.6937779188156128,-0.3203120529651642
1789740869449192200,3.321192138671875,0.4386962950229645,-0.828188955783844,-0.45846059918403625
1789740869459269400,3.331269287109375,0.566317081451416,-0.8975206613540649,-0.5939531922340393
1789740869469347300,3.341347412109375,0.654704213142395,-0.463634729385376,-0.543388843536377
1789740869479425500,3.351425537109375,0.697295606136322,-0.24207116663455963,-0.17435778677463531
1789740869489502500,3.36150244140625,0.6618332266807556,-0.26880958676338196,-0.03404860571026802
1789740869499580400,3.371580322265625,0.5012680888175964,-0.17843201756477356,-0.02309395931661129
1789740869509658400,3.381658447265625,0.2642003893852234,-0.012463548220694065,-0.16897127032279968
1789740869519735300,3.3917353515625,0.15311360359191895,0.06022440642118454,-0.11568441987037659
1789740869529813200,3.401813232421875,0.030131222680211067,-0.15735077857971191,0.0608016662299633
1789740869539891200,3.41189111328125,-0.11756875365972519,-0.16509366035461426,0.07265885919332504
1789740869549968100,3.421968017578125,-0.2670930027961731,-0.28067219257354736,-0.03993160277605057
1789740869560046300,3.43204638671875,-0.3913406729698181,-0.29122549295425415,-0.014080298133194447
1789740869570124300,3.442124267578125,-0.3557608425617218,-0.5990565419197083,-0.08389373123645782
1789740869580201500,3.452201416015625,-0.1342097818851471,-0.5175734162330627,-0.17880134284496307
1789740869590279400,3.462279541015625,0.4907960295677185,-0.056891027837991714,-0.06329551339149475
1789740869600357400,3.472357421875,1.079962134361267,-0.09968136996030807,-0.14352937042713165
1789740869610434300,3.482434326171875,1.4919171333312988,-0.25387173891067505,-0.2884165048599243
1789740869620512300,3.49251220703125,1.7645609378814697,-0.5157893896102905,-0.34853124618530273
1789740869630590500,3.502590576171875,1.660753846168518,-0.49399831891059875,-0.32947686314582825
1789740869640667400,3.51266748046875,1.361013412475586,-0.5972996950149536,-0.3054274618625641
1789740869650745300,3.522745361328125,0.749890148639679,-0.5157960057258606,-0.15636500716209412
1789740869660823300,3.5328232421875,0.17759284377098083,-0.6092231869697571,-0.056034673005342484
1789740869670900200,3.542900146484375,-0.26397764682769775,-0.69769686460495,-0.05901235342025757
1789740869680978200,3.552978271484375,-0.4980681836605072,-1.031453251838684,-0.05669620260596275
1789740869691056000,3.56305615234375,-0.5799904465675354,-1.105921983718872,0.023696374148130417
1789740869701133300,3.57313330078125,-0.5454135537147522,-0.46646708250045776,-0.13902729749679565
1789740869711211500,3.58321142578125,-0.4154244363307953,-0.3594045341014862,-0.0920853465795517
1789740869721289500,3.59328955078125,-0.2747999429702759,-0.022595373913645744,0.057140618562698364
1789740869731366400,3.603366455078125,-0.13678959012031555,0.017668159678578377,0.07905257493257523
1789740869741444400,3.6134443359375,0.053352389484643936,-0.02088296227157116,0.07587835937738419
1789740869751522300,3.623522216796875,0.2891918122768402,-0.0848425030708313,0.059129733592271805
1789740869761599200,3.63359912109375,0.4930293560028076,-0.12217655777931213,0.016840599477291107
1789740869771677200,3.64367724609375,0.6487123966217041,-0.10654699802398682,-0.02870291844010353
1789740869781755400,3.65375537109375,0.7660686373710632,0.00015015201643109322,-0.02237338200211525
1789740869791832300,3.663832275390625,0.8263095617294312,0.10553489625453949,-0.018451878800988197
1789740869801910500,3.67391064453125,0.8398696184158325,0.11848451942205429,-0.08458589017391205
1789740869811988500,3.683988525390625,0.7546396255493164,0.06672491878271103,-0.16583174467086792
1789740869822066400,3.69406640625,0.618003249168396,-0.08033403754234314,-0.22751589119434357
1789740869832143400,3.704143310546875,0.4982914924621582,-0.23409909009933472,-0.252647340297699
1789740869842221300,3.71422119140625,0.38224664330482483,-0.28508877754211426,-0.2602144479751587
1789740869852299500,3.724299560546875,0.2283087521791458,-0.22158196568489075,-0.2859025001525879
1789740869862376400,3.73437646484375,0.08017175644636154,-0.14401286840438843,-0.3425934612751007
1789740869872454400,3.744454345703125,-0.004413971211761236,-0.19144698977470398,-0.44187718629837036
1789740869882532400,3.754532470703125,-0.04019220918416977,-0.15385618805885315,-0.5247324109077454
1789740869892609300,3.764609375,-0.05212423577904701,-0.11300356686115265,-0.5485562086105347
1789740869902687200,3.774687255859375,-0.05729476362466812,-0.024403126910328865,-0.5623838901519775
1789740869912765200,3.78476513671875,-0.21856807172298431,-0.21612516045570374,-0.5390207767486572
1789740869922842400,3.79484228515625,-0.264335572719574,-0.29780322313308716,-0.4722422659397125
1789740869932920300,3.80492041015625,-0.146827831864357,0.06124067306518555,-0.266134113073349
1789740869942998500,3.81499853515625,-0.07163268327713013,0.558746337890625,-0.007229583337903023
1789740869953075500,3.825075439453125,-0.05355062335729599,0.7555699348449707,0.15549248456954956
1789740869963153400,3.8351533203125,-0.043422356247901917,0.5672348737716675,0.21852551400661469
1789740869973231400,3.8452314453125,-0.023613233119249344,0.2116411030292511,0.25599247217178345
1789740869983308300,3.855308349609375,-0.03402299806475639,0.07972273975610733,0.2702387869358063
1789740869993386200,3.86538623046875,-0.07813559472560883,0.18256551027297974,0.26375532150268555
1789740870003464200,3.875464111328125,-0.1447274088859558,0.1504318118095398,0.33450430631637573
1789740870013541000,3.885541015625,-0.2152809351682663,0.002590406686067581,0.4073295295238495
1789740870023619300,3.895619384765625,-0.4306609034538269,-0.04237467050552368,0.43435660004615784
1789740870033697300,3.905697265625,-0.5270342826843262,0.8547854423522949,0.5144317150115967
1789740870043774500,3.9157744140625,-0.5772975087165833,0.6864129304885864,0.4424781799316406
1789740870053852400,3.925852294921875,-0.6476911902427673,0.3186301290988922,0.275788277387619
1789740870063930400,3.935930419921875,-0.6809397339820862,-0.0859365314245224,0.07156509906053543
1789740870074007300,3.94600732421875,-0.7280795574188232,-0.5246795415878296,-0.1403607428073883
1789740870084085200,3.956085205078125,-0.7678389549255371,-0.6791905164718628,-0.3251715898513794
1789740870094163500,3.96616357421875,-0.7577274441719055,-0.8489031195640564,-0.4001113474369049
1789740870104240400,3.976240478515625,-0.7244510054588318,-1.0510262250900269,-0.38352730870246887
1789740870114318300,3.986318359375,-0.6355751752853394,-0.9065882563591003,-0.2612096667289734
1789740870124396300,3.996396240234375,-0.47568535804748535,-0.6616605520248413,-0.05558246746659279
1789740870134474200,4.00647412109375,-0.31088337302207947,-0.36670801043510437,0.17387574911117554
1789740870144551200,4.01655126953125,-0.17133238911628723,-0.06918418407440186,0.42351034283638
1789740870154629000,4.026629150390625,-0.005619584117084742,0.4280189573764801,0.6319016218185425
1789740870164707300,4.036707275390625,0.16836100816726685,0.8715449571609497,0.8044204115867615
1789740870174784500,4.046784423828125,0.3167397975921631,0.9564942121505737,0.8933806419372559
1789740870184862500,4.056862548828125,0.3838256299495697,1.1569551229476929,0.861473560333252
1789740870194940400,4.0669404296875,0.36834388971328735,0.9570649266242981,0.7575104236602783
1789740870205017300,4.077017333984375,0.2527000904083252,0.7447191476821899,0.6139258146286011
1789740870215095300,4.08709521484375,0.14766797423362732,0.6312905550003052,0.4806263744831085
1789740870225173200,4.09717333984375,0.24272604286670685,0.8926398754119873,0.13082894682884216
1789740870235250200,4.107250244140625,0.31715020537376404,0.16882118582725525,-0.040764905512332916
1789740870245328400,4.117328369140625,0.3176079988479614,-0.4347568154335022,-0.18001094460487366
1789740870255406300,4.12740625,0.23588359355926514,-0.5590630769729614,-0.26254791021347046
1789740870265483300,4.137483154296875,0.17603036761283875,-0.30144351720809937,-0.23404516279697418
1789740870275561200,4.147561279296875,0.07829369604587555,2.8516201972961426,0.9671568870544434
1789740870285639200,4.15763916015625,0.3257727026939392,3.0280394554138184,1.147598385810852
1789740870295716400,4.16771630859375,0.3236435055732727,2.1506810188293457,0.7877647280693054
1789740870305794300,4.177794189453125,0.07950197160243988,0.1324717104434967,-0.1401974856853485
1789740870315872500,4.18787255859375,-0.07558881491422653,-0.11138729751110077,-0.46711835265159607
1789740870325949400,4.197949462890625,-0.1797892451286316,-0.030725471675395966,-0.39643698930740356
1789740870336027400,4.20802734375,-0.38715335726737976,-0.046498045325279236,-0.17724180221557617
1789740870346105300,4.218105224609375,-0.35407957434654236,0.045272890478372574,-0.17737255990505219
1789740870356183800,4.228183837890625,-0.3568900227546692,-0.04027636721730232,-0.13562777638435364
1789740870366260700,4.2382607421875,-0.3158906400203705,-0.07012481242418289,-0.06040119379758835
1789740870376338700,4.248338623046875,-0.18067795038223267,-0.08938825130462646,-0.06290296465158463
1789740870386417000,4.2584169921875,-0.10229605436325073,-0.06016192585229874,-0.1053478941321373
1789740870396493800,4.268493896484375,-0.04671109467744827,-0.03450050204992294,-0.12869477272033691
1789740870406571800,4.27857177734375,-0.0206331554800272,-0.01919611543416977,-0.17483775317668915
1789740870416649700,4.288649658203125,-0.0007268248009495437,-0.01818731054663658,-0.2099829614162445
1789740870426727000,4.298726806640625,0.006644005887210369,-0.03518546745181084,-0.22454619407653809
1789740870436804900,4.308804931640625,-0.02124674804508686,-0.046724945306777954,-0.2203218936920166
1789740870446882800,4.3188828125,-0.0482029989361763,-0.05204194411635399,-0.22584715485572815
1789740870456959700,4.328959716796875,-0.047995537519454956,-0.05007653310894966,-0.2867824137210846
1789740870467038000,4.339037841796875,-0.04595662280917168,-0.053835317492485046,-0.421133816242218
1789740870477116000,4.349115966796875,-0.11884600669145584,-0.05445609986782074,-0.5848881602287292
1789740870487192800,4.35919287109375,-0.21599306166172028,-0.048048004508018494,-0.7198323607444763
1789740870497270800,4.369270751953125,-0.2976096272468567,-0.036976978182792664,-0.832818865776062
1789740870507348700,4.3793486328125,-0.4107034504413605,-0.021833976730704308,-0.94908207654953
1789740870517425700,4.38942578125,-0.49426090717315674,1.13468337059021,-0.5953567624092102
1789740870527503600,4.399503662109375,-0.1621919572353363,-0.06284460425376892,-0.07361796498298645
1789740870537581800,4.409581787109375,0.04279448091983795,-0.06311331689357758,-0.09827244281768799
1789740870547659000,4.419658935546875,-0.05258290469646454,-0.05007341876626015,-0.13053876161575317
1789740870557737000,4.429737060546875,-0.09251008182764053,-0.053492918610572815,-0.11375100165605545
1789740870567815000,4.43981494140625,-0.060846958309412,-0.05140446498990059,-0.10163041949272156
1789740870577892900,4.449892822265625,-0.016773775219917297,-0.04213080555200577,-0.08720167726278305
1789740870587969800,4.4599697265625,0.016820671036839485,-0.02571161836385727,-0.07654504477977753
1789740870598047700,4.4700478515625,0.026995277032256126,-0.022395716980099678,-0.06791426986455917
1789740870608126000,4.4801259765625,0.016468601301312447,-0.008041811175644398,-0.06428491324186325
1789740870618203000,4.490202880859375,0.01900872401893139,-0.00035353144630789757,-0.051184553653001785
1789740870628280800,4.50028076171875,0.04151536524295807,-0.0006518056616187096,-0.041730064898729324
1789740870638358800,4.51035888671875,0.04598841071128845,0.000543421134352684,-0.03707938641309738
1789740870648435700,4.520435791015625,0.02299041673541069,-0.0015548835508525372,-0.023694874718785286
1789740870658513700,4.530513671875,-0.0048518674448132515,0.005384515505284071,-0.01698663830757141
1789740870668591600,4.540591552734375,-0.01890616863965988,0.018890470266342163,-0.023816315457224846
1789740870678668800,4.550668701171875,-0.011326811276376247,0.027819516137242317,-0.032766666263341904
1789740870688747000,4.5607470703125,0.02123592607676983,0.025111349299550056,-0.0351099818944931
1789740870698825000,4.570824951171875,0.04978128522634506,0.029683729633688927,-0.03467641770839691
1789740870708902000,4.58090185546875,0.07209856808185577,0.0414477102458477,-0.04365100339055061
1789740870718979800,4.590979736328125,0.06595253199338913,0.04947847127914429,-0.06604047119617462
1789740870729057800,4.601057861328125,0.0376758873462677,0.07250150293111801,-0.10931950062513351
1789740870739134700,4.611134765625,-0.010897509753704071,0.08099139481782913,-0.15423265099525452
1789740870749212700,4.621212646484375,-0.016094401478767395,0.08905384689569473,-0.16977138817310333
1789740870759291000,4.631290771484375,0.018814045935869217,0.06264088302850723,-0.13089829683303833
1789740870769367800,4.641367919921875,0.04640546068549156,0.07132944464683533,-0.12623217701911926
1789740870779445800,4.65144580078125,0.131966695189476,0.06892194598913193,-0.09809507429599762
1789740870789523700,4.661523681640625,0.22099538147449493,0.0683395117521286,-0.06930071115493774
1789740870799602000,4.671601806640625,0.25999924540519714,0.07775405794382095,-0.05008786544203758
1789740870809678800,4.681678955078125,0.27221089601516724,0.08965811878442764,-0.032359201461076736
1789740870819756800,4.6917568359375,0.22230485081672668,0.0992971658706665,-0.02317928709089756
1789740870829835000,4.7018349609375,0.16685117781162262,0.1046927273273468,-0.022252507507801056
1789740870839912000,4.711911865234375,0.13048438727855682,0.10874952375888824,-0.02095608040690422
1789740870849990000,4.721989990234375,0.08643011003732681,0.11050134897232056,-0.014263023622334003
1789740870860067800,4.73206787109375,0.058094341307878494,0.1164306104183197,-0.013898436911404133
1789740870870144800,4.742144775390625,0.04867261275649071,0.11555629223585129,-0.007717772386968136
1789740870880222700,4.75222265625,0.04346054047346115,0.11495202034711838,0.0004392235423438251
1789740870890300700,4.76230078125,0.04822839796543121,0.10667438805103302,0.011780827306210995
1789740870900377900,4.7723779296875,0.06072501465678215,0.11125049740076065,-0.0030756164342164993
1789740870910456000,4.7824560546875,0.043967071920633316,0.10468846559524536,-0.004882837645709515
1789740870920534000,4.792533935546875,0.03453575447201729,0.10626399517059326,-0.009096757508814335
1789740870930611000,4.80261083984375,0.032417476177215576,0.0989253893494606,-0.010336458683013916
1789740870940689000,4.81268896484375,0.037648990750312805,0.08809936791658401,-0.01186697743833065
1789740870950766800,4.822766845703125,0.07412523776292801,0.07440593093633652,-0.01438872516155243
1789740870960843800,4.83284375,0.08504047244787216,0.05936465784907341,-0.048841506242752075
1789740870970921700,4.842921630859375,0.03609450161457062,0.05806263908743858,-0.06741439551115036
1789740870981000000,4.853,-0.09244536608457565,0.046694669872522354,-0.07885053753852844
1789740870991078000,4.863077880859375,0.2741238474845886,-0.07423361390829086,0.19669821858406067
1789740871001154800,4.87315478515625,0.02309853956103325,0.03230614215135574,0.01015390269458294
1789740871011232800,4.883232666015625,0.010104444809257984,0.01689469814300537,-0.0087071368470788
1789740871021310700,4.893310791015625,0.007550473790615797,0.01905585266649723,-0.001545896753668785
1789740871031388000,4.903387939453125,-0.0012691168813034892,0.01742573268711567,0.0028584389947354794
1789740871041465900,4.9134658203125,-0.003940267488360405,0.0143633633852005,0.013023458421230316
1789740871051544000,4.9235439453125,-0.0025439723394811153,0.007809057366102934,0.008446283638477325
1789740871061621000,4.93362109375,0.0035165834706276655,0.004307533148676157,0.013831195421516895
1789740871071699000,4.943698974609375,0.0068937381729483604,0.00721117714419961,0.009336311370134354
1789740871081777000,4.95377685546875,0.0037823671009391546,0.011994481086730957,0.003191067837178707
1789740871091853800,4.963853759765625,0.03713073953986168,-0.03553761914372444,0.020602015778422356
1789740871101931800,4.973931884765625,0.11994092911481857,0.0059333923272788525,0.18731190264225006
1789740871112009700,4.984009765625,0.136206716299057,0.003036672715097666,0.3073248565196991
1789740871122086700,4.994086669921875,0.07231375575065613,0.01791575364768505,0.2671244442462921
1789740871132164600,5.00416455078125,0.05758621171116829,0.03434745594859123,0.2535444498062134
1789740871142242800,5.014242919921875,-0.5671170353889465,-0.21455371379852295,-0.2960646152496338
1789740871152320800,5.02432080078125,-0.5543906092643738,-0.1011190190911293,-0.30347326397895813
1789740871162398000,5.03439794921875,-0.5318973064422607,-0.09791337698698044,-0.250174343585968
1789740871172476000,5.044475830078125,-0.4905290901660919,-0.04716018587350845,-0.206855908036232
1789740871182553900,5.054553955078125,-0.33912917971611023,-0.04573938995599747,-0.14148995280265808
1789740871192630800,5.064630859375,-0.017006535083055496,-0.04562487453222275,-0.054674360901117325
1789740871202708700,5.074708740234375,-0.007456705439835787,-0.04278754070401192,-0.006712162867188454
1789740871212787000,5.084786865234375,-0.012752401642501354,-0.021430853754281998,-0.0070298779755830765
1789740871222864000,5.09486376953125,-0.013639500364661217,-0.014576142653822899,0.0062979115173220634
1789740871232941800,5.10494189453125,-0.010837588459253311,-0.013070125132799149,0.005987120792269707
1789740871243019800,5.115019775390625,-0.019179673865437508,-0.0073248883709311485,0.006613762117922306
1789740871253096700,5.1250966796875,-0.023545127362012863,-0.014848051592707634,0.005720804445445538
1789740871263174700,5.135174560546875,-0.02732628397643566,-0.009846635162830353,0.006410829722881317
1789740871273252600,5.145252685546875,-0.02183404751121998,-0.008042343892157078,0.0034326165914535522
1789740871283330800,5.155330810546875,-0.011788603849709034,-0.011140931397676468,0.0015060858568176627
1789740871293408000,5.165407958984375,-0.011352644301950932,-0.010274872183799744,-0.004371510818600655
1789740871303486000,5.17548583984375,-0.012927371077239513,-0.01343604363501072,-0.006079129874706268
1789740871313564000,5.18556396484375,-0.014105021022260189,-0.006704638246446848,-0.0034295504447072744
1789740871323640800,5.195640869140625,-0.016957532614469528,-0.003575157606974244,-0.0009253801545128226
1789740871333718800,5.20571875,-0.019167423248291016,-0.0052164639346301556,0.0051306476816535
1789740871343796700,5.215796630859375,-0.019055305048823357,-0.0073850760236382484,0.005170595832169056
1789740871353873000,5.225872802734375,-0.012959595769643784,-0.01740202307701111,0.0052150702103972435
1789740871363950800,5.235950927734375,-0.011392857879400253,-0.026281002908945084,0.0044699180871248245
1789740871374029000,5.246029052734375,-0.011457572691142559,-0.03745562955737114,0.005156214348971844
1789740871384106200,5.256106201171875,-0.013575051911175251,-0.041214413940906525,0.005217467434704304
1789740871394184200,5.26618408203125,-0.018329327926039696,-0.04497932270169258,0.007016166113317013
1789740871404262100,5.27626220703125,-0.020267842337489128,-0.04273774102330208,0.008623383939266205
1789740871414339000,5.286339111328125,-0.02153444103896618,-0.0430474653840065,0.00823429599404335
1789740871424417000,5.2964169921875,-0.02003614790737629,-0.044164396822452545,0.0026978503447026014
1789740871434495000,5.306494873046875,-0.014411018230021,-0.04702995717525482,0.0020150160416960716
1789740871444573200,5.3165732421875,-0.010981665924191475,-0.0498393252491951,0.00022270853514783084
1789740871454650000,5.326650146484375,-0.011484736576676369,-0.04994771629571915,-0.0027227476239204407
1789740871464728000,5.33672802734375,-0.01563900150358677,-0.051016710698604584,0.00040753191569820046
1789740871474806000,5.346805908203125,-0.017057934775948524,-0.05393500253558159,0.0025817365385591984
1789740871484883000,5.356883056640625,-0.016743414103984833,-0.055309195071458817,0.005772203207015991
1789740871494961000,5.3669609375,-0.017015855759382248,-0.047527704387903214,0.007423629984259605
1789740871505039000,5.3770390625,-0.0140144731849432,-0.048606015741825104,0.00362249999307096
1789740871515116000,5.387115966796875,-0.012131884694099426,-0.04478944092988968,0.0031471257098019123
1789740871525194200,5.3971943359375,-0.007726217154413462,-0.04071427136659622,0.0021010360214859247
1789740871535272200,5.407272216796875,-0.00873607862740755,-0.03708993270993233,0.003117019310593605
1789740871545349000,5.41734912109375,-0.008932353928685188,-0.03145867958664894,0.0006698406068608165
1789740871555427000,5.427427001953125,-0.007669216953217983,-0.02494378760457039,0.0011348285479471087
1789740871565505000,5.437505126953125,-0.0003457901475485414,-0.022048931568861008,0.00044080879888497293
1789740871575583000,5.4475830078125,-0.00033007748425006866,-0.020155157893896103,0.003771624295040965
1789740871585660000,5.457659912109375,0.0018662314396351576,-0.014874109998345375,0.0023212668020278215
1789740871595738000,5.467738037109375,0.0036593377590179443,-0.01460539735853672,0.0023090161848813295
1789740871605816000,5.477816162109375,0.002802332630380988,-0.010015172883868217,0.000292204407742247
1789740871615893200,5.487893310546875,0.006890550721436739,-0.00846095196902752,0.0035915947519242764
1789740871625971200,5.49797119140625,0.008649036288261414,-0.0014626970514655113,0.0015247154515236616
1789740871636049200,5.508049072265625,0.012372668832540512,0.004051644820719957,0.0015627986285835505
1789740871646126000,5.5181259765625,0.01945880800485611,0.009271439164876938,-0.0004462901852093637
1789740871656204000,5.5282041015625,0.02275713160634041,0.015018807724118233,-0.0017104926519095898
1789740871666282200,5.5382822265625,0.02215792052447796,0.01976908929646015,-0.00034429109655320644
1789740871676359200,5.548359130859375,0.027067724615335464,0.02295662648975849,-0.0003701237728819251
1789740871686437000,5.55843701171875,0.02667703852057457,0.02721395716071129,0.0002517243556212634
1789740871696515000,5.56851513671875,0.02607410028576851,0.03083718568086624,0.0002655728021636605
1789740871706593000,5.578593017578125,0.0302994716912508,0.02974928542971611,-0.0005592082161456347
1789740871716670000,5.588669921875,0.034825246781110764,0.02919641137123108,-0.0034404820762574673
1789740871726748000,5.598747802734375,0.03978138789534569,0.03082200512290001,-0.002326481742784381
1789740871736826000,5.608826171875,0.04074545204639435,0.03154079243540764,0.002084778156131506
1789740871746903300,5.6189033203125,0.04076036438345909,0.03353390470147133,0.00250662281177938
1789740871756981200,5.628981201171875,0.04230766370892525,0.036625832319259644,0.00341848935931921
1789740871767059200,5.63905908203125,0.043124984949827194,0.035356305539608,0.001135893864557147
1789740871777136000,5.64913623046875,0.0441921167075634,0.03943999484181404,0.0018235219176858664
1789740871787214000,5.659214111328125,0.04316014051437378,0.03942028805613518,-0.0007517546764574945
1789740871797292000,5.6692919921875,0.04744197055697441,0.04028687998652458,-0.0016361905727535486
1789740871807369000,5.679368896484375,0.049803394824266434,0.04176493361592293,0.0018237882759422064
1789740871817447200,5.689447265625,0.047525059431791306,0.03999233618378639,0.0008370871655642986
1789740871827525000,5.699525146484375,0.04660706967115402,0.03617202863097191,0.0004698372504208237
1789740871837603000,5.70960302734375,0.04708617180585861,0.040362246334552765,-0.0008148716879077256
1789740871847680000,5.719679931640625,0.04545658454298973,0.039043981581926346,0.0014291079714894295
1789740871857758000,5.729758056640625,0.0434805192053318,0.03467639908194542,-0.0008971633506007493
1789740871867836000,5.7398359375,0.045172691345214844,0.033739231526851654,-0.0019088981207460165
1789740871877913000,5.7499130859375,0.044885337352752686,0.033325642347335815,-0.002056970028206706
1789740871887991300,5.7599912109375,0.04122056066989899,0.03328942507505417,0.001043482217937708
1789740871898069200,5.7700693359375,0.041816841810941696,0.034048158675432205,-0.00006945285713300109
1789740871908146200,5.780146240234375,0.038675375282764435,0.033563464879989624,0.0021329813171178102
1789740871918224100,5.79022412109375,0.03580288961529732,0.03154505416750908,-0.0005402997485361993
1789740871928302000,5.800302001953125,0.03328939899802208,0.03294294700026512,0.0016839723102748394
1789740871938380000,5.810380126953125,0.03315650671720505,0.02986513078212738,-0.0005325765814632177
1789740871948457000,5.82045703125,0.030248871073126793,0.02811143919825554,-0.0007008883985690773
1789740871958535200,5.83053515625,0.026108188554644585,0.023714562878012657,-0.0022633648477494717
1789740871968613000,5.840613037109375,0.023027975112199783,0.025089818984270096,-0.0021741490345448256
1789740871978690000,5.85068994140625,0.01939196139574051,0.024044793099164963,-0.001410620752722025
1789740871988768000,5.86076806640625,0.01626141555607319,0.02698305994272232,0.0006959396414458752
1789740871998846000,5.870845947265625,0.013586803339421749,0.02968377247452736,-0.0003000826109200716
1789740872008923100,5.880923095703125,0.011300213634967804,0.03162255138158798,-0.0007578799850307405
1789740872019001000,5.8910009765625,0.011951356194913387,0.028387878090143204,-0.0014159472193568945
1789740872029079300,5.901079345703125,0.006595206446945667,0.02703552320599556,-0.006423489190638065
1789740872039157200,5.9111572265625,0.0034042070619761944,0.02535933069884777,-0.005522541701793671
1789740872049234200,5.921234130859375,-0.00030238062026910484,0.019856706261634827,-0.00430121598765254
1789740872059312000,5.93131201171875,-0.0029602153226733208,0.017026565968990326,-0.0008060832624323666
1789740872069390000,5.94139013671875,-0.005381295457482338,0.019062818959355354,-0.0006582778296433389
1789740872079467000,5.951467041015625,-0.009330762550234795,0.013124767690896988,-0.0017664190381765366
1789740872089545000,5.961544921875,-0.011715889908373356,0.01097053661942482,-0.0025698947720229626
1789740872099623000,5.971622802734375,-0.013679438270628452,0.006038096267729998,-0.0027038517873734236
1789740872109700000,5.9817001953125,-0.017884835600852966,0.0032755988650023937,-0.0034529990516602993
1789740872119778000,5.991778076171875,-0.023067347705364227,0.0010212333872914314,-0.004622659645974636
1789740872129856000,6.00185595703125,-0.025212790817022324,-0.0014238147996366024,-0.002743266522884369
1789740872139933200,6.01193310546875,-0.029241353273391724,-0.0067525338381528854,-0.00538459001109004
1789740872150011100,6.02201123046875,-0.0275901947170496,-0.0149002093821764,-0.0023581734858453274
1789740872160089000,6.032089111328125,-0.031348180025815964,-0.017876025289297104,-0.002633544383570552
1789740872170167000,6.0421669921875,-0.03571097180247307,-0.020841455087065697,-0.0034974736627191305
1789740872180244000,6.052243896484375,-0.03778664022684097,-0.02218688279390335,-0.0021533763501793146
1789740872190322200,6.062322265625,-0.03848332166671753,-0.024918487295508385,-0.0014127513859421015
1789740872200400100,6.072400146484375,-0.042435720562934875,-0.031043758615851402,-0.0035190454218536615
1789740872210477000,6.08247705078125,-0.0472927950322628,-0.036659564822912216,-0.004947298672050238
1789740872220555000,6.092554931640625,-0.05070536956191063,-0.0447358675301075,-0.00484157120808959
1789740872230633000,6.102633056640625,-0.057717204093933105,-0.056999992579221725,-0.0014817272312939167
1789740872240711000,6.1127109375,-0.05715394765138626,-0.08890838921070099,-0.0020878626964986324
1789740872250788000,6.1227880859375,-0.04842942953109741,-0.09705446660518646,0.006084579508751631
1789740872260866000,6.132865966796875,-0.06786411255598068,-0.10388148576021194,0.002772406442090869
1789740872270944000,6.142944091796875,-0.06966840475797653,-0.09583128243684769,-0.006686076521873474
1789740872281021200,6.153021240234375,-0.033169250935316086,-0.05902585759758949,0.018837658688426018
1789740872291099100,6.16309912109375,-0.037864405661821365,-0.01797056756913662,-0.009013945236802101
1789740872301177000,6.173177001953125,-0.06312821060419083,0.030129585415124893,0.002174793044105172
1789740872311254000,6.18325390625,-0.038632459938526154,-0.03668832778930664,-0.029973024502396584
1789740872321332000,6.19333203125,0.020854836329817772,-0.13403671979904175,-0.00027158681768924
1789740872331410200,6.20341015625,-0.024691876024007797,-0.14107678830623627,0.008779965341091156
1789740872341488000,6.213488037109375,-0.04601287841796875,-0.05786285549402237,0.005922126583755016
1789740872351565000,6.22356494140625,-0.03366753086447716,-0.03512878343462944,0.020383091643452644
1789740872361643000,6.23364306640625,-0.011538789607584476,-0.04738651216030121,0.01229853369295597
1789740872371721000,6.243720947265625,-0.004900861065834761,-0.054230302572250366,0.009223381988704205
1789740872381798100,6.253798095703125,0.015295754186809063,-0.05646416172385216,0.002317804843187332
1789740872391876000,6.2638759765625,0.02162502333521843,-0.04386181756854057,-0.0055790008045732975
1789740872401954000,6.2739541015625,0.02151503413915634,-0.013685008510947227,-0.005192575976252556
1789740872412031200,6.28403125,0.0250578373670578,-0.01966646872460842,-0.0005709261167794466
1789740872422109200,6.294109130859375,0.01461451780050993,-0.04535318911075592,0.002037906553596258
1789740872432187100,6.304187255859375,0.009335599839687347,-0.04984753951430321,0.019006770104169846
1789740872442265000,6.31426513671875,0.0363142192363739,-0.04072275012731552,0.016721244901418686
1789740872452342000,6.324342041015625,0.058234162628650665,-0.025960050523281097,0.017326047644019127
1789740872462420000,6.334419921875,0.06265021860599518,-0.00759222824126482,0.010666015557944775
1789740872472498200,6.344498291015625,0.07023011147975922,-0.0018951944075524807,0.009705946780741215
1789740872482575000,6.3545751953125,0.08076024800539017,0.004734212998300791,0.0018277831841260195
1789740872492653000,6.364653076171875,0.07561129331588745,0.020828761160373688,0.0027857222594320774
1789740872502731000,6.37473095703125,0.07293162494897842,0.04468535631895065,0.0033324691466987133
1789740872512808200,6.38480810546875,0.0852801650762558,0.053671929985284805,0.003391058649867773
1789740872522886100,6.39488623046875,0.11138154566287994,0.029943164438009262,0.0088630560785532
1789740872532964000,6.404964111328125,0.11678509414196014,0.010589705780148506,0.01601843535900116
1789740872543042300,6.415042236328125,0.1011277437210083,0.021180490031838417,0.01293421071022749
1789740872553119200,6.425119140625,0.10152668505907059,0.024738207459449768,0.01498218160122633
1789740872563197200,6.435197265625,0.1110440194606781,0.03421453386545181,0.012006632052361965
1789740872573275100,6.445275146484375,0.11367122828960419,0.04479074478149414,0.006683771964162588
1789740872583352000,6.45535205078125,0.11715544760227203,0.06376922875642776,0.0042038364335894585
1789740872593430000,6.465429931640625,0.13427691161632538,0.06732907891273499,0.005937021691352129
1789740872603508000,6.475508056640625,0.14831548929214478,0.08114795386791229,0.009285946376621723
1789740872613585000,6.4855849609375,0.1473647505044937,0.09839724749326706,0.011797307059168816
1789740872623663000,6.4956630859375,0.13938751816749573,0.09848007559776306,0.007191637065261602
1789740872633741000,6.505740966796875,0.13853716850280762,0.08549902588129044,0.006018780637532473
1789740872643819000,6.515819091796875,0.13698826730251312,0.07280746847391129,0.008832676336169243
1789740872653896200,6.525896240234375,0.13331151008605957,0.0650390237569809,0.011373864486813545
1789740872663974100,6.53597412109375,0.1416248381137848,0.05404416471719742,0.010191154666244984
1789740872674052000,6.546052001953125,0.1544245183467865,0.04461311176419258,0.01005373615771532
1789740872684129000,6.55612890625,0.1447678953409195,0.029275700449943542,0.009770109318196774
1789740872694207200,6.566207275390625,0.12426155805587769,0.01963905245065689,0.02108295075595379
1789740872704285200,6.57628515625,0.12956497073173523,-0.03156101703643799,0.028527019545435905
1789740872714363100,6.586363037109375,0.1684655100107193,-0.026861870661377907,0.036835283041000366
1789740872724440000,6.596440185546875,0.16172051429748535,0.029769450426101685,0.04233577474951744
1789740872734518000,6.60651806640625,0.15299493074417114,0.15786616504192352,0.008756776340305805
1789740872744596000,6.616595947265625,0.182760551571846,0.24328012764453888,-0.003907885868102312
1789740872754673000,6.6266728515625,0.2101019024848938,0.24023054540157318,-0.021719373762607574
1789740872764751000,6.636751220703125,0.21863679587841034,0.21635077893733978,-0.002937696175649762
1789740872774829000,6.6468291015625,0.21319462358951569,0.21499629318714142,0.0060363574884831905
1789740872784906200,6.65690625,0.21747352182865143,0.23841586709022522,0.00794318038970232
1789740872794984200,6.666984130859375,0.19917601346969604,0.2787313163280487,0.0003747435403056443
1789740872805062100,6.677062255859375,0.20768322050571442,0.3102889657020569,-0.0004732069210149348
1789740872815140000,6.68714013671875,0.22342249751091003,0.32091793417930603,-0.000414617417845875
1789740872825217000,6.697217041015625,0.24497705698013306,0.32340237498283386,-0.007363869808614254
1789740872835295200,6.707295166015625,0.25353965163230896,0.33799970149993896,-0.011855823919177055
1789740872845373200,6.717373291015625,0.25176677107810974,0.35768604278564453,-0.018223708495497704
1789740872855450000,6.7274501953125,0.22142165899276733,0.37489140033721924,-0.017044194042682648
1789740872865528000,6.737528076171875,0.20340031385421753,0.3894796669483185,-0.01155435387045145
1789740872875606000,6.74760595703125,0.21922695636749268,0.3940557837486267,-0.0056730289943516254
1789740872885684000,6.75768408203125,0.230132058262825,0.3948368728160858,-0.004927343688905239
1789740872895761000,6.767760986328125,0.22855760157108307,0.402258038520813,-0.009844338521361351
1789740872905838800,6.7778388671875,0.2301967740058899,0.4078216552734375,-0.012624146416783333
1789740872915917000,6.7879169921875,0.2324785739183426,0.41063663363456726,-0.01675524190068245
1789740872925994200,6.797994140625,0.23146790266036987,0.41836297512054443,-0.021075155586004257
1789740872936072200,6.808072265625,0.2252907007932663,0.435543030500412,-0.01963811367750168
1789740872946150100,6.818150146484375,0.2220134139060974,0.4544493556022644,-0.01945595256984234
1789740872956227000,6.82822705078125,0.21932682394981384,0.4715585708618164,-0.01173598226159811
1789740872966305000,6.838304931640625,0.23010437190532684,0.48897722363471985,-0.014127233996987343
1789740872976383000,6.848383056640625,0.23564641177654266,0.49459677934646606,-0.015771469101309776
1789740872986461200,6.858461181640625,0.23756708204746246,0.49875372648239136,-0.018580039963126183
1789740872996538000,6.8685380859375,0.23277339339256287,0.4930548071861267,-0.02464032918214798
1789740873006616000,6.878615966796875,0.2183542400598526,0.4806945323944092,-0.027308283373713493
1789740873016694000,6.888694091796875,0.20934662222862244,0.4648948013782501,-0.023329520598053932
1789740873026771000,6.89877099609375,0.20952372252941132,0.4409433901309967,-0.020514292642474174
1789740873036849000,6.908848876953125,0.2131112664937973,0.42947182059288025,-0.0120398486033082
1789740873046926800,6.9189267578125,0.21274109184741974,0.42526775598526,-0.003584844060242176
1789740873057004000,6.929004150390625,0.21654142439365387,0.4330657720565796,-0.004443713929504156
1789740873067082200,6.939082275390625,0.220697820186615,0.44147950410842896,-0.0079431077465415
1789740873077160200,6.94916015625,0.22299613058567047,0.4468708038330078,-0.010803342796862125
1789740873087238100,6.959238037109375,0.21059004962444305,0.4503542184829712,-0.013903528451919556
1789740873097315000,6.969315185546875,0.21020522713661194,0.4523068368434906,-0.020899919793009758
1789740873107393000,6.97939306640625,0.2229415327310562,0.44571152329444885,-0.013669436797499657
1789740873117471000,6.989470947265625,0.19019024074077606,0.372030645608902,-0.09586683660745621
1789740873127548000,6.9995478515625,0.2722739279270172,0.4085697531700134,-0.02289569191634655
1789740873137626000,7.009626220703125,0.23057281970977783,0.39932698011398315,-0.12342149764299393
1789740873147704000,7.0197041015625,0.2187505066394806,0.40515291690826416,-0.0006481765885837376
1789740873157782000,7.029781982421875,0.18145108222961426,0.4096054434776306,0.012093450874090195
1789740873167859200,7.039859130859375,0.23800809681415558,0.4164809286594391,0.05016946420073509
1789740873177937200,7.049937255859375,0.2403159886598587,0.4318920969963074,0.06905979663133621
1789740873188015000,7.06001513671875,0.23645786941051483,0.4148329794406891,0.042734451591968536
1789740873198092000,7.070092041015625,0.23710927367210388,0.4306793212890625,0.013015170581638813
1789740873208170200,7.080170166015625,0.2286159247159958,0.46243324875831604,-0.01435466855764389
1789740873218248200,7.090248291015625,0.20729678869247437,0.47968652844429016,-0.03542213514447212
1789740873228326100,7.100326171875,0.16919387876987457,0.4816402196884155,-0.045006588101387024
1789740873238403000,7.110403076171875,0.13589636981487274,0.44714295864105225,-0.027425462380051613
1789740873248481000,7.12048095703125,0.12283623218536377,0.4093910753726959,-0.000253762467764318
1789740873258559000,7.13055908203125,0.12167242914438248,0.38458240032196045,0.02795710228383541
1789740873268636000,7.140635986328125,0.11127891391515732,0.39019179344177246,0.03913145884871483
1789740873278714000,7.150714111328125,0.09621766954660416,0.38445454835891724,0.04339304938912392
1789740873288792000,7.1607919921875,0.08392158895730972,0.3343767523765564,0.025441214442253113
1789740873298869200,7.170869140625,0.07587538659572601,0.28197184205055237,0.009952003136277199
1789740873308947200,7.180947265625,0.0672917515039444,0.22736135125160217,-0.005602987948805094
1789740873319025200,7.191025146484375,0.04315498471260071,0.19425374269485474,-0.015510214492678642
1789740873329103000,7.20110302734375,0.014142774976789951,0.19012024998664856,-0.01287741307169199
1789740873339180000,7.211179931640625,0.013224516995251179,0.17768673598766327,-0.006041876506060362
1789740873349258200,7.22125830078125,0.02397330105304718,0.1523939073085785,0.009467307478189468
1789740873359337000,7.2313369140625,0.028827179223299026,0.1389036625623703,0.021713854745030403
1789740873369414000,7.241413818359375,0.020747413858771324,0.13074693083763123,0.024604715406894684
1789740873379491800,7.251491943359375,0.0097437659278512,0.10651030391454697,0.016026407480239868
1789740873389569800,7.26156982421875,-0.008200081065297127,0.07017119973897934,0.003391838865354657
1789740873399647700,7.271647705078125,-0.015176231041550636,0.038619667291641235,-0.012915229424834251
1789740873409724700,7.281724609375,-0.020390700548887253,0.007162942085415125,-0.013938149437308311
1789740873419802600,7.291802734375,-0.02537720277905464,0.0020733745768666267,-0.01500953920185566
1789740873429880800,7.301880859375,-0.014419094659388065,0.023328330367803574,-0.001752589363604784
1789740873439957800,7.311957763671875,0.003590797772631049,0.05512354522943497,0.006975121796131134
1789740873450035700,7.32203564453125,0.020770050585269928,0.09548667818307877,0.010909142903983593
1789740873460113700,7.33211376953125,0.030131328850984573,0.1357100009918213,0.019993185997009277
1789740873470191600,7.342191650390625,0.027872702106833458,0.1555769145488739,0.02368459291756153
1789740873480268800,7.352268798828125,0.021431580185890198,0.16987702250480652,0.020176144316792488
1789740873490346800,7.3623466796875,0.01886189728975296,0.1750699281692505,0.004232864826917648
1789740873500425000,7.372425048828125,0.026525408029556274,0.18515531718730927,-0.010785499587655067
1789740873510502000,7.382501953125,0.027629822492599487,0.20394444465637207,-0.015957891941070557
1789740873520579800,7.392579833984375,0.01783471554517746,0.24810869991779327,-0.013317100703716278
1789740873530657800,7.40265771484375,0.02980269491672516,0.30180415511131287,0.012197846546769142
1789740873540735700,7.41273583984375,0.046918295323848724,0.37238776683807373,0.025935763493180275
1789740873550812700,7.422812744140625,0.06999507546424866,0.46571704745292664,0.02074420265853405
1789740873560890600,7.432890625,0.09107932448387146,0.5569475889205933,0.03439849242568016
1789740873570968800,7.44296875,0.1075935885310173,0.65267413854599,0.033282361924648285
1789740873581045800,7.453045654296875,0.11625657975673676,0.7370854020118713,0.04179728776216507
1789740873591123700,7.463123779296875,0.1231248751282692,0.7898655533790588,0.04049207270145416
1789740873601201700,7.47320166015625,0.12499228864908218,0.8082980513572693,0.04433155059814453
1789740873611279600,7.483279541015625,0.11955224722623825,0.7893320918083191,0.055960509926080704
1789740873621356800,7.493356689453125,0.12203830480575562,0.7410804033279419,0.06309991329908371
1789740873631434800,7.503434814453125,0.11848564445972443,0.6594880819320679,0.056582625955343246
1789740873641512700,7.5135126953125,0.08264216035604477,0.5558946132659912,0.036238204687833786
1789740873651589600,7.523589599609375,0.025887534022331238,0.4515919089317322,0.019163349643349648
1789740873661667800,7.533667724609375,-0.02175215631723404,0.35804465413093567,0.014102278277277946
1789740873671745800,7.543745849609375,-0.03432760387659073,0.26965832710266113,0.021444080397486687
1789740873681823700,7.55382373046875,-0.027849197387695312,0.2064756155014038,0.0385088175535202
1789740873691900700,7.563900634765625,-0.020183023065328598,0.1537940353155136,0.04721122980117798
1789740873701978600,7.573978515625,-0.01516242977231741,0.07471413910388947,0.04228730872273445
1789740873712056600,7.584056640625,-0.01983494684100151,-0.034582529217004776,0.027755506336688995
1789740873722133800,7.5941337890625,-0.024008121341466904,-0.16115592420101166,-0.002635156735777855
1789740873732211700,7.604211669921875,-0.04703247919678688,-0.2683292329311371,-0.030981043353676796
1789740873742289700,7.61428955078125,-0.09333872050046921,-0.3272830843925476,-0.04389364644885063
1789740873752367600,7.62436767578125,-0.10479430854320526,-0.35260576009750366,-0.04092102870345116
1789740873762444800,7.63444482421875,-0.08003942668437958,-0.3605976402759552,-0.026459528133273125
1789740873772522800,7.644522705078125,-0.03114672377705574,-0.3486746847629547,-0.022834166884422302
1789740873782600700,7.6546005859375,0.01988237164914608,-0.31251561641693115,-0.014603136107325554
1789740873792677600,7.664677734375,0.03671488165855408,-0.24980296194553375,-0.004309752490371466
1789740873802755800,7.674755859375,0.03412842005491257,-0.17818205058574677,0.0038738753646612167
1789740873812833800,7.684833740234375,0.018426688387989998,-0.10602714866399765,-0.006759061943739653
1789740873822911700,7.694911865234375,0.04635099694132805,0.0029762969352304935,0.025583699345588684
1789740873832988700,7.70498876953125,0.06216644495725632,0.11007718741893768,0.0000945833744481206
1789740873843066600,7.715066650390625,0.08026129752397537,0.19387434422969818,0.003862690180540085
1789740873853144600,7.72514453125,0.11625444889068604,0.2826359272003174,0.004099178593605757
1789740873863221800,7.7352216796875,0.084361232817173,0.3369308412075043,-0.0075124697759747505
1789740873873299700,7.7452998046875,0.07729560136795044,0.3850472569465637,0.020109571516513824
1789740873883377700,7.755377685546875,0.10777228325605392,0.36945176124572754,0.02796243503689766
1789740873893455600,7.76545556640625,0.15305213630199432,0.3557546138763428,-0.02384590171277523
1789740873903532800,7.77553271484375,0.11702250689268112,0.3349744975566864,0.01755932904779911
1789740873913610800,7.78561083984375,0.07193838804960251,0.32768675684928894,-0.007772660814225674
1789740873923688700,7.795688720703125,0.09355340152978897,0.30911678075790405,-0.011759945191442966
1789740873933765600,7.805765625,0.13729074597358704,0.27941614389419556,-0.013741870410740376
1789740873943843800,7.81584375,0.17513267695903778,0.24970696866512299,-0.01787775754928589
1789740873953921800,7.825921875,0.16223391890525818,0.23559436202049255,-0.007734045386314392
1789740873963999700,7.835999755859375,0.11944518238306046,0.2049749344587326,0.006292557809501886
1789740873974076700,7.84607666015625,0.11055741459131241,0.14137518405914307,0.005130088422447443
1789740873984154600,7.856154541015625,0.1303899735212326,0.06259462237358093,0.0166594460606575
1789740873994232600,7.866232666015625,0.10914541035890579,-0.012916648760437965,-0.03155575692653656
1789740874004309800,7.876309814453125,0.13795973360538483,0.013739995658397675,0.0443456657230854
1789740874014388000,7.886387939453125,0.1432623565196991,0.09352590888738632,0.06549356877803802
1789740874024466000,7.8964658203125,0.11162720620632172,0.145843967795372,0.07339569926261902
1789740874034543900,7.9065439453125,0.11886834353208542,0.13013264536857605,-0.016647644340991974
1789740874044620800,7.916620849609375,0.19606885313987732,0.11445435881614685,-0.16821613907814026
1789740874054698800,7.92669873046875,0.2469690442085266,0.1261671930551529,-0.21546407043933868
1789740874064776700,7.936776611328125,0.2168862521648407,0.16556787490844727,-0.11544506251811981
1789740874074853600,7.946853515625,0.18820853531360626,0.2671445608139038,0.05905217304825783
1789740874084931800,7.956931884765625,0.18295037746429443,0.2882149815559387,0.09836816042661667
1789740874095009800,7.967009765625,0.18624471127986908,0.2713952362537384,0.0868459939956665
1789740874105087700,7.977087646484375,0.21052688360214233,0.2395467609167099,-0.0051603661850094795
1789740874115164700,7.98716455078125,0.21612805128097534,0.21541744470596313,-0.01655763015151024
1789740874125242600,7.99724267578125,0.2140078991651535,0.24271032214164734,-0.020625075325369835
1789740874135320600,8.007320556640625,0.189614936709404,0.27953413128852844,-0.0318756029009819
1789740874145397800,8.017397705078125,0.16787183284759521,0.29844123125076294,-0.039092767983675
1789740874155476000,8.02747607421875,0.16322727501392365,0.29715627431869507,-0.028445446863770485
1789740874165554000,8.037553955078126,0.15964852273464203,0.27804887294769287,-0.00047879520570859313
1789740874175632000,8.0476318359375,0.15161696076393127,0.2878285348415375,0.00099712866358459
1789740874185708800,8.057708740234375,0.16139821708202362,0.3132646679878235,0.004609174095094204
1789740874195786800,8.067786865234375,0.18500447273254395,0.3341217339038849,0.004596124403178692
1789740874205864700,8.07786474609375,0.18083609640598297,0.35209354758262634,0.020693069323897362
1789740874215941600,8.087941650390626,0.15465056896209717,0.3906417489051819,0.019737260416150093
1789740874226019800,8.098019775390625,0.14514681696891785,0.4330270290374756,0.017093274742364883
1789740874236097800,8.108097900390625,0.14259018003940582,0.4908019006252289,0.010868401266634464
1789740874246175700,8.11817578125,0.15748976171016693,0.5651514530181885,0.003784659318625927
1789740874256252700,8.128252685546874,0.1924879550933838,0.608071506023407,0.013331026770174503
1789740874266330600,8.13833056640625,0.20724640786647797,0.6281783580780029,0.0396885983645916
1789740874276408600,8.14840869140625,0.19019471108913422,0.6578092575073242,0.06244717165827751
1789740874286486800,8.15848681640625,0.13504251837730408,0.6562060117721558,0.06957246363162994
1789740874296564000,8.16856396484375,0.1068260595202446,0.6122843623161316,0.07507535070180893
1789740874306642000,8.178641845703124,0.1055794358253479,0.5436145067214966,0.08085335046052933
1789740874316719900,8.188719970703126,0.11268821358680725,0.49277982115745544,0.07177862524986267
1789740874326796800,8.198796875,0.08763585984706879,0.4671998918056488,0.05556290224194527
1789740874336874800,8.208874755859375,0.05797622725367546,0.4349602162837982,0.03993520513176918
1789740874346952700,8.21895263671875,0.054149799048900604,0.3524078130722046,0.0347479023039341
1789740874357030100,8.229030029296876,0.04749589040875435,0.24644486606121063,0.04783440753817558
1789740874367107000,8.239107177734375,-0.023251516744494438,0.1003451943397522,0.06498889625072479
1789740874377185000,8.24918505859375,-0.07917443662881851,-0.03081468865275383,0.07331953197717667
1789740874387263200,8.25926318359375,-0.11926432698965073,-0.1387166529893875,0.0675969272851944
1789740874397340400,8.26934033203125,-0.1466141939163208,-0.21445909142494202,0.04227585718035698
1789740874407418400,8.27941845703125,-0.15068377554416656,-0.2716637849807739,0.016606448218226433
1789740874417496300,8.289496337890625,-0.1362939178943634,-0.3257531225681305,0.002712204586714506
1789740874427574300,8.29957421875,-0.12048006057739258,-0.37033337354660034,0.015667418017983437
1789740874437651200,8.309651123046875,-0.12321486324071884,-0.3936384320259094,0.03161655738949776
1789740874447729200,8.319729248046874,-0.13281875848770142,-0.4127703011035919,0.029966728761792183
1789740874457807400,8.329807373046876,-0.15711770951747894,-0.4360348880290985,0.0214036013931036
1789740874467884300,8.33988427734375,-0.1865813285112381,-0.4676164984703064,0.003535387571901083
1789740874477962200,8.349962158203125,-0.20525062084197998,-0.5117166042327881,-0.013686209917068481
1789740874488040200,8.360040283203125,-0.20038609206676483,-0.5453608632087708,-0.007821130566298962
1789740874498118100,8.3701181640625,-0.18482044339179993,-0.5456671118736267,-0.01121532917022705
1789740874508195000,8.380195068359376,-0.15735818445682526,-0.5116729140281677,-0.0013081035576760769
1789740874518273000,8.39027294921875,-0.12638376653194427,-0.45568686723709106,0.010377581231296062
1789740874528351200,8.400351318359375,-0.1039104089140892,-0.39717963337898254,0.01264739315956831
1789740874538429200,8.41042919921875,-0.09741788357496262,-0.33182936906814575,0.015131057240068913
1789740874548506400,8.42050634765625,-0.09663651138544083,-0.279276967048645,0.014475120231509209
1789740874558584300,8.430584228515626,-0.08480951935052872,-0.2361522912979126,0.013241294771432877
1789740874568662300,8.440662353515625,-0.0846814215183258,-0.18397724628448486,0.012283355928957462
1789740874578739200,8.4507392578125,-0.08992784470319748,-0.12246141582727432,0.0014549421612173319
1789740874588817200,8.460817138671874,-0.0710095465183258,-0.04397965967655182,0.003830215660855174
1789740874598895400,8.470895263671874,-0.0380510650575161,0.040706731379032135,0.011618098244071007
1789740874608973300,8.480973388671876,-0.015588635578751564,0.13828840851783752,0.023094456642866135
1789740874619050200,8.49105029296875,-0.00599433109164238,0.24302786588668823,0.0400228425860405
1789740874629128200,8.501128173828125,-0.0013575013726949692,0.32578879594802856,0.05638929829001427
1789740874639206100,8.5112060546875,0.002171453321352601,0.403014600276947,0.06515855342149734
1789740874649284000,8.5212841796875,-0.008743246085941792,0.46298232674598694,0.08626650273799896
1789740874659361000,8.531361083984375,-0.025622360408306122,0.5236270427703857,0.08660978823900223
1789740874669439200,8.541439208984375,-0.04047613963484764,0.580538272857666,0.08647555857896805
1789740874679517200,8.55151708984375,-0.018492279574275017,0.6189051270484924,0.07716621458530426
1789740874689594400,8.561594482421874,0.016177816316485405,0.6513224244117737,0.08169758319854736
1789740874699672300,8.57167236328125,0.02414839155972004,0.6788027882575989,0.08874643594026566
1789740874709750300,8.581750244140625,0.012022485956549644,0.676765501499176,0.09609489887952805
1789740874719828200,8.591828125,-0.018365779891610146,0.6310136914253235,0.09258805215358734
1789740874729905200,8.6019052734375,-0.03620416298508644,0.5421466827392578,0.08854909986257553
1789740874739983400,8.6119833984375,-0.06244002655148506,0.42382481694221497,0.09770664572715759
1789740874750061300,8.622061279296876,-0.08765936642885208,0.3263731002807617,0.10709535330533981
1789740874760139300,8.63213916015625,-0.09940870106220245,0.24265795946121216,0.1060125082731247
1789740874770216200,8.64221630859375,-0.1132344976067543,0.1746719777584076,0.08626729995012283
1789740874780294100,8.652294189453125,-0.1056857705116272,0.11600600928068161,0.0671474039554596
1789740874790372000,8.6623720703125,-0.09564512223005295,0.05921196937561035,0.04558591917157173
1789740874800449000,8.672448974609376,-0.09278861433267593,0.02846498042345047,0.03268690034747124
1789740874810527200,8.68252734375,-0.11214660108089447,0.019334331154823303,0.03252125158905983
1789740874820605200,8.692605224609375,-0.12278486043214798,0.010777328163385391,0.04335285723209381
1789740874830683100,8.70268310546875,-0.12357795238494873,0.014520933851599693,0.07062336057424545
1789740874840760300,8.71276025390625,-0.12800225615501404,0.054496847093105316,0.08174898475408554
1789740874850838300,8.72283837890625,-0.12551194429397583,0.12727224826812744,0.06803636997938156
1789740874860916200,8.732916259765625,-0.11197029799222946,0.19936427474021912,0.048144418746232986
1789740874870994200,8.742994140625,-0.09598307311534882,0.24090108275413513,0.03665633872151375
1789740874881071000,8.753071044921874,-0.09359101951122284,0.25068631768226624,0.03450823575258255
1789740874891149300,8.7631494140625,-0.11277589946985245,0.23550283908843994,0.042601048946380615
1789740874901227300,8.773227294921876,-0.1327189803123474,0.20648610591888428,0.05639835447072983
1789740874911304200,8.78330419921875,-0.14494796097278595,0.16136178374290466,0.07977611571550369
1789740874921382100,8.793382080078125,-0.14624197781085968,0.11546832323074341,0.07872576266527176
1789740874931460000,8.803460205078125,-0.1541515737771988,0.06760146468877792,0.05717439949512482
1789740874941538000,8.8135380859375,-0.15401841700077057,0.03868512436747551,0.03292445093393326
1789740874951615000,8.823614990234375,-0.13937582075595856,0.03158673644065857,0.02306276559829712
1789740874961693200,8.833693115234375,-0.11808224767446518,0.04271848127245903,0.022496843710541725
1789740874971771100,8.843771240234375,-0.10142524540424347,0.05247151106595993,0.027835415676236153
1789740874981849000,8.85384912109375,-0.08820211887359619,0.05985672026872635,0.04108224809169769
1789740874991926300,8.86392626953125,-0.08465957641601562,0.05427367240190506,0.04863017797470093
1789740875002004200,8.874004150390626,-0.0940869003534317,0.052319977432489395,0.049770012497901917
1789740875012082200,8.884082275390625,-0.09810108691453934,0.05128667131066322,0.024828974157571793
1789740875022159000,8.8941591796875,-0.09492287039756775,0.04691988602280617,0.0196419358253479
1789740875032237300,8.9042373046875,-0.09057792276144028,0.04766983166337013,0.02601328119635582
1789740875042315300,8.914315185546876,-0.08396769315004349,0.06357529759407043,0.023226549848914146
1789740875052393200,8.924393310546876,-0.08181106299161911,0.08817491680383682,0.03246079757809639
1789740875062470100,8.93447021484375,-0.08481617271900177,0.09920892119407654,0.03486243635416031
1789740875072548000,8.944548095703125,-0.08329497277736664,0.0937771424651146,0.029900165274739265
1789740875082626000,8.9546259765625,-0.09035821259021759,0.051656052470207214,0.026519015431404114
1789740875092704300,8.964704345703124,-0.0952104926109314,-0.005493787117302418,0.0172357689589262
1789740875102781200,8.97478125,-0.10988663882017136,-0.06321114301681519,0.02037004381418228
1789740875112859100,8.984859130859375,-0.13757525384426117,-0.10171699523925781,0.02264784462749958
1789740875122937000,8.99493701171875,-0.15460936725139618,-0.12153863161802292,0.022553035989403725
1789740875133014300,9.00501416015625,-0.16229258477687836,-0.13056835532188416,0.02998245693743229
1789740875143092200,9.01509228515625,-0.16598719358444214,-0.130473792552948,0.03275800496339798
1789740875153170200,9.025170166015625,-0.15238642692565918,-0.12759599089622498,0.02637893334031105
1789740875163248400,9.035248291015625,-0.15333771705627441,-0.1356789469718933,0.01807919144630432
1789740875173325300,9.0453251953125,-0.1645301729440689,-0.15404677391052246,0.014502301812171936
1789740875183403300,9.0554033203125,-0.1831374168395996,-0.176759272813797,0.019486406818032265
1789740875193481200,9.065481201171876,-0.21077516674995422,-0.21035051345825195,0.022255295887589455
1789740875203559200,9.07555908203125,-0.23072278499603271,-0.24562221765518188,0.03287997841835022
1789740875213636000,9.085635986328125,-0.24082468450069427,-0.2651277780532837,0.027669766917824745
1789740875223714000,9.095714111328125,-0.239668607711792,-0.27483445405960083,0.0310146976262331
1789740875233792300,9.105792236328124,-0.24221937358379364,-0.2711728811264038,0.018820349127054214
1789740875243870200,9.1158701171875,-0.24392592906951904,-0.27119046449661255,0.008398602716624737
1789740875253947100,9.125947021484375,-0.24469000101089478,-0.265632688999176,0.0008384204702451825
1789740875264025000,9.136025146484375,-0.25566115975379944,-0.28712815046310425,0.006541047245264053
1789740875274103000,9.14610302734375,-0.26008546352386475,-0.3020098805427551,0.0041178371757268906
1789740875284181000,9.156180908203124,-0.27916595339775085,-0.3209686577320099,0.014818418771028519
1789740875294258200,9.166258056640626,-0.2835029065608978,-0.346508651971817,0.02379273809492588
1789740875304336400,9.17633642578125,-0.2784186601638794,-0.37262412905693054,0.02678772807121277
1789740875314414300,9.186414306640625,-0.2832168936729431,-0.3802247941493988,0.027749130502343178
1789740875324491300,9.1964912109375,-0.28425896167755127,-0.37954142689704895,0.014912428334355354
1789740875334569200,9.2065693359375,-0.27890920639038086,-0.3648698031902313,0.00845000147819519
1789740875344647200,9.216647216796876,-0.26225754618644714,-0.34992867708206177,-0.0033944076858460903
1789740875354725000,9.22672509765625,-0.24111948907375336,-0.33702725172042847,0.008877704851329327
1789740875364803000,9.236802978515625,-0.24095411598682404,-0.3175686001777649,0.02534988895058632
1789740875374881000,9.246881103515625,-0.2602772116661072,-0.2962063252925873,0.013817336410284042
1789740875384959000,9.256958984375,-0.26431748270988464,-0.2723800837993622,0.0022126114927232265
1789740875395037000,9.267036865234376,-0.2729165852069855,-0.26826709508895874,0.011856184341013432
1789740875405113900,9.27711376953125,-0.2548680603504181,-0.26058733463287354,0.00910673663020134
1789740875415191800,9.28719189453125,-0.23689492046833038,-0.24845662713050842,0.02625216729938984
1789740875425269800,9.297269775390625,-0.23834821581840515,-0.2563183009624481,0.012801607139408588
1789740875435348000,9.307347900390624,-0.2414955347776413,-0.2846522033214569,0.023046519607305527
1789740875445425200,9.317425048828126,-0.23301522433757782,-0.3200829029083252,0.0287302378565073
1789740875455503000,9.327503173828125,-0.24687539041042328,-0.35642120242118835,0.035203054547309875
1789740875465581000,9.3375810546875,-0.27553072571754456,-0.36322876811027527,-0.003520907834172249
1789740875475658000,9.347657958984374,-0.31068578362464905,-0.37620314955711365,-0.02831733413040638
1789740875485736000,9.35773583984375,-0.31425148248672485,-0.39175522327423096,-0.04938453435897827
1789740875495814000,9.36781396484375,-0.2975076735019684,-0.4003271162509918,-0.023616056889295578
1789740875505892000,9.37789208984375,-0.2578135132789612,-0.39933058619499207,0.011120885610580444
1789740875515969000,9.387968994140625,-0.2210749387741089,-0.39054107666015625,0.029593901708722115
1789740875526047000,9.398046875,-0.18888318538665771,-0.3871426284313202,0.02704286016523838
1789740875536125000,9.408125,-0.20055235922336578,-0.38640573620796204,0.031523361802101135
1789740875546203000,9.418202880859376,-0.2374376803636551,-0.3714488744735718,-0.005887925624847412
1789740875556279800,9.42827978515625,-0.25648966431617737,-0.37238577008247375,-0.017200501635670662
1789740875566357800,9.438357666015625,-0.2522815763950348,-0.39229056239128113,-0.011995073407888412
1789740875576436000,9.44843603515625,-0.2431032508611679,-0.416472852230072,0.020484305918216705
1789740875586514000,9.458513916015624,-0.20700089633464813,-0.4190100431442261,0.013544375076889992
1789740875596591000,9.468591064453125,-0.20772448182106018,-0.4225858747959137,0.028128642588853836
1789740875606669000,9.4786689453125,-0.20900653302669525,-0.40410593152046204,0.016983846202492714
1789740875616747000,9.4887470703125,-0.2253359705209732,-0.3949318826198578,0.011524101719260216
1789740875626825000,9.498824951171875,-0.23617023229599,-0.3984363377094269,0.006457969546318054
1789740875636902000,9.50890185546875,-0.2387060970067978,-0.41236627101898193,-0.006936665158718824
1789740875646980000,9.51897998046875,-0.24399566650390625,-0.4349682331085205,-0.015491004101932049
1789740875657058000,9.52905810546875,-0.25899380445480347,-0.45782989263534546,-0.0016260555712506175
1789740875667136000,9.539135986328125,-0.26827436685562134,-0.45248091220855713,0.021382857114076614
1789740875677213000,9.549212890625,-0.26929810643196106,-0.44238540530204773,0.02063930220901966
1789740875687291000,9.559290771484376,-0.2598356306552887,-0.4381994605064392,0.031188348308205605
1789740875697368800,9.569368896484375,-0.25989899039268494,-0.4294901192188263,0.011274030432105064
1789740875707445800,9.57944580078125,-0.24803276360034943,-0.4199565351009369,0.005170331336557865
1789740875717524000,9.58952392578125,-0.23429298400878906,-0.40441247820854187,0.010115821845829487
1789740875727602000,9.599601806640624,-0.22010205686092377,-0.3834661841392517,0.012649552896618843
1789740875737680000,9.609679931640626,-0.2102946937084198,-0.36109429597854614,0.00572506757453084
1789740875747757000,9.619757080078125,-0.20241281390190125,-0.3494666516780853,0.018077341839671135
1789740875757835000,9.6298349609375,-0.19385899603366852,-0.32584574818611145,0.01151797641068697
1789740875767913000,9.639912841796875,-0.18979448080062866,-0.3105427026748657,0.013149162754416466
1789740875777991200,9.6499912109375,-0.17600223422050476,-0.28383490443229675,0.001406485796906054
1789740875788068000,9.660068115234376,-0.14893999695777893,-0.25608983635902405,-0.0045211780816316605
1789740875798146000,9.67014599609375,-0.11825718730688095,-0.2283993512392044,0.0004578678635880351
1789740875808224000,9.68022412109375,-0.09904274344444275,-0.19856849312782288,0.017477065324783325
1789740875818302000,9.690302001953125,-0.09020957350730896,-0.15754222869873047,0.025228727608919144
1789740875828379000,9.70037890625,-0.0861666277050972,-0.11635483801364899,-0.00199144147336483
1789740875838456800,9.710456787109376,-0.0731901079416275,-0.08931416273117065,-0.006816023960709572
1789740875848535000,9.72053515625,-0.057679593563079834,-0.0748199075460434,-0.004726241808384657
1789740875858613000,9.730613037109375,-0.040044140070676804,-0.0613003745675087,0.008902219124138355
1789740875868690000,9.74068994140625,-0.026932330802083015,-0.05073774233460426,0.021740252152085304
1789740875878767900,9.750767822265624,-0.029107866808772087,-0.03928082436323166,0.01179041713476181
1789740875888845800,9.760845703125,-0.0201649721711874,-0.0319528728723526,0.006431604269891977
1789740875898923800,9.770923828125,-0.009607669897377491,-0.011318966746330261,0.0066704899072647095
1789740875909001000,9.7810009765625,-0.0062590111047029495,0.012262792326509953,0.004855012986809015
1789740875919079200,9.7910791015625,0.0039139981381595135,0.03285542130470276,0.00620869779959321
1789740875929157000,9.8011572265625,0.026339946314692497,0.03964648023247719,0.013601900078356266
1789740875939234000,9.811234130859376,0.045388203114271164,0.037816088646650314,0.005061940755695105
1789740875949312000,9.82131201171875,0.05084635317325592,0.025890454649925232,0.016496755182743073
1789740875959390000,9.831389892578125,0.06403512507677078,0.028304077684879303,0.0003769077593460679
1789740875969468000,9.841468017578125,0.06841602176427841,0.012135227210819721,0.003358582966029644
1789740875979544800,9.851544921875,0.06931004673242569,0.005189170129597187,0.005750634241849184
1789740875989623000,9.861623046875,0.07501853257417679,-0.002338254591450095,0.010583738796412945
1789740875999701000,9.871700927734375,0.0807480588555336,-0.0011547459289431572,0.01912050135433674
1789740876009779000,9.881779052734375,0.08715349435806274,0.0011020167730748653,0.013104687444865704
1789740876019856000,9.89185595703125,0.10773760080337524,0.015672437846660614,0.008904882706701756
1789740876029933800,9.901933837890626,0.11144791543483734,0.0263005830347538,0.01775270141661167
1789740876040011800,9.91201171875,0.11818331480026245,0.03209908306598663,0.004069913178682327
1789740876050090000,9.922090087890625,0.12472031265497208,0.05034865811467171,0.004458202049136162
1789740876060167200,9.932167236328125,0.11373689770698547,0.06339335441589355,0.007787419483065605
1789740876070245000,9.9422451171875,0.1157638356089592,0.07236101478338242,0.0032227616757154465
1789740876080323000,9.952322998046874,0.11931462585926056,0.07521060109138489,0.012669526971876621
1789740876090401000,9.962401123046876,0.11864084750413895,0.09581893682479858,-0.014243313111364841
1789740876100478000,9.97247802734375,0.1311318725347519,0.12297546118497849,-0.02047218196094036
1789740876110556000,9.982555908203125,0.1235988512635231,0.14794844388961792,-0.02215876244008541
1789740876120633900,9.9926337890625,0.13172681629657745,0.16658951342105865,-0.012504535727202892
1789740876130712000,10.002712158203124,0.1343473643064499,0.16420598328113556,0.009223130531609058
1789740876140789000,10.0127890625,0.12197539210319519,0.15932627022266388,0.007214840035885572
1789740876150867000,10.022866943359375,0.1272793412208557,0.1609497368335724,-0.007795001845806837
1789740876160945000,10.03294482421875,0.11239679902791977,0.15302282571792603,-0.004970453679561615
1789740876171022800,10.04302294921875,0.11466740816831589,0.14923767745494843,-0.0010265781311318278
1789740876181099800,10.053099853515626,0.11946482956409454,0.1424490213394165,-0.008707134053111076
1789740876191177700,10.063177734375,0.11217815428972244,0.133632093667984,-0.010379599407315254
1789740876201256000,10.073255859375,0.10671627521514893,0.12813718616962433,-0.017023654654622078
1789740876211334000,10.083333984375,0.09495655447244644,0.12086383253335953,-0.01680314540863037
1789740876221411000,10.0934111328125,0.0868043527007103,0.12363245338201523,0.002868295181542635
1789740876231489000,10.103489013671876,0.09026406705379486,0.12848925590515137,0.004088289104402065
1789740876241567000,10.11356689453125,0.08320482075214386,0.1286035031080246,-0.003344060853123665
1789740876251645000,10.12364501953125,0.07737623155117035,0.12071602791547775,0.002271746750921011
1789740876261721900,10.133721923828125,0.07204537838697433,0.12370782345533371,0.009383185766637325
1789740876271800000,10.143800048828124,0.06819338351488113,0.13902658224105835,0.027564585208892822
1789740876281878000,10.1538779296875,0.06075331196188927,0.1510382443666458,0.010036193765699863
1789740876291956000,10.1639560546875,0.0536770261824131,0.15763702988624573,-0.003289466258138418
1789740876302033000,10.174032958984375,0.07069249451160431,0.15545403957366943,-0.006997651886194944
1789740876312110800,10.18411083984375,0.08402960747480392,0.13141819834709167,0.004470186308026314
1789740876322188800,10.194188720703124,0.07478523999452591,0.12078740447759628,0.02622395008802414
1789740876332267000,10.20426708984375,0.03535447642207146,0.13109835982322693,0.011806929484009743
1789740876342344000,10.214343994140625,-0.00027036064420826733,0.14414438605308533,-0.0047829668037593365
1789740876352422000,10.224421875,-0.015389125794172287,0.14002899825572968,-0.01673443615436554
1789740876362499800,10.234499755859375,-0.016864515841007233,0.10744177550077438,-0.0347115732729435
1789740876372577800,10.244577880859374,-0.020298397168517113,0.06538273394107819,-0.027711452916264534
1789740876382654700,10.25465478515625,-0.017975321039557457,0.042763445526361465,-0.026946060359477997
1789740876392732700,10.264732666015625,-0.022241171449422836,0.04627828299999237,-0.003532346338033676
1789740876402811000,10.274810791015625,-0.01448072213679552,0.053528472781181335,0.018805449828505516
1789740876412888800,10.284888916015625,-0.0208163820207119,0.05445045977830887,0.035039547830820084
1789740876422965800,10.2949658203125,-0.03063305839896202,0.04791879281401634,0.03279663249850273
1789740876433043700,10.305043701171876,-0.037835314869880676,0.041616953909397125,-0.0009464169852435589
1789740876443121700,10.31512158203125,-0.05553867667913437,0.026094719767570496,-0.013412673957645893
1789740876453198600,10.325198486328125,-0.06290791183710098,-0.0001203739084303379,-0.05410284548997879
1789740876463276500,10.335276611328124,-0.06695937365293503,-0.03056829422712326,-0.035057514905929565
1789740876473354800,10.345354736328124,-0.07457122206687927,-0.048944372683763504,-0.01902475394308567
1789740876483432700,10.3554326171875,-0.08756399154663086,-0.060084372758865356,0.007418571971356869
1789740876493510000,10.365510009765625,-0.09941425919532776,-0.06967069208621979,0.019993752241134644
1789740876503587800,10.375587890625,-0.11061204969882965,-0.08884305506944656,0.019812656566500664
1789740876513665800,10.385665771484375,-0.10011813044548035,-0.10256152600049973,0.013667679391801357
1789740876523743700,10.39574365234375,-0.11091964691877365,-0.1201956495642662,0.00021898231352679431
1789740876533821700,10.40582177734375,-0.1264093816280365,-0.12934866547584534,-0.022767294198274612
1789740876543899000,10.41589892578125,-0.13027577102184296,-0.1535101979970932,-0.036619726568460464
1789740876553976800,10.425976806640625,-0.13635815680027008,-0.18251681327819824,-0.01793605275452137
1789740876564054800,10.4360546875,-0.14246611297130585,-0.20227640867233276,0.020667530596256256
1789740876574131700,10.446131591796876,-0.13682371377944946,-0.1995735913515091,0.02906559780240059
1789740876584209700,10.456209716796875,-0.14039207994937897,-0.20557528734207153,0.026865292340517044
1789740876594287600,10.46628759765625,-0.14688779413700104,-0.22242963314056396,0.015361236408352852
1789740876604365800,10.47636572265625,-0.1438901424407959,-0.22588162124156952,0.014527932740747929
1789740876614442800,10.48644287109375,-0.16126646101474762,-0.23387111723423004,0.003913904540240765
1789740876624520700,10.496520751953126,-0.16494429111480713,-0.22797220945358276,-0.010506313294172287
1789740876634598700,10.5065986328125,-0.16096659004688263,-0.22917063534259796,-0.01335776038467884
1789740876644676600,10.516676513671875,-0.1556173712015152,-0.23424609005451202,0.021516334265470505
1789740876654753800,10.52675390625,-0.14193670451641083,-0.22648963332176208,0.03973421826958656
1789740876664831700,10.536831787109374,-0.13567961752414703,-0.21956780552864075,0.0401371568441391
1789740876674909700,10.54690966796875,-0.13338343799114227,-0.20759636163711548,0.016818784177303314
1789740876684988000,10.55698779296875,-0.13728922605514526,-0.22311221063137054,0.00046804037992842495
1789740876695065900,10.56706591796875,-0.1263076812028885,-0.2323158234357834,0.00039453714271076024
1789740876705142800,10.577142822265625,-0.1334465593099594,-0.2375614494085312,-0.018016695976257324
1789740876715220700,10.587220703125,-0.13481594622135162,-0.23633213341236115,-0.01997225359082222
1789740876725298700,10.597298583984376,-0.14507417380809784,-0.24898961186408997,0.010088177397847176
1789740876735376600,10.607376708984376,-0.12344691902399063,-0.25726377964019775,0.03545105829834938
1789740876745453600,10.61745361328125,-0.11643162369728088,-0.26559069752693176,0.04861319810152054
1789740876755531800,10.62753173828125,-0.10918249934911728,-0.2512149512767792,0.030117277055978775
1789740876765609700,10.637609619140624,-0.10929594933986664,-0.23216402530670166,-0.005997581873089075
1789740876775687700,10.647687744140624,-0.1015208512544632,-0.23880301415920258,0.0000981273187790066
1789740876785764600,10.6577646484375,-0.08706121891736984,-0.2338404804468155,0.000511183578055352
1789740876795842600,10.667842529296875,-0.07842165976762772,-0.21333760023117065,0.004300063010305166
1789740876805920500,10.67792041015625,-0.07706930488348007,-0.183537095785141,-0.010702322237193584
1789740876815998700,10.687998779296874,-0.07715851813554764,-0.1724117398262024,0.014521807432174683
1789740876826076000,10.698075927734376,-0.077047199010849,-0.16914963722229004,0.013089559972286224
1789740876836153900,10.70815380859375,-0.05774140730500221,-0.1615726798772812,0.02677634358406067
1789740876846231800,10.718231689453125,-0.04365941137075424,-0.14895835518836975,0.0009777694940567017
1789740876856309800,10.728309814453125,-0.03443581983447075,-0.1321396827697754,-0.009396041743457317
1789740876866386700,10.73838671875,-0.03511625900864601,-0.12889303267002106,-0.007192542310804129
1789740876876464600,10.748464599609376,-0.023389562964439392,-0.11220645904541016,0.00036124762846156955
1789740876886542800,10.75854296875,-0.013336928561329842,-0.10352376103401184,0.000796940759755671
1789740876896620800,10.768620849609375,-0.006851864513009787,-0.11048925668001175,-0.009935864247381687
1789740876906697700,10.77869775390625,-0.001670151948928833,-0.10917125642299652,-0.05281621962785721
1789740876916775700,10.788775634765624,-0.00013643749116454273,-0.10339672863483429,-0.00350779271684587
1789740876926853600,10.798853515625,-0.007655872497707605,-0.08606274425983429,0.04001651331782341
1789740876936931600,10.808931640625,0.012225156649947166,-0.07337650656700134,0.07109933346509933
1789740876947008500,10.819008544921875,0.020349929109215736,-0.0825742706656456,0.06454316526651382
1789740876957086700,10.829086669921875,0.030591115355491638,-0.07966796308755875,-0.004385570529848337
1789740876967164700,10.83916455078125,0.03258689120411873,-0.08035079389810562,-0.01823240891098976
1789740876977242600,10.84924267578125,0.01953313685953617,-0.07386120408773422,-0.02008703723549843
1789740876987319800,10.85931982421875,0.03199566900730133,-0.06846457719802856,-0.011571312323212624
1789740876997397800,10.869397705078125,0.035933684557676315,-0.06834712624549866,-0.011196338571608067
1789740877007475700,10.879475830078125,0.03206810727715492,-0.05777623876929283,-0.017609231173992157
1789740877017554000,10.889553955078124,0.028392940759658813,-0.05176788195967674,0.00492217717692256
1789740877027630800,10.899630859375,0.03511795774102211,-0.04387853294610977,0.036260124295949936
1789740877037708800,10.909708740234375,0.035924095660448074,-0.01540934294462204,0.029567867517471313
1789740877047786800,10.919786865234375,0.043262168765068054,0.01973266713321209,0.016696013510227203
1789740877057864700,10.92986474609375,0.038693785667419434,0.03593214228749275,0.01177289243787527
1789740877067941600,10.939941650390624,0.03357012942433357,0.05302857235074043,0.011209900490939617
1789740877078019600,10.95001953125,0.0331253819167614,0.07603881508111954,0.002026255941018462
1789740877088097800,10.960097900390625,0.042304765433073044,0.101286381483078,-0.03764898702502251
1789740877098175700,10.97017578125,0.05603548884391785,0.11921344697475433,-0.04655219987034798
1789740877108252700,10.980252685546875,0.04023389145731926,0.11445651203393936,-0.01365257240831852
1789740877118330600,10.99033056640625,0.027388397604227066,0.10794241726398468,0.010063143447041512
1789740877128408600,11.00040869140625,0.014368735253810883,0.09875104576349258,0.02761923521757126
1789740877138486500,11.010486572265625,-0.002080278703942895,0.09121377021074295,0.028241880238056183
1789740877148564700,11.020564697265625,-0.0037338356487452984,0.06764931976795197,0.02370571717619896
1789740877158642000,11.030641845703125,0.006605355069041252,0.026375923305749893,0.001043815864250064
1789740877168720000,11.040719970703124,0.0010529302526265383,0.0008069118484854698,-0.023075900971889496
1789740877178797800,11.0507978515625,-0.027145152911543846,-0.025980759412050247,-0.030703995376825333
1789740877188875800,11.060875732421875,-0.03923803195357323,-0.05211835354566574,-0.018064100295305252
1789740877198952700,11.07095263671875,-0.037179674953222275,-0.08506272733211517,0.02998065948486328
1789740877209030700,11.08103076171875,-0.047234173864126205,-0.10618451982736588,0.04977114126086235
1789740877219108900,11.09110888671875,-0.05837976932525635,-0.11995146423578262,0.04699239879846573
1789740877229186800,11.101186767578126,-0.073227159678936,-0.13277538120746613,0.04086526483297348
1789740877239263700,11.111263671875,-0.0840023085474968,-0.1450839787721634,0.011668763123452663
1789740877249341700,11.121341796875,-0.07594171911478043,-0.1660558432340622,-0.03261907398700714
1789740877259419600,11.131419677734375,-0.07409535348415375,-0.19259130954742432,-0.05311449617147446
1789740877269497600,11.14149755859375,-0.08519540727138519,-0.20346607267856598,-0.04085996001958847
1789740877279574500,11.151574462890625,-0.1083742305636406,-0.2137027233839035,0.0024291921872645617
1789740877289652700,11.16165283203125,-0.12813381850719452,-0.2253069132566452,0.03197003901004791
1789740877299730700,11.171730712890625,-0.1346774697303772,-0.24075672030448914,0.05162523314356804
1789740877309808600,11.18180859375,-0.13514511287212372,-0.2595368027687073,0.04429754614830017
1789740877319885800,11.1918857421875,-0.12684431672096252,-0.25994905829429626,0.02131366729736328
1789740877329963800,11.2019638671875,-0.11889291554689407,-0.247028186917305,-0.007098266389220953
1789740877340041700,11.212041748046875,-0.11731898784637451,-0.23570682108402252,-0.04273349419236183
1789740877350119700,11.22211962890625,-0.1229822039604187,-0.22958502173423767,-0.02886960655450821
1789740877360196400,11.2321962890625,-0.13971136510372162,-0.2351481020450592,0.0008528671460226178
1789740877370274600,11.242274658203126,-0.1376759111881256,-0.24233144521713257,0.02065027505159378
1789740877380352500,11.2523525390625,-0.13361726701259613,-0.25741371512413025,0.05859552323818207
1789740877390430500,11.262430419921875,-0.14257453382015228,-0.27455249428749084,0.07393693178892136
1789740877400508400,11.27250830078125,-0.1630859375,-0.28052595257759094,0.04448449984192848
1789740877410585300,11.28258544921875,-0.15858758985996246,-0.28921079635620117,0.015552717261016369
1789740877420663300,11.292663330078126,-0.145192950963974,-0.2912515699863434,-0.006181872915476561
1789740877430741500,11.302741455078126,-0.12187112867832184,-0.28876790404319763,-0.007794150151312351
1789740877440819500,11.3128193359375,-0.11431893706321716,-0.2692972719669342,-0.008051944896578789
1789740877450896400,11.322896484375,-0.12517717480659485,-0.255301833152771,0.005604212637990713
1789740877460974300,11.332974365234374,-0.12332947552204132,-0.25351589918136597,0.026890326291322708
1789740877471052300,11.34305224609375,-0.13219647109508514,-0.2743053436279297,0.051056381314992905
1789740877481130200,11.353130126953126,-0.12720756232738495,-0.2893806993961334,0.052318986505270004
1789740877491207400,11.36320751953125,-0.11850835382938385,-0.3024989068508148,0.03224274516105652
1789740877501285600,11.37328564453125,-0.1195608377456665,-0.3125062584877014,0.026149969547986984
1789740877511363600,11.383363525390624,-0.11812219768762589,-0.32247793674468994,0.0029908528085798025
1789740877521441500,11.393441650390624,-0.10179249197244644,-0.3236776888370514,-0.004254010505974293
1789740877531518500,11.4035185546875,-0.09424349665641785,-0.32377249002456665,-0.01554661151021719
1789740877541596400,11.413596435546875,-0.08927536755800247,-0.31518301367759705,0.018101628869771957
1789740877551674400,11.42367431640625,-0.09337504208087921,-0.31480830907821655,0.047205984592437744
1789740877561752600,11.433752685546875,-0.08264996111392975,-0.3198315501213074,0.04773968085646629
1789740877571829500,11.44382958984375,-0.06900418549776077,-0.324418306350708,0.03853766247630119
1789740877581907500,11.453907470703125,-0.07035350799560547,-0.3332090675830841,0.024617645889520645
1789740877591985400,11.4639853515625,-0.06373315304517746,-0.3243449926376343,0.005927847232669592
1789740877602063400,11.4740634765625,-0.049824535846710205,-0.31863704323768616,-0.0004054159508086741
1789740877612140500,11.484140625,-0.04653473198413849,-0.3160497844219208,0.004253784194588661
1789740877622218500,11.494218505859376,-0.03872501105070114,-0.32266294956207275,0.002903561806306243
1789740877632296400,11.50429638671875,-0.030848979949951172,-0.3165475130081177,0.025209665298461914
1789740877642374400,11.51437451171875,-0.03701792657375336,-0.32956400513648987,0.03368863835930824
1789740877652452400,11.524452392578125,-0.03268629312515259,-0.33890822529792786,0.04425792396068573
1789740877662529500,11.534529541015624,-0.036400869488716125,-0.3511076271533966,0.05264102295041084
1789740877672607500,11.544607421875,-0.03566743806004524,-0.3618505597114563,0.045423589646816254
1789740877682685400,11.554685546875,-0.02663053199648857,-0.3746449053287506,0.017257999628782272
1789740877692763600,11.564763671875,-0.023717833682894707,-0.37209653854370117,0.03797845542430878
1789740877702840600,11.574840576171875,-0.027975695207715034,-0.3555878698825836,0.026179589331150055
1789740877712918500,11.58491845703125,-0.006532453931868076,-0.34468141198158264,0.013220647349953651
1789740877722996500,11.59499658203125,-0.0006135788280516863,-0.3413942754268646,0.02927231788635254
1789740877733074400,11.605074462890625,-0.0027587551157921553,-0.3383511006832123,0.025699155405163765
1789740877743151400,11.6151513671875,0.01474140863865614,-0.31744393706321716,0.021737702190876007
1789740877753229300,11.625229248046875,0.0020173578523099422,-0.3192570209503174,0.03048086166381836
1789740877763307500,11.6353076171875,0.008809483610093594,-0.31106406450271606,0.03835342824459076
1789740877773385500,11.645385498046876,0.017263155430555344,-0.30624109506607056,0.03852866590023041
1789740877783463400,11.65546337890625,0.01639070361852646,-0.28706446290016174,0.034841254353523254
1789740877793540400,11.665540283203125,0.03121039643883705,-0.26306912302970886,0.040506862103939056
1789740877803618300,11.675618408203125,0.0538824200630188,-0.24761027097702026,0.010660284198820591
1789740877813696500,11.685696533203124,0.0687527135014534,-0.22102393209934235,0.021681243553757668
1789740877823774500,11.6957744140625,0.07521301507949829,-0.18523052334785461,-0.0024153036065399647
1789740877833851600,11.7058515625,0.08869606256484985,-0.15946950018405914,0.001677708700299263
1789740877843929600,11.7159296875,0.09342397004365921,-0.14571958780288696,0.020540611818432808
1789740877854007600,11.726007568359375,0.1040574461221695,-0.12182039022445679,-0.0008384459069930017
1789740877864085500,11.73608544921875,0.12284550815820694,-0.1062379702925682,0.008915381506085396
1789740877874162400,11.746162353515626,0.12126412987709045,-0.08923661708831787,0.0026313867419958115
1789740877884240400,11.756240478515625,0.1336374282836914,-0.06638190150260925,-0.005187654402107
1789740877894318300,11.766318359375,0.13834457099437714,-0.051390163600444794,0.0007405422511510551
1789740877904396500,11.776396484375,0.14614176750183105,-0.03682800009846687,0.008846139535307884
1789740877914473500,11.786473388671874,0.16945268213748932,-0.012363138608634472,0.030191641300916672
1789740877924551400,11.796551513671876,0.16775065660476685,0.004437412600964308,0.031294986605644226
1789740877934629400,11.80662939453125,0.17164020240306854,0.036626510322093964,0.040562521666288376
1789740877944707300,11.816707275390625,0.17445197701454163,0.042771220207214355,0.01837892457842827
1789740877954785300,11.826785400390625,0.18398183584213257,0.048841629177331924,-0.03149622678756714
1789740877964862500,11.836862548828124,0.1918429434299469,0.042717158794403076,-0.034781768918037415
1789740877974940400,11.8469404296875,0.17727679014205933,0.04003002867102623,-0.047304484993219376
1789740877985018400,11.857018310546875,0.1720207780599594,0.06322003155946732,-0.028637053444981575
1789740877995096300,11.867096435546875,0.1615992933511734,0.07431343197822571,0.0016665232833474874
1789740878005173500,11.877173583984375,0.1662084311246872,0.08492905646562576,0.013674183748662472
1789740878015251500,11.88725146484375,0.17217737436294556,0.09095019847154617,0.037239428609609604
1789740878025329400,11.897329345703126,0.15698084235191345,0.09700089693069458,0.0027472341898828745
1789740878035407600,11.90740771484375,0.15700560808181763,0.10703729093074799,-0.024911558255553246
1789740878045484500,11.917484619140625,0.14453135430812836,0.10230192542076111,-0.030014440417289734
1789740878055562500,11.9275625,0.15226198732852936,0.11078755557537079,-0.0553957000374794
1789740878065640400,11.937640380859374,0.1686561405658722,0.11707447469234467,-0.026592545211315155
1789740878075718400,11.947718505859376,0.15450835227966309,0.123482845723629,0.0026194024831056595
1789740878085795300,11.95779541015625,0.14966407418251038,0.13857364654541016,0.032264646142721176
1789740878095873300,11.967873291015625,0.13910357654094696,0.14161977171897888,0.0368623249232769
1789740878105951500,11.977951416015625,0.13907188177108765,0.1425473541021347,0.035747792571783066
1789740878116029400,11.988029541015624,0.15449663996696472,0.13683700561523438,0.009693024680018425
1789740878126107400,11.998107421875,0.14784540235996246,0.13697202503681183,-0.025747524574398994
1789740878136184600,12.0081845703125,0.14170335233211517,0.13407211005687714,-0.05039747804403305
1789740878146262500,12.018262451171875,0.137120321393013,0.12585332989692688,-0.031286634504795074
1789740878156340500,12.028340576171875,0.1352427899837494,0.11605741828680038,-0.001649112207815051
1789740878166418400,12.03841845703125,0.1410554051399231,0.11431730538606644,0.057402487844228745
1789740878176495600,12.04849560546875,0.1362907439470291,0.12450549751520157,0.0893726721405983
1789740878186573600,12.058573486328125,0.13348962366580963,0.1329762190580368,0.07052255421876907
1789740878196651500,12.068651611328125,0.1239648386836052,0.1383179873228073,0.020453261211514473
1789740878206729500,12.0787294921875,0.12972605228424072,0.1374143809080124,-0.04305993765592575
1789740878216806400,12.088806396484374,0.13769155740737915,0.1458379477262497,-0.06722652167081833
1789740878226884400,12.09888427734375,0.1276130974292755,0.14398306608200073,-0.027618395164608955
1789740878236962600,12.108962646484375,0.12423408031463623,0.16808493435382843,-0.01820571906864643
1789740878247040500,12.11904052734375,0.1371711790561676,0.17186103761196136,0.03541809320449829
1789740878257118500,12.129118408203125,0.13368536531925201,0.17064902186393738,0.0572379045188427
1789740878267195400,12.1391953125,0.13615597784519196,0.15773802995681763,0.02126818709075451
1789740878277273300,12.1492734375,0.13729022443294525,0.13996675610542297,-0.0020392651204019785
1789740878287351300,12.159351318359375,0.11217688769102097,0.13780106604099274,-0.02024729736149311
1789740878297429500,12.169429443359375,0.10263025760650635,0.1418522745370865,-0.050195079296827316
1789740878307506700,12.179506591796875,0.11058218777179718,0.13487744331359863,-0.027000008150935173
1789740878317584600,12.189584716796874,0.10985008627176285,0.12186523526906967,0.03498266637325287
1789740878327662600,12.19966259765625,0.11763929575681686,0.12726080417633057,0.05929280072450638
1789740878337740500,12.209740478515625,0.13321451842784882,0.1327863335609436,0.048687826842069626
1789740878347817500,12.2198173828125,0.12387055903673172,0.1355152726173401,0.03573288023471832
1789740878357895400,12.2298955078125,0.12590095400810242,0.13904263079166412,-0.018107181414961815
1789740878367973600,12.2399736328125,0.13595597445964813,0.140883669257164,-0.059511881321668625
1789740878378051600,12.250051513671876,0.12950287759304047,0.14514100551605225,-0.058314256370067596
1789740878388129800,12.2601298828125,0.13588593900203705,0.16712646186351776,-0.054625511169433594
1789740878398206700,12.270206787109375,0.14665336906909943,0.18996679782867432,-0.022432686761021614
1789740878408284700,12.28028466796875,0.15709295868873596,0.20833516120910645,0.024445338174700737
1789740878418362600,12.290362548828124,0.15859924256801605,0.22435246407985687,0.03776753321290016
1789740878428440600,12.300440673828126,0.1614333838224411,0.25123387575149536,0.025089291855692863
1789740878438517500,12.310517578125,0.14904062449932098,0.2850368618965149,-0.01645682007074356
1789740878448595500,12.320595458984375,0.14780278503894806,0.3143891394138336,-0.050425175577402115
1789740878458673700,12.330673583984375,0.16215509176254272,0.335162878036499,-0.057109177112579346
