time,seconds_elapsed,z,y,x
1789064039228874500,0.03687451171875,8.033294757843016,6.667253073120117,-0.19048866958618163
1789064039238911500,0.046911376953125,7.8244006629943845,6.709301239776611,-0.2145803237915039
1789064039248948200,0.0569482421875,7.555501889038085,6.565948415374756,-0.297479556274414
1789064039258985500,0.0669853515625,7.210437574768066,6.757634185791015,-0.3978863883972168
1789064039269022500,0.0770224609375,6.9792474769592285,6.553528494262695,-0.4477157104492187
1789064039279059500,0.0870595703125,7.077260107421875,6.517166556549072,-0.5162497329711914
1789064039289096400,0.097096435546875,6.7645175155639645,6.53138212890625,-0.5156511825561523
1789064039299133400,0.107133544921875,6.785017867279052,6.554875232696533,-0.521636686706543
1789064039309170400,0.11717041015625,6.7459624526977535,6.6246063560485835,-0.46103345718383787
1789064039319207400,0.12720751953125,6.839186679840087,6.719925509643554,-0.31528643112182614
1789064039329244400,0.137244384765625,7.21447779006958,6.8134490119934075,-0.12075754623413085
1789064039339281400,0.147281494140625,7.040000344085693,6.825569657897949,0.04369418029785156
1789064039349318400,0.157318359375,6.293009426116943,7.23976654510498,-0.8147767524719238
1789064039359355400,0.16735546875,6.711246528625488,7.11227530670166,-1.2955623733520507
1789064039369392400,0.177392333984375,7.370250535583495,6.72291826171875,-0.9060556907653808
1789064039379429400,0.187429443359375,6.816441764068603,7.12454559020996,-1.058536408996582
1789064039389466600,0.197466552734375,6.679523356628418,7.26550421295166,-0.8658031753540039
1789064039399503400,0.20750341796875,6.763170777130126,7.097610821533203,-0.3999813148498535
1789064039409540400,0.217540283203125,7.323413965606689,7.154024198150634,-0.443076944732666
1789064039419576300,0.227576416015625,7.141454639434814,7.0364090415954585,-0.16220716247558592
1789064039429613300,0.23761328125,6.950816332244873,7.116914072418212,-0.16519991455078123
1789064039439650600,0.247650634765625,6.525995175170898,7.194276713562012,-0.17238251953125
1789064039449687600,0.2576875,6.678625531005859,7.023989120483398,-0.32351649932861326
1789064039459724500,0.267724609375,7.048679325103759,7.009174997711181,-0.6528688652038573
1789064039469761300,0.27776123046875,6.542754586791991,7.229740825653076,-0.8686462898254395
1789064039479798500,0.287798583984375,6.2398880767822265,7.42516753616333,-0.8430582595825195
1789064039489835500,0.29783544921875,6.407631830596923,7.434145792388915,-0.5578489868164063
1789064039499872500,0.30787255859375,6.924929026794433,7.3097969436645505,-0.19812018737792966
1789064039509909500,0.317909423828125,7.152228546905517,7.228992637634277,0.11148001480102539
1789064039519946200,0.3279462890625,6.648249097442626,7.498190686798095,-0.14215572357177733
1789064039529983500,0.3379833984375,6.9798460273742675,7.3359835243225096,-0.041748891448974604
1789064039540020500,0.3480205078125,7.07980394668579,7.037905417633056,0.24765023422241209
1789064039550057500,0.358057373046875,7.813926030731201,6.897844620513916,0.15502455749511718
1789064039560094500,0.368094482421875,7.173327449035644,6.827963859558105,0.3344400444030762
1789064039570131500,0.37813134765625,6.7673606300354,6.95919603805542,0.2680009483337402
1789064039580168400,0.38816845703125,6.9168485961914055,6.810306622314453,0.36930560607910157
1789064039590205400,0.398205322265625,7.147290505981445,6.53138212890625,0.5499181938171387
1789064039600242400,0.408242431640625,7.32281541519165,6.4609028175354,0.6851905876159667
1789064039610279400,0.418279541015625,7.197419103240966,6.321889483642578,0.8131307388305664
1789064039620316400,0.42831640625,7.081300322723388,6.290315949249267,0.6241384452819824
1789064039630353400,0.438353515625,6.929268517303466,6.2693666847229,0.6510732139587402
1789064039640390400,0.448390380859375,7.5813891944885246,5.985953063201904,0.7191583236694336
1789064039650427400,0.458427490234375,8.256254787445068,5.708524945831298,1.0398317085266113
1789064039660464600,0.468464599609375,8.218546111297607,5.898564702606201,1.5623662208557128
1789064039670501400,0.47850146484375,8.742576999664307,5.005677120971679,3.886088569641113
1789064039680538400,0.488538330078125,7.349600546264648,6.3229369468688965,1.9538181922912596
1789064039690575400,0.498575439453125,6.762871501922607,6.021716450500488,2.699013459014892
1789064039700612600,0.508612548828125,7.783998509979248,5.779602807617187,1.0627262619018554
1789064039710650000,0.518650146484375,9.08464856185913,5.70747748260498,0.4525041137695312
1789064039720687000,0.52868701171875,6.87614716796875,5.774215853881835,1.6608277641296385
1789064039730724400,0.538724365234375,7.363217568206787,6.325331148529052,1.0969932731628418
1789064039740761300,0.54876123046875,6.679972269439697,6.2018801254272455,0.987009634399414
1789064039750798300,0.55879833984375,6.977451825714111,6.451625286102295,0.14499883804321287
1789064039760835000,0.5688349609375,7.545027256774902,6.471377449798584,-0.5243301635742187
1789064039770872000,0.5788720703125,7.336432437133789,6.463596294403076,-0.3945943611145019
1789064039780909300,0.588909423828125,8.207173653411864,6.247070681762695,-0.31379005508422847
1789064039790945300,0.5989453125,7.693467759704589,6.4746694770812985,-0.40147769088745117
1789064039800982300,0.608982177734375,7.858069123840331,6.727856302642822,-0.9980828170776367
1789064039811019300,0.619019287109375,8.882937071990966,6.635380263519287,-1.1700164237976074
1789064039821056000,0.629055908203125,8.792855234527588,6.871807677459716,-0.860565859222412
1789064039831093200,0.63909326171875,8.290372161102294,7.018302891540527,-0.24600422058105467
1789064039841130200,0.649130126953125,7.6300214157104485,6.955006185150146,0.4391863670349121
1789064039851167200,0.659167236328125,7.306056003570556,6.714089643096924,0.48123453369140623
1789064039861204200,0.669204345703125,7.14369920349121,6.2496145210266105,0.436043977355957
1789064039871241200,0.6792412109375,6.955754373168945,6.02635521621704,0.4312555740356445
1789064039881278200,0.6892783203125,6.705560299682617,5.738452466583252,0.5527613082885742
1789064039891315200,0.699315185546875,4.438400965118408,7.294533908081054,0.7371148361206055
1789064039901352200,0.709352294921875,7.76948366241455,5.323956304168701,2.038513076019287
1789064039911389200,0.71938916015625,6.48664048538208,6.209362005615234,1.9948188957214354
1789064039921426200,0.72942626953125,5.587468124389648,7.55235949935913,1.4688427185058592
1789064039931463200,0.739463134765625,6.358999609374999,6.196642809295654,2.249202822113037
1789064039941500200,0.749500244140625,6.947973217773437,6.657376991271972,1.8320131828308104
1789064039951537200,0.759537109375,7.980173408508301,6.656778440856933,1.5191209533691405
1789064039961574400,0.769574462890625,7.417386380767822,6.714538555908203,1.3587094421386718
1789064039971611100,0.779611083984375,7.2438067604064935,7.213430326843262,0.6917746421813964
1789064039981648100,0.789648193359375,7.606528311920165,7.495796485137939,0.5204395858764648
1789064039991685000,0.79968505859375,7.523030529022217,7.646331914520263,1.1397896278381348
1789064040001722400,0.809722412109375,7.227645899200439,7.646032639312744,1.3901333389282227
1789064040011759400,0.81975927734375,8.127716085815429,7.404517546844482,1.2342109558105467
1789064040021796400,0.82979638671875,7.082796698760986,7.419182032012939,0.9623194297790527
1789064040031833000,0.8398330078125,6.295553265380859,7.617152581787109,0.09546879119873046
1789064040041870000,0.8498701171875,7.660248211669922,6.707804863739013,0.12135609664916991
1789064040051907300,0.8599072265625,7.389553786468506,6.4475850708007805,0.3595791618347168
1789064040061944300,0.8699443359375,7.178415127563476,6.584653115844726,0.34102409896850583
1789064040071981300,0.879981201171875,7.097610821533203,6.057030924987792,0.987009634399414
1789064040082018000,0.89001806640625,6.349273165130615,6.248417420196533,1.024718310546875
1789064040092055300,0.90005517578125,6.417507912445068,6.252457635498047,0.8075941474914551
1789064040102092300,0.91009228515625,6.247968507385253,6.086808808135986,0.956333925628662
1789064040112129300,0.92012939453125,6.368576416015625,6.270713423156738,0.3676595924377441
1789064040122165200,0.930165283203125,7.641094598388672,6.000467910766601,-0.09142857589721679
1789064040132202200,0.9402021484375,8.230367481994628,5.998223346710205,-0.1304839904785156
1789064040142239200,0.9502392578125,7.819013709259033,6.460753179931641,-0.4970961196899414
1789064040152276200,0.960276123046875,7.242160746765136,6.807164232635498,-0.390703783416748
1789064040162313200,0.970313232421875,7.013364850616455,7.078457208251953,-0.25438392639160157
1789064040172350200,0.98035009765625,7.7513775123596185,7.085639813232421,-0.5038298118591308
1789064040182387200,0.99038720703125,8.118139279174803,6.831704799652099,-0.4789899696350097
1789064040192424200,1.000424072265625,7.696310874176025,7.097012271118164,-0.8047510330200195
1789064040202461200,1.010461181640625,6.944082640075683,7.276278120422363,-0.9792284790039062
1789064040212498200,1.020498291015625,6.726958477020263,7.183353168487549,-0.6109703361511231
1789064040222535200,1.03053515625,7.453149768066406,6.818087777709961,-0.2688987739562988
1789064040232572400,1.040572509765625,7.174374912261962,7.026233684539794,0.2995744827270508
1789064040242609200,1.050609130859375,6.439803915405273,7.123947039794921,0.6268319221496582
1789064040252646100,1.060646240234375,6.928221054077148,7.199962942504882,-0.28655601119995117
1789064040262683100,1.07068310546875,6.6271501953125,6.982240229034423,-0.8445546356201171
1789064040272720400,1.080720458984375,6.016778409576416,6.747458828735351,-1.1403881782531737
1789064040282757400,1.09075732421875,6.223577577972412,6.839785230255127,-0.8958803337097168
1789064040292794000,1.100794189453125,8.374618132019043,5.34984360961914,0.9753379013061523
1789064040302831000,1.1108310546875,10.185233137512206,4.4819455078125,2.9064111778259276
1789064040312868000,1.1208681640625,8.434772448730468,5.396380904388427,3.604620236968994
1789064040322905300,1.1309052734375,6.397755748748779,5.829731404876709,3.19865341796875
1789064040332942300,1.1409423828125,5.239411058044433,6.452672749328613,1.9379566062927245
1789064040342979000,1.15097900390625,4.584746541595459,6.90128628540039,0.712424631500244
1789064040353016000,1.16101611328125,5.664381852722167,7.098508647155762,-0.16819266662597654
1789064040363053300,1.17105322265625,7.669525743103027,6.705410662078857,-0.33039982910156246
1789064040373090300,1.18109033203125,8.26164174118042,6.788010619354248,-0.013916297149658202
1789064040383127300,1.191127197265625,7.587973249053954,7.653664157104492,0.6126163497924805
1789064040393164000,1.2011640625,8.222287051391602,7.664886977386474,1.0944494338989257
1789064040403201300,1.211201171875,9.425971936035156,7.469310629272461,1.32144967880249
1789064040413238300,1.22123828125,8.825326594543457,7.6744637840270995,1.5086463211059569
1789064040423275300,1.231275146484375,7.823053924560546,8.003965787506104,1.084124439239502
1789064040433311200,1.241311279296875,7.582137382507324,7.345410693359375,0.8072948722839355
1789064040443348200,1.25134814453125,7.256675594329834,6.815095025634765,0.28790274963378903
1789064040453385200,1.26138525390625,6.870610576629638,6.660220105743408,-0.42796354675292964
1789064040463422200,1.271422119140625,6.457461152648926,6.0054059516906735,-0.18555062866210936
1789064040473459200,1.281459228515625,6.761375125885009,5.651812294006347,0.1001075569152832
1789064040483496200,1.29149609375,6.456413689422607,5.7335144256591795,0.64478843460083
1789064040493533200,1.301533203125,5.762244845581054,5.730820948791504,1.591695191192627
1789064040503570400,1.3115703125,6.7663131668090815,5.510404758453369,1.8719664230346678
1789064040513607200,1.321607177734375,7.62957250289917,5.495740273284912,1.613243006134033
1789064040523644200,1.33164404296875,7.384166832733154,5.810727429199218,1.1100117446899413
1789064040533681200,1.34168115234375,7.830984717559814,6.0619689659118645,0.2316390106201172
1789064040543718400,1.351718505859375,8.206425465393066,6.13544102935791,-0.00014963760375976562
1789064040553755400,1.36175537109375,8.45856482772827,6.2116065696716305,-0.10729016189575195
1789064040563792100,1.371792236328125,8.81619870071411,6.366631127166747,-0.18854338073730467
1789064040573829000,1.3818291015625,7.764246346282959,6.516867281341552,0.013766659545898436
1789064040583866000,1.3918662109375,7.404367909240722,6.647351271820068,-0.24525603256225584
1789064040593903400,1.4019033203125,7.534702262115478,6.55008682937622,-0.4370914405822754
1789064040603940400,1.4119404296875,7.739256866455078,6.210708744049072,-0.2415150924682617
1789064040613977000,1.42197705078125,8.364891687774657,5.63071339187622,0.11522095489501953
1789064040624014000,1.43201416015625,6.453271299743652,5.885695868682861,0.9543886367797851
1789064040634051300,1.44205126953125,3.8042368003845213,7.08698655166626,0.7591115638732909
1789064040644088300,1.45208837890625,5.367800122070312,6.432022760009765,1.5997756217956542
1789064040654125300,1.462125244140625,7.889493020629883,4.984578218841553,3.0443770484924313
1789064040664162000,1.472162109375,5.246892938232421,6.712293991851806,2.238877827453613
1789064040674199300,1.48219921875,5.531952573394775,7.239167994689941,-0.6988076095581054
1789064040684236300,1.492236328125,2.4443302574157713,8.700079920196533,-1.1020809516906738
1789064040694273300,1.502273193359375,1.9879355659484863,9.220968418884278,-1.823932752227783
1789064040704309800,1.512309814453125,10.85920090484619,9.343671253967285,-2.6523265266418456
1789064040714347000,1.522346923828125,13.180977964782715,8.656535377502442,-0.4029740669250488
1789064040724383000,1.532383056640625,8.778938937377928,8.65114842376709,2.5631425148010254
1789064040734419700,1.542419677734375,8.624812205505371,9.488819729614256,1.9744681816101073
1789064040744456700,1.552456787109375,8.911966767120362,9.0657942237854,1.3347674255371094
1789064040754493700,1.56249365234375,7.268048052215576,8.206724740600585,1.0571896705627442
1789064040764531000,1.572531005859375,8.258200076293944,7.660098574066161,-0.1039981346130371
1789064040774568000,1.58256787109375,6.666205609893798,6.764667153167724,0.3582324234008789
1789064040784604700,1.592604736328125,3.746476685333252,7.096114445495605,0.11267711563110351
1789064040794641700,1.6026416015625,4.8695069015502925,6.51836365737915,-0.40506899337768554
1789064040804679000,1.612678955078125,5.425709874725341,5.500229401397704,-0.32022447204589843
1789064040814716000,1.6227158203125,4.841225394439697,5.723937619018554,-0.4421791191101074
1789064040824753000,1.6327529296875,6.153696817016601,5.834220532989502,-0.5114613296508789
1789064040834789600,1.64278955078125,6.223577577972412,5.695356836700439,0.5232827003479004
1789064040844826600,1.65282666015625,5.513696785736084,6.140977620697021,1.2446855880737304
1789064040854864000,1.66286376953125,6.870909851837157,6.3043818840026855,1.2729670951843262
1789064040864900900,1.67290087890625,7.856722385406494,6.11015227432251,0.9677063835144042
1789064040874937900,1.682937744140625,7.695413048553466,6.753294695281982,0.023642741394042967
1789064040884974600,1.692974609375,7.370100897979736,7.636306195068359,-0.8833107749938964
1789064040895011800,1.70301171875,7.2438067604064935,7.877970925140381,-0.9457096557617187
1789064040905048800,1.713048828125,7.492354820251465,8.03778388595581,-0.7709329345703124
1789064040915085800,1.7230859375,8.25520732421875,7.898022364044189,-0.3371335212707519
1789064040925122800,1.733122802734375,7.785494886016846,7.923161481475829,0.023642741394042967
1789064040935159800,1.743159912109375,6.912808380889892,7.893533235931396,0.47704468078613277
1789064040945196800,1.75319677734375,6.939144599151611,7.630919241333007,0.6471826362609863
1789064040955233800,1.76323388671875,7.070825690460205,7.353640761566162,0.5882254203796387
1789064040965270800,1.773270751953125,6.744166801452637,7.021146006011962,0.6419453201293945
1789064040975307800,1.783307861328125,5.500678314208984,7.454945419311523,0.26336218261718747
1789064040985344800,1.7933447265625,5.380070405578613,7.5148004608154295,-0.15786767196655271
1789064040995381800,1.8033818359375,5.110872356414794,7.542333779907226,0.011522095489501952
1789064041005417700,1.813417724609375,6.031293257141113,7.345111418151855,0.5183446594238281
1789064041015454700,1.823454833984375,6.427982544708252,7.284807463836669,0.8854057014465332
1789064041025491700,1.83349169921875,6.491877801513671,7.585130134582519,1.253214931488037
1789064041035529000,1.843529052734375,6.632237873840332,7.568071447753906,1.1424831047058104
1789064041045566000,1.85356591796875,7.287949853515625,7.391199800109863,0.7223007133483886
1789064041055602700,1.863602783203125,6.730699417114257,7.692569934082031,0.2380734275817871
1789064041065639700,1.8736396484375,6.564003126525878,7.867047380065918,-0.030825346374511717
1789064041075677000,1.883677001953125,7.240963645935058,7.366509595489502,-0.0713771369934082
1789064041085714000,1.8937138671875,7.540388491058349,7.078756483459472,-0.254084651184082
1789064041095751000,1.9037509765625,6.2693666847229,7.663390601348876,-0.6622960342407226
1789064041105787600,1.91378759765625,6.357503233337402,7.295431733703613,-1.0319009155273438
1789064041115824600,1.92382470703125,7.5351511749267575,6.602310353088378,-1.1828852577209472
1789064041125862000,1.93386181640625,7.203105332183838,6.539612197113037,-1.4074913009643555
1789064041135899000,1.94389892578125,7.2258502479553215,6.430077471160888,-1.5423147819519043
1789064041145936000,1.953935791015625,7.189637947845458,5.969941839599609,-1.520766967010498
1789064041155972600,1.96397265625,6.534524518585204,6.122272920227051,-1.709160710144043
1789064041166009900,1.974009765625,6.03967296295166,6.299593480682373,-1.80672442779541
1789064041176046800,1.984046875,7.072022791290283,5.755511153411865,-1.7357962036132812
1789064041186083800,1.994083740234375,7.8523828948974606,5.625625713348389,-1.862988166809082
1789064041196120800,2.004120849609375,7.753771714019775,5.824194813537598,-2.035969236755371
1789064041206157800,2.01415771484375,6.61443099899292,6.37830286026001,-2.327014376068115
1789064041216194800,2.02419482421875,6.544849513244628,6.783371853637695,-2.3063643867492676
1789064041226231800,2.034231689453125,8.0958432762146,6.439205364990234,-1.8867805458068847
1789064041236268800,2.044268798828125,8.935908783721922,6.268019946289062,-1.1438298431396483
1789064041246305800,2.054305908203125,7.37414111328125,7.028627886199951,-0.6392518432617187
1789064041256342800,2.0643427734375,6.570587181091308,7.3937436393737785,-0.1883937431335449
1789064041266379800,2.0743798828125,7.100453936004638,6.968174294281005,0.2316390106201172
1789064041276416800,2.084416748046875,7.446864988708495,7.198765841674804,0.31708208236694335
1789064041286452700,2.09445263671875,7.482927651214599,7.023839482879638,0.47120881423950195
1789064041296489700,2.10448974609375,6.8411319686889644,7.493252645874023,0.8315361640930176
1789064041306527000,2.11452685546875,5.901108541870117,7.77606771697998,2.0642507438659665
1789064041316564000,2.12456396484375,6.317849268341064,7.519439226531982,3.234117530059814
1789064041326600700,2.1346005859375,6.778134537506103,7.385363933563232,3.9598599082946775
1789064041336637700,2.1446376953125,7.259668346405029,7.248445526123047,4.582950890350341
1789064041346675000,2.154675048828125,6.0704983093261715,7.595604766845702,4.436306038665771
1789064041356712000,2.1647119140625,6.761674401092529,7.189039397430419,4.225466654968262
1789064041366749000,2.1747490234375,6.134393566131592,7.292588619232177,3.727921622467041
1789064041376785700,2.18478564453125,7.091326042175292,7.130082181549072,3.6477158668518066
1789064041386822700,2.19482275390625,6.623558892822265,7.077709020233154,3.5722985145568846
1789064041396860000,2.20485986328125,7.034763027954101,7.14399847869873,3.4097920768737793
1789064041406897000,2.21489697265625,6.672041476440429,7.06723438796997,3.180547267913818
1789064041416934000,2.224933837890625,6.073939974212646,7.480832724761963,2.4582465545654295
1789064041426970600,2.234970703125,6.332214478302002,7.3292498321533195,1.9846435386657715
1789064041437008000,2.2450078125,7.3359835243225096,6.8028247421264645,1.3582605293273926
1789064041447044900,2.255044921875,7.6933181221008295,6.814646112823486,0.47165772705078124
1789064041457081900,2.265081787109375,6.9910688476562495,6.9545572723388664,0.1144727668762207
1789064041467118800,2.275118896484375,6.1626750732421876,7.160458615112304,-0.5193921226501464
1789064041477155800,2.28515576171875,7.193229250335693,7.02922643661499,-1.0063128852844239
1789064041487192800,2.29519287109375,7.669974655914306,6.5862991294860835,-0.8809165733337402
1789064041497229800,2.305229736328125,6.452822386932373,7.210886487579345,-0.40566754379272457
1789064041507266800,2.315266845703125,6.060921502685546,7.3283520065307615,0.2829647087097168
1789064041517303800,2.3253037109375,8.125621159362792,6.715436381530761,0.8321347145080565
1789064041527340800,2.3353408203125,7.6285250396728514,6.800580178070068,1.5734394035339354
1789064041537376800,2.345376708984375,7.363516843414306,7.391499075317382,1.6475100173950195
1789064041547413800,2.355413818359375,8.251017471313476,6.666804160308837,2.099116305541992
1789064041557450800,2.36545068359375,5.6012347839355465,7.484872940063476,2.382679564666748
1789064041567487700,2.37548779296875,6.123021108245849,7.436240718841552,2.1001637687683106
1789064041577525000,2.38552490234375,7.808987989807129,6.431873122406006,1.9966145469665526
1789064041587561700,2.395561767578125,6.9630866157531734,6.791751559448242,2.1715409057617188
1789064041597598700,2.4055986328125,5.970390752410888,7.110928568267822,2.442684243774414
1789064041607635700,2.4156357421875,7.503577640533447,6.767061354827881,3.105878103637695
1789064041617673000,2.4256728515625,7.453598680877685,6.405836179351806,3.816357446289062
1789064041627710000,2.4357099609375,7.318924837493896,7.009474272918701,3.8805519783020017
1789064041637746700,2.44574658203125,8.310872512817383,6.51851329498291,3.5839702476501465
1789064041647783700,2.45578369140625,7.388655960845947,6.677129154968261,2.8417677330017086
1789064041657820700,2.465820556640625,7.414094353485107,7.162403903961181,1.3311761230468748
1789064041667858000,2.47585791015625,8.587552442169189,6.1836243377685545,0.056413376617431635
1789064041677895000,2.48589501953125,6.54365241241455,7.073070254516601,-0.9962871658325195
1789064041687932000,2.495931884765625,7.550114935302734,6.321141295623779,-1.1941080780029296
1789064041697968600,2.50596875,6.219088449859619,6.370222429656982,-1.3275848205566405
1789064041708005400,2.51600537109375,5.878064350891113,6.6157777374267575,-1.4362217208862305
1789064041718042400,2.52604248046875,6.815394300842285,5.66258620147705,-1.32144967880249
1789064041728079400,2.536079345703125,6.872555865478515,5.997624796295166,-2.37489840927124
1789064041738116400,2.546116455078125,7.004835507202148,5.8928784736633295,-3.3797149185180664
1789064041748153000,2.556153076171875,7.046584398651123,6.170755503845214,-4.700566046905517
1789064041758190300,2.5661904296875,7.249492989349365,6.522104597473144,-5.673958659362793
1789064041768227300,2.576227294921875,7.32281541519165,6.580762538146972,-5.653458307647705
1789064041778264300,2.586264404296875,6.714987468719482,7.124096677398681,-4.895693482208252
1789064041788300300,2.59630029296875,7.059153957366943,7.095515895080566,-3.7237317695617675
1789064041798337300,2.606337158203125,7.766939823150635,6.851456963348388,-2.8562825805664063
1789064041808374500,2.61637451171875,8.919897560119628,6.495020191192626,-2.47096575088501
1789064041818411300,2.626411376953125,8.812158485412597,6.075885263061523,-2.3823802894592285
1789064041828448300,2.6364482421875,7.886649906158447,6.0975827156066895,-2.5570073730468748
1789064041838485200,2.6464853515625,7.711274634552002,5.802198085784911,-2.5767595367431637
1789064041848522500,2.6565224609375,8.192209893035889,4.87145219039917,-2.1122844146728514
1789064041858559500,2.6665595703125,7.832481093597412,4.857685530853272,-1.605611488342285
1789064041868596200,2.67659619140625,6.507589749908447,4.895244569396972,-0.7291840431213379
1789064041878633200,2.68663330078125,5.455637395477295,5.195118327331543,0.3576338729858398
1789064041888670200,2.696670166015625,7.828440878295898,3.994725469970703,1.1547533882141112
1789064041898707500,2.70670751953125,8.230367481994628,4.019714949798583,1.546803910064697
1789064041908744400,2.716744384765625,8.103923706817627,4.501398396301269,1.610100616455078
1789064041918781200,2.72678125,8.98828194503784,4.5033436851501465,1.1167454368591307
1789064041928818200,2.736818115234375,10.11834512863159,4.388422005462647,0.14694412689208983
1789064041938855400,2.74685546875,7.68703334274292,5.913678100585937,0.05581482620239257
1789064041948892400,2.756892333984375,3.1748610389709473,8.049605256652832,0.6926724678039551
1789064041958929400,2.766929443359375,-0.28371289672851563,10.051307482147216,0.24944588546752927
1789064041968966100,2.776966064453125,5.377376928710937,7.772626052093505,3.6891654830932614
1789064041979003400,2.78700341796875,16.895132927703855,5.9108349861145015,8.783577703094481
1789064041989040400,2.797040283203125,14.654459449005126,7.655609445953369,4.642955569458008
1789064041999077400,2.807077392578125,13.257442780303954,8.669703486633301,3.067570877075195
1789064042009114400,2.8171142578125,8.613739022827147,9.366865082550047,1.6557400856018065
1789064042019151000,2.827151123046875,6.9068228767395015,9.990105702209473,0.33803134689331055
1789064042029188400,2.837188232421875,9.345466905212401,7.6087728759765625,0.8324339897155761
1789064042039224300,2.847224365234375,9.114127169799804,6.215946060180664,2.5172037704467773
1789064042049261300,2.85726123046875,6.5375172706604,6.3335612167358395,3.5462615715026855
1789064042059298300,2.86729833984375,5.279065023040771,5.932981351470947,3.319261326599121
1789064042069335300,2.877335205078125,6.088754096984863,3.7995980346679685,2.9275100799560545
1789064042079372300,2.887372314453125,5.523572867584228,2.474557053375244,1.7820342231750488
1789064042089409300,2.8974091796875,4.5239936744689935,3.6227263870239255,0.16310498809814453
1789064042099446300,2.9074462890625,4.694580542755126,3.5883097381591793,-0.31229367904663086
1789064042109483300,2.917483154296875,4.6541783897399895,3.896413564300537,-0.26336218261718747
1789064042119520500,2.9275205078125,4.292803576660156,5.619490571594238,-0.20066402664184568
1789064042129557200,2.93755712890625,6.13514175415039,6.1179334297180175,0.1997662010192871
1789064042139594200,2.94759423828125,7.549516384887695,6.47377165145874,0.5807435401916503
1789064042149631200,2.95763134765625,7.275230657196045,7.68044928817749,0.7603086647033691
1789064042159668200,2.967668212890625,8.853757739257812,9.310750981140137,0.558597174835205
1789064042169705500,2.97770556640625,10.56650975189209,8.966434854888915,0.28745383682250975
1789064042179742500,2.987742431640625,10.07390276031494,8.189516416168212,0.30361469802856444
1789064042189779200,2.997779296875,8.857199404144287,9.000252953338622,-0.4632780212402344
1789064042199816200,3.007816162109375,8.048258518218994,8.626308581542968,-1.2044330726623536
1789064042209853400,3.017853515625,7.770830400848388,7.752424975585937,-1.603067649078369
1789064042219890400,3.027890380859375,6.419453201293945,7.617900769805908,-1.9316718269348143
1789064042229927400,3.037927490234375,5.538686265563965,7.102848137664795,-1.641973426055908
1789064042239964200,3.047964111328125,6.299144567871093,5.936423016357422,-1.07245270614624
1789064042250001400,3.05800146484375,6.283133344268799,5.480327600097656,-0.733523533630371
1789064042260038400,3.068038330078125,4.525340412902832,5.877615438079833,-0.6452373474121094
1789064042270075400,3.078075439453125,4.509029914093017,5.751919850921631,-0.6120177993774414
1789064042280112400,3.0881123046875,5.067776726531982,5.896320138549805,-0.900818374633789
1789064042290148400,3.0981484375,6.32084202041626,6.011541093444824,-1.1164461616516113
1789064042300185000,3.10818505859375,7.985410724639892,5.6492684547424314,-0.6801029090881348
1789064042310222300,3.118222412109375,7.123647764587402,6.591087532806396,-0.5243301635742187
1789064042320259300,3.12825927734375,7.138611524963379,6.849062761688232,0.002992752075195312
1789064042330296300,3.13829638671875,8.849418248748778,6.42903000793457,0.558597174835205
1789064042340333300,3.148333251953125,9.44243207244873,6.6629135826110835,0.843357534790039
1789064042350370300,3.158370361328125,8.374468494415282,7.135319497680664,1.2125135032653809
1789064042360407300,3.1684072265625,7.422324421691894,7.5813891944885246,1.4196119468688964
1789064042370444300,3.1784443359375,7.000944929504394,7.960271607208251,1.2395979095458984
1789064042380481300,3.188481201171875,7.001842755126953,7.883507516479492,0.8234557334899902
1789064042390518500,3.1985185546875,6.167463476562499,8.147617887115478,0.3161842567443848
1789064042400555300,3.20855517578125,6.477063678741454,7.96116943283081,0.027084406280517576
1789064042410592300,3.21859228515625,5.935076277923583,7.816020957183837,0.22520459365844725
1789064042420629200,3.228629150390625,6.39745647354126,7.593659477996826,0.7327753456115722
1789064042430666200,3.238666259765625,7.9283987976074215,6.538864009094238,1.2140098793029785
1789064042440703500,3.248703369140625,6.621912879180908,6.883629048156738,1.3774141426086426
1789064042450740200,3.258740234375,5.09441222000122,7.502230902099609,1.1791443176269532
1789064042460777200,3.268777099609375,6.970269220733642,6.613084260559082,0.9751882637023925
1789064042470814200,3.278814208984375,8.298751866912841,6.106860247039794,0.08544307174682617
1789064042480851500,3.2888515625,5.112518370056152,7.679401824951172,-0.184503165435791
1789064042490888400,3.298888427734375,5.780201358032226,6.996306163787842,0.5849333930969238
1789064042500925200,3.30892529296875,7.968800950622558,6.40359161529541,0.34671032791137696
1789064042510962200,3.318962158203125,9.552116436004638,6.21848989944458,0.2684498611450195
1789064042520999400,3.32899951171875,7.771129676055907,6.405536904144287,0.21158757171630857
1789064042531035400,3.339035400390625,6.490231787872314,7.43788673248291,-0.46148236999511716
1789064042541072400,3.349072265625,7.52063632736206,6.663512133026122,-0.28221652069091796
1789064042551109400,3.359109375,7.943661833190918,6.542754586791991,0.14634557647705076
1789064042561146400,3.369146484375,7.4895117057800284,6.715586019134521,0.2510918991088867
1789064042571183000,3.37918310546875,6.843675807952881,6.7091516021728514,0.39324762268066404
1789064042581220400,3.389220458984375,5.542277568054199,7.164648468017577,0.17806874847412107
1789064042591257300,3.39925732421875,6.516867281341552,6.511330690002441,-0.03965396499633789
1789064042601294300,3.40929443359375,5.774515129089355,6.612784985351562,-0.23986907882690428
1789064042611331300,3.419331298828125,5.154416899108886,6.950517057037353,-0.33533787002563475
1789064042621368300,3.429368408203125,6.303334420776367,6.181379773712158,-0.2337339370727539
1789064042631405300,3.4394052734375,6.281337693023681,6.341492009735107,-0.3730465461730957
1789064042641442300,3.4494423828125,6.044760641479492,6.868066737365722,-0.903362213897705
1789064042651479300,3.459479248046875,6.642712506103515,6.902483386230468,-1.2277765388488768
1789064042661516500,3.4695166015625,7.269993341064453,7.060051782989501,-1.4395137481689453
1789064042671553300,3.47955322265625,8.275408400726318,7.154024198150634,-1.721131718444824
1789064042681590300,3.48959033203125,8.045864316558838,7.453149768066406,-1.6491560310363769
1789064042691627300,3.499627197265625,8.371026829528809,7.263259648895263,-1.633144807434082
1789064042701664300,3.509664306640625,8.961796089172363,6.830058786010742,-1.7296610618591308
1789064042711701800,3.51970166015625,7.2069959098815914,7.321169401550293,-2.1637597503662107
1789064042721739000,3.529739013671875,7.164798105621338,7.073369529724121,-2.3279122016906735
1789064042731776000,3.53977587890625,7.8535799957275385,6.19948592376709,-2.4802432823181153
1789064042741813000,3.54981298828125,7.1230492141723625,6.452822386932373,-2.6631004341125486
1789064042751850000,3.55985009765625,6.539911472320556,6.05239215927124,-2.2940941032409667
1789064042761886700,3.56988671875,5.677549961853027,6.33341157913208,-2.2489035469055176
1789064042771924000,3.579924072265625,7.313088970947265,5.620089122009277,-1.8014871116638183
1789064042781960000,3.5899599609375,7.612513816070556,5.494094259643554,-1.5206173294067382
1789064042791997000,3.599996826171875,7.3080012924194335,6.077082363891601,-1.3596072677612303
1789064042802034000,3.610033935546875,7.452102304840087,5.98161357269287,-1.2316671165466309
1789064042812071000,3.62007080078125,6.602011077880859,6.756437084960937,-1.3980641319274902
1789064042822108000,3.63010791015625,7.658901473236083,6.675782416534424,-1.5173253021240234
1789064042832145000,3.640144775390625,8.123077320098876,6.653037500762939,-1.4758756858825683
1789064042842182000,3.650181884765625,8.402899639129638,6.7091516021728514,-1.3099275833129882
1789064042852219000,3.660218994140625,8.096292189025878,6.667402710723876,-0.9361328491210937
1789064042862256000,3.670256103515625,7.3374799003601066,7.037905417633056,-0.9009680122375487
1789064042872293000,3.680293212890625,8.089408859252929,6.2581438644409175,-0.4836287353515625
1789064042882329900,3.690329833984375,6.612036797332763,6.9807438529968255,-0.6172551155090331
1789064042892366800,3.700366943359375,7.857620211029052,6.235099673461914,-0.3067570877075195
1789064042902403800,3.71040380859375,7.404517546844482,6.219836637878418,-0.21517887420654297
1789064042912441000,3.720441162109375,6.74820701675415,6.838288854217529,-0.5116109672546386
1789064042922478000,3.73047802734375,7.540687766265869,6.136638130187988,-0.25528175201416015
1789064042932514800,3.740514892578125,7.107636540985107,6.84427435836792,-0.5960065757751465
1789064042942551800,3.7505517578125,7.727435495758056,6.432471672821045,-0.3850175544738769
1789064042952589000,3.760589111328125,6.483049182891845,6.92014062347412,-0.3586813362121582
1789064042962626000,3.7706259765625,7.002890218353271,6.866420723724365,-0.3510498184204101
1789064042972663000,3.7806630859375,7.229441550445556,6.354360843658447,0.028431144714355466
1789064042982699800,3.79069970703125,7.053617366027831,6.724564275360107,0.04668693237304687
1789064042992737000,3.800737060546875,8.932467118835449,5.718999578094482,0.04085106582641601
1789064043002774000,3.81077392578125,7.542034504699706,6.510732139587402,-0.6278793853759765
1789064043012810000,3.82081005859375,6.561010374450683,6.772298670959472,-0.6813000099182128
1789064043022847000,3.830846923828125,6.28253479385376,6.653486413574218,-0.5319616813659668
1789064043032884000,3.840884033203125,6.8399348678588865,6.744914989471435,-0.3618237258911133
1789064043042920700,3.850920654296875,7.292887894439697,6.096235977172851,-0.01571194839477539
1789064043052958000,3.8609580078125,6.430676021575928,6.846668560028076,-0.9165303230285644
1789064043062995000,3.870994873046875,7.15701695022583,6.326228974151611,-1.354070676422119
1789064043073032000,3.881031982421875,7.627178301239013,6.180781223297119,-1.6581342872619629
1789064043083069000,3.89106884765625,7.618648957824707,6.359897434997558,-1.739088230895996
1789064043093106000,3.90110595703125,7.3289505569458,6.327575712585449,-1.4939818359375
1789064043103143000,3.911142822265625,6.873752966308594,6.85684391708374,-1.638232485961914
1789064043113180000,3.921179931640625,8.23590407333374,6.323086584472656,-1.4223054237365722
1789064043123217000,3.931216796875,6.959345675659179,6.937947498321533,-0.967257470703125
1789064043133254100,3.941254150390625,7.015759052276611,6.899789909362792,-0.47315410308837885
1789064043143291000,3.951290771484375,7.11885936126709,6.76691171722412,-0.20769699401855468
1789064043153327900,3.961327880859375,7.39299545135498,6.777835262298583,-0.4951508308410644
1789064043163364900,3.97136474609375,8.425794192504883,6.359747797393799,-1.0271125122070313
1789064043173401900,3.98140185546875,7.192929975128173,7.056310842895507,-1.5442600708007812
1789064043183439000,3.991439208984375,7.3091983932495115,6.742670425415039,-1.3859434860229491
1789064043193475800,4.001475830078125,5.934477727508544,7.32251613998413,-1.0996867500305174
1789064043203512800,4.011512939453125,6.385036552429199,7.1869444709777826,-0.712424631500244
1789064043213549800,4.0215498046875,7.257124507141113,6.693439653778076,-0.5871779571533203
1789064043223587000,4.031587158203125,7.684639141082763,6.985232981109618,-1.119139638519287
1789064043233624000,4.0416240234375,7.637204020690917,6.536469807434082,-1.2771569480895995
1789064043243660800,4.051660888671875,6.064063892364501,7.510311332702636,-1.9086276359558105
1789064043253697800,4.06169775390625,7.213579964447021,6.687304512023926,-1.9645920997619628
1789064043263733800,4.071733642578125,6.366631127166747,7.044788747406005,-2.226906819152832
1789064043273771000,4.08177099609375,7.061847434234619,6.966079367828368,-2.652625801849365
1789064043283808000,4.09180810546875,6.470629261779785,7.001693117523193,-2.479046181488037
1789064043293845000,4.101844970703125,6.711096891021728,7.175272737884521,-2.18979669342041
1789064043303882000,4.111882080078125,6.722319711303711,6.884077960968018,-1.356764153289795
1789064043313918700,4.121918701171875,6.635080988311767,7.2429089347839355,-0.9856628959655761
1789064043323956000,4.1319560546875,7.216722354125976,6.475567302703857,-0.5571007987976074
1789064043333993000,4.141992919921875,5.9503393135070795,7.137414424133301,-0.834379278564453
1789064043344030000,4.152030029296875,6.506392649078369,6.535123069000243,-0.7200561492919921
1789064043354067000,4.16206689453125,5.9403135940551755,6.662464669799804,-0.2738368148803711
1789064043364104000,4.17210400390625,6.622661067199707,6.715735656738281,-0.02424129180908203
1789064043374141000,4.182140869140625,7.462277661895752,6.301089856719971,0.5041290870666504
1789064043384178000,4.192177978515625,7.267898414611816,6.740874774169922,0.4944026428222656
1789064043394215000,4.20221484375,6.599616876220702,7.098508647155762,0.6663362495422362
1789064043404252200,4.212252197265625,6.532130316925048,7.180809329223632,0.866401725769043
1789064043414289000,4.222288818359375,6.523002423095702,7.1592615142822265,1.1516109985351561
1789064043424326000,4.232325927734375,6.957998937225342,7.225700610351562,1.1341033988952636
1789064043434363000,4.24236279296875,9.349656758117675,6.476315490722656,0.9045593147277832
1789064043444399900,4.25239990234375,8.65758284072876,6.790853733825683,0.3919008842468262
1789064043454437000,4.26243701171875,7.343615042114258,7.255777768707275,-0.1409586227416992
1789064043464473900,4.272473876953125,5.149029945373535,7.822455374145507,-0.31483751831054685
1789064043474510800,4.2825107421875,6.5209074966430665,7.17617056350708,-0.45070846252441404
1789064043484547800,4.2925478515625,7.418433843994141,6.4463879699707025,-0.24495675735473632
1789064043494585000,4.302585205078125,7.081599597930908,6.470329986572265,-0.13287819213867186
1789064043504622000,4.3126220703125,5.789927802276611,6.575375584411621,-0.09771335525512695
1789064043514658000,4.322657958984375,5.914426288604736,6.7453639022827145,-0.44367549514770505
1789064043524695000,4.332695068359375,6.921487361907959,6.074388887023925,-0.407313557434082
1789064043534731800,4.342731689453125,7.203853520202636,6.284480082702636,-0.405368268585205
1789064043544769000,4.35276904296875,7.370250535583495,6.202329038238525,-0.31049802780151364
1789064043554806000,4.362805908203125,6.291064137268066,6.991517760467529,-0.2241571304321289
1789064043564843000,4.372843017578125,7.398232767486572,6.602459990692139,-0.27623101654052734
1789064043574880000,4.3828798828125,8.239944288635254,6.910414179229736,-0.745644179534912
1789064043584916700,4.392916748046875,8.92528451385498,6.751798319244385,-0.6792050834655762
1789064043594954000,4.4029541015625,6.964582991790771,7.5457754447937,-0.43634325256347656
1789064043604991000,4.412990966796875,7.695861961364746,7.383568282318115,-0.09112930068969725
1789064043615028000,4.423028076171875,8.277802602386474,6.848314573669433,0.23927052841186522
1789064043625065000,4.43306494140625,7.762450695037841,7.190386135864258,0.316034619140625
1789064043635102000,4.44310205078125,6.8685156501770015,7.141903552246093,0.20305822830200193
1789064043645139000,4.453138916015625,7.578546080017089,6.983138054656982,-0.039354689788818356
1789064043655176000,4.463176025390625,7.504176190948486,6.768857006072998,0.08304887008666992
1789064043665213000,4.473212890625,8.087762845611572,6.644807432556152,0.4975450325012207
1789064043675250200,4.483250244140625,7.310694769287109,6.685359223175048,1.0844237144470215
1789064043685287000,4.493286865234375,6.665756697082519,6.92014062347412,1.6211737991333006
1789064043695324000,4.503323974609375,5.855618710327148,6.927173590850829,1.8269255043029784
1789064043705361200,4.513361083984375,6.4643444824218745,6.831854437255859,1.5204676918029785
1789064043715398400,4.5233984375,6.216095697784423,6.573280657958984,1.1616367179870606
1789064043725435100,4.53343505859375,6.387580391693115,6.720075147247314,0.6741174049377441
1789064043735472000,4.54347216796875,7.228693362426758,6.031742169952392,0.7775169891357422
1789064043745509000,4.553509033203125,7.429507026672363,6.087257720947266,0.9207201759338378
1789064043755546400,4.56354638671875,7.521983065795898,6.029647243499755,0.9838672447204589
1789064043765582300,4.573582275390625,6.877793181610107,6.36498511352539,0.7433996154785156
1789064043775619300,4.583619384765625,7.199514029693603,6.511031414794921,0.21832126388549802
1789064043785656300,4.59365625,8.455272800445556,6.002413199615479,0.2690484115600586
1789064043795693000,4.603693115234375,8.188468952941895,6.101024380493164,0.4418798439025879
1789064043805730300,4.613730224609375,8.3762641456604,6.221931564331054,0.6138134506225585
1789064043815767300,4.623767333984375,7.887697369384765,5.779153894805908,0.531812043762207
1789064043825804300,4.63380419921875,6.598569412994385,6.657676266479492,-0.02289455337524414
1789064043835841300,4.64384130859375,7.2815154365539545,5.992686755371094,-0.3329436683654785
1789064043845878000,4.6538779296875,8.48445213317871,5.744437970733642,-0.37933132553100585
1789064043855915300,4.663915283203125,7.704690579986572,5.967398000335693,-0.1135749412536621
1789064043865952300,4.6739521484375,8.337208731079102,5.984157411956787,0.64478843460083
1789064043875989200,4.6839892578125,7.530362771606445,5.9688943763732905,1.1571475898742676
1789064043886026200,4.694026123046875,6.944381915283203,6.73563745803833,1.0148422286987304
1789064043896063200,4.704063232421875,6.924929026794433,6.574627396392822,0.39653964996337887
1789064043906100200,4.714100341796875,8.61269155960083,6.147262400054931,-0.1105821891784668
1789064043916137200,4.72413720703125,7.212083588409423,6.2678703086853025,-0.6777087074279785
1789064043926174200,4.73417431640625,6.893654767608642,6.977751100921631,-1.0881646545410155
1789064043936211500,4.74421142578125,8.124872971343994,5.662137288665771,-0.6274304725646972
1789064043946248200,4.754248291015625,7.653364881896972,6.583755290222167,-0.6914753669738769
1789064043956285200,4.76428515625,5.8545712471008295,7.274632106781006,-0.3051110740661621
1789064043966322200,4.774322265625,7.276278120422363,6.9898717468261715,0.18599954147338865
1789064043976359200,4.784359130859375,7.4503066535949705,6.974907986450195,0.40147769088745117
1789064043986396400,4.794396484375,7.947103498077392,7.235427054595947,0.5183446594238281
1789064043996433200,4.80443310546875,8.745120838928223,6.198288822937012,0.48991351470947264
1789064044006470100,4.81447021484375,7.1483379692077635,7.125742691040038,-0.38232407760620113
1789064044016507100,4.824507080078125,5.86070638885498,6.761524763488769,-0.8689455650329589
1789064044026543000,4.834543212890625,5.890184996795654,6.781426564788818,-1.601271997833252
1789064044036580400,4.844580322265625,6.6072483940124505,6.334608679962158,-1.399560507965088
1789064044046617300,4.854617431640625,7.835324208068847,5.748328548431396,-0.7297825935363769
1789064044056654300,4.864654296875,7.04808077468872,6.072892510986327,-0.09202712631225586
1789064044066691000,4.874691162109375,5.431246466064453,6.841431243896484,0.704194563293457
1789064044076728300,4.884728271484375,6.2575453140258785,6.625055268859863,0.8087912483215332
1789064044086765300,4.894765380859375,7.5439797935485835,6.6066498435974115,0.3082534637451172
1789064044096802300,4.90480224609375,7.773074964904785,6.702417910003661,-0.03127425918579101
1789064044106839300,4.91483935546875,6.846369284820557,7.22106184463501,-0.2814683326721191
1789064044116876000,4.9248759765625,5.5906105140686035,7.679102549743652,-0.2512415367126465
1789064044126913300,4.934913330078125,7.096563358306884,7.209090836334228,-0.2554313896179199
1789064044136950300,4.9449501953125,9.098564859008789,6.431573847198486,-0.5829881042480468
1789064044146987300,4.9549873046875,8.220192124938965,7.046584398651123,-0.8860042518615722
1789064044157024300,4.965024169921875,6.860734494781494,7.129483631134033,-0.6088754096984863
1789064044167061200,4.975061279296875,6.880486658477783,7.1872437461853025,-0.7785644523620605
1789064044177098200,4.98509814453125,7.402721895599365,6.791452284240722,-0.7381622993469238
1789064044187135200,4.99513525390625,7.32251613998413,6.654384239196777,-0.6028899055480956
1789064044197172200,5.005172119140625,6.940790612792968,6.565798777770996,-0.5506663818359374
1789064044207209500,5.01520947265625,5.863998416137695,7.010970648956299,-0.31438860549926756
1789064044217246200,5.02524609375,6.174047531127929,6.688800888061523,0.15652093353271485
1789064044227283200,5.035283203125,8.000823397827148,6.368726053619384,0.27353753967285155
1789064044237320200,5.0453203125,8.52305863494873,6.226570330047607,0.2741360900878906
1789064044247357200,5.055357177734375,6.697479869079589,7.3846157455444335,0.048183308410644526
1789064044257394400,5.06539453125,6.878990282440185,7.079205396270751,0.055365913391113276
1789064044267431200,5.07543115234375,8.24203921508789,6.900687734985351,-0.2653074714660644
1789064044277468200,5.08546826171875,9.242216958618164,6.3700727920532225,-0.512059880065918
1789064044287504100,5.095504150390625,7.365312494659423,7.03581049118042,-0.6118681617736816
1789064044297541000,5.105541015625,6.86941347579956,6.827814221954346,-0.6789058082580566
1789064044307578400,5.115578369140625,6.330119551849365,6.851008050537109,-0.8207622566223144
1789064044317615400,5.125615478515625,6.9719152343749995,6.533776330566406,-1.247528702545166
1789064044327652000,5.135652099609375,7.258471245574951,6.206069978332519,-1.424849263000488
1789064044337689000,5.145689208984375,6.991817035675048,6.0996776420593255,-1.5102923347473143
1789064044347726300,5.155726318359375,6.066607731628418,6.391022056579589,-1.526602833557129
1789064044357763300,5.165763427734375,6.258592777252197,6.2858268211364745,-1.7106570861816406
1789064044367800300,5.17580029296875,6.86986238861084,6.0707975845336914,-1.9541174674987791
1789064044377837000,5.185837158203125,7.346458156585693,6.106560971832275,-2.2973861305236816
1789064044387874000,5.1958740234375,7.2909426055908195,6.258592777252197,-2.475005966186523
1789064044397911300,5.205911376953125,6.748805567169189,6.48589229736328,-2.3042694602966307
1789064044407948300,5.2159482421875,7.650521767425537,6.223278302764892,-2.4028806411743164
1789064044417985300,5.2259853515625,7.255777768707275,6.476315490722656,-2.798223190307617
1789064044428022300,5.236022216796875,6.818087777709961,6.794145761108398,-3.259406285095215
1789064044438059300,5.246059326171875,7.162403903961181,6.7167831199645995,-3.7208886550903317
1789064044448096300,5.25609619140625,8.142829483795165,6.399102487182617,-3.880851253509521
1789064044458133200,5.26613330078125,7.962216896057129,6.44803398361206,-3.5570354789733885
1789064044468170200,5.276170166015625,7.953238639831542,6.447734708404541,-3.0386908195495606
1789064044478207200,5.286207275390625,6.634183162689209,6.7037646484375,-2.3151930053710936
1789064044488244200,5.296244140625,6.515221267700195,6.674286040496826,-2.1719898185729978
1789064044498281200,5.30628125,6.45416912536621,6.7271081146240235,-2.123357597351074
1789064044508318200,5.316318115234375,7.250540452575684,6.246621768951416,-1.7190367919921874
1789064044518355200,5.326355224609375,7.6659344406127925,6.066009181213379,-1.4534300453186035
1789064044528392200,5.33639208984375,8.456619538879394,5.973533142089844,-1.2617442749023438
1789064044538428400,5.346428466796875,8.379256897735596,6.108955173492431,-1.263539926147461
1789064044548465200,5.356465087890625,8.601917652130126,6.209810918426514,-1.3456909706115723
1789064044558502100,5.366502197265625,6.688950525665283,6.985083343505859,-1.2882301307678221
1789064044568539100,5.3765390625,7.141903552246093,7.177367664337158,-1.011849476623535
1789064044578576400,5.386576416015625,8.267178332519531,6.516418368530273,-0.7588122886657714
1789064044588613400,5.39661328125,8.282740643310547,6.827215671539307,-0.5588964500427246
1789064044598650000,5.406650146484375,7.4609309234619134,6.884377236175537,-0.38367081604003905
1789064044608687000,5.41668701171875,8.006060713958739,6.65213967514038,-0.6253355461120605
1789064044618724400,5.426724365234375,7.800757921600342,6.564003126525878,-0.6440402465820312
1789064044628761300,5.43676123046875,7.696011598968505,6.42229631576538,-0.3933972602844238
1789064044638798300,5.44679833984375,7.432948691558837,6.400898138427734,0.017357962036132813
1789064044648835000,5.4568349609375,6.302137319946289,6.471527087402343,0.6402993064880371
1789064044658872000,5.4668720703125,5.434089580535888,6.641216130065917,0.589272883605957
1789064044668909300,5.476909423828125,4.942081139373779,6.585550941467285,0.2750339157104492
1789064044678946300,5.4869462890625,6.106112059020996,6.219986275482177,-0.11342530364990233
1789064044688983300,5.4969833984375,7.3742907508850095,5.567865598297119,-0.2255038688659668
1789064044699020000,5.50702001953125,7.084592350006103,5.7966614944458,0.013916297149658202
1789064044709056500,5.517056396484375,6.613233898162841,5.965003798675537,0.2736871772766113
1789064044719093800,5.52709375,7.869740856933594,5.7326166000366205,0.3612251754760742
1789064044729130800,5.537130859375,7.799710458374023,6.206668528747558,0.2705447875976562
1789064044739167700,5.547167724609375,7.767089460754394,6.432621310424804,0.27398645248413084
1789064044749204700,5.557204833984375,8.14013600692749,6.66515814666748,-0.020350714111328123
1789064044759241700,5.56724169921875,7.868543756103515,6.977302188110351,-0.36691140441894526
1789064044769278700,5.57727880859375,8.027458891296387,6.993612686920166,-0.7665934440612793
1789064044779315700,5.587315673828125,7.291840431213378,7.201758593749999,-1.0733505317687988
1789064044789352700,5.597352783203125,7.5519105865478515,6.870161663818359,-0.9323919090270996
1789064044799390000,5.607389892578125,8.044517578125,6.47377165145874,-0.16175824966430663
1789064044809426000,5.617426025390625,8.390629355621337,6.032041445159912,0.6994061599731445
1789064044819462700,5.627462646484375,6.673537852478027,6.663362495422363,1.1788450424194334
1789064044829499600,5.637499755859375,7.318775199890136,6.343736573791504,1.3274351829528808
1789064044839536600,5.64753662109375,7.391648712921143,6.151601890563964,1.012597664642334
1789064044849573600,5.65757373046875,6.8210805297851556,6.859238118743896,0.45190556335449217
1789064044859611000,5.66761083984375,6.218938812255859,6.8578913803100585,0.1731307075500488
1789064044869647600,5.677647705078125,6.494720915985107,7.058705044555664,-0.21996727752685546
1789064044879684600,5.6876845703125,7.032668101501464,7.069329314422607,-0.009427169036865234
1789064044889721600,5.6977216796875,7.452251942443847,6.926425402832031,0.4466682472229004
1789064044899758800,5.7077587890625,7.185148819732666,7.421576233673095,0.47061026382446286
1789064044909795800,5.7177958984375,7.749432223510742,7.266252400970458,0.6970119583129882
1789064044919832800,5.727832763671875,8.05080235748291,6.97146632156372,0.9859621711730956
1789064044929869600,5.73786962890625,6.544999150848389,7.477241422271728,0.9765350021362305
1789064044939906800,5.74790673828125,6.872256590270996,7.160907527923584,0.9241618408203125
1789064044949943800,5.75794384765625,6.71633420715332,6.808211695861816,0.8231564582824706
1789064044959980800,5.767980712890625,7.4025722579956055,6.58210927658081,0.6197989547729492
1789064044970017800,5.778017822265625,6.5677440666198725,6.156390293884277,1.2259808876037597
1789064044980054500,5.788054443359375,3.8935704498291015,7.306654553985595,1.371428638458252
1789064044990091800,5.798091796875,6.111349375152588,6.499060406494141,1.4823101028442383
1789064045000128800,5.808128662109375,7.886500268554687,5.750124199676513,1.8989011917114256
1789064045010165800,5.818165771484375,7.056011567687988,6.521356409454345,1.922992845916748
1789064045020202800,5.82820263671875,6.097881990814209,6.748356654357909,2.0774188529968263
1789064045030239700,5.83823974609375,6.149058051300049,7.094618069458007,2.0370166999816894
1789064045040276700,5.84827685546875,6.969521032714844,7.219266193389892,1.3184569267272948
1789064045050313700,5.858313720703125,10.29791025314331,6.121973645019531,1.1746551895141601
1789064045060350700,5.868350830078125,7.8627078895568845,7.179013677978515,1.1035773277282714
1789064045070388000,5.878387939453125,5.850082118988037,8.11514652709961,1.0079588989257813
1789064045080424000,5.888423828125,6.90143592300415,7.433696879577636,1.2981062126159668
1789064045090460700,5.898460693359375,8.220940312957763,6.757783823394775,1.1267711563110352
1789064045100497700,5.90849755859375,8.19684865875244,6.837989579010009,1.0075099861145018
1789064045110534700,5.91853466796875,7.337629537963867,6.5874962303161615,1.0142436782836914
1789064045120571600,5.928571533203125,6.743867526245117,6.666504885101318,1.0760440086364746
1789064045130609000,5.93860888671875,6.983736605072021,6.50534518585205,0.7035960128784179
1789064045140645600,5.948645751953125,8.418611587524413,5.805789388275146,0.5255272644042969
1789064045150682600,5.9586826171875,7.4785881607055655,6.466589046478271,0.05835866546630859
1789064045160719600,5.9687197265625,7.066037287139892,6.451176373291015,-0.3500023551940918
1789064045170756900,5.9787568359375,5.763741221618652,7.029824987030029,-0.4525041137695312
1789064045180793900,5.9887939453125,7.084891625213623,6.747009915924072,-0.6353612655639648
1789064045190830600,5.99883056640625,8.57408505783081,6.200683024597168,-0.5374982727050781
1789064045200867600,6.00886767578125,7.582735932922363,6.742071875,-0.5846341178894042
1789064045210904800,6.01890478515625,6.146364574432373,7.251587915802001,-0.8218097198486327
1789064045220941800,6.02894189453125,7.0652890991210935,7.026233684539794,-0.7275380294799805
1789064045230978800,6.038978759765625,6.949469593811035,6.717232032775878,-0.05521627578735351
1789064045241015600,6.049015625,7.13756406173706,6.8119526359558105,0.3033154228210449
1789064045251052500,6.059052490234375,7.605031935882568,6.210708744049072,0.4789899696350097
1789064045261089800,6.06908984375,6.289418123626708,6.641066492462158,-0.0962169792175293
1789064045271126800,6.079126708984375,6.940192062377929,6.381594887542724,-0.93852705078125
1789064045281163800,6.089163818359375,7.223605683898925,6.137835231018066,-1.5426140571594238
1789064045291200500,6.099200439453125,7.8782702003479,5.9777229949951165,-1.7341501899719238
1789064045301237800,6.10923779296875,6.810007347106933,6.326378611755371,-1.626710390472412
1789064045311274800,6.119274658203125,7.385962483978271,6.241534090423584,-1.5747861419677733
1789064045321311700,6.129311767578125,7.344662505340576,6.325181510925293,-1.790713204193115
1789064045331348700,6.1393486328125,7.523479441833496,6.584353840637207,-2.0886416732788087
1789064045341385700,6.1493857421875,8.53009160232544,5.941211419677734,-1.81315884475708
1789064045351422000,6.159421875,7.6101196144104,6.347627151489258,-1.8279729675292968
1789064045361458700,6.169458740234375,7.124246315002441,6.22477467880249,-1.654692622375488
1789064045371495700,6.17949560546875,7.242011109161377,5.986701251220703,-1.7422306205749511
1789064045381532700,6.18953271484375,7.458237446594238,5.893925936889648,-2.114678616333008
1789064045391569700,6.199569580078125,7.521683790588378,6.013486382293701,-1.7925088554382322
1789064045401607000,6.20960693359375,8.575431796264647,5.604975724029541,-1.6205752487182616
1789064045411643600,6.2196435546875,8.622418003845214,5.977274082183838,-1.4791677131652832
1789064045421680600,6.2296806640625,7.764695259094238,6.498312218475341,-1.4600140998840332
1789064045431717600,6.239717529296875,7.8064441505432125,6.763769327545166,-1.5219640678405761
1789064045441755000,6.2497548828125,8.45916337814331,6.8309566116333,-1.4333786064147949
1789064045451792000,6.2597919921875,8.61239228439331,6.81823741531372,-1.2068272743225097
1789064045461828600,6.26982861328125,8.265233043670653,7.189787585449218,-0.8550292678833007
1789064045471865600,6.279865478515625,8.105270445251465,6.975207261657714,-0.8773252708435058
1789064045481902800,6.28990283203125,8.340051845550537,7.04194563293457,-0.6872855140686035
1789064045491939800,6.29993994140625,8.785223716735839,6.372915906524658,-0.26650457229614255
1789064045501976800,6.309976806640625,7.710077533721924,6.471377449798584,0.12105682144165038
1789064045512013600,6.320013671875,6.212953308105468,6.616077012634277,0.6497264755249023
1789064045522050600,6.330050537109375,5.738003553771972,6.1173348793029785,0.6159083770751953
1789064045532087800,6.340087890625,5.176263989257812,6.136039579772949,0.206200617980957
1789064045542124800,6.350124755859375,5.802497360992431,5.443666387176513,0.19602526092529296
1789064045552161800,6.360161865234375,5.858461824798583,5.440075084686279,0.42541970748901364
1789064045562198500,6.370198486328125,6.59497811050415,5.307047254943847,0.5551555099487304
1789064045572235800,6.38023583984375,6.810456259918213,5.340266802978515,0.8128314636230468
1789064045582272800,6.390272705078125,7.489661343383789,5.934477727508544,0.6181529411315918
1789064045592309800,6.400309814453125,7.274183193969726,6.196792446899414,0.6796539962768554
1789064045602346800,6.4103466796875,6.83739102859497,7.236025605010986,0.48976387710571284
1789064045612382700,6.4203828125,7.7419503433227534,7.306355278778076,0.617404753112793
1789064045622419700,6.430419677734375,7.458985634613037,7.4956468475341795,1.1363479629516602
1789064045632456700,6.440456787109375,8.467692721557617,7.717409776306152,0.8653542625427245
1789064045642493700,6.45049365234375,8.45841519012451,7.368005971527099,1.0491092399597168
1789064045652530700,6.46053076171875,8.10167914276123,7.619846058654785,1.0001777435302734
1789064045662567700,6.470567626953125,8.824129493713379,6.842777982330322,1.1164461616516113
1789064045672604700,6.480604736328125,7.799560820770263,6.871059489440918,1.3506290115356445
1789064045682641700,6.4906416015625,7.141903552246093,6.659172642517089,1.3958195678710936
1789064045692678700,6.5006787109375,6.4092778442382805,6.391022056579589,1.650951682281494
1789064045702715600,6.510715576171875,4.4659342842102046,7.070376777648925,1.9138649520874023
1789064045712752400,6.52075244140625,6.414365522766113,6.193201144409179,1.7893664657592772
1789064045722789400,6.530789306640625,7.263708561706543,6.073640699005127,1.8097171798706053
1789064045732826400,6.540826416015625,6.133645378112792,6.83739102859497,1.5656582481384276
1789064045742863400,6.55086328125,6.974758348846435,6.752097594451904,1.371428638458252
1789064045752900400,6.560900390625,8.135048328399657,6.705410662078857,1.2253823371887207
1789064045762937300,6.570937255859375,9.266458250427245,6.49935968170166,0.6561608924865723
1789064045772974300,6.580974365234375,7.444620424652099,7.5065703926086425,0.2768295669555664
1789064045783011300,6.59101123046875,6.18631781463623,7.811980741882324,0.16310498809814453
1789064045793048300,6.60104833984375,7.685387329101562,7.4788874359130855,-0.04967968444824218
1789064045803085300,6.611085205078125,9.262268397521972,6.6899979888916015,0.16639701538085935
1789064045813122300,6.621122314453125,7.61670366897583,6.921487361907959,0.388159944152832
1789064045823159600,6.63115966796875,6.619518677520752,7.153425647735595,0.3896563201904297
1789064045833196300,6.6411962890625,6.585850216674804,6.331466290283203,0.565031591796875
1789064045843233300,6.6512333984375,6.946327204132079,6.235997499084473,-0.1470937644958496
1789064045853270300,6.661270263671875,6.787860981750488,5.489455493927002,-0.088735099029541
1789064045863307300,6.671307373046875,5.36959577331543,5.746233621978759,-0.38456864166259763
1789064045873344500,6.681344482421875,5.102492650604248,6.2861260963439936,-0.9406219772338866
1789064045883380500,6.69138037109375,7.8261963142395015,4.825064533233642,-0.6546645164489746
1789064045893417500,6.70141748046875,7.885901718139648,5.319018263244629,-0.773776049041748
1789064045903454200,6.7114541015625,5.617994195556641,6.693888566589355,-0.6721721160888672
1789064045913491200,6.7214912109375,6.394613359069824,6.580463262939452,-0.5744587608337401
1789064045923528400,6.731528564453125,8.380005085754394,6.509235763549804,-0.9795277542114257
1789064045933565400,6.7415654296875,8.598326349639892,6.815843213653564,-0.9343371978759765
1789064045943602400,6.7516025390625,9.092579354858398,6.788010619354248,-0.7314286071777343
1789064045953639200,6.76163916015625,8.622717279052734,7.211335400390625,-0.7698854713439941
1789064045963676400,6.771676513671875,8.38913297958374,7.136067685699462,-0.8161234909057616
1789064045973713400,6.78171337890625,7.840860799407959,7.209988661956786,-1.4124293418884277
1789064045983750400,6.79175048828125,7.782202858734131,7.1136220451354975,-1.8810943168640135
1789064045993787400,6.801787353515625,7.626579750823974,6.5601125488281244,-2.1881506797790524
1789064046003824400,6.811824462890625,7.7690347496032715,6.297498554229736,-2.156577145385742
1789064046013861400,6.821861328125,7.2054995338439936,5.660341637420654,-1.422455061340332
1789064046023898400,6.8318984375,6.493972727966308,5.872378121948242,-1.3769652297973631
1789064046033935400,6.841935302734375,6.554426319885254,5.652859757232665,-1.677736813354492
1789064046043972400,6.851972412109375,6.30138913192749,5.6486699043273925,-2.1716905433654783
1789064046054009300,6.86200927734375,6.619219402313232,6.210559106445312,-3.0277672744750976
1789064046064046300,6.87204638671875,7.917624890136718,5.704484730529785,-2.4838345848083496
1789064046074083300,6.882083251953125,7.979125945281982,5.913827738189697,-2.0036475143432617
1789064046084120300,6.892120361328125,7.678354361724853,6.359747797393799,-2.046294231414795
1789064046094157600,6.902157470703125,6.947973217773437,6.6060512931823725,-2.330904953765869
1789064046104194300,6.9121943359375,7.725190931701659,6.6340335250854485,-3.227084562683105
1789064046114231300,6.922231201171875,8.336460543060301,6.417058999633789,-3.3330279861450194
1789064046124268300,6.932268310546875,8.564807526397704,6.259640240478515,-3.1051299156188965
1789064046134305300,6.94230517578125,7.593509840393066,6.467636509704589,-2.5834932289123533
1789064046144342500,6.952342529296875,6.463297019195556,6.617274113464355,-2.0823568939208985
1789064046154378500,6.96237841796875,6.650643299102783,6.366481489562988,-1.7235259201049804
1789064046164415200,6.972415283203125,6.971167046356201,6.232106921386718,-1.468992356109619
1789064046174452200,6.9824521484375,7.273285368347167,5.960365032958984,-1.445349614715576
1789064046184489200,6.9924892578125,6.381145974731445,6.235249311065673,-1.5153800132751465
1789064046194526500,7.0025263671875,5.125985754394531,6.606350568389892,-1.3651438591003417
1789064046204563500,7.0125634765625,6.649745473480224,6.16087942199707,-1.1245265922546386
1789064046214600400,7.022600341796875,8.84223564376831,5.435137043762206,-0.4445733207702636
1789064046224637200,7.03263720703125,8.527697400665282,5.853224508666992,0.26710312271118164
1789064046234674400,7.04267431640625,7.0461354858398435,6.553079581451415,0.2738368148803711
1789064046244711400,7.05271142578125,7.216572716522216,7.0269818725585935,-0.00014963760375976562
1789064046254748400,7.06274853515625,8.276455863952636,6.887818901062011,-0.11926117019653319
1789064046264785400,7.072785400390625,9.181913004302977,6.676081691741943,-0.01331774673461914
1789064046274822400,7.082822509765625,8.132504489135743,7.472004106140136,0.2904465888977051
1789064046284859400,7.092859375,7.86540136642456,7.235427054595947,0.47494975433349607
1789064046294896400,7.102896484375,8.58111802520752,7.24620096206665,0.38367081604003905
1789064046304933400,7.112933349609375,8.22258632659912,6.803273654937744,0.3812766143798828
1789064046314970400,7.122970458984375,6.645405982971191,7.540388491058349,0.5330091445922851
1789064046325007400,7.13300732421875,7.592462377166748,6.4266358062744136,0.9846154327392578
1789064046335044400,7.14304443359375,6.475567302703857,6.4178071876525875,1.5031097297668456
1789064046345081300,7.153081298828125,5.135562561035156,6.442347754669189,1.6409259628295898
1789064046355118300,7.163118408203125,5.387552285766601,5.784540848541259,1.2382511711120605
1789064046365155600,7.173155517578125,5.363610269165039,5.68862314453125,0.739957950592041
1789064046375192300,7.1831923828125,6.289867036437988,5.315726235961914,0.6102221481323242
1789064046385229300,7.193229248046875,6.940341699981689,5.063137960815429,0.7671919944763184
1789064046395266300,7.203266357421875,7.027430785369873,5.610213040161132,0.6844423995971679
1789064046405303300,7.21330322265625,6.565948415374756,6.0422168022155756,0.9947907897949219
1789064046415339500,7.223339599609375,6.713191817474365,6.700472621154785,1.0254664985656738
1789064046425376500,7.23337646484375,9.130437668609618,6.320991658020019,0.716315209197998
1789064046435413200,7.243413330078125,9.176825325775146,6.791302646636963,0.08768763580322265
1789064046445450200,7.2534501953125,7.6479779281616205,7.771728226470946,-0.697161595916748
1789064046455487200,7.2634873046875,7.750928599548339,7.564629782867431,-0.987009634399414
1789064046465524500,7.2735244140625,7.977779206848144,7.269245153045654,-0.5383960983276367
1789064046475561500,7.2835615234375,8.941295737457274,6.866121448516846,-0.13781623306274413
1789064046485598200,7.29359814453125,8.279298978424071,6.572233194732665,0.521636686706543
1789064046495635200,7.30363525390625,7.411700151824951,6.6647092338562,0.7466916427612305
1789064046505672400,7.31367236328125,6.765265703582763,6.469132885742187,0.5363011718749999
1789064046515709400,7.32370947265625,6.487388673400878,6.465092670440673,0.36107553787231444
1789064046525746400,7.333746337890625,6.294356164550781,6.291662687683105,0.17761983566284179
1789064046535783200,7.343783203125,6.2976481918334954,6.318597456359863,-0.21817162628173828
1789064046545820200,7.353820068359375,6.609492958068847,6.489333962249756,-0.5039794494628906
1789064046555857400,7.363857421875,7.090278578948975,6.500556782531738,-0.6323685134887695
1789064046565894400,7.373894287109375,7.614908017730713,6.761973676300048,-0.49949032135009763
1789064046575931400,7.383931396484375,8.321496782684326,6.675183866119385,0.07781155395507812
1789064046585968000,7.393968017578125,8.033145120239258,7.052120989990234,0.45459904022216796
1789064046596005400,7.40400537109375,7.992144416809081,7.388805598449706,0.6913257293701172
1789064046606042400,7.41404248046875,8.47278040008545,7.01620796508789,0.7122749938964843
1789064046616079400,7.424079345703125,8.98274535369873,6.883479410552978,0.6353612655639648
1789064046626116400,7.434116455078125,7.582137382507324,6.854599353027344,0.8113350875854491
1789064046636153300,7.4441533203125,6.508786850738525,7.1118263938903805,0.8877999031066894
1789064046646190300,7.4541904296875,7.013215213012695,6.149058051300049,1.052850180053711
1789064046656227300,7.464227294921875,7.034314115142822,6.160280871582031,0.24974516067504882
1789064046666264300,7.474264404296875,7.285705289459228,5.502473965454101,-0.01331774673461914
1789064046676300300,7.48430029296875,5.479130499267578,6.095188513946533,-0.14484920043945312
1789064046686337500,7.494337646484375,6.176142457580566,5.652410844421387,0.045938744354248044
1789064046696374500,7.50437451171875,7.188291209411621,5.415085604858398,0.4649240348815918
1789064046706411300,7.514411376953125,7.9575781303405755,5.548861622619628,0.8653542625427245
1789064046716448300,7.5244482421875,6.923881563568115,5.945850185394287,1.0256161361694336
1789064046726485200,7.5344853515625,6.873752966308594,6.7280059402465815,0.6367080039978027
1789064046736522200,7.544522216796875,7.9560817543029785,6.494421640777587,-0.06299743118286133
1789064046746559500,7.5545595703125,9.548824408721924,6.2304609077453605,-0.5401917495727538
1789064046756596200,7.56459619140625,9.196876764678954,6.415113710784912,-0.429011009979248
1789064046766633200,7.57463330078125,8.099284941101073,6.762721864318848,-0.0848445213317871
1789064046776670200,7.584670166015625,7.888146282196044,6.5686418922424314,0.11237784042358398
1789064046786707500,7.59470751953125,7.577797891998291,6.693738928985596,0.09965864410400391
1789064046796744400,7.604744384765625,8.402600363922119,6.1456163864135736,0.08888473663330078
1789064046806781200,7.61478125,8.346635900115967,5.824045175933837,-0.030825346374511717
1789064046816818200,7.624818115234375,6.265925019836425,6.664409958648681,-0.13856442108154296
1789064046826855400,7.63485546875,6.843226895141601,5.944653084564209,0.40880993347167965
1789064046836892400,7.644892333984375,7.111676756286621,5.803844099426269,0.411802685546875
1789064046846929400,7.654929443359375,7.542333779907226,6.056133099365234,0.06404489440917968
1789064046856966100,7.664966064453125,7.76364779586792,5.954978079223633,-0.40776247024536133
1789064046867003100,7.675003173828125,6.782922940826416,6.753893245697021,-0.8249521095275878
1789064046877040400,7.685040283203125,6.968473569488525,6.974608711242675,-0.22520459365844725
1789064046887077400,7.695077392578125,7.785195610809326,6.589291881561279,0.45025954971313475
1789064046897114400,7.7051142578125,8.10197841796875,6.827963859558105,0.7610568527221679
1789064046907151000,7.715151123046875,7.737461215209961,6.916998233795166,0.2629132698059082
1789064046917188400,7.725188232421875,7.277924134063721,7.071424240875244,-0.6341641647338867
1789064046927225300,7.735225341796875,6.763769327545166,7.125593053436279,-1.2428899368286133
1789064046937262300,7.745262451171875,8.456170626068115,6.1942486076354975,-1.4459481651306152
1789064046947298300,7.75529833984375,7.321468676757812,6.334907955169677,-1.1053729789733886
1789064046957335300,7.765335205078125,5.91218172454834,6.637475189971924,-0.949300958251953
1789064046967372500,7.77537255859375,6.910713454437255,5.971887128448486,-0.5964554885864257
1789064046977409300,7.7854091796875,6.637624827575683,6.057629475402831,-0.6141127258300781
1789064046987446300,7.7954462890625,6.466888321685791,6.020968262481689,-0.5445312400817871
1789064046997483300,7.805483154296875,6.700921533966064,5.891232460021972,-0.5424363136291503
1789064047007520300,7.815520263671875,5.604377173614502,6.091148298645019,-0.6624456718444823
1789064047017557500,7.8255576171875,6.361094535827636,6.195744983673095,-0.5765536872863769
1789064047027594200,7.83559423828125,8.440309040069579,5.511152946472167,-0.455197590637207
1789064047037631200,7.84563134765625,8.891316777801514,5.858461824798583,-0.44577042160034175
1789064047047668200,7.855668212890625,7.351845110321045,6.865672535705566,-0.2721908012390137
1789064047057705500,7.86570556640625,8.463203593444824,6.98478406829834,-0.3646668403625488
1789064047067742500,7.875742431640625,8.763975177001953,7.37354256286621,0.02498947982788086
1789064047077779200,7.885779296875,9.324068727874755,7.493402283477783,0.34835634155273437
1789064047087816200,7.895816162109375,8.659378491973877,7.836820584106444,0.8448539108276367
1789064047097853400,7.905853515625,8.183830187225341,8.189815691375731,0.8843582382202148
1789064047107890400,7.915890380859375,8.248174356842041,7.7581112045288085,0.7049427513122558
1789064047117927400,7.925927490234375,7.64872611618042,7.794173867034911,0.6111199737548828
1789064047127964200,7.935964111328125,8.054393659973144,6.917447146606445,0.7026981872558593
1789064047138001200,7.946001220703125,6.547542990112304,6.902333748626709,0.8001122673034667
1789064047148038400,7.956038330078125,5.288043279266357,6.910713454437255,0.8637082489013671
1789064047158075400,7.966075439453125,5.781099183654785,5.812822355651855,0.615459464263916
1789064047168112400,7.9761123046875,5.266794739532471,6.037727674102783,0.0665887336730957
1789064047178149000,7.986149169921875,5.666476779174804,5.427355888366699,0.008678981018066407
1789064047188186400,7.996186279296875,6.0884548217773435,4.979640177917481,0.5467758041381836
1789064047198223400,8.006223388671875,5.995230594635009,5.24135634689331,0.9056067779541015
1789064047208259300,8.01625927734375,6.322338396453857,5.203946945953369,0.7529764221191406
1789064047218296300,8.02629638671875,7.198017653656006,5.6012347839355465,0.22819734573364256
1789064047228333300,8.036333251953126,7.503128727722167,5.863848778533935,-0.0618003303527832
1789064047238370300,8.046370361328124,7.2803183357238765,6.8964978820800775,-0.35658640975952144
1789064047248407300,8.0564072265625,8.168267876434326,7.035062303161621,-0.29718028106689454
1789064047258444300,8.0664443359375,7.804947774505615,7.443722599029541,-0.273238264465332
1789064047268481300,8.076481201171875,7.708431520080566,8.03239693222046,-0.24570494537353516
1789064047278518300,8.086518310546875,8.907926551818846,7.113472407531738,-0.0016460136413574218
1789064047288555300,8.09655517578125,9.399486080169677,6.993313411712646,0.12943652725219726
1789064047298592300,8.10659228515625,9.068338063049316,6.528389376831054,0.4444236831665039
1789064047308629200,8.116629150390626,7.437288182067871,6.65902300491333,0.24645313339233396
1789064047318666200,8.126666259765624,6.6419643180847165,6.7030164604187,0.4269160835266113
1789064047328703500,8.136703369140625,6.625953094482422,6.067355919647216,0.49155952835083006
1789064047338740200,8.146740234375,6.262483354949951,6.416909362030029,0.5044283622741699
1789064047348777200,8.156777099609375,6.431424209594726,6.239139888763427,0.7276876670837402
1789064047358814200,8.166814208984375,7.312041507720947,6.157288119506836,0.826149210357666
1789064047368851500,8.1768515625,7.451354116821289,6.49277562713623,0.9099462684631348
1789064047378888400,8.186888427734376,8.296956215667723,6.4852937469482415,0.8858546142578124
1789064047388925400,8.196925537109376,8.110807036590575,6.781576202392578,1.1463736824035644
1789064047398962200,8.206962158203124,8.129661374664305,7.050624613952636,1.143380930328369
1789064047408999200,8.216999267578124,8.311321425628662,6.9342065582275385,0.8197147933959961
1789064047419036400,8.227036376953125,7.933187200927734,7.236324880218506,0.48108489608764643
1789064047429073400,8.237073486328125,8.937105884552002,6.429778195953369,0.1479915901184082
1789064047439110400,8.2471103515625,8.933963494873046,6.112097563171386,-0.19168577041625975
1789064047449147100,8.257147216796875,6.233154384613036,6.622511429595947,-0.22400749282836913
1789064047459184400,8.267184326171876,6.394762996673584,5.889137533569335,-0.2823661582946777
1789064047469220400,8.277220458984376,6.799831990051269,5.276221908569336,-0.587926145172119
1789064047479257300,8.28725732421875,6.210559106445312,5.2085857116699215,-0.8307879760742187
1789064047489294300,8.29729443359375,5.734112976074218,5.0014872680664055,-0.5470750793457031
1789064047499331300,8.307331298828124,5.887491519927978,5.204994409179688,-0.6257844589233398
1789064047509368300,8.317368408203125,7.490409531402587,4.931905782318115,-0.3898059577941894
1789064047519405300,8.3274052734375,8.265233043670653,4.847959086608887,0.10699088668823241
1789064047529442300,8.3374423828125,7.508665319061278,6.1088055358886715,-0.3902548706054687
1789064047539479300,8.347479248046875,6.815244663238525,6.790853733825683,-0.6539163284301758
1789064047549516300,8.357516357421876,8.719233533477782,6.79938307723999,-1.5249568199157715
1789064047559553300,8.36755322265625,8.895955543518065,7.219266193389892,-1.9093758239746093
1789064047569590300,8.37759033203125,8.595333597564697,7.48876351776123,-1.4404115737915038
1789064047579627300,8.387627197265624,8.869918600463867,7.395688928222656,-1.337460902404785
1789064047589664300,8.397664306640625,8.264335218048096,7.474847220611572,-1.3193547523498534
1789064047599701500,8.407701416015625,7.92256293106079,7.268945877838134,-1.384746385192871
1789064047609738200,8.41773828125,7.740005054473876,7.079504671478271,-1.8454805671691894
1789064047619775200,8.427775146484375,7.988253839111327,6.796240687561035,-2.1101894882202146
1789064047629812200,8.437812255859376,7.73776049041748,6.090998661041259,-1.9020435813903807
1789064047639849500,8.447849365234376,5.53509496307373,6.742371150207519,-2.020855838775635
1789064047649886500,8.457886474609374,5.161599504089355,6.759280199432372,-2.0210054763793943
1789064047659923200,8.467923095703124,6.201431212615966,6.029946518707275,-1.6593313880920408
1789064047669960200,8.477960205078125,6.96533117980957,6.139780519866943,-2.476502342224121
1789064047679997200,8.4879970703125,6.479308242797851,6.32667788696289,-2.044348942565918
1789064047690034400,8.498034423828125,5.811625254821777,6.516867281341552,-1.4832079284667967
1789064047700071400,8.508071533203125,7.835473845672607,6.318597456359863,-1.3250409812927246
1789064047710108200,8.518108154296876,8.225279803466796,5.6586956237792965,-0.3067570877075195
1789064047720145200,8.528145263671876,6.827664584350585,6.805368581390381,-1.2105682144165038
1789064047730181000,8.53818115234375,6.343736573791504,6.9719152343749995,-1.8983026412963866
1789064047740218000,8.548218017578124,6.826766758728027,6.81898560333252,-2.4938603042602536
1789064047750255000,8.558255126953124,8.66326906967163,6.356006857299804,-2.9255647911071776
1789064047760292400,8.568292236328125,7.4114008766174315,6.485742659759521,-2.505980950164795
1789064047770329300,8.578329345703125,5.72618218307495,7.194276713562012,-2.3925556465148925
1789064047780366000,8.588365966796875,6.639121203613281,6.470928536987304,-2.1972785736083984
1789064047790403000,8.598403076171875,7.416937467956543,6.188712016296386,-1.832911008453369
1789064047800440000,8.608440185546876,7.202057868957519,6.072742873382568,-1.3334206871032714
1789064047810477300,8.618477294921876,6.638971566009521,6.277147840118408,-1.280748250579834
1789064047820514300,8.628514404296874,6.261735166931152,6.474220564270019,-0.9938929641723632
1789064047830551000,8.638551025390624,7.292289344024658,6.073640699005127,-0.429011009979248
1789064047840588000,8.648588134765625,8.245630517578125,5.954379528808594,0.3024175971984863
1789064047850625300,8.658625244140625,8.453926062011718,6.100874742889404,1.0531494552612304
1789064047860662300,8.668662353515625,7.9548846534729,6.527341913604736,0.650624301147461
1789064047870699300,8.67869921875,7.92331111907959,7.030722812652588,0.047884033203124995
1789064047880736000,8.688736083984375,8.236951536560058,6.927772141265868,-0.41359833679199215
1789064047890773200,8.698773193359376,8.82981572265625,7.172728898620605,-0.6416460449218749
1789064047900810200,8.708810302734374,8.712948754119873,7.192929975128173,-0.2262520568847656
1789064047910847200,8.71884716796875,8.751704893493653,7.133972759246825,-0.05880757827758789
1789064047920884200,8.72888427734375,7.460631648254394,7.7781626434326165,-0.11297639083862304
1789064047930921000,8.7389208984375,8.300996430969239,7.25906979598999,-0.2599205177307129
1789064047940958200,8.748958251953125,8.177695045471191,6.798185976409911,-0.14649521408081054
1789064047950995200,8.7589951171875,6.433668773651123,7.213131051635742,-0.16505027694702148
1789064047961032200,8.7690322265625,6.5954270233154295,6.320692382812499,-0.017208324432373044
1789064047971069200,8.779069091796876,5.982960311126709,6.0142345703124995,-0.08454524612426757
1789064047981106200,8.789106201171874,5.275922633361816,5.721393779754639,-0.5229834251403809
1789064047991143200,8.79914306640625,5.424662411499023,5.248389314270019,-0.5708674583435058
1789064048001179100,8.80917919921875,5.329043982696533,5.175815076446533,-0.11761515655517578
1789064048011216100,8.819216064453125,5.858910737609863,4.975749600219726,0.481384171295166
1789064048021253000,8.829253173828125,6.514473079681396,5.048174200439453,0.7543231605529784
1789064048031290400,8.839290283203125,6.500706420135498,5.6754550354003905,0.900818374633789
1789064048041327400,8.849327392578125,6.0522425216674804,6.319345644378662,0.8518868782043456
1789064048051364000,8.859364013671875,7.797166619110107,6.562357112884521,0.5499181938171387
1789064048061401000,8.869401123046876,9.11741919708252,6.431274571990967,0.34865561676025386
1789064048071438000,8.87943798828125,7.991246591186523,7.51435154800415,-0.18914193115234373
1789064048081475300,8.889475341796874,8.294562014007568,7.496544673156738,-0.41359833679199215
1789064048091512300,8.89951220703125,9.959729268646239,6.847117472839355,-0.28490999755859375
1789064048101549000,8.909549072265625,10.646266594696044,6.544999150848389,-0.15547347030639647
1789064048111586000,8.9195859375,8.657882115936278,6.858639568328857,0.24031799163818357
1789064048121623300,8.929623291015625,7.161206803131103,7.06094960861206,0.07272387542724609
1789064048131660300,8.939660400390625,7.7763669921875,6.4649430328369135,-0.2305915473937988
1789064048141697300,8.949697265625,6.752845782470703,6.337152519226074,-0.30780455093383785
1789064048151734000,8.959734130859376,7.096114445495605,5.993285305786133,-0.6148609138488769
1789064048161771300,8.969771240234374,7.100154660797119,5.626673176574707,-0.8086416107177734
1789064048171808300,8.979808349609375,6.3244333229064935,5.947795474243164,-1.1260229682922362
1789064048181845200,8.98984521484375,7.077858657836914,5.602731159973144,-1.4336778816223144
1789064048191882200,8.99988232421875,6.833949363708496,5.98161357269287,-1.737292579650879
1789064048201919000,9.0099189453125,7.312041507720947,6.126462773132324,-1.8836381561279296
1789064048211956200,9.019956298828125,6.532728867340087,6.592733546447754,-1.9699790534973143
1789064048221993200,9.0299931640625,7.004985144805908,7.041197444915771,-1.8447323791503905
1789064048232030200,9.0400302734375,9.42253027114868,6.196942084503173,-1.365592771911621
1789064048242067200,9.050067138671874,9.236381092071532,6.516119093322754,-1.209820026397705
1789064048252103200,9.060103271484374,7.0747162681579585,7.369651985168456,-1.0643722755432128
1789064048262140200,9.07014013671875,7.4685624412536615,6.959944226074218,-1.1947066284179686
1789064048272177200,9.08017724609375,8.240692476654052,6.473173101043701,-1.544409708404541
1789064048282214100,9.090214111328125,7.5911156387329095,6.573729570770263,-1.7539023536682128
1789064048292251100,9.100251220703125,7.606528311920165,5.825691189575195,-1.4273931022644042
1789064048302288400,9.110288330078125,6.190208392333984,6.190358029937744,-1.0224737464904785
1789064048312325000,9.1203251953125,5.871330658721924,5.972635316467285,-0.6046855567932129
1789064048322362000,9.130362060546876,7.302165425872802,5.421819297027588,-0.3532943824768066
1789064048332399000,9.140399169921874,7.536946826171874,5.556343502807617,0.030526071166992186
1789064048342436000,9.15043603515625,6.609792233276367,5.868487544250488,0.5029319862365722
1789064048352473300,9.160473388671875,6.507889025115967,6.319196006774902,0.1409586227416992
1789064048362510000,9.170510009765625,6.854300077819824,6.3901242309570305,-0.31498715591430665
1789064048372547000,9.180547119140625,8.0062103515625,6.147262400054931,-0.49679684448242184
1789064048382584000,9.190583984375,8.498518067932128,6.441150653839111,-0.6497264755249023
1789064048392621300,9.200621337890626,7.352593298339843,6.777087074279785,-0.13422493057250975
1789064048402658300,9.210658203125,7.126191603851318,7.352294023132324,-0.16071078643798828
1789064048412695300,9.2206953125,8.192808443450927,7.114819145965575,-0.22340894241333006
1789064048422732000,9.23073193359375,8.754248732757567,7.113173132324218,-0.33473931961059566
1789064048432769300,9.240769287109375,8.945934503173827,6.935852571868896,-0.8658031753540039
1789064048442806300,9.25080615234375,6.977152550506592,7.694964135742187,-0.9246107536315917
1789064048452843300,9.26084326171875,7.583783396148681,7.032668101501464,-0.6702268272399902
1789064048462880300,9.27088037109375,8.703970497894286,6.200383749389648,-0.35613749694824215
1789064048472917000,9.2809169921875,6.921188086700439,6.973261972808838,-0.5048772750854492
1789064048482954200,9.290954345703126,7.46332512512207,6.471976000213623,-0.7190086860656738
1789064048492991200,9.3009912109375,7.102848137664795,6.359298884582519,-0.7273883918762206
1789064048503028200,9.3110283203125,6.084414606475829,6.853402252197265,-0.4125508735656738
1789064048513065200,9.321065185546875,7.236025605010986,5.997924071502685,0.2654571090698242
1789064048523101200,9.33110107421875,6.845172183990478,6.249464883422851,0.33518823242187495
1789064048533138200,9.34113818359375,5.131223070526123,6.682216833496093,0.1236006607055664
1789064048543175200,9.351175048828125,6.28178660583496,6.33924744567871,-0.3435679382324219
1789064048553212200,9.361212158203125,7.43773709487915,6.026953766632079,-0.5969044013977051
1789064048563249200,9.371249267578126,6.926275765228271,6.16686492614746,-0.2693476867675781
1789064048573286400,9.381286376953126,7.038952880859375,6.078878015136718,0.22101474075317382
1789064048583323100,9.3913232421875,5.65660069732666,6.388478217315673,0.7077858657836914
1789064048593360100,9.401360107421874,6.206219615936279,6.312013401794434,0.8747814315795898
1789064048603397000,9.411397216796875,8.002768686676024,5.543175393676758,0.9847650703430175
1789064048613434000,9.42143408203125,7.45045629119873,5.710470234680176,1.117942537689209
1789064048623471400,9.431471435546875,7.2152259780883785,6.12242255783081,0.9238625656127929
1789064048633508000,9.441508056640625,7.23976654510498,6.110002636718749,0.7543231605529784
1789064048643545000,9.451545166015626,7.7519760627746574,6.407931105804443,0.9285013313293456
1789064048653582000,9.46158203125,8.127716085815429,6.439654277801513,1.1071686302185058
1789064048663619300,9.471619384765624,8.53577783126831,6.967126831054687,1.0703577796936035
1789064048673656300,9.48165625,8.921393936157227,7.013813763427734,1.0549451065063475
1789064048683693000,9.491693115234375,7.970895877075195,7.538892115020752,0.7477391059875488
1789064048693730000,9.50172998046875,7.770082212829589,8.031050193786621,0.7511807708740234
1789064048703767300,9.511767333984375,9.419986431884766,6.917896059417724,1.0899603057861327
1789064048713804800,9.5218046875,8.68212340774536,7.211036125183105,1.397465581512451
1789064048723841800,9.531841796875,8.007706727600096,7.1954738143920896,1.783829874420166
1789064048733878800,9.541878662109376,7.750030773925781,6.5491890037536615,1.7284639610290526
1789064048743915800,9.551915771484374,7.0370075920104975,6.864475434875488,1.145326219177246
1789064048753952800,9.561952880859375,7.097760459136962,6.419752476501465,0.9319429962158202
1789064048763990000,9.571989990234375,7.243956398010253,5.9199628799438475,0.7507318580627441
1789064048774026000,9.58202587890625,5.998223346710205,6.392967345428467,0.4815338088989258
1789064048784063000,9.59206298828125,5.552452925109863,6.119130530548095,0.254084651184082
1789064048794099700,9.602099609375,5.876119062042236,5.923853457641601,-0.2032078659057617
1789064048804136700,9.61213671875,5.935076277923583,5.774814404296874,-0.3628711891174316
1789064048814173700,9.622173583984376,6.335955418395995,5.440075084686279,0.0474351203918457
1789064048824211000,9.6322109375,6.528688652038574,5.417330168914795,0.16205752487182618
1789064048834248000,9.642248046875,7.20774409790039,5.22265164642334,-0.06120177993774414
1789064048844284700,9.65228466796875,7.830086891937255,5.364508094787597,-0.3815758895874023
1789064048854321700,9.66232177734375,7.734917375946044,5.504718529510498,-0.6829460235595702
1789064048864359000,9.67235888671875,7.09297205581665,6.18018267288208,-0.8381202186584472
1789064048874396000,9.68239599609375,8.062623728179931,6.009146891784668,-1.0070610733032226
1789064048884433000,9.692432861328125,7.287949853515625,6.421548127746582,-1.34718734664917
1789064048894469600,9.7024697265625,7.2052002586364745,6.805817494201659,-1.3845967475891112
1789064048904507000,9.7125068359375,9.019705841827392,5.974730242919922,-1.3112743217468261
1789064048914543900,9.7225439453125,8.82981572265625,6.303184783172607,-0.9943418769836425
1789064048924580900,9.732580810546875,8.260295002746581,6.579116524505615,-0.47105917663574215
1789064048934617900,9.742617919921875,8.559570210266113,6.4739212890625,-0.3441664886474609
1789064048944654600,9.752654541015625,8.14627114868164,6.942286988830566,-0.4852747489929199
1789064048954691800,9.76269189453125,6.9342065582275385,7.420977683258056,-0.7879916213989258
1789064048964728800,9.772728759765625,7.317129186248779,7.398980955505371,-1.0839748016357422
1789064048974765800,9.782765869140626,7.6354083694458,7.177966214752197,-1.2367547950744628
1789064048984802800,9.792802734375,7.64812756576538,7.216871991729736,-1.2761094848632812
1789064048994839800,9.80283984375,7.830386167144775,6.886621800231933,-0.9298480697631836
1789064049004876800,9.812876708984374,7.7319246238708494,6.863278334045409,-0.8556278182983398
1789064049014913800,9.822913818359375,8.079682415008545,6.564302401733398,-0.6522703147888184
1789064049024950800,9.83295068359375,7.563582319641113,6.437409713745117,-0.49844285812377925
1789064049034986800,9.84298681640625,6.692691465759277,6.70346537322998,-0.6437409713745117
1789064049045024000,9.85302392578125,7.143100653076171,6.374711557769775,-0.6446387969970703
1789064049055060700,9.863060791015625,8.009203103637695,5.842300963592529,-0.7007528984069824
1789064049065097700,9.87309765625,6.488585774230956,6.3718684432983395,-0.7402572257995605
1789064049075134700,9.883134765625,5.349394696807861,6.771101570129394,-0.6654384239196777
1789064049085171700,9.893171630859374,6.992116310882568,6.0413189765930175,-0.5240308883666992
1789064049095209000,9.903208984375,7.382221543884277,6.108057347869873,-0.6374561920166015
1789064049105246000,9.913245849609375,7.594407666015624,5.926397296905518,-0.6552630668640136
1789064049115282700,9.92328271484375,6.776039611053466,6.080374391174316,-0.5161000953674316
1789064049125319700,9.933319580078125,6.020818624877929,6.503100621795654,-0.5779004257202148
1789064049135357000,9.94335693359375,7.894580699157714,5.946897648620605,-0.7166144844055176
1789064049145394000,9.953393798828126,9.383474856567382,5.471798256683349,-0.5587468124389648
1789064049155431000,9.963430908203126,6.60799658203125,6.6337342498779295,-0.2959831802368164
1789064049165467600,9.973467529296874,5.8740241355895995,7.337030987548828,-0.5337573326110839
1789064049175505000,9.9835048828125,6.6519900375366205,7.178265489959716,-0.9525929855346679
1789064049185542000,9.9935419921875,8.063820829010009,6.9707181335449215,-1.1541548377990722
1789064049195579000,10.003578857421875,8.992022885131835,6.697928781890869,-0.917428148651123
1789064049205615900,10.013615966796875,8.258200076293944,7.010970648956299,-0.4236240562438965
1789064049215652600,10.023652587890625,7.060500695800781,7.221660395050049,0.27129297561645505
1789064049225689900,10.03368994140625,7.984213623809814,6.876895355987548,0.05940612869262695
1789064049235726800,10.043726806640626,8.316109828948974,6.798335614013672,-0.2796726814270019
1789064049245763800,10.053763916015624,8.42010796356201,6.706907038116455,-0.47195700225830073
1789064049255800800,10.06380078125,7.650970680236816,6.7565867225646965,-0.5779004257202148
1789064049265837800,10.073837890625,6.666355247497558,7.008576447296142,-0.21652561264038084
1789064049275874800,10.083874755859375,6.948571768188476,6.374412282562256,0.1301847152709961
1789064049285911800,10.093911865234375,6.496666204833984,6.606350568389892,-0.03486556167602539
1789064049295947800,10.10394775390625,6.942436626434326,6.393116983032226,-0.28640637359619137
1789064049305984800,10.11398486328125,7.959523419189453,5.924003095245361,-0.3221697608947754
1789064049316022000,10.12402197265625,7.4411787597656245,6.417956825256347,0.09995791931152344
1789064049326058800,10.134058837890626,7.012915937805175,6.329670639038086,0.9437643669128417
1789064049336095700,10.144095703125,6.688202337646484,6.591536445617676,1.4082394889831542
1789064049346132700,10.1541328125,6.798185976409911,6.53138212890625,1.193359889984131
1789064049356169700,10.164169677734375,7.377433140563965,6.475716940307617,0.2549824768066406
1789064049366207000,10.17420703125,8.128314636230469,6.2681695838928215,-0.634014527130127
1789064049376243700,10.18424365234375,7.389853061676025,6.399401762390136,-0.7826046676635742
1789064049386280700,10.19428076171875,6.202927588653564,6.820332341766357,-0.5870283195495605
1789064049396317700,10.204317626953125,6.060921502685546,6.533177780151367,-0.013617021942138671
1789064049406355000,10.21435498046875,6.06466244277954,6.510283226776123,0.3678092300415039
1789064049416392000,10.224391845703124,7.612663453674316,6.037428398895264,0.5270236404418945
1789064049426428700,10.2344287109375,8.039878812408446,5.768978537750244,0.5940612869262695
1789064049436465700,10.244465576171875,8.192209893035889,5.865045879364013,0.4225765930175781
1789064049446503000,10.2545029296875,7.580192093658447,6.133346102905273,0.18734627990722655
1789064049456540000,10.264539794921875,7.116764434814453,6.329969914245605,0.14006079711914063
1789064049466577000,10.274576904296875,7.8058456001281735,6.376207933807373,0.10265139617919922
1789064049476613600,10.284613525390625,9.015067076110839,6.070947222137451,0.042945992279052735
1789064049486650600,10.294650634765626,7.581838107299804,6.956502561187744,-0.2510918991088867
1789064049496687900,10.30468798828125,7.6945152229309075,7.063792723083496,-0.3010708587646484
1789064049506724900,10.314724853515624,8.281842817687988,6.832153712463379,-0.09801263046264648
1789064049516761900,10.324761962890625,9.471162492370604,6.64600453338623,0.1671452033996582
1789064049526798800,10.334798828125,9.59551134109497,6.368576416015625,0.8767267204284668
1789064049536834800,10.344834716796875,8.619574889373778,6.46105245513916,1.2125135032653809
1789064049546871800,10.354871826171875,7.975833917999267,6.616825200653076,0.7523778717041015
1789064049556908800,10.36490869140625,7.163900279998779,6.696133130645752,0.17238251953125
1789064049566945800,10.37494580078125,7.156119124603271,6.420051751708984,-0.1758241844177246
1789064049576982800,10.384982666015626,7.25278501663208,6.254402924346923,-0.3570353225708008
1789064049587020000,10.39502001953125,5.766135423278809,6.449380722045898,-0.06778583450317383
1789064049597056800,10.405056884765624,5.358223315429687,6.393116983032226,0.044592005920410155
1789064049607093800,10.41509375,5.93747047958374,5.875670149230957,-0.053420624542236325
1789064049617130800,10.425130859375,5.810727429199218,5.906794770812988,-0.01062426986694336
1789064049627167700,10.435167724609375,6.02066898727417,5.895871225738525,0.5238812507629395
1789064049637205000,10.445205078125,6.780977651977539,5.5458688705444334,1.4727332962036133
1789064049647241700,10.45524169921875,7.773523877716064,5.665279678344726,1.5746365043640136
1789064049657278700,10.46527880859375,8.080131327819824,5.944802722167968,0.5960065757751465
1789064049667315700,10.475315673828124,7.339425189208984,6.6528878631591795,-0.24331074371337888
1789064049677353000,10.48535302734375,7.474697583007812,6.941089888000488,-0.8267477607727051
1789064049687390000,10.495389892578125,7.872583971405029,7.103745963287353,-0.9475053070068359
1789064049697426700,10.5054267578125,8.386289865112305,6.70989979019165,0.29882629470825195
1789064049707463700,10.515463623046875,7.670872481536865,6.725162825775146,0.9012672874450683
1789064049717500200,10.525500244140625,7.580790644073486,6.8393363174438475,0.9496002334594726
1789064049727537400,10.535537353515625,8.980650427246093,5.7520694885253905,0.7224503509521484
1789064049737574400,10.545574462890626,8.15913998260498,6.133196465301514,0.048931496429443354
1789064049747611400,10.555611328125,6.229862357330322,6.68431175994873,-0.2654571090698242
1789064049757648100,10.565648193359374,6.262184079742431,6.279841316986084,-0.06778583450317383
1789064049767685400,10.575685302734374,7.141305001831054,6.155642105865478,0.12509703674316405
1789064049777722400,10.585722412109375,6.977451825714111,6.0419175270080565,0.32127193527221676
1789064049787758300,10.59575830078125,6.968922482299805,6.278344940948486,-0.024690204620361325
1789064049797795300,10.60579541015625,6.720075147247314,6.855796453857422,-0.5945101997375488
1789064049807832300,10.615832275390625,7.568071447753906,6.5375172706604,-0.6034884559631347
1789064049817869300,10.625869384765625,8.154501216888427,6.814346837615966,-0.7796119155883788
1789064049827906300,10.63590625,8.116942178344726,7.187991934204101,-0.5856815811157227
1789064049837943300,10.645943359375,8.05020380706787,6.836343565368652,0.03336918563842773
1789064049847980300,10.655980224609374,7.96760384979248,7.369203072357177,-0.3721487205505371
1789064049858017300,10.666017333984374,7.797765169525146,7.0847419876098625,-0.6983586967468262
1789064049868054300,10.67605419921875,7.5725605758666985,7.1960723648071285,-1.0550947441101073
1789064049878091300,10.68609130859375,7.513453722381591,6.782623665618896,-1.329230834197998
1789064049888128300,10.696128173828125,6.750750856018066,6.802076554107666,-1.080233861541748
1789064049898165200,10.706165283203125,6.367528952789306,6.449530359649658,-0.2929904281616211
1789064049908202500,10.716202392578126,7.3463085189819335,5.539135178375243,-0.11641805572509765
1789064049918239200,10.7262392578125,6.682665746307372,5.891232460021972,-0.647332273864746
1789064049928276200,10.736276123046874,5.080196647644042,5.96245995941162,-0.7020996368408202
1789064049938313200,10.746313232421874,5.483021076965332,6.102670394134521,-0.9317933586120605
1789064049948350500,10.7563505859375,6.974010160827636,5.910086798095703,-1.236006607055664
1789064049958387500,10.766387451171875,8.42160433959961,5.54796379699707,-0.9356839363098144
1789064049968424400,10.776424560546875,7.665635165405273,6.338798532867432,-0.6793547210693359
1789064049978461200,10.786461181640625,6.807463507843017,6.927772141265868,-0.7454945419311523
1789064049988498200,10.796498291015626,8.084171543121338,6.781276927185059,-0.7778162643432617
1789064049998535400,10.806535400390626,8.551639417266845,6.71019906539917,-0.8915408432006835
1789064050008572400,10.816572509765624,8.40828659286499,6.752396869659424,-0.873434693145752
1789064050018608400,10.8266083984375,7.01635760269165,7.2988733985900875,-0.7936778503417968
1789064050028645400,10.836645263671874,7.496544673156738,6.862380508422851,-0.8934861320495605
1789064050038682000,10.84668212890625,8.354267417907714,6.771400845336913,-1.2708721687316893
1789064050048719400,10.85671923828125,8.653692263031004,6.5391632843017575,-1.2811971633911132
1789064050058756400,10.86675634765625,7.946056034851074,6.60769730682373,-0.9926958633422851
1789064050068793300,10.87679345703125,6.708104138946533,7.222109307861328,-0.9545382743835449
1789064050078830300,10.886830322265626,6.376956121826171,6.978499288940429,-0.6147112762451171
1789064050088867300,10.896867431640626,7.661894225311279,6.561309649658202,-0.41374797439575195
1789064050098904300,10.906904296875,8.562862237548828,6.198588098144531,-0.541388850402832
1789064050108941300,10.91694140625,7.901464028930664,6.393416258239745,-0.6221931564331055
1789064050118978300,10.926978271484375,6.421997040557861,6.926275765228271,-0.9448118301391601
1789064050129015300,10.937015380859375,6.89485186843872,6.533177780151367,-0.8631096984863281
1789064050139052300,10.94705224609375,7.9457567596435545,6.153547179412842,-0.43724107818603514
1789064050149089300,10.95708935546875,7.189039397430419,6.220285550689697,0.14425065002441406
1789064050159126300,10.967126220703125,7.2641574745178215,6.142174721527099,0.10609306106567382
1789064050169163300,10.977163330078126,6.90816961517334,6.26293226776123,-0.4516062881469726
1789064050179200500,10.987200439453124,6.4092778442382805,6.491578526306152,-1.0455179374694823
1789064050189237200,10.9972373046875,7.562983769226074,6.096086339569092,-1.144727668762207
1789064050199274200,11.007274169921875,7.859864775085449,5.813869818878174,-0.9715969612121581
1789064050209311200,11.017311279296875,6.827514946746826,6.21205548248291,-0.565630142211914
1789064050219348500,11.027348388671875,6.017975510406494,6.289418123626708,-0.39055414581298825
1789064050229385500,11.037385498046875,6.87599753036499,6.0778305519104,-0.49814358291625976
1789064050239422200,11.047422119140625,8.653093712615966,5.4704515182495115,-0.3899555953979492
1789064050249458400,11.05745849609375,8.72761323928833,5.421669659423828,-0.5398924743652344
1789064050259495200,11.0674951171875,7.199514029693603,6.155642105865478,-0.6226420692443847
1789064050269532200,11.0775322265625,6.861931595611572,6.078279464721679,-0.41838674011230464
1789064050279569400,11.0875693359375,7.7224974548339835,6.186916365051269,-0.7140706451416016
1789064050289606400,11.0976064453125,8.010998754882811,6.327426074981689,-0.29553426742553707
1789064050299643400,11.107643310546875,8.86782367401123,6.077232001495361,-0.37005379409790035
1789064050309680000,11.11768017578125,8.134898690795898,7.151629996490478,-0.9332897346496581
1789064050319717400,11.12771728515625,7.266551676177978,7.414543266296386,-1.016937155151367
1789064050329754400,11.13775439453125,8.026561065673828,7.3289505569458,-0.8596680335998534
1789064050339791400,11.147791259765626,9.232191239166259,7.033715564727783,-0.5759551368713378
1789064050349828400,11.157828369140624,8.503007196044921,7.165695931243896,-0.0809539436340332
1789064050359865300,11.167865234375,8.100781317138672,7.211933950805664,0.25528175201416015
1789064050369902300,11.17790234375,8.169016064453125,7.2641574745178215,-0.12524667434692383
1789064050379939300,11.187939208984375,10.682478894805907,6.375759020996093,-0.2979284690856933
1789064050389976300,11.197976318359375,9.642647186279296,6.37171880569458,-0.48243163452148435
1789064050400013300,11.208013427734375,5.297470448303223,7.906551707458496,-0.5992986030578613
1789064050410050300,11.21805029296875,5.030516963195801,7.321169401550293,-0.38666356811523434
1789064050420087300,11.22808740234375,6.622062516784667,6.247369956970214,-0.7001543479919433
1789064050430124300,11.238124267578126,7.1224506637573235,6.0984805412292475,-0.8575731071472168
1789064050440161300,11.248161376953124,5.413140316009521,5.689371332550048,-0.5753565864562988
1789064050450198500,11.258198486328125,3.7618893585205075,6.120626906585693,-0.3224690361022949
1789064050460235300,11.2682353515625,4.723161325073242,5.2350715675354005,0.09472060317993164
1789064050470272300,11.278272216796875,6.262483354949951,4.682908809661865,0.10624269866943359
1789064050480308200,11.28830810546875,7.455693607330322,4.827309097290039,-0.086191259765625
1789064050490345200,11.29834521484375,7.7036431167602535,4.4853871726989745,-0.08678981018066406
1789064050500382500,11.308382568359375,4.696974744415283,6.227917068481445,-0.16953940505981444
1789064050510419500,11.31841943359375,5.015553202819824,6.347327876281738,-0.04115034103393554
1789064050520456200,11.328456298828126,6.631340048217773,5.93133533782959,-0.24630349578857422
1789064050530493200,11.3384931640625,7.3922472633361815,6.3627405494689935,-0.4382885414123535
1789064050540530200,11.3485302734375,6.453720212554932,6.608295857238769,-0.23882161560058593
1789064050550567400,11.3585673828125,7.534402986907959,6.867617824554443,-0.30316578521728516
1789064050560604400,11.3686044921875,8.997409838867187,6.283582257080078,0.12913725204467771
1789064050570641200,11.37864111328125,8.57498288345337,7.1124249443054195,0.6708253776550293
1789064050580678100,11.38867822265625,10.895413204956053,6.7462617279052735,0.8777741836547851
1789064050590715400,11.39871533203125,12.568810527801514,6.3797992362976075,0.8710404914855957
1789064050600752400,11.40875244140625,8.487744160461425,8.19744720916748,0.8378209434509277
1789064050610789400,11.418789306640624,6.464494120025634,8.890119676971436,0.19228432083129882
1789064050620826400,11.428826416015625,7.30351216430664,8.30518628387451,-0.4740519287109375
1789064050630863400,11.43886328125,8.35052647781372,7.766939823150635,-0.833182177734375
1789064050640900400,11.448900390625,6.767809542846679,7.704540942382812,-0.7275380294799805
1789064050650937300,11.458937255859375,6.049399407196044,7.349001995849609,-0.22939444656372068
1789064050660974300,11.468974365234375,6.986729357147216,6.02022007446289,0.8116343627929687
1789064050671011300,11.47901123046875,6.7286044906616205,5.7986067832946775,1.4299369415283203
1789064050681048300,11.48904833984375,6.364087287902832,5.596446380615234,1.4700398193359374
1789064050691085300,11.499085205078124,6.199785198974609,5.4506993545532225,1.4757260482788086
1789064050701122300,11.509122314453125,6.319644919586182,5.690418795776367,1.0290578010559082
1789064050711158800,11.51915869140625,6.198288822937012,5.859359650421142,0.7577648254394531
1789064050721195800,11.52919580078125,6.228814894104003,6.443544855499267,0.6973112335205077
1789064050731232800,11.539232666015625,7.3274541809082026,6.170755503845214,0.6863876884460449
1789064050741269800,11.549269775390625,7.290194417572021,6.779481275939941,0.22789807052612304
1789064050751306800,11.559306640625,7.7602061309814445,6.7274073898315425,0.04683656997680664
1789064050761343700,11.56934375,6.972064871978759,6.935254021453857,0.04519055633544922
1789064050771380700,11.579380615234374,8.199841410827636,6.832303350067138,-0.015113397979736327
1789064050781417700,11.589417724609374,9.638906246185302,5.959616844940185,0.40222587890625
1789064050791454700,11.599454833984375,9.35983211517334,6.081272216796875,0.7395090377807617
1789064050801491700,11.60949169921875,7.326406717681884,6.538115821075439,0.9873089096069335
1789064050811528700,11.61952880859375,5.999420447540283,6.729951229095459,0.7990648040771484
1789064050821565700,11.629565673828125,5.738003553771972,6.720374422454833,0.17268179473876952
1789064050831602700,11.639602783203125,6.709001964569091,6.0896519226074215,-0.5198410354614258
1789064050841639700,11.6496396484375,8.365789513397216,5.466560940551758,-0.4653729476928711
1789064050851676700,11.6596767578125,8.428786944580077,5.363909544372558,-0.1331774673461914
1789064050861713700,11.669713623046874,7.290194417572021,5.92445200805664,0.1753752716064453
1789064050871751000,11.6797509765625,8.285134844970703,5.799055696105957,0.3356371452331543
1789064050881788000,11.689787841796875,7.050026063537597,6.330867739868164,0.29867665710449215
1789064050891824600,11.69982470703125,6.3973068359375,7.401524794769287,0.08604162216186523
1789064050901861600,11.709861572265625,8.540117321777343,6.3992521247863765,-0.2407669044494629
1789064050911898600,11.719898681640625,8.320598957061767,7.215076340484619,-0.5883750579833984
1789064050921936000,11.729935791015626,8.641421979522704,6.947374667358398,-0.5681739814758301
1789064050931971800,11.739971923828126,8.74601866455078,6.815843213653564,-0.4487631736755371
1789064050942008800,11.7500087890625,7.604732660675048,7.455394332122802,-0.5936123741149902
1789064050952045600,11.760045654296874,7.876175273895263,6.750601218414306,-0.15607202072143553
1789064050962082600,11.77008251953125,7.990348765563964,6.714239280700683,0.032172084808349606
1789064050972119800,11.780119873046875,7.279869422912597,6.367977865600586,0.6576572685241698
1789064050982156800,11.79015673828125,6.6346320755004875,6.171952604675292,1.1902175003051758
1789064050992193800,11.80019384765625,5.4427685615539545,6.255899300384521,0.505625463104248
1789064051002230500,11.81023046875,5.453243193817138,5.9246016456604,-0.2581248664855957
1789064051012267800,11.820267822265626,6.639270841217041,5.308992543792725,-1.2179004570007324
1789064051022304800,11.8303046875,5.992387480163574,5.415085604858398,-1.421856510925293
1789064051032341800,11.840341796875,4.401590114593506,5.751919850921631,-0.8482955757141113
1789064051042378800,11.850378662109375,5.10084663696289,5.689969882965087,-0.43499651412963863
1789064051052415700,11.860415771484375,8.074145823669433,4.70535445022583,-0.21308394775390624
1789064051062452700,11.87045263671875,8.464550331878662,5.060294846343994,-0.5342062454223633
1789064051072489700,11.88048974609375,8.457667002105712,5.904550206756592,-0.8794201972961425
1789064051082526700,11.890526611328125,8.338705107116699,6.280140592193603,-0.8328829025268554
1789064051092563700,11.900563720703126,7.5142019104003905,7.22674807357788,-0.9847650703430175
1789064051102600700,11.9106005859375,8.361749298095702,7.596801867675781,-1.0609306106567382
1789064051112637700,11.9206376953125,8.954164571380614,7.60323628463745,-1.173458088684082
1789064051122674700,11.9306748046875,8.97047507019043,8.240692476654052,-1.3651438591003417
1789064051132711700,11.940711669921875,9.41070890045166,7.798962270355224,-0.9917980377197265
1789064051142749000,11.9507490234375,9.32766003036499,7.728034046173096,-0.9983820922851562
1789064051152785700,11.96078564453125,8.291569261932372,7.771728226470946,-1.2012906829833985
1789064051162822000,11.97082177734375,7.873182521820068,7.1769187515258785,-1.2521674682617188
1789064051172858600,11.980858642578125,7.780856120300292,6.779630913543701,-1.5052046562194823
1789064051182895600,11.9908955078125,6.883928323364257,6.203975051879882,-1.0917559570312498
1789064051192932900,12.000932861328126,6.570886456298828,5.90544803237915,-0.9718962364196777
1789064051202969900,12.010969970703124,6.427683269500732,5.634155056762695,-1.1945569908142089
1789064051213006800,12.0210068359375,6.233304022216797,5.564274295806884,-1.4743793098449707
1789064051223043600,12.031043701171875,6.188712016296386,5.704185455322265,-1.8977040908813476
1789064051233080600,12.04108056640625,6.19918664855957,5.928043310546875,-1.9768623832702636
1789064051243117800,12.051117919921875,6.785915692901611,5.986102700805664,-1.7319056259155272
1789064051253154800,12.06115478515625,6.483947008514404,6.330269189453125,-1.2035352470397949
1789064051263191800,12.07119189453125,6.392817707824706,6.614730274200439,-0.8872013526916503
1789064051273228500,12.081228515625,6.831704799652099,6.553678131866454,-1.0078092613220215
1789064051283265800,12.091265869140624,6.4828995452880855,6.809857709503174,-1.4826093780517577
1789064051293302800,12.101302734375,7.892934685516357,6.3256304237365715,-1.40464818649292
1789064051303339800,12.11133984375,7.000645654296875,6.359448522186279,-1.3425485809326172
1789064051313376800,12.121376708984375,7.216123803710937,6.527042638397217,-1.2759598472595215
1789064051323413800,12.131413818359375,6.8326026252746574,6.3627405494689935,-1.1049240661621094
1789064051333450800,12.14145068359375,6.912808380889892,6.406285092163086,-0.8690952026367187
1789064051343487700,12.15148779296875,6.590040069580078,6.66500850906372,-0.604535919189453
1789064051353524700,12.161524658203126,7.880963677215576,6.281936243438721,-0.7345709968566894
1789064051363561700,12.171561767578124,8.135946154022216,6.394014808654785,-0.7115268058776855
1789064051373598700,12.1815986328125,6.111947925567627,7.152078909301758,-0.816572403717041
1789064051383634700,12.191634765625,6.751499044036865,7.1495350700378415,-0.6049848320007324
1789064051393671700,12.201671630859375,8.21734901046753,6.42229631576538,0.057610477447509766
1789064051403708700,12.211708740234375,9.644143562316893,6.291363412475586,0.5440823272705078
1789064051413745700,12.22174560546875,8.989479045867919,6.3694742416381835,1.0574889457702636
1789064051423783000,12.231782958984375,7.940818718719482,6.884227598571777,0.9400234268188477
1789064051433819600,12.241819580078126,8.24862326965332,6.783371853637695,0.7628525039672851
1789064051443856600,12.251856689453126,7.772775689697265,6.872406227874755,0.33309330596923825
1789064051453893600,12.2618935546875,7.0187518043518065,7.347355982208252,-0.10818798751831055
1789064051463931000,12.271930908203124,6.711096891021728,7.0938698814392085,-0.2780266677856445
1789064051473967900,12.2819677734375,7.481880187988281,6.8685156501770015,-0.43888709182739255
1789064051484004600,12.292004638671875,7.143549565887451,7.025036583709716,-0.31109657821655273
1789064051494041600,12.30204150390625,7.862558251953125,6.552331393432617,0.05596446380615234
1789064051504078600,12.31207861328125,9.10320362472534,6.003460662841796,0.4209305793762207
1789064051514115800,12.32211572265625,7.668627917480468,6.542006398773193,0.45025954971313475
1789064051524152800,12.33215283203125,6.911461642456055,6.6394204788208,0.6450877098083496
1789064051534189800,12.34218994140625,6.393715533447265,6.756736360168457,0.48617257461547847
1789064051544226600,12.3522265625,7.730278610229492,6.349572440338134,0.33309330596923825
1789064051554263800,12.362263916015625,7.53365479888916,6.228814894104003,0.3107973030090332
1789064051564300800,12.37230078125,6.2389902511596675,6.6790744438171386,0.4542997650146484
1789064051574337800,12.382337890625,6.350769541168212,6.415712261199951,0.5979518646240234
1789064051584374800,12.392374755859375,6.5224038726806635,6.354360843658447,0.18136077575683593
1789064051594411500,12.40241162109375,6.86342797164917,5.956923368072509,0.3072060005187988
1789064051604447700,12.41244775390625,7.042693820953369,5.791573815917968,0.28042086944580075
1789064051614484700,12.422484619140626,6.171802967071533,6.206818166351318,0.0857423469543457
1789064051624521700,12.432521728515624,7.1586629638671875,5.794566567993164,0.22595278167724608
1789064051634558700,12.442558837890624,8.572439044189453,5.440823272705078,-0.049829322052001954
1789064051644595700,12.452595703125,7.98002377090454,5.999270809936523,-0.08828618621826172
1789064051654632700,12.4626328125,6.921636999511718,6.539462559509277,-0.1279401512145996
1789064051664669700,12.472669677734375,7.792228578186035,6.487987223815917,-0.48497547378540035
1789064051674706700,12.482706787109375,7.29737702255249,6.770951932525635,-0.49814358291625976
1789064051684743700,12.49274365234375,7.89757345123291,6.7082537765502925,-0.385616104888916
1789064051694781000,12.502781005859376,9.185504306793213,6.240486627197265,-0.11776479415893554
1789064051704817700,12.512817626953124,8.687659999084472,6.495319466400146,-0.3719990829467773
1789064051714854100,12.522854248046874,7.659500023651122,6.840683055877685,-0.5614402893066406
1789064051724891400,12.532891357421875,8.167220413208007,6.579266162109374,-0.7990648040771484
1789064051734928400,12.542928466796875,7.668328642272948,6.706607762908935,-1.3614029190063475
1789064051744965400,12.55296533203125,7.1586629638671875,6.949768869018555,-1.759438945007324
1789064051755002400,12.56300244140625,6.903530849456787,6.7182794960021965,-1.8330606460571288
1789064051765039000,12.5730390625,6.918943522644042,6.808211695861816,-1.7111059989929198
1789064051775076400,12.583076416015626,6.9898717468261715,6.693439653778076,-1.3476362594604492
1789064051785113300,12.59311328125,6.49277562713623,6.770054106903076,-1.1010334884643553
1789064051795150300,12.603150390625,6.335805780792236,6.782324390411376,-1.2006921325683593
1789064051805187300,12.613187255859375,6.194398245239258,6.575225946807861,-0.9853636207580566
1789064051815224300,12.623224365234375,6.080673666381836,6.71019906539917,-0.8872013526916503
1789064051825260300,12.63326025390625,7.4411787597656245,6.106560971832275,-0.8454524612426757
1789064051835297300,12.64329736328125,7.436689631652832,6.0160302215576165,-0.754622435760498
1789064051845334300,12.653334228515625,6.166116738128662,6.674884590911865,-1.0339958419799804
1789064051855371300,12.663371337890625,5.487959117889404,6.938097135925292,-1.0806827743530272
1789064051865408500,12.673408447265626,7.206247721862793,6.359897434997558,-0.7567173622131347
1789064051875445200,12.6834453125,7.480383811950683,6.336254693603515,-0.41674072647094723
1789064051885482200,12.693482177734374,6.807613145446777,6.77379504699707,-0.4750993919372558
1789064051895519200,12.703519287109375,6.311863764190673,7.1035963256835934,-0.8973767097473144
1789064051905556200,12.71355615234375,7.228693362426758,6.905176863098144,-1.2752116592407226
1789064051915593500,12.723593505859375,8.768314667510985,6.602459990692139,-1.0146925910949707
1789064051925630200,12.733630126953125,8.163629110717773,6.543353137207031,-0.45070846252441404
1789064051935667200,12.743667236328125,6.894402955627441,7.094019519042968,-0.31498715591430665
1789064051945704200,12.7537041015625,5.970690027618408,7.042693820953369,-0.18106150054931638
1789064051955741400,12.763741455078126,6.5868976799011225,6.68416212234497,-0.2862567359924316
1789064051965778400,12.7737783203125,7.548319284057617,6.53766690826416,-0.37289690856933594
1789064051975815400,12.7838154296875,8.186224388885497,5.912929912567138,-0.2838625343322754
1789064051985852200,12.79385205078125,7.127239067077636,6.766462804412841,-0.4100070343017578
1789064051995889400,12.803889404296875,7.333888597869873,6.6334349746704095,-0.4703109886169433
1789064052005926400,12.813926513671875,8.322693883514404,6.376507209014892,-0.010025719451904296
1789064052015963400,12.82396337890625,8.077138575744629,6.81210227355957,0.2727893516540527
1789064052026000400,12.83400048828125,7.740005054473876,7.0744169929504395,0.1858499038696289
1789064052036037000,12.844037109375,8.282890280914307,7.256525956726073,-0.20769699401855468
1789064052046073000,12.854072998046876,8.269871809387206,7.357680976867675,-0.7580641006469726
1789064052056110300,12.8641103515625,8.467842359161377,7.326406717681884,-0.9255085792541503
1789064052066147300,12.874147216796874,7.5525091369628905,7.379378429412841,-0.6009446166992187
1789064052076184300,12.884184326171875,7.034463752746581,7.2066966346740715,-0.16310498809814453
1789064052086221300,12.89422119140625,6.909965266418457,6.720673697662353,0.515202269744873
1789064052096258300,12.90425830078125,6.534374880981445,6.2873231971740715,0.21472996139526365
1789064052106295300,12.91429541015625,4.674828379058837,6.514323442077636,-0.10684124908447265
1789064052116332300,12.924332275390626,4.3339539176940916,6.306027897644043,-0.27353753967285155
1789064052126369300,12.934369384765626,6.296900003814697,5.371690699768066,-0.0770633659362793
1789064052136406500,12.944406494140624,6.222679752349853,5.527164170074463,0.5635352157592773
1789064052146443300,12.954443359375,6.2769982025146485,5.547065971374511,0.9334393722534179
1789064052156480300,12.964480224609375,5.951835689544677,6.24422756729126,0.7664438064575195
1789064052166517200,12.974517333984375,6.370222429656982,6.627000557708739,0.7887398094177246
1789064052176554200,12.98455419921875,8.721927010345459,6.274304725646973,0.4997895965576172
