time,seconds_elapsed,z,y,x
1789063892888381400,0.03138134765625,7.276278120422363,6.5032502593994135,0.7800608283996582
1789063892898419500,0.04141943359375,7.332990772247314,6.551134292602539,0.8265981231689452
1789063892908456400,0.05145654296875,7.427412100219726,6.508786850738525,0.8656535377502441
1789063892918494500,0.061494384765625,7.503128727722167,6.632387511444091,0.865054987335205
1789063892928532500,0.071532470703125,7.3657614074707025,6.667103435516357,0.8251017471313477
1789063892938569200,0.0815693359375,7.3943421897888175,6.692691465759277,0.7410054138183594
1789063892948607500,0.091607421875,7.379378429412841,6.6896987136840815,0.6732195793151855
1789063892958644500,0.10164453125,7.387758135223388,6.643610331726074,0.6869862388610839
1789063892968682200,0.11168212890625,7.293336807250976,6.646453446197509,0.5981015022277831
1789063892978719500,0.121719482421875,7.2060980842590325,6.660369743347167,0.5574000740051269
1789063892988757200,0.13175732421875,7.1501336204528805,6.615328824615478,0.5575497116088867
1789063892998794200,0.141794189453125,7.1692872337341305,6.572532469940185,0.5979518646240234
1789063893008832500,0.15183251953125,7.180210778808593,6.550984654998779,0.6880337020874023
1789063893018870300,0.161870361328125,7.209390111541747,6.556970159149169,0.816572403717041
1789063893028907300,0.1719072265625,7.276577395629882,6.5300353904724115,0.9074024291992187
1789063893038945500,0.181945556640625,7.025635134124755,6.554276682281494,0.675464143371582
1789063893048982300,0.191982177734375,6.808361333465576,6.648698010253906,0.2587234169006348
1789063893059020300,0.202020263671875,7.056011567687988,6.545148788452148,0.25318682556152344
1789063893069057500,0.2120576171875,7.368454884338378,6.273406900024414,0.7396586753845215
1789063893079095300,0.22209521484375,6.701220809173583,6.618770489501952,0.4462193344116211
1789063893089132300,0.23213232421875,7.029376074218749,6.693738928985596,0.35224691925048823
1789063893099170600,0.242170654296875,7.313837158966064,6.4448915939331055,0.5987000526428222
1789063893109207300,0.252207275390625,7.761552869415283,6.687753424835205,0.4878185882568359
1789063893119245300,0.262245361328125,7.6231380859375,6.584054565429687,0.8858546142578124
1789063893129283300,0.272283447265625,7.425466811370849,6.76077657546997,0.9065046035766601
1789063893139320300,0.2823203125,7.426963187408447,6.749254479980468,0.9642647186279296
1789063893149358300,0.2923583984375,7.593360202789306,6.570138268280029,1.0178349807739258
1789063893159395600,0.3023955078125,7.4125979774475095,6.622212154388428,0.9522937103271484
1789063893169433300,0.312433349609375,7.288249128723144,6.553079581451415,1.0139444030761717
1789063893179470300,0.32247021484375,7.133972759246825,6.472724188232421,1.0697592292785645
1789063893189508400,0.33250830078125,7.281365798950195,6.3895256805419915,1.0860697280883789
1789063893199545300,0.34254541015625,7.235277416992187,6.298396379852295,1.1284171699523926
1789063893209583400,0.352583251953125,7.096114445495605,6.329670639038086,1.1572972274780273
1789063893219620400,0.362620361328125,6.995707613372803,6.415412985992432,1.1113584831237793
1789063893229658400,0.372658447265625,7.154922023773193,6.385335827636719,1.112106671142578
1789063893239696400,0.3826962890625,7.326705992889404,6.431124934387206,1.094299796295166
1789063893249733400,0.3927333984375,7.342866854095458,6.475118389892578,1.1155483360290526
1789063893259771400,0.402771484375,7.341220840454101,6.557568709564209,1.1029787773132325
1789063893269808400,0.412808349609375,7.226149523162841,6.63957011642456,1.108365731048584
1789063893279846400,0.422846435546875,7.522581616210937,6.560411824035644,1.0245686729431152
1789063893289883400,0.43288330078125,7.591564551544189,6.567893704223632,0.951844797515869
1789063893299921200,0.442921142578125,7.395240015411376,6.663661770629883,0.8322843521118164
1789063893309958400,0.45295849609375,7.292139706420898,6.689549076080322,0.7184101356506347
1789063893319996400,0.462996337890625,7.314884622192382,6.643909606933593,0.6958148574829102
1789063893330033400,0.473033447265625,7.3359835243225096,6.568192979431152,0.7543231605529784
1789063893340071400,0.483071533203125,7.313388246154784,6.534225243377685,0.6290764862060546
1789063893350109400,0.493109375,7.1778165771484375,6.555623420715332,0.6118681617736816
1789063893360146200,0.503146240234375,7.1026985000610345,6.516418368530273,0.47629649276733393
1789063893370184400,0.513184326171875,7.260715809631347,6.528090101623535,0.36361937713623044
1789063893380221400,0.523221435546875,7.143549565887451,6.48050534362793,0.45010991210937495
1789063893390259200,0.53325927734375,7.323862878417969,6.567594429016113,0.354341845703125
1789063893400296400,0.54329638671875,7.093720243835449,6.605602380371093,0.43783962860107417
1789063893410334500,0.55333447265625,7.129333993530273,6.723217536926269,0.26066870574951173
1789063893420371200,0.56337109375,7.212981414031982,6.786214968109131,0.27997195663452146
1789063893430409500,0.573409423828125,7.414243991088867,6.645106707763672,0.19826982498168944
1789063893440447200,0.583447265625,7.4682631660461425,6.884227598571777,-0.004938040924072265
1789063893450484200,0.593484130859375,7.097161908721923,6.832452987670898,0.19213468322753904
1789063893460522500,0.6035224609375,7.421576233673095,6.764068602752685,0.44053310546874996
1789063893470559200,0.613559326171875,7.539191390228271,6.7365352836608885,0.23702596435546874
1789063893480597500,0.623597412109375,6.991517760467529,6.698078419494628,0.7993640792846679
1789063893490634500,0.633634521484375,7.177966214752197,6.7274073898315425,0.32187048568725585
1789063893500672300,0.64367236328125,7.205649171447753,6.619967590332031,0.6102221481323242
1789063893510709200,0.653709228515625,6.927622503662109,6.522703147888183,0.7459434547424316
1789063893520747500,0.66374755859375,7.050624613952636,6.701520084381103,0.6395511184692383
1789063893530784300,0.6737841796875,6.615628099822998,6.593481734466552,0.7453449043273925
1789063893540822300,0.683822265625,6.59497811050415,6.871209127044677,0.23552958831787107
1789063893550860300,0.6938603515625,6.562656388092041,6.972663422393798,-0.09576806640624999
1789063893560897300,0.703897216796875,6.669946549987793,7.029675349426269,-0.24121581726074218
1789063893570936000,0.71393603515625,6.849511674499511,7.217470542144775,-0.3371335212707519
1789063893580972800,0.723972900390625,6.885275061798096,7.313537883758545,-0.17732056045532227
1789063893591010800,0.7340107421875,6.772298670959472,7.490559169006347,-0.00718260498046875
1789063893601048000,0.744048095703125,7.255029580688476,7.488164967346191,0.08738836059570312
1789063893611085800,0.7540859375,7.274482469177245,7.353640761566162,0.2653074714660644
1789063893621122800,0.764122802734375,6.617573388671874,7.644236988067626,0.15068506698608397
1789063893631161000,0.7741611328125,7.110030742645264,7.448211727142334,0.27189152603149414
1789063893641197800,0.78419775390625,7.745541645812988,6.822277630615234,0.502483073425293
1789063893651235800,0.79423583984375,7.2243538719177245,7.15671767501831,0.6953659446716308
1789063893661273900,0.80427392578125,6.552181755828857,7.064391273498535,1.175852290344238
1789063893671310800,0.814310791015625,7.023839482879638,6.95844785003662,1.0703577796936035
1789063893681349000,0.82434912109375,6.606799481201172,7.033715564727783,1.2645873893737791
1789063893691386000,0.83438623046875,6.410325307464599,7.0382046928405755,1.5034090049743651
1789063893701423900,0.844423828125,6.332064840698242,6.9916673980712885,1.5662567985534668
1789063893711460900,0.8544609375,5.98849690246582,7.047182949066162,1.6127940933227538
1789063893721499000,0.864498779296875,6.439654277801513,6.993014136505127,1.2589011604309082
1789063893731536000,0.874535888671875,6.888118176269531,6.873154415893555,1.0380360572814942
1789063893741574000,0.884573974609375,6.676081691741943,7.0652890991210935,0.9982324546813964
1789063893751611000,0.89461083984375,6.585850216674804,7.246949150085449,1.0007762939453124
1789063893761649000,0.90464892578125,6.607398031616211,7.2714897171020505,1.1659762084960936
1789063893771687000,0.91468701171875,6.656928078460693,7.357082426452636,1.131260284423828
1789063893781724000,0.924723876953125,6.7922004722595215,7.3934443641662595,0.819116242980957
1789063893791762000,0.934761962890625,6.554276682281494,7.498938874816894,0.5014356101989745
1789063893801799000,0.944798828125,6.560860736846924,7.613561279296874,0.2545335639953613
1789063893811837000,0.9548369140625,7.182156067657471,7.464671863555908,0.16654665298461913
1789063893821874000,0.9648740234375,7.494300109100341,7.349600546264648,0.3284545402526855
1789063893831912000,0.974911865234375,6.803572930145263,7.606528311920165,0.5970540390014648
1789063893841949000,0.984948974609375,6.318896731567382,7.759457942962646,0.8029553817749023
1789063893851987000,0.994987060546875,6.223876853179931,7.6182000450134275,0.98955347366333
1789063893862024000,1.00502392578125,6.396409010314941,7.453598680877685,1.0217255584716796
1789063893872062000,1.01506201171875,6.236147136688232,7.353042211151123,0.9060556907653808
1789063893882100000,1.025099853515625,6.006303777313232,7.368005971527099,0.730979694366455
1789063893892136700,1.03513671875,6.375160470581054,7.063792723083496,0.5033808990478515
1789063893902175000,1.045175048828125,6.418854650878906,7.06109924621582,0.397736750793457
1789063893912212000,1.0552119140625,6.223128665161132,7.185298457336425,0.4930559043884277
1789063893922250000,1.06525,6.383839451599121,7.218368367767334,0.7218518005371093
1789063893932287000,1.075286865234375,6.70346537322998,7.256077043914795,0.9581295768737792
1789063893942325000,1.085324951171875,6.253654736328125,7.528866395568847,1.1813888816833495
1789063893952361700,1.09536181640625,5.829432129669189,7.930643361663818,1.1617863555908203
1789063893962400000,1.10539990234375,6.957849299621581,7.532906610870361,1.0999860252380371
1789063893972437000,1.11543701171875,7.70618695602417,7.274632106781006,0.907851342010498
1789063893982475000,1.12547509765625,7.2170216293334954,7.466766790008545,0.8972270721435547
1789063893992513000,1.135512939453125,6.37755467224121,7.534103711700439,1.0090063621520995
1789063894002549800,1.1455498046875,6.341043096923828,7.576451153564452,1.0791863983154297
1789063894012588000,1.155588134765625,6.772597946166992,7.204302433013916,1.3691840744018553
1789063894022625000,1.165625,6.103119306945801,7.455693607330322,1.4241010749816894
1789063894032662800,1.175662841796875,6.2407859024047845,7.459284909820556,1.3006500518798827
1789063894042699800,1.18569970703125,6.679373719024658,7.171082884979247,1.2722189071655272
1789063894052738000,1.195738037109375,6.642862143707275,7.387608497619628,1.2246341491699217
1789063894062774800,1.20577490234375,6.59497811050415,7.287500940704345,1.4344260696411133
1789063894072813000,1.21581298828125,6.291513050079345,7.529913858795165,1.4372691841125487
1789063894082850000,1.22585009765625,6.418106462860107,7.572410938262939,1.3289315589904784
1789063894092887800,1.2358876953125,6.721421885681152,7.445518250274658,1.2865841171264647
1789063894102926000,1.245926025390625,6.959644950866699,7.395389653015136,1.112854859161377
1789063894112963000,1.255963134765625,6.922534825134277,7.442974411010741,1.1153986984252928
1789063894123000800,1.266000732421875,6.903381211853027,7.222109307861328,1.1046247909545899
1789063894133038000,1.2760380859375,5.769128175354004,7.707084781646728,0.9394248764038086
1789063894143075800,1.286075927734375,6.109104811096191,7.60398447265625,0.8346785537719726
1789063894153112800,1.29611279296875,7.275679570007323,7.064241635894775,0.7852981445312499
1789063894163151000,1.306151123046875,7.237521981048584,7.198017653656006,0.7984662536621093
1789063894173188000,1.31618798828125,6.150105514526367,7.453598680877685,1.0069114356994628
1789063894183225900,1.326225830078125,6.292710150909423,7.347355982208252,0.9349357482910156
1789063894193262800,1.336262939453125,6.509684676361084,7.185148819732666,0.7383119369506835
1789063894203300900,1.34630078125,6.012139643859863,7.524526905059814,0.2498947982788086
1789063894213339000,1.3563388671875,7.314435709381103,6.964134078979492,0.047285482788085934
1789063894223376100,1.366376220703125,6.46718759689331,7.052569902801514,0.0469862075805664
1789063894233414000,1.376413818359375,6.008997254180908,7.593809115600585,-0.3703530693054199
1789063894243451000,1.386450927734375,6.6988266075134275,7.1495350700378415,-0.24061726684570311
1789063894253489000,1.396489013671875,6.819135240936279,7.192929975128173,0.013018471527099609
1789063894263526000,1.40652587890625,7.13771369934082,7.1878422966003415,0.34671032791137696
1789063894273564000,1.41656396484375,5.660042362213135,7.620743884277343,0.6910264541625977
1789063894283601000,1.426600830078125,5.959916120147705,7.7389575912475586,0.5472247169494628
1789063894293639000,1.436638916015625,7.728782234191894,7.151779634094238,0.09651625442504883
1789063894303676000,1.446676025390625,7.868992668914794,7.156268762207031,-0.34386721343994137
1789063894313714000,1.4567138671875,5.931933888244629,7.8800658515930175,-0.34671032791137696
1789063894323752000,1.466751953125,5.103091201019287,8.020126648712157,-0.11043255157470702
1789063894333789000,1.476788818359375,6.166565650939941,7.451653392028808,0.33518823242187495
1789063894343827000,1.486826904296875,6.341940922546386,7.339425189208984,0.8910919303894043
1789063894353864000,1.496864013671875,5.9020063674926755,7.376984227752685,1.3322235862731933
1789063894363902000,1.50690185546875,5.556044227600097,7.451952667236328,1.409137314605713
1789063894373939000,1.51693896484375,6.383091263580322,7.332691497039795,0.8740332435607909
1789063894383977000,1.52697705078125,6.96518154220581,7.313537883758545,0.34222119979858395
1789063894394014000,1.537013916015625,7.13771369934082,7.591414913940429,-0.15831658477783203
1789063894404052000,1.547052001953125,6.663961045837402,7.846547028350829,-0.11671733093261719
1789063894414089000,1.5570888671875,6.035483110046386,8.256254787445068,0.43783962860107417
1789063894424127000,1.567126953125,6.7803791015625,7.707533694458007,1.103278052520752
1789063894434165000,1.5771650390625,7.666981903839111,7.114220595550536,1.5077484954833984
1789063894444202000,1.587201904296875,7.57839644241333,6.881534121704101,1.5294459480285643
1789063894454239700,1.59723974609375,7.671321394348144,6.51192924041748,1.000477018737793
1789063894464277000,1.607277099609375,7.767388735961914,5.909488247680664,0.06928221054077148
1789063894474315000,1.61731494140625,7.564330507659911,5.68862314453125,-0.9693523971557617
1789063894484352000,1.62735205078125,5.903951656341552,5.983858136749268,-1.7539023536682128
1789063894494390000,1.63739013671875,5.36271244354248,6.252307997894286,-2.081907981109619
1789063894504427000,1.647427001953125,6.686107411193848,5.519532652282715,-1.7362451164245605
1789063894514464800,1.65746484375,7.838616235351562,5.265148725891113,-1.163133094024658
1789063894524502000,1.667501953125,7.953837190246581,5.722890155792236,-0.5108627792358398
1789063894534540000,1.6775400390625,8.406191666412353,5.719298853302002,-0.07107786178588867
1789063894544576800,1.68757666015625,8.70172593383789,5.768679262542724,-0.13572130661010742
1789063894554615000,1.697614990234375,6.559663636016845,7.250540452575684,-0.9849147079467773
1789063894564652800,1.70765283203125,6.951863795471191,7.53978994064331,-1.7374422172546387
1789063894574690300,1.717690185546875,8.707112887573242,6.873453691101074,-2.129043826293945
1789063894584728300,1.727728271484375,8.576628897094727,7.450905204010009,-2.0874445724487303
1789063894594765300,1.737765380859375,6.929567792510986,7.939322342681884,-0.6609492958068848
1789063894604803300,1.74780322265625,7.305307815551758,7.558494641113281,0.9024643882751464
1789063894614840300,1.75784033203125,9.386467608642578,6.510881777191162,2.0533271987915036
1789063894624878000,1.767878173828125,7.905653881835937,6.800879453277587,2.654571090698242
1789063894634915300,1.777915283203125,6.998850003051757,6.977302188110351,2.5438392639160154
1789063894644953300,1.787953369140625,5.9302878746032714,6.721421885681152,1.7919103050231933
1789063894654990000,1.797989990234375,5.198709629821777,6.946327204132079,1.0128969398498535
1789063894665028400,1.8080283203125,6.456264051818847,6.2295630821228025,1.022024833679199
1789063894675066000,1.818066162109375,7.012915937805175,5.953631340789794,1.3127706977844238
1789063894685103000,1.82810302734375,7.38072516784668,5.797708957672119,1.9167080665588379
1789063894695141400,1.838141357421875,5.9956795074462885,6.2870239219665525,2.5424925254821775
1789063894705178400,1.848178466796875,7.2614639976501465,6.310068112945556,2.2301988464355467
1789063894715216100,1.858216064453125,7.962216896057129,6.200084474182129,1.4444517890930175
1789063894725253400,1.86825341796875,8.844779483032227,6.299743118286132,0.64478843460083
1789063894735291100,1.878291015625,8.315960191345214,6.6617164817810055,-0.5437830520629883
1789063894745328000,1.888328125,7.73776049041748,7.088632565307617,-1.3817536331176756
1789063894755366400,1.898366455078125,7.409305950164795,6.870909851837157,-1.497722776031494
1789063894765403400,1.9084033203125,6.3803977867126465,7.226149523162841,-1.5263035583496092
1789063894775441200,1.918441162109375,6.909965266418457,6.873154415893555,-1.3293804718017577
1789063894785478400,1.928478515625,7.315034259796142,6.46135173034668,-1.2779051361083984
1789063894795516200,1.93851611328125,7.800009733581542,6.521356409454345,-1.71095636138916
1789063894805554200,1.94855419921875,8.175151206207275,6.497713668060302,-1.9653402877807615
1789063894815591400,1.95859130859375,8.085069368743897,6.621613603973389,-2.1712416305541993
1789063894825629200,1.968629150390625,7.709778258514404,7.045686573028564,-2.4066215812683103
1789063894835666200,1.978666259765625,7.116165884399414,7.44417151184082,-2.090736599731445
1789063894845704200,1.9887041015625,6.852504426574707,7.516895387268066,-1.521365517425537
1789063894855741200,1.9987412109375,7.616853306579589,7.015609414672851,-0.744447078704834
1789063894865779200,2.008779296875,6.714538555908203,6.950965969848633,-0.06239888076782226
1789063894875816400,2.01881640625,6.002562837219238,7.149983982849121,0.08843582382202148
1789063894885854200,2.028854248046875,7.743147444152831,6.063914254760742,0.061650692749023434
1789063894895891200,2.03889111328125,8.815600150299073,5.576544579315185,-0.1423053611755371
1789063894905929200,2.04892919921875,7.49534757232666,5.986551613616943,-0.36571430358886714
1789063894915967200,2.05896728515625,6.083067868041992,6.519261483001708,-0.5536591339111328
1789063894926004200,2.069004150390625,7.510311332702636,6.071994685363769,-0.5939116493225097
1789063894936042200,2.079042236328125,6.92687431564331,6.285976458740234,-0.24824878463745115
1789063894946079200,2.089079345703125,5.3490954216003415,7.115866609191894,0.203656778717041
1789063894956117200,2.0991171875,6.514772354888915,6.43546442489624,0.17133505630493162
1789063894966154200,2.109154296875,7.738059765625,6.413467697143554,-0.4961982940673828
1789063894976192300,2.119192138671875,7.9664067489624015,6.0811225791931145,-0.4514566505432129
1789063894986229200,2.129229248046875,7.9390230674743645,6.07124649734497,-0.7251438278198242
1789063894996267300,2.139267333984375,7.261164722442627,6.366930402374267,-1.024119760131836
1789063895006304300,2.14930419921875,6.970867771148681,6.441001016235351,-0.7053916641235352
1789063895016342300,2.15934228515625,8.333168515777587,6.036829848480224,-0.18180968856811522
1789063895026380300,2.16938037109375,7.68015001296997,6.312911227416992,0.5246294387817383
1789063895036417300,2.179417236328125,7.255777768707275,6.621763241577148,1.372027188873291
1789063895046455000,2.189455078125,8.14028564453125,5.90544803237915,1.9342156661987304
1789063895056492300,2.1994921875,8.03763424835205,6.02680412902832,1.8855834449768065
1789063895066530300,2.2095302734375,8.173804467773436,5.745186158752441,1.5728408531188964
1789063895076567300,2.2195673828125,8.782679877471923,5.299864649963379,1.108964281463623
1789063895086605300,2.229605224609375,8.272714923858642,5.361814617919921,0.5614402893066406
1789063895096642300,2.239642333984375,6.649446198272705,5.952733515167236,0.31214404144287106
1789063895106680000,2.24968017578125,7.127687979888916,5.787982513427734,1.074547632598877
1789063895116717300,2.25971728515625,8.743025912475586,5.04996985168457,2.149095265197754
1789063895126755300,2.26975537109375,7.245303136444091,5.827037928009033,3.1681273468017577
1789063895136792000,2.2797919921875,6.331915203094482,6.168660577392577,3.7550060287475584
1789063895146830300,2.289830322265625,8.53562819366455,5.431845016479492,3.495384786224365
1789063895156868000,2.2998681640625,9.820865572357176,5.2533273551940916,2.6521768890380857
1789063895166905000,2.309905029296875,8.702773397064208,5.883900217437744,1.801038198852539
1789063895176943400,2.319943359375,8.186374026489258,6.0142345703124995,1.2770073104858397
1789063895186980400,2.32998046875,7.201309680938721,6.298396379852295,1.4823101028442383
1789063895197018000,2.34001806640625,7.087585102081299,6.279093128967284,2.5950153244018552
1789063895207055400,2.350055419921875,8.091054872894286,5.772869115447998,3.8335657707214352
1789063895217093000,2.360093017578125,9.450811778259277,5.090671279907227,4.533271205902099
1789063895227130000,2.370130126953125,8.238747187805176,5.12074843826294,4.478952755737304
1789063895237168400,2.38016845703125,5.727229646301269,5.964405248260498,3.998616047668457
1789063895247205400,2.390205322265625,5.583727184295654,5.715707550811767,2.2393267402648926
1789063895257243100,2.4002431640625,6.55667088394165,5.696853212738037,0.6196493171691894
1789063895267280400,2.4102802734375,7.722946367645263,6.0233624641418455,0.6227917068481444
1789063895277318100,2.420318115234375,9.201365892791747,5.951686051940918,1.8314146324157714
1789063895287356400,2.4303564453125,9.309553880310059,5.922506719207763,3.8099230293273925
1789063895297393400,2.440393310546875,7.040449256896972,7.279121234893799,5.002983644104003
1789063895307431200,2.45043115234375,6.229413444519043,7.902661129760742,4.481197319793701
1789063895317468200,2.46046826171875,6.628048020935058,8.35726016998291,4.075829051208496
1789063895327506200,2.470506103515625,7.3660606826782224,8.423100715637206,4.6627077331542965
1789063895337543200,2.480543212890625,7.283161450195312,8.12711753540039,3.3069910430908203
1789063895347581200,2.490581298828125,10.64207674179077,7.047631861877441,1.445349614715576
1789063895357618400,2.500618408203125,11.081562384033202,5.765686510467529,-0.06374561920166015
1789063895367656200,2.51065625,6.624456718444824,6.719027684020996,-1.5882535263061524
1789063895377693200,2.520693115234375,4.8389808303833,7.1674915824890135,-1.9747674568176268
1789063895387731200,2.530731201171875,6.769605194091796,4.893748193359374,-0.42287586822509765
1789063895397769200,2.540769287109375,7.593659477996826,4.472219063568115,2.6418518943786617
1789063895407806200,2.55080615234375,6.226570330047607,5.097105696868896,4.32841732635498
1789063895417844200,2.56084423828125,5.1584571144104,5.6298155662536615,4.598513201141357
1789063895427881200,2.570881103515625,5.86699116821289,4.954800335693359,3.9453450607299803
1789063895437919200,2.580919189453125,5.8366147346496575,5.353584549713134,1.2560580459594726
1789063895447956200,2.590956298828125,6.6051534675598145,6.584353840637207,-0.7846995941162109
1789063895457994200,2.600994140625,7.63570764465332,6.260089153289795,-1.164479832458496
1789063895468031200,2.61103125,7.627028663635254,6.153846454620361,-0.6183025787353515
1789063895478069200,2.6210693359375,8.147019336700438,6.450877098083495,0.136619132232666
1789063895488106200,2.631106201171875,9.58967547454834,6.171802967071533,0.49844285812377925
1789063895498144300,2.641144287109375,8.761880250549316,6.374262644958495,0.5964554885864257
1789063895508181200,2.65118115234375,7.742399256134033,6.809109521484374,0.43140521163940426
1789063895518219300,2.66121923828125,7.37997697982788,6.977751100921631,-0.1949777976989746
1789063895528256300,2.67125634765625,7.415590729522704,6.640318304443359,-0.6826467483520507
1789063895538294300,2.681294189453125,7.4871175041198725,6.483647733306884,-1.2693757926940916
1789063895548332300,2.691332275390625,7.5142019104003905,6.35256519241333,-1.9252374099731444
1789063895558369300,2.701369384765625,6.613533173370361,6.547842265319824,-2.372953120422363
1789063895568407300,2.7114072265625,6.955455097961425,6.489483599853515,-2.514809568786621
1789063895578443000,2.721443115234375,7.569717461395263,6.014683483123779,-2.059013427734375
1789063895588481300,2.731481201171875,7.782951046752929,5.971887128448486,-1.6279074913024902
1789063895598518000,2.74151806640625,7.489362068176269,6.0236617393493646,-1.518821678161621
1789063895608556000,2.75155615234375,6.63986939163208,6.0990790916442865,-1.7464204734802244
1789063895618593300,2.76159326171875,6.360645623016357,6.587795505523681,-2.4877251625061034
1789063895628631000,2.771631103515625,8.081627703857421,6.309469562530517,-3.0157962661743163
1789063895638668000,2.78166796875,8.987833032226561,6.010194355010986,-3.0291140129089356
1789063895648706300,2.791706298828125,7.663240963745117,6.9247793891906735,-2.7289409797668456
1789063895658743000,2.801742919921875,6.666355247497558,7.40601392288208,-2.092083338165283
1789063895668781000,2.811781005859375,8.037334973144532,6.930315980529785,-1.818845073699951
1789063895678819000,2.821819091796875,8.525452836608887,6.574477758789062,-2.028337718963623
1789063895688856000,2.83185595703125,6.780678376770019,7.241861471557617,-2.3644237770080565
1789063895698894000,2.84189404296875,7.450157015991211,6.65887336730957,-2.446275546264648
1789063895708931300,2.851931396484375,7.917774527740478,5.913528462982177,-2.570175482177734
1789063895718969000,2.861968994140625,6.7824740280151365,6.468534335327148,-2.4340052627563473
1789063895729006000,2.872006103515625,7.025485496520996,6.075585987854003,-1.9527707290649412
1789063895739044000,2.882044189453125,7.605929761505126,5.832873794555664,-1.6530466087341307
1789063895749081000,2.8920810546875,6.293159063720703,6.605003829956054,-1.3072341064453123
1789063895759119000,2.902119140625,6.439055727386474,6.698676969909668,-0.8463502868652343
1789063895769156000,2.912156005859375,7.400477331542969,6.477512591552734,-0.7202057868957519
1789063895779194000,2.922194091796875,6.791601921844482,7.153276010131836,-0.8077437850952148
1789063895789231000,2.932231201171875,7.353191848754882,7.049876425933838,-0.5964554885864257
1789063895799269000,2.94226904296875,8.028506354522705,6.804021842956542,-0.5648819541931152
1789063895809307100,2.95230712890625,7.837419134521484,7.193678163146973,-0.47016135101318357
1789063895819344100,2.96234423828125,7.927052059173583,7.025485496520996,-0.27398645248413084
1789063895829382100,2.972382080078125,8.802731316375732,6.802375829315185,-0.35883097381591794
1789063895839419100,2.982419189453125,8.136993617248535,6.747458828735351,-0.45504795303344725
1789063895849457200,2.99245703125,6.459256803894043,7.314286071777343,-0.6075286712646484
1789063895859494100,3.002494140625,8.150161726379395,6.244975755310058,-0.6290764862060546
1789063895869532200,3.0125322265625,7.00977354812622,6.4089785690307615,-0.7068880401611328
1789063895879569200,3.022569091796875,7.15028325805664,6.017227322387695,-0.7841010437011718
1789063895889607200,3.032607177734375,6.449979272460937,5.902156005096435,-0.9301473449707031
1789063895899644200,3.04264404296875,6.102520756530762,6.065260993194579,-1.1896189498901366
1789063895909682000,3.052681884765625,6.894552593231201,5.573102914428711,-1.024718310546875
1789063895919719200,3.06271923828125,8.20373198852539,5.252429529571533,-0.7612064903259277
1789063895929757200,3.072757080078125,6.532579229736328,5.9629088722229,-0.41359833679199215
1789063895939795000,3.082794921875,5.6760535858154295,6.55637160873413,0.19437924728393555
1789063895949832200,3.092832275390625,7.557746453094482,6.1255649475097655,0.45968671875
1789063895959870200,3.1028701171875,8.003816149902343,6.3447840370178215,0.9057564155578612
1789063895969907000,3.112906982421875,8.014290782165526,6.694337479400635,1.294814185333252
1789063895979945200,3.1229453125,8.834903401184082,6.851008050537109,1.2392986343383787
1789063895989982200,3.132982177734375,8.533533267211913,6.95261198348999,1.0549451065063475
1789063896000020000,3.14302001953125,8.20298380050659,7.242160746765136,0.6012438919067382
1789063896010057200,3.15305712890625,7.468412803649902,7.3466077941894525,-0.30481179885864257
1789063896020095200,3.16309521484375,7.081599597930908,7.4399816589355465,-1.1445780311584473
1789063896030132000,3.173132080078125,8.106018633270264,6.582558189392089,-1.68551796875
1789063896040170200,3.183170166015625,8.462754680633545,6.1447185607910155,-2.194285821533203
1789063896050207200,3.193207275390625,7.268945877838134,6.432920585632324,-2.632873638153076
1789063896060245000,3.203244873046875,7.998129920959472,5.745485433959961,-2.9523499221801757
1789063896070283300,3.213283203125,7.587524336242676,5.596446380615234,-3.610755378723144
1789063896080320000,3.223320068359375,6.289118848419189,5.9968766082763665,-4.206163404083251
1789063896090358000,3.23335791015625,6.649745473480224,5.681440539550781,-4.363881438446045
1789063896100395300,3.243395263671875,7.106439440155029,5.29926609954834,-4.5121723037719725
1789063896110433000,3.25343310546875,6.674585315704345,5.199906730651855,-4.122665621185303
1789063896120470000,3.263469970703125,6.444741956329345,5.3770776535034175,-4.094982664489746
1789063896130508300,3.27350830078125,7.30994658126831,5.788730701446533,-4.350114778900147
1789063896140545000,3.283544921875,7.097311546325683,6.311265213775634,-4.122815258789062
1789063896150583000,3.2935830078125,6.713640730285644,6.725462100982666,-3.9613562843322754
1789063896160620300,3.303620361328125,7.757363016510009,6.733692169189453,-4.107851498413086
1789063896170658000,3.313657958984375,7.6756608848571775,6.882731222534179,-3.74123936920166
1789063896180695000,3.323695068359375,7.658302922821044,7.007977896881103,-3.0693665283203124
1789063896190733300,3.3337333984375,7.996034994506836,6.8673185493469235,-2.461837857055664
1789063896200771000,3.34377099609375,7.530811684417724,7.114519870758056,-2.0114286697387693
1789063896210808000,3.35380810546875,7.555501889038085,7.054365554046631,-1.5767314308166502
1789063896220846000,3.36384619140625,7.604583023071289,6.7924997474670405,-1.290325057220459
1789063896230883000,3.373883056640625,7.954435740661621,6.426037255859375,-0.7296329559326171
1789063896240921000,3.383921142578125,7.663989151763915,6.056731649780273,-0.47285482788085936
1789063896250958000,3.3939580078125,7.991246591186523,5.955576629638672,-0.9238625656127929
1789063896260996000,3.40399609375,6.968024656677246,5.738602104187011,-1.122431665802002
1789063896271033000,3.414033203125,5.19018028640747,6.306327172851562,-1.3253402565002441
1789063896281071000,3.424071044921875,6.40344197769165,5.979668283843994,-0.8334814529418945
1789063896291108000,3.434108154296875,6.410175669860839,5.723339068603515,-0.08155249404907226
1789063896301146000,3.44414599609375,6.762272951507568,6.00765051574707,0.4999392341613769
1789063896311183000,3.45418310546875,8.246079430389404,6.074688162231445,0.5401917495727538
1789063896321221000,3.46422119140625,8.904335249328613,5.845892266082763,0.8997709114074707
1789063896331259100,3.474259033203125,7.435492530822754,6.728305215454101,0.9262567672729491
1789063896341296000,3.484296142578125,7.767837648773193,7.172130348205566,0.831236888885498
1789063896351334100,3.494334228515625,7.665036614990234,6.719326959228515,1.0402806213378906
1789063896361371100,3.50437109375,7.112574581909179,6.9731123352050774,0.6753145057678223
1789063896371409200,3.5144091796875,7.338527363586425,6.927921778869629,0.8616133224487305
1789063896381446100,3.524446044921875,7.631966704559326,6.39670828552246,1.3186065643310547
1789063896391484000,3.53448388671875,7.6850880538940425,6.248417420196533,1.3446435073852538
1789063896401521200,3.544521240234375,8.141782020568847,6.258892052459716,1.0097545501708984
1789063896411559200,3.55455908203125,7.583484120941161,6.0531403472900385,0.7463923675537109
1789063896421596200,3.56459619140625,6.3989528495788575,6.549338641357421,0.7113771682739257
1789063896431634200,3.57463427734375,6.181529411315918,6.360196710205078,0.7579144630432129
1789063896441671200,3.584671142578125,4.742165300750732,6.798784526824951,0.8464999244689941
1789063896451709000,3.594708984375,5.6687213432312005,6.594229922485352,1.1454758567810057
1789063896461746200,3.60474609375,6.728754128265381,6.238840613555908,1.2886790435791016
1789063896471784200,3.6147841796875,6.9141551193237305,6.459406441497802,1.1318588348388672
1789063896481822200,3.624822265625,8.014739694976805,6.416909362030029,0.7499836700439453
1789063896491859200,3.634859130859375,8.443601067352294,6.495169828796386,0.2563292152404785
1789063896501897200,3.644897216796875,7.831732905578613,6.997952177429199,0.0430956298828125
1789063896511934000,3.654933837890625,6.846967835235596,7.228992637634277,0.3094505645751953
1789063896521972200,3.66497216796875,5.296273347473144,7.9658081985473626,0.6189011291503906
1789063896532009200,3.67500927734375,6.565050589752197,7.449558465576171,1.1058218917846678
1789063896542047000,3.685046875,8.413074996185303,6.628496933746337,1.451185481262207
1789063896552084200,3.695084228515625,7.55235949935913,6.865822173309326,1.3229460548400878
1789063896562122000,3.7051220703125,7.961767983245849,6.735787095642089,1.0058639724731444
1789063896572159500,3.715159423828125,7.559841379547119,6.416759724426269,0.6461351730346679
1789063896582197500,3.725197509765625,6.839485955047607,6.730699417114257,0.3705027069091797
1789063896592234500,3.735234375,6.488286499023437,6.70346537322998,0.3981856636047363
1789063896602272500,3.7452724609375,6.149357326507568,6.76765990524292,0.62563482131958
1789063896612310500,3.755310546875,5.159953490447998,7.142352465057373,0.736067372894287
1789063896622347500,3.765347412109375,5.645826789855957,7.125144140624999,0.8889970039367675
1789063896632385500,3.775385498046875,6.769006643676757,6.913107656097412,0.8363245674133301
1789063896642422500,3.785422607421875,8.38254892501831,6.48005643081665,0.6561608924865723
1789063896652460500,3.79546044921875,8.441356503295898,6.722319711303711,0.3848679168701172
1789063896662497500,3.80549755859375,8.055141847991942,6.914903307342529,0.15981296081542967
1789063896672535300,3.815535400390625,6.947673942565918,7.255628131103515,0.00029927520751953123
1789063896682572500,3.825572509765625,6.875249342346191,7.526472193908691,-0.0626981559753418
1789063896692610600,3.835610595703125,6.642712506103515,7.420229495239258,-0.06988076095581054
1789063896702647600,3.8456474609375,6.951115607452392,7.544877619171142,0.27293898925781246
1789063896712685600,3.855685546875,7.101202124023437,6.999747828674316,0.8412626083374023
1789063896722722600,3.86572265625,7.233930678558349,6.866570361328125,0.8774749084472656
1789063896732760300,3.87576025390625,7.453897956085204,6.736086370849609,0.6830956611633301
1789063896742798600,3.885798583984375,7.895927437591553,6.233603297424316,0.28700492401123046
1789063896752835600,3.895835693359375,7.3563342384338375,6.444293043518066,0.05940612869262695
1789063896762873300,3.905873291015625,6.309319924926758,6.83739102859497,0.28700492401123046
1789063896772910600,3.91591064453125,6.577620148468017,6.675183866119385,1.121683477783203
1789063896782948600,3.925948486328125,6.055983461761474,6.821828717803955,1.9342156661987304
1789063896792985300,3.9359853515625,5.966350537109375,7.047182949066162,2.3849241287231444
1789063896803023600,3.946023681640625,6.436212612915039,7.126939791870117,2.6261399459838866
1789063896813060600,3.956060546875,8.20418090133667,6.65273822555542,3.2290298515319824
1789063896823098400,3.966098388671875,7.866748104858398,6.750301943206787,3.4042554855346676
1789063896833135600,3.976135498046875,7.847893766784668,6.695235305023193,3.662829264831543
1789063896843173400,3.98617333984375,7.789535101318359,6.463895569610595,3.6158430572509763
1789063896853210400,3.99621044921875,6.84382544555664,7.119757186889648,2.9213749382019043
1789063896863248600,4.00624853515625,8.012644768524169,6.785766055297851,2.6816554969787596
1789063896873285600,4.01628564453125,7.4185834815979,6.525995175170898,3.0988451362609863
1789063896883323400,4.026323486328125,6.167463476562499,7.02907679901123,3.1344588859558105
1789063896893361700,4.036361572265625,6.267122120666504,6.584952391052246,3.1946132026672363
1789063896903398400,4.0463984375,6.982090591430664,5.957521918487548,3.352331237030029
1789063896913436400,4.0564365234375,7.528417482757568,5.58028551940918,2.6803087585449217
1789063896923473700,4.0664736328125,7.512406259155273,6.000467910766601,1.492635097503662
1789063896933511400,4.076511474609375,6.730998692321777,6.242731191253662,0.8044517578125
1789063896943548400,4.08654833984375,6.1553428306579585,6.719925509643554,0.5960065757751465
1789063896953586700,4.096586669921875,6.477362953948974,6.674585315704345,0.6980594215393066
1789063896963623400,4.10662353515625,6.667701985931396,6.812700823974609,0.7459434547424316
1789063896973661400,4.116661376953125,7.538742477416991,7.105242339324951,0.9617208793640136
1789063896983698700,4.12669873046875,8.616432499694824,6.290465586853027,1.3670891479492187
1789063896993736400,4.136736328125,7.06065033340454,7.0920742301940916,1.8426374526977538
1789063897003773400,4.1467734375,7.085190900421142,6.810456259918213,2.027140618133545
1789063897013811700,4.156811767578125,7.350049459075927,6.514921992492676,1.7194857048034666
1789063897023849500,4.166849365234375,8.516474580383301,6.187365277862549,1.024119760131836
1789063897033886500,4.176886474609375,7.357232064056396,6.190208392333984,0.6373065544128418
1789063897043924500,4.186924560546875,6.978499288940429,6.76077657546997,0.36376901473999024
1789063897053961500,4.19696142578125,7.332691497039795,5.936273378753662,1.0544961936950683
1789063897063999500,4.20699951171875,6.421847402954101,6.506243011474609,1.5394716674804687
1789063897074036500,4.217036376953125,7.962516171264648,5.997175883483886,1.6713023963928222
1789063897084074500,4.227074462890625,7.491008081817626,5.823596263122559,1.7042226692199707
1789063897094111500,4.237111572265625,8.22393306503296,6.121375094604492,0.8530839790344238
1789063897104149500,4.2471494140625,7.552060224151611,6.1088055358886715,0.38142625198364255
1789063897114186500,4.2571865234375,8.134449777984619,6.2407859024047845,-0.05027823486328125
1789063897124224500,4.267224609375,7.662492775726318,6.230011994934082,-0.3386298973083496
1789063897134261500,4.277261474609375,6.969969945526123,6.977751100921631,-0.4330512252807617
1789063897144299500,4.287299560546875,7.6568065467834465,6.30737463607788,-0.058957215881347655
1789063897154337300,4.297337158203125,7.219266193389892,6.885723974609375,0.12689268798828124
1789063897164374500,4.30737451171875,9.367313995361327,5.915174476623535,0.2705447875976562
1789063897174412500,4.31741259765625,6.72935267868042,6.532279954528808,0.2075473564147949
1789063897184449500,4.327449462890625,6.951414882659912,6.946327204132079,-0.34491467666625975
1789063897194487600,4.337487548828125,7.524975817871093,5.860407113647461,-0.5814917282104491
1789063897204524500,4.347524658203125,6.72291826171875,6.582558189392089,-0.992097312927246
1789063897214562300,4.357562255859375,7.8615107887268065,5.947047286224365,-1.02786070022583
1789063897224599600,4.367599609375,6.7179802207946775,6.127809511566162,-0.8566752815246581
1789063897234637600,4.377637451171875,7.040748532104492,6.330418827056884,-0.8324339897155761
1789063897244674600,4.387674560546875,7.522132703399658,5.977573357391357,-0.6046855567932129
1789063897254712600,4.397712646484375,8.272864561462402,5.735160439300537,-0.5051765502929687
1789063897264749600,4.40774951171875,7.032967376708984,6.12930588760376,-0.5373486351013184
1789063897274787300,4.417787353515625,6.83769030380249,6.398803211975097,-0.6807014595031737
1789063897284824600,4.427824462890625,7.64827720336914,5.723638343811035,-0.7628525039672851
1789063897294862600,4.437862548828125,6.854449715423583,6.537367633056641,-0.8976759849548339
1789063897304900400,4.447900390625,8.33122322692871,6.0519432464599605,-0.884208600616455
1789063897314937600,4.4579375,7.761852144622802,6.422894866180419,-0.8683470146179199
1789063897324975600,4.4679755859375,7.077559382629394,7.121702475738525,-0.8176198669433593
1789063897335012400,4.478012451171875,6.485742659759521,7.382670456695556,-0.522833787536621
1789063897345050600,4.488050537109375,8.014440419769286,7.088034014892577,-0.4370914405822754
1789063897355087600,4.498087646484375,8.71399621734619,6.669796912384033,-0.18719664230346678
1789063897365125400,4.50812548828125,7.24635059967041,7.387458860015869,-0.19662381134033202
1789063897375162600,4.51816259765625,8.077737126159667,6.712293991851806,-0.0430956298828125
1789063897385200400,4.528200439453125,6.712593267059326,6.998251452636718,-0.1505354293823242
1789063897395237400,4.5382373046875,7.007229708862305,6.787262431335448,-0.19812018737792966
1789063897405275600,4.548275634765625,6.831854437255859,6.348225701904297,-0.28476035995483395
1789063897415312600,4.558312744140625,6.573131020355224,6.524199523925781,-0.45594577865600583
1789063897425350400,4.568350341796875,6.622212154388428,6.240636264801025,-0.23747487716674803
1789063897435388700,4.578388671875,7.503876915740967,6.030694706726074,-0.34835634155273437
1789063897445425400,4.58842529296875,7.957428492736816,5.971138940429687,-0.6112696113586426
1789063897455463400,4.59846337890625,6.892607304382324,6.731896517944335,-1.0295067138671874
1789063897465500700,4.608500732421875,6.916399683380127,6.823325093841552,-1.088463929748535
1789063897475538400,4.618538330078125,7.467365340423584,6.961440602111816,-1.1468225952148436
1789063897485575400,4.628575439453125,8.269123621368408,6.917596784210205,-1.0907084938049316
1789063897495613700,4.63861376953125,8.783428065490723,6.686107411193848,-1.1260229682922362
1789063897505650400,4.648650390625,7.7699325752258295,7.1686886833190915,-1.230320378112793
1789063897515688400,4.6586884765625,7.279420510101318,7.293037532043456,-1.3377601776123047
1789063897525725700,4.6687255859375,7.792078940582275,7.0853405380249015,-1.3063362808227539
1789063897535763500,4.678763427734375,7.573009488677978,6.759429837036133,-0.7155670211791991
1789063897545800400,4.688800537109375,6.698527332305908,7.039701068878173,-0.4176385520935058
1789063897555838500,4.69883837890625,6.525246987152099,6.968922482299805,-0.29718028106689454
1789063897565875500,4.70887548828125,6.573430295562744,6.622661067199707,-0.37618893585205077
1789063897575914200,4.718914306640625,7.4597338226318355,6.315305429077148,-0.44756607284545896
1789063897585952300,4.7289521484375,6.833051538085937,6.395062271881103,-0.6796539962768554
1789063897595989200,4.7389892578125,6.147262400054931,6.7082537765502925,-0.5253776268005371
1789063897606027300,4.74902734375,6.7824740280151365,6.092644674682616,-0.6112696113586426
1789063897616064300,4.759064208984375,6.8399348678588865,6.457311515045165,-1.1263222434997557
1789063897626102300,4.769102294921875,5.88614478149414,6.694038204193115,-0.6871358764648438
1789063897636139300,4.77913916015625,6.33924744567871,6.498012943267822,-0.6804021842956542
1789063897646177300,4.78917724609375,6.900837372589111,6.851008050537109,-1.0823287879943848
1789063897656214300,4.79921435546875,7.20116004333496,6.684012484741211,-1.1459247695922852
1789063897666252300,4.809252197265625,7.554753701019287,6.787412068939209,-1.507449220275879
1789063897676289300,4.819289306640625,8.173355554962157,6.85684391708374,-1.476623873901367
1789063897686327300,4.829327392578125,7.994837893676757,6.480654981231689,-0.8469488372802734
1789063897696364300,4.8393642578125,6.970418858337402,6.9904702972412105,-0.5761047744750977
1789063897706402300,4.84940234375,7.375038938903808,6.5777697860717765,-0.54902036819458
1789063897716440300,4.8594404296875,6.177339558410644,6.990171022033691,-0.4246715194702148
1789063897726477000,4.86947705078125,7.266551676177978,6.400748500823974,-0.24660277099609373
1789063897736515300,4.879515380859375,6.294206526947021,6.609343320465087,-0.4438251327514648
1789063897746552300,4.88955224609375,5.456984133911132,7.281066523742675,-0.3172317199707031
1789063897756590300,4.89959033203125,6.723217536926269,6.553827769470215,-0.11626841812133788
1789063897766627300,4.90962744140625,8.72716432647705,6.1167363288879395,0.03531447448730469
1789063897776665000,4.9196650390625,7.7319246238708494,6.861033769989013,-0.12779051361083985
1789063897786702000,4.9297021484375,8.257451888275146,6.900388459777831,0.04967968444824218
1789063897796740400,4.939740234375,7.5923127395629875,6.92672467803955,-0.26276363220214843
1789063897806777300,4.94977734375,7.857470573425292,7.523629079437256,-0.36496611557006836
1789063897816815400,4.9598154296875,7.365611769866943,6.996156526184081,-0.0004489128112792969
1789063897826852400,4.969852294921875,7.823203562164307,6.866869636535644,0.30960020217895506
1789063897836890000,4.97989013671875,6.767510267639159,6.871209127044677,0.23133973541259764
1789063897846927000,4.989927001953125,7.498639599609374,6.578817249298095,0.35883097381591794
1789063897856965400,4.99996533203125,7.0178539787292475,6.121075819396972,0.1792658493041992
1789063897867003100,5.010003173828125,7.049726788330077,6.462399193572998,-0.1370680450439453
1789063897877040000,5.0200400390625,6.271611248779297,6.394912634277343,-0.22296002960205077
1789063897887078400,5.030078369140625,7.067832938385009,6.272359436798095,0.05716156463623046
1789063897897115100,5.040115234375,6.633883887481689,6.393416258239745,0.15322890625
1789063897907153400,5.0501533203125,7.030573175048827,6.868366012573242,0.49455228042602534
1789063897917190400,5.0601904296875,8.301744618988037,6.067206282043457,0.5994482406616211
1789063897927228200,5.070228271484375,8.082226254272461,6.804470755767822,0.4213794921875
1789063897937265200,5.08026513671875,7.2915411560058585,6.925826852416992,0.2539350135803223
1789063897947303200,5.09030322265625,7.945307846832275,6.833799726104736,0.07287351303100585
1789063897957340200,5.100340087890625,8.14073455734253,6.461501367950439,-0.10938508834838867
1789063897967378400,5.11037841796875,7.19502490158081,6.8970964324951165,-0.09412205276489258
1789063897977415400,5.12041552734375,7.726388032531738,6.31395869064331,-0.42182840499877927
1789063897987453200,5.130453125,7.316979548645019,6.377255397033691,-1.0844237144470215
1789063897997490200,5.140490234375,6.667851623535156,6.529885752868652,-1.4553753341674804
1789063898007528200,5.150528076171875,7.179761865997314,5.987748714447021,-1.6265607528686523
1789063898017566200,5.160566162109375,7.769184387207031,5.830030680084228,-1.8350059349060057
1789063898027603200,5.170603271484375,7.834875295257568,5.940912144470214,-1.8553566490173339
1789063898037641200,5.18064111328125,7.773972790527344,5.773916578674316,-1.5925930168151854
1789063898047678200,5.19067822265625,6.412270596313476,6.527042638397217,-1.6596306632995605
1789063898057716500,5.200716552734375,6.972214509582519,6.603657091522217,-1.9500772521972656
1789063898067753200,5.210753173828125,7.738807953643798,6.207416716766357,-2.5960627876281737
1789063898077791200,5.220791259765625,7.746738746643066,6.809259159088135,-3.344250806427002
1789063898087828200,5.230828125,8.343643148040771,6.348524977111816,-3.0992940490722654
1789063898097866200,5.2408662109375,8.257302250671387,6.450278547668456,-2.814234413909912
1789063898107903200,5.2509033203125,8.585906428527831,6.431723484802245,-2.3280618392944334
1789063898117941200,5.260941162109375,7.8252984886169425,6.490531063079834,-2.409913608551025
1789063898127978200,5.270978271484375,7.882609690856933,6.801478003692626,-2.640056243133545
1789063898138016300,5.281016357421875,7.245602411651611,6.775441060638427,-2.571522220611572
1789063898148054300,5.29105419921875,8.295160564422607,6.278644216156006,-2.0542250244140625
1789063898158091300,5.30109130859375,7.099855385589599,6.404339803314208,-1.8161515968322752
1789063898168129300,5.31112939453125,6.9244801139831536,6.404788716125488,-1.7085621597290037
1789063898178166300,5.321166259765625,6.805817494201659,6.140977620697021,-1.8417396270751951
1789063898188204300,5.331204345703125,7.260566172027588,5.928492223358154,-1.679682102203369
1789063898198241300,5.3412412109375,6.319944194793701,6.282684431457519,-1.728314323425293
1789063898208279300,5.351279296875,6.581361088562011,6.440851378631591,-1.5836147605895996
1789063898218316300,5.36131640625,6.112546475982666,6.412869146728515,-0.9479542198181152
1789063898228354300,5.371354248046875,7.4962453979492185,6.193350782012939,-0.38367081604003905
1789063898238391000,5.38139111328125,7.420379132843017,6.249165608215332,0.2657563842773437
1789063898248429300,5.39142919921875,7.330297295379638,6.195296070861816,0.7401075881958007
1789063898258466300,5.40146630859375,6.343437298583984,6.715885294342041,0.6521206771850585
1789063898268504000,5.411504150390625,7.612214540863037,6.3609448982238765,0.26216508178710934
1789063898278542300,5.421542236328125,7.467215702819824,6.202927588653564,-0.03007715835571289
1789063898288579300,5.431579345703125,7.542633055114746,6.383390538787841,-0.40895957107543945
1789063898298617300,5.441617431640625,6.137236680603027,6.657376991271972,-0.2825157958984375
1789063898308654300,5.451654296875,7.033266651916503,6.486939760589599,-0.07811082916259765
1789063898318692000,5.461692138671875,6.98448479309082,6.395960097503662,-0.03232172241210937
1789063898328729000,5.47172900390625,6.965780092620849,6.7942953987121575,-0.36017771224975587
1789063898338767400,5.481767333984375,6.331017377471923,6.992265948486327,-0.6842927619934082
1789063898348804400,5.491804443359375,7.39269617614746,6.852504426574707,-0.6567594429016113
1789063898358842400,5.50184228515625,7.498340324401855,6.648398735046387,-0.24794950942993163
1789063898368879400,5.51187939453125,8.10751500930786,6.6234092552185055,-0.05491700057983398
1789063898378917000,5.521917236328125,7.639298947143554,6.807164232635498,-0.19527707290649413
1789063898388954000,5.5319541015625,6.608894407653808,7.178265489959716,-0.5210381362915039
1789063898398992400,5.541992431640625,6.292859788513184,7.127089429473877,-0.5008370597839356
1789063898409029000,5.552029052734375,7.22061293182373,6.733093618774413,-0.08634089736938476
1789063898419067100,5.562067138671875,7.633911993408202,6.443694493103027,0.44143093109130854
1789063898429105400,5.57210546875,7.791779665374755,6.288819573211669,0.7811082916259765
1789063898439142100,5.58214208984375,7.462576937103271,6.247220319366455,0.5366004470825195
1789063898449180400,5.592180419921875,6.545597701263428,6.72246934890747,0.2258031440734863
1789063898459217400,5.602217529296875,6.752696144866943,6.667701985931396,0.17806874847412107
1789063898469255200,5.612255126953125,8.017283534240722,6.292560513305664,0.6368576416015624
1789063898479292200,5.622292236328125,7.690026094818115,6.502202796173095,1.1752537399291991
1789063898489330200,5.632330078125,7.650372129821777,6.861183407592773,1.7028759307861328
1789063898499367200,5.6423671875,7.761103956604003,6.904129399871826,1.6142904693603515
1789063898509405400,5.652405517578125,7.848043404388427,7.161356440734862,1.3675380607604979
1789063898519442400,5.6624423828125,7.605630486297607,7.1507321708679195,1.2689268798828124
1789063898529480200,5.672480224609375,8.392574644470214,6.948422130584716,1.2505214546203614
1789063898539517200,5.68251708984375,7.873481797027587,6.612036797332763,1.690007096862793
1789063898549555200,5.69255517578125,6.931662718963623,6.746112090301513,2.0781670410156248
1789063898559592200,5.70259228515625,6.41616117401123,6.56968935546875,1.654094071960449
1789063898569630200,5.712630126953125,5.689072057342529,6.621613603973389,1.248127252960205
1789063898579667500,5.72266748046875,5.913378825378418,6.13529139175415,0.9662100074768066
1789063898589704700,5.73270458984375,6.751499044036865,5.753865139770507,0.8426093467712402
1789063898599742700,5.74274267578125,5.896769051361083,5.831975968933105,1.0957961723327636
1789063898609779700,5.75277978515625,5.165639719390869,6.282684431457519,1.3967173934936523
1789063898619817700,5.762817626953125,6.806864957427978,5.776161142730713,1.0619780738830567
1789063898629854700,5.772854736328125,7.238569444274902,6.118681617736816,0.31872809600830077
1789063898639892500,5.782892578125,7.858817311859131,6.7377323844909665,-0.14245499877929688
1789063898649929700,5.7929296875,8.877849393463134,6.405985816955566,-0.0234931037902832
1789063898659967700,5.8029677734375,7.895777799987792,7.328202368927002,-0.0076315177917480465
1789063898670004500,5.81300439453125,7.517942850494384,7.548319284057617,0.0704793113708496
1789063898680042800,5.823042724609375,7.08638800125122,7.735815201568603,-0.1833060646057129
1789063898690079700,5.833079833984375,8.079383139801024,7.359027715301513,-0.6503250259399413
1789063898700117500,5.843117431640625,8.705616511535643,6.865223622894287,-0.479438882446289
1789063898710154800,5.85315478515625,8.521113346099852,6.515969455718993,-0.3308487419128418
1789063898720192800,5.86319287109375,7.646930464935302,6.5969233993530265,0.20380641632080077
1789063898730230500,5.87323046875,7.120206099700927,6.295553265380859,0.488417138671875
1789063898740267800,5.883267822265625,7.649324666595459,6.197390997314453,0.5059247383117675
1789063898750305500,5.893305419921875,7.319074475097656,5.972635316467285,0.27877485580444333
1789063898760342500,5.903342529296875,6.04550882949829,6.698078419494628,-0.05386953735351562
1789063898770380800,5.913380859375,6.433369498443603,6.5683426170349115,-0.21592706222534178
1789063898780417800,5.923417724609375,6.628796208953857,6.223427940368652,-0.17342998275756835
1789063898790455600,5.93345556640625,7.219415830993652,6.495469104003906,-0.25423428878784177
1789063898800492800,5.943492919921875,8.43372498550415,6.032041445159912,-0.07631517791748046
1789063898810530600,5.953530517578125,8.035240046691895,6.196044258880615,0.13602058181762694
1789063898820567600,5.963567626953125,7.618499320220947,6.756137809753418,-0.16505027694702148
1789063898830605800,5.973605712890625,7.934533939361572,6.73548782043457,0.0056862289428710935
1789063898840642800,5.983642822265625,7.684040590667724,6.459256803894043,0.027682956695556638
1789063898850680600,5.9936806640625,6.637175914764404,7.311293319702148,-0.1222539222717285
1789063898860717800,6.0037177734375,7.570316011810302,6.455964776611328,-0.2651578338623047
1789063898870755600,6.013755615234375,7.964760735321044,6.374711557769775,-0.4311059364318847
1789063898880793600,6.023793701171875,8.429385494995117,6.0890533721923825,-0.6334159767150879
1789063898890830800,6.033830810546875,7.426514274597167,6.133944653320312,-0.5122095176696777
1789063898900868600,6.04386865234375,6.426186893463134,6.650194386291504,-0.3344400444030762
1789063898910905600,6.053905517578125,6.681019732666015,6.346878963470458,0.10265139617919922
1789063898920943600,6.063943603515625,6.811204447937011,6.32682752456665,-0.1283890640258789
1789063898930980600,6.073980712890625,7.676109797668457,6.246921044158936,-0.6521206771850585
1789063898941018600,6.0840185546875,7.635109094238281,6.131550451660156,-0.7864952453613281
1789063898951056000,6.094055908203125,6.649446198272705,6.40359161529541,-0.828693049621582
1789063898961093600,6.10409375,6.544550238037109,6.677129154968261,-0.6171054779052734
1789063898971130600,6.114130615234375,8.494627490234375,5.617246007537841,-0.258573779296875
1789063898981168600,6.124168701171875,8.805125518035888,5.527762720489502,0.4020762413024902
1789063898991205600,6.13420556640625,6.002562837219238,6.549338641357421,0.7065887649536132
1789063899001243600,6.14424365234375,6.985232981109618,6.245574305725097,0.8081926979064941
1789063899011281000,6.154281005859375,7.914482500457763,5.78394229812622,0.2678513107299805
1789063899021318700,6.164318603515625,8.014440419769286,6.2970496414184565,0.2588730545043945
1789063899031356700,6.174356689453125,8.04466721572876,5.861903489685059,0.5900210716247558
1789063899041393700,6.1843935546875,7.446266438293456,6.659771192932128,0.45489831542968745
1789063899051431700,6.194431640625,7.574805139923095,6.692990740966796,0.4285620971679687
1789063899061468700,6.20446875,7.707832969665527,6.988525008392333,0.11866261978149413
1789063899071506700,6.214506591796875,8.176647582244872,7.203254969787597,0.02498947982788086
1789063899081543700,6.224543701171875,7.938574154663086,7.354239311981201,0.3769371238708496
1789063899091581700,6.234581787109375,6.804321118164062,7.868843031311035,0.7018003616333007
1789063899101618700,6.24461865234375,6.930315980529785,7.724742018890381,0.9504980590820312
1789063899111656700,6.25465673828125,8.320150044250488,6.9621887901306145,1.2937667221069336
1789063899121693700,6.264693603515625,8.2736127494812,6.617124475860595,1.0576385833740234
1789063899131731700,6.274731689453125,6.171653329467773,7.118260810852051,1.202188508605957
1789063899141768700,6.284768798828125,5.079747734832764,6.892308029174805,0.7839514060974121
1789063899151806700,6.294806640625,6.174646081542968,6.442497392272949,0.7133224571228027
1789063899161843700,6.30484375,6.8679170997619625,5.603778623199463,1.2478279777526855
1789063899171881700,6.3148818359375,6.204274327087402,5.939565406036377,1.8683751205444334
1789063899181919500,6.32491943359375,5.659144536590576,6.130203713226318,1.92808052444458
1789063899191956700,6.334956787109375,6.234800398254394,6.188412741088867,1.8951602516174315
1789063899201994800,6.344994873046875,7.958475955963134,5.787683238220215,1.3314753982543945
1789063899212031500,6.355031494140625,7.608623238372802,6.46703795928955,0.6699275520324707
1789063899222069800,6.36506982421875,7.381772631072997,6.793846485900879,0.5503671066284179
1789063899232106800,6.375106689453125,7.0269818725585935,7.0640919982910155,0.6949170318603515
1789063899242144500,6.38514453125,7.872883246612548,7.050026063537597,0.7971195152282714
1789063899252181800,6.395181640625,8.441506140899659,6.753893245697021,0.838269856262207
1789063899262219800,6.4052197265625,7.787440174865722,7.135319497680664,0.4337994132995605
1789063899272256500,6.415256591796875,7.011269924163818,7.145644492340088,0.12300211029052734
1789063899282294800,6.425294677734375,6.550984654998779,7.220463294219971,0.23956980361938476
1789063899292331800,6.435331787109375,7.909394821929931,6.310666663360595,0.3286041778564453
1789063899302369500,6.44536962890625,7.300519412231445,6.2681695838928215,0.37409400939941406
1789063899312406800,6.45540673828125,5.739051016998291,6.748955204772948,0.19183540802001953
1789063899322444800,6.46544482421875,6.381445249938965,6.528389376831054,-0.20051438903808594
1789063899332481500,6.4754814453125,7.451803029632568,5.973383504486083,-0.15113397979736326
1789063899342519800,6.485519775390625,6.7565867225646965,6.549637916564941,-0.47554830474853516
1789063899352557600,6.4955576171875,6.272209799194336,7.023989120483398,-0.3935468978881836
1789063899362594600,6.505594482421875,7.003039855957031,6.743717888641357,-0.3661632164001465
1789063899372632800,6.5156328125,8.720280996704101,6.700322983551025,-0.19153613281249998
1789063899382669600,6.525669677734375,8.525752111816406,6.746710640716552,-0.12330138549804687
1789063899392707600,6.53570751953125,8.307131572723389,7.2535332046508785,-0.15233108062744138
1789063899402744800,6.545744873046875,8.346037349700927,7.208641923522949,-0.0809539436340332
1789063899412782600,6.555782470703125,8.093748349761963,7.215375615692138,-0.296881005859375
1789063899422819600,6.565819580078125,7.480683087158202,7.578845355224609,-0.354341845703125
1789063899432857900,6.57585791015625,8.01818135986328,7.126640516662597,-0.3464110527038574
1789063899442894600,6.58589453125,8.098686390686035,6.778583450317383,-0.0378583137512207
1789063899452932600,6.5959326171875,6.668001261138915,6.868964562988281,0.2002151138305664
1789063899462969900,6.605969970703125,6.232705471801758,6.756437084960937,0.5496189186096191
1789063899473007600,6.616007568359375,6.624157443237304,5.948244387054443,0.747589468383789
1789063899483044600,6.626044677734375,5.906944408416748,5.844695165252685,0.5995978782653808
1789063899493083000,6.636082763671875,5.6958057495117185,5.884648405456542,0.45504795303344725
1789063899503120600,6.64612060546875,6.0531403472900385,5.416881256103515,0.3995324020385742
1789063899513157600,6.65615771484375,5.73920065460205,5.785289036560059,0.361374813079834
1789063899523195600,6.666195556640625,7.053916641235351,5.859958200836181,0.051774610900878905
1789063899533232600,6.676232666015625,8.0828248046875,5.70134234085083,0.02633621826171875
1789063899543270700,6.686270751953125,7.639448584747314,6.478260779571533,-0.02693476867675781
1789063899553307600,6.6963076171875,7.660846762084961,6.9916673980712885,0.11028291397094726
1789063899563345700,6.706345703125,8.027608528900146,6.8134490119934075,0.036361937713623046
1789063899573382700,6.716382568359375,8.251466384124756,7.139958263397216,-0.3887584945678711
1789063899583421000,6.7264208984375,8.266579782104492,7.030273899841308,-0.6462848106384277
1789063899593458000,6.7364580078125,9.353696973419188,6.470329986572265,-0.766743081665039
1789063899603496000,6.746495849609375,9.718513451385498,6.00750087814331,-0.7257423782348632
1789063899613533000,6.756532958984375,8.895656268310546,6.019621524047851,-0.6953659446716308
1789063899623571000,6.766571044921875,7.007977896881103,6.2024786758422845,-0.7574655502319335
1789063899633608000,6.77660791015625,6.309619200134277,6.328323900604247,-1.16837041015625
1789063899643646000,6.78664599609375,7.48247873840332,5.738901379394531,-1.362450382232666
1789063899653683000,6.796682861328125,6.718429133605957,5.922656356811523,-1.2099696640014648
1789063899663721000,6.806720947265625,6.584952391052246,6.129455525207519,-1.0538976432800293
1789063899673759000,6.816759033203125,6.846668560028076,6.099228729248047,-0.97683427734375
1789063899683796000,6.8267958984375,8.002918324279785,6.026055941009521,-0.8053495834350586
1789063899693833700,6.836833740234375,7.926303871154785,6.265476107025146,-1.0829273384094238
1789063899703871000,6.84687109375,8.94428848953247,6.506841561889648,-1.4839561164855957
1789063899713909000,6.856908935546875,8.095992913818359,6.831555162048339,-1.5575778175354003
1789063899723946000,6.866946044921875,6.974159798431396,7.612813091278076,-1.4220061485290527
1789063899733984000,6.87698388671875,7.8806644020080565,7.218069092559814,-1.4012065216064453
1789063899744021000,6.88702099609375,7.5266218315124505,7.23991618270874,-1.2660837654113768
1789063899754058800,6.897058837890625,8.086266469573975,7.001393842315673,-1.1035773277282714
1789063899764096000,6.907095947265625,8.36294639892578,6.338499257659912,-0.838868406677246
1789063899774134000,6.917134033203125,7.216572716522216,6.215646784973144,-0.4704606262207031
1789063899784170800,6.927170654296875,5.721992330169678,6.467786147308349,-0.4134486991882324
1789063899794209000,6.937208984375,6.292261238098144,5.762244845581054,-0.6108206985473632
1789063899804246000,6.94724609375,6.903979762268066,5.33757332611084,-1.0995371124267577
1789063899814283800,6.95728369140625,7.039401793670653,5.534795687866211,-1.419761584472656
1789063899824321000,6.967321044921875,6.030395431518555,5.699995602416992,-1.1851298217773436
1789063899834359000,6.977359130859375,5.72034631652832,6.3250318733215325,-1.050904891204834
1789063899844396800,6.987396728515625,7.078457208251953,6.104914958190918,-0.8192658805847167
1789063899854434000,6.99743408203125,7.80120683441162,6.215347509765625,-0.4704606262207031
1789063899864471800,7.007471923828125,7.103446688079834,6.81838705291748,-0.3167828071594238
1789063899874508800,7.0175087890625,7.522431978607178,7.20789373550415,-0.5069722015380859
1789063899884547000,7.027547119140625,8.75379981994629,6.610989334106445,-0.5499181938171387
1789063899894584000,7.037583984375,8.520365158081054,7.104045238494873,-0.8044517578125
1789063899904621800,7.047621826171875,8.589048818206786,6.872555865478515,-0.5240308883666992
1789063899914659000,7.0576591796875,7.291391518402099,7.172429623413086,-0.1423053611755371
1789063899924696800,7.06769677734375,7.973738991546631,7.079504671478271,-0.24944588546752927
1789063899934733800,7.07773388671875,8.278700428009033,6.772149033355713,-0.314089330291748
1789063899944772000,7.087772216796875,7.701398552703857,6.8016276412963865,-0.5541080467224121
1789063899954808800,7.097808837890625,7.038055055236816,7.094618069458007,-0.4207809417724609
1789063899964846800,7.107846923828125,6.56939008026123,6.704961749267578,-0.27997195663452146
1789063899974884000,7.117884033203125,6.86312869644165,6.592434271240234,-0.057610477447509766
1789063899984921900,7.127921875,7.408258486938476,6.181230136108398,0.05027823486328125
1789063899994958800,7.137958740234375,7.090727491760253,6.060023677062988,0.2973299186706543
1789063900004997000,7.1479970703125,5.919065054321289,6.483049182891845,0.026485855865478514
1789063900015035000,7.158034912109375,6.902633023834228,6.312761589813232,-0.2690484115600586
1789063900025071900,7.16807177734375,6.6605193809509275,5.947496199035644,-0.01810615005493164
1789063900035110000,7.17810986328125,6.66530778427124,6.337152519226074,0.25752631607055665
1789063900045147000,7.18814697265625,7.031321363067627,6.089951197814941,0.716315209197998
1789063900055185000,7.198184814453125,7.514650823211669,5.976675531768798,0.8984241729736328
1789063900065222100,7.20822216796875,7.274332831573486,6.252158360290527,0.7076362281799315
1789063900075260000,7.218260009765625,7.389853061676025,6.469132885742187,0.5500678314208984
1789063900085297000,7.228296875,7.510161695098876,6.2867246467590325,0.5116109672546386
1789063900095335000,7.2383349609375,7.009474272918701,6.990320659637451,0.46417584686279295
1789063900105372000,7.248371826171875,8.219892849731444,6.4640452072143555,0.5811924530029297
1789063900115410000,7.258409912109375,7.906850982666016,6.503699172210693,0.7537246101379395
1789063900125447000,7.268447021484375,7.016956153106689,7.234678866577148,0.4927566291809082
1789063900135485000,7.27848486328125,7.3478048950195305,6.796390325164794,0.586729044342041
1789063900145522000,7.28852197265625,7.8429557258605955,6.490979975891113,0.85547818069458
1789063900155560000,7.298559814453125,7.601590270996093,6.571634644317626,0.9496002334594726
1789063900165597000,7.308596923828125,7.830236529541015,6.182726512145996,1.1635820068359375
1789063900175635000,7.318635009765625,6.050147595214844,6.4920274391174315,1.1620856307983398
1789063900185672000,7.328671875,6.662763945007324,6.517316194152832,0.975487538909912
1789063900195710000,7.3387099609375,8.051849820709228,5.749974562072754,1.07245270614624
1789063900205748000,7.348748046875,7.767688011169433,6.229862357330322,1.0009259315490722
1789063900215785000,7.358784912109375,7.123647764587402,6.603657091522217,1.0812813247680664
1789063900225823000,7.368822998046875,6.880486658477783,6.838438491821289,1.159392153930664
1789063900235860000,7.37885986328125,8.157643606567383,6.762422589111328,1.045069024658203
1789063900245898000,7.38889794921875,8.92528451385498,6.472424913024902,0.9555857376098632
1789063900255935000,7.39893505859375,8.244134141540528,7.1416042770385735,0.5995978782653808
1789063900265972700,7.40897265625,8.839991079711913,6.97805037612915,0.30750527572631836
1789063900276010000,7.419010009765625,8.6689552986145,6.941838076019287,-0.06569090805053711
1789063900286048000,7.429048095703125,8.163329835510254,7.492803733062743,-0.33922844772338867
1789063900296085000,7.4390849609375,8.101080592346191,6.934056920623779,-0.024091654205322263
1789063900306123000,7.449123046875,7.135319497680664,7.034463752746581,0.2798223190307617
1789063900316160000,7.459159912109375,7.966257111358642,6.346878963470458,0.7618050407409668
1789063900326197800,7.46919775390625,6.379649598693847,6.016928047180175,0.8189666053771972
1789063900336234800,7.47923486328125,5.596296743011474,6.142623634338379,0.445620783996582
1789063900346273000,7.48927294921875,5.552602562713623,5.449801528930664,0.11103110198974608
1789063900356310000,7.49931005859375,6.57552522201538,4.964975692749023,0.16744447860717773
1789063900366348000,7.50934814453125,6.269815597534179,4.871601828002929,0.3817255271911621
1789063900376385000,7.519385009765625,6.8596870315551755,4.811148236083984,0.4674678741455078
1789063900386422800,7.5294228515625,6.6805708198547356,5.296422985076904,0.1949777976989746
1789063900396461000,7.5394609375,7.039102518463134,5.727229646301269,0.30346506042480464
1789063900406498000,7.549498046875,7.2246531471252435,6.175992819976806,0.17687164764404295
1789063900416535800,7.559535888671875,8.348281913757324,6.593182459259033,-0.23927052841186522
1789063900426573000,7.569572998046875,7.951592626190185,7.043741284179687,-0.32082302246093747
1789063900436610800,7.57961083984375,7.987056738281249,7.489810980987548,-0.750133307647705
1789063900446647800,7.589647705078125,8.764873002624512,7.247248425292969,-0.7638999671936034
1789063900456686000,7.59968603515625,9.343371978759764,6.800131265258789,-0.9018658378601073
1789063900466723000,7.60972314453125,8.965686666870116,6.934056920623779,-0.9180266990661621
1789063900476760800,7.6197607421875,8.204929089355469,6.669198361968994,-0.9735422500610351
1789063900486797800,7.6297978515625,7.3097969436645505,6.732046155548096,-1.274912384033203
1789063900496835800,7.6398359375,6.940940250396728,6.678326255798339,-1.3250409812927246
1789063900506872800,7.649872802734375,6.67159256362915,6.321590208435058,-1.3626000198364256
1789063900516911000,7.6599111328125,6.472275275421143,6.543203499603271,-1.4288894783020019
1789063900526948000,7.669947998046875,6.678924806213378,6.348225701904297,-1.3204022155761719
1789063900536985900,7.67998583984375,7.184849544525146,6.357802508544921,-1.009455274963379
1789063900547022800,7.69002294921875,7.212083588409423,6.323984410095214,-0.8089408859252929
1789063900557060900,7.700060791015625,6.856395004272461,6.910713454437255,-1.0075099861145018
1789063900567097900,7.710097900390625,7.977180656433105,6.57597413482666,-0.8186673301696776
1789063900577135600,7.720135498046875,8.129062824249267,6.432920585632324,-0.9445125549316405
1789063900587173400,7.73017333984375,7.332392221832275,7.156568037414551,-1.0363900436401368
1789063900597210400,7.74021044921875,7.289296591949462,6.662015756988525,-0.9382277755737304
1789063900607248600,7.75024853515625,7.472153743743896,6.865522898101807,-1.0992378372192382
1789063900617285400,7.760285400390625,7.86585027923584,6.306925723266601,-0.5404910247802734
1789063900627323600,7.77032373046875,7.269694065856934,6.157737032318115,0.06045359191894531
1789063900637360600,7.780360595703125,7.114519870758056,6.4266358062744136,0.49111061553955077
1789063900647398400,7.7903984375,7.088333290100097,5.8096799659729,0.5635352157592773
1789063900657435400,7.800435302734375,6.011690731048583,6.418854650878906,-0.19692308654785154
1789063900667473700,7.8104736328125,6.161328334808349,6.426785443878173,-0.7610568527221679
1789063900677510400,7.820510498046875,7.10584088973999,5.817910034179687,-0.8970774345397948
1789063900687548400,7.83054833984375,6.330119551849365,6.457910065460204,-0.8846575134277344
1789063900697585700,7.840585693359375,7.456142520141601,6.334608679962158,-0.7411550514221191
1789063900707623400,7.85062353515625,8.066065393066406,5.95004003829956,-0.22879589614868162
1789063900717660400,7.860660400390625,6.829460235595703,7.166144844055175,-0.10070610733032226
1789063900727698700,7.87069873046875,6.982988417053222,7.191732874298095,-0.001496376037597656
1789063900737735400,7.8807353515625,8.270769635009765,6.913257293701172,-0.43350013809204097
1789063900747773400,7.8907734375,8.4145713722229,7.241861471557617,-0.4730044654846191
1789063900757810700,7.900810791015625,8.860491431427002,6.673238577270507,-0.1227028350830078
1789063900767848400,7.910848388671875,8.085518281555176,7.117512622833251,-0.40506899337768554
1789063900777885400,7.920885498046875,6.662015756988525,7.570465649414062,-0.5122095176696777
1789063900787923500,7.93092333984375,7.6838909530639645,6.785167504882812,-0.9392752388000488
1789063900797961500,7.94096142578125,7.940220168304443,7.007678621673583,-1.2184990074157713
1789063900807998500,7.95099853515625,7.669076830291748,6.534075605773926,-0.4987421333312988
1789063900818036500,7.961036376953125,7.06753366317749,6.421248852539062,-0.00987608184814453
1789063900828073500,7.971073486328125,6.16716420135498,6.70361501083374,0.4156932632446289
1789063900838111500,7.981111572265625,6.319345644378662,6.100725105285644,0.5735609352111816
1789063900848148500,7.9911484375,7.220912207031249,5.767482161712646,-0.006434416961669922
1789063900858186500,8.0011865234375,7.263409286499023,5.737405003356933,-0.8228571830749511
1789063900868223500,8.011223388671874,7.039701068878173,5.930437512207031,-1.1688193229675292
1789063900878261500,8.021261474609375,6.701968997192383,5.916670852661133,-0.7634510543823242
1789063900888298500,8.031298583984375,6.13544102935791,6.28253479385376,0.23867197799682616
1789063900898336500,8.04133642578125,6.591237170410156,6.278644216156006,1.0624269866943359
1789063900908373500,8.05137353515625,8.52231044692993,5.945999822998046,1.1914146011352538
1789063900918411500,8.06141162109375,7.440729846954345,6.513126341247558,1.137096150970459
1789063900928448500,8.071448486328125,7.36157155456543,6.9916673980712885,0.43933600463867184
1789063900938486500,8.081486572265625,7.513453722381591,7.1032970504760735,0.155772745513916
1789063900948523500,8.0915234375,8.451232585144043,6.777535987091064,0.3576338729858398
1789063900958561500,8.1015615234375,8.303989183044433,6.7948939491271965,0.5584475372314452
1789063900968598500,8.1115986328125,7.34166975326538,7.133972759246825,0.974290438079834
1789063900978636500,8.121636474609375,7.453299405670165,6.804919668579101,1.2722189071655272
1789063900988674300,8.13167431640625,7.973140441131592,6.4278329071044915,1.591695191192627
1789063900998711600,8.141711669921875,8.06322227859497,6.249764158630371,1.5515923133850096
1789063901008749600,8.15174951171875,7.528118207550048,6.379200685882568,1.3869909492492676
1789063901018786300,8.161786376953126,7.8800658515930175,6.000767185974121,1.1752537399291991
1789063901028824600,8.171824462890624,6.525396624755859,6.413766972351074,1.2434884872436522
1789063901038861600,8.181861572265625,6.335506505584717,6.661566844177246,1.4866495933532713
1789063901048899300,8.1918994140625,7.339425189208984,6.217143161010742,1.4520833068847656
1789063901058936600,8.2019365234375,6.990320659637451,6.71648384475708,1.2547113075256346
1789063901068974600,8.211974609375,8.004713975524902,6.666355247497558,0.8747814315795898
1789063901079011300,8.22201123046875,8.988581220245361,6.028899055480957,0.9162310478210449
1789063901089049600,8.232049560546875,7.088482927703857,6.804470755767822,1.0407295341491698
1789063901099086600,8.242086669921875,7.059902145385742,6.816741039276122,1.1432312927246093
1789063901109124400,8.252124267578125,8.914211331176757,5.834819083404541,0.9711480484008789
1789063901119161600,8.26216162109375,8.24203921508789,5.852476320648193,0.5590460876464843
1789063901129199600,8.27219970703125,7.149235794830322,6.39715719833374,-0.0770633659362793
1789063901139236400,8.282236328125,6.7924997474670405,6.031891807556152,-0.2744353652954101
1789063901149274600,8.292274658203125,6.7085530517578125,6.142773271942138,-0.01945288848876953
1789063901159311600,8.3023115234375,8.348880464172362,5.29238276977539,0.5069722015380859
1789063901169349400,8.312349365234375,7.1860466453552245,5.521777216339111,0.6830956611633301
1789063901179386600,8.32238671875,5.690269158172607,6.496217292022704,0.2754828285217285
1789063901189424600,8.332424560546874,5.955875904846191,6.099827279663086,-0.19826982498168944
1789063901199461400,8.34246142578125,6.912958018493652,5.980715747070312,-0.5364508094787598
1789063901209499600,8.352499755859375,7.556100439453124,6.026953766632079,-0.4128501487731933
1789063901219537400,8.362537353515625,8.310273962402343,5.853074871063232,-0.25962124252319335
1789063901229574400,8.372574462890626,7.615506568145752,6.2413844528198235,-0.17702128524780272
1789063901239612700,8.38261279296875,7.069179676818847,6.797288150787353,-0.15427636947631834
1789063901249649400,8.3926494140625,6.848314573669433,6.975506536865234,-0.234931037902832
1789063901259687400,8.4026875,8.385541677093505,6.801926916503906,-0.5737105728149414
1789063901269724700,8.412724609375,8.309525774383545,6.572532469940185,-0.6733692169189452
1789063901279762400,8.422762451171875,7.555801164245605,7.089530390930175,-0.8819640365600585
1789063901289799400,8.43279931640625,6.767959180450439,6.950965969848633,-0.7296329559326171
1789063901299837700,8.442837646484374,7.413944715881347,6.554276682281494,-0.5201403106689453
1789063901309874400,8.45287451171875,8.912415679931641,6.04595774230957,-0.5998971534729004
1789063901319912400,8.462912353515625,8.035090409088134,6.093542500305175,-0.04115034103393554
1789063901329949700,8.47294970703125,6.730699417114257,6.670694738006591,-0.1958756233215332
1789063901339987500,8.482987548828126,7.388356685638428,6.699874070739746,-0.5083189399719238
1789063901350024400,8.4930244140625,6.591087532806396,6.650044748687744,-0.5530605834960938
1789063901360062700,8.503062744140625,7.511059520721435,6.987926457977294,-0.8123825508117676
1789063901370099500,8.513099365234375,8.45886410293579,6.408828931427002,-0.5578489868164063
1789063901380137500,8.523137451171875,8.066963218688965,6.4935238151550285,-0.35568858413696286
1789063901390174700,8.5331748046875,6.383689813995361,7.294833183288574,-0.42108021697998044
1789063901400212500,8.54321240234375,6.788908444976807,7.04823041229248,-0.46402620925903315
1789063901410249500,8.55324951171875,8.112303412628174,6.350769541168212,-0.5992986030578613
1789063901420287500,8.56328759765625,8.134749053192138,6.5862991294860835,-0.6488286499023437
1789063901430325500,8.573325439453125,6.918943522644042,6.664559596252441,-0.4568436042785644
1789063901440362500,8.583362548828125,6.559962911224365,6.577171235656738,-0.4144961624145508
1789063901450400500,8.593400390625,6.5862991294860835,6.677278792572021,-0.591218172454834
1789063901460437500,8.6034375,7.006032608032226,6.255600025177001,-0.20440496673583983
1789063901470475500,8.6134755859375,7.809736177825927,5.736956090545654,0.26979659957885743
1789063901480512500,8.623512451171875,6.392967345428467,6.246172856140136,1.0384849700927734
1789063901490550500,8.633550537109375,6.270264510345458,6.2581438644409175,1.6210241615295409
1789063901500587500,8.64358740234375,7.8535799957275385,5.7243865318298335,1.3928268157958983
1789063901510625500,8.65362548828125,7.723096005249023,5.884349130249023,1.3006500518798827
1789063901520662500,8.66366259765625,6.591237170410156,6.2307601829528805,1.1978490180969237
1789063901530700500,8.673700439453125,6.256198575592041,6.86297905883789,0.9724947868347167
1789063901540737300,8.6837373046875,8.602965115356445,6.0242602897644035,1.0785878479003905
1789063901550775600,8.693775634765625,9.207501034545897,5.898415065002441,1.3440449569702149
1789063901560812500,8.7038125,7.434295429992676,7.050325338745116,1.5421651443481443
1789063901570850600,8.7138505859375,6.441599566650391,7.472153743743896,1.4456488899230957
1789063901580887800,8.7238876953125,8.230367481994628,7.082198148345947,0.9217676391601562
1789063901590925800,8.73392578125,9.302670550537108,6.765415341186523,0.5654805046081542
1789063901600962800,8.743962890625,8.14627114868164,7.080402497100829,0.52986675491333
1789063901611000800,8.754000732421876,7.991246591186523,7.045686573028564,0.7073369529724121
1789063901621038000,8.7640380859375,7.3934443641662595,6.820930892181396,0.5110124168395995
1789063901631075800,8.774075927734375,7.326855630493164,6.985831531524658,0.015562310791015624
1789063901641112800,8.78411279296875,7.191732874298095,6.555623420715332,-0.266205297088623
1789063901651150800,8.79415087890625,7.1692872337341305,6.392069519805908,-0.49844285812377925
1789063901661188900,8.80418896484375,6.421099214935302,6.576572685241699,-0.6091746849060058
1789063901671225900,8.814225830078126,6.874800429534912,6.235099673461914,-0.31648353195190426
1789063901681263900,8.824263916015624,7.578994992828369,5.740996305847168,-0.09636661682128905
1789063901691300900,8.83430078125,6.981192765808105,6.106411334228516,-0.4421791191101074
1789063901701339000,8.8443388671875,6.235398948669433,6.571036093902587,-1.0040683212280272
1789063901711376000,8.8543759765625,6.956053648376464,6.560262186431884,-1.574337229156494
1789063901721414000,8.864413818359376,8.066963218688965,6.186916365051269,-1.3724761016845701
1789063901731451000,8.874450927734374,8.106916458892822,6.291513050079345,-0.4825812721252441
1789063901741489000,8.884489013671875,7.56567724609375,6.496815842437743,0.01601122360229492
1789063901751526000,8.89452587890625,7.86510209121704,6.405536904144287,0.3672106796264648
1789063901761564000,8.90456396484375,8.17904178390503,5.998223346710205,-0.023942016601562498
1789063901771601000,8.914600830078125,7.509862419891357,6.413318059539795,-0.873434693145752
1789063901781639000,8.924638916015626,6.88213267211914,6.535422344207763,-1.2057798110961913
1789063901791676000,8.934676025390624,8.071153071594237,5.813420906066894,-1.1480196960449218
1789063901801714000,8.9447138671875,7.634660181427002,5.834819083404541,-0.7659948936462402
1789063901811751000,8.9547509765625,6.58884296875,6.307075360870361,-0.5901707092285156
1789063901821788700,8.96478857421875,7.015759052276611,6.011840368652344,-0.5663783302307128
1789063901831826000,8.974825927734376,7.220164019012451,6.067206282043457,-0.9581295768737792
1789063901841864000,8.984864013671874,7.6385507591247555,6.165817462921142,-1.0091559997558592
1789063901851901000,8.99490087890625,7.91612851409912,5.819556047821044,-1.043273373413086
1789063901861939000,9.00493896484375,7.068581126403808,6.484246283721923,-1.2357073318481444
1789063901871976000,9.014975830078125,7.106888352966308,6.451026735687256,-1.032349828338623
1789063901882013700,9.025013671875,7.504475466156006,6.436212612915039,-1.148468608856201
1789063901892051000,9.035051025390626,7.6484268409729,6.838438491821289,-1.0229226593017577
1789063901902089000,9.0450888671875,8.142679846191406,6.655431702423095,-1.0006266563415527
1789063901912126000,9.0551259765625,7.925406045532226,7.204152795410156,-1.1768997535705565
1789063901922164000,9.0651640625,8.472630762481689,7.124395952606201,-0.9290998817443847
1789063901932202000,9.075201904296875,8.747963953399658,6.723666449737548,-0.7775169891357422
1789063901942238700,9.08523876953125,8.170961353302001,7.074566630554199,-0.7257423782348632
1789063901952277000,9.095277099609374,6.647351271820068,7.448361364746093,-0.842758984375
1789063901962314000,9.10531396484375,7.774122428131103,6.810456259918213,-0.6646902359008788
1789063901972351700,9.115351806640625,8.614187935638427,6.262034442138671,-0.48407764816284177
1789063901982389000,9.125388916015625,7.951442988586425,6.356455770111084,-0.011222820281982421
1789063901992426800,9.1354267578125,7.094169156646728,6.334309404754638,0.43724107818603514
1789063902002463700,9.145463623046876,6.413617334747314,6.147412037658691,0.950647696685791
1789063902012502000,9.155501953125,5.326200868225097,6.417358274841308,1.0024223075866698
1789063902022539000,9.1655390625,5.973383504486083,6.05239215927124,0.621145693206787
1789063902032576800,9.17557666015625,6.200533386993408,5.77780715637207,0.34446576385498046
1789063902042614000,9.185614013671875,5.983259586334228,5.887641157531738,0.41060558471679687
1789063902052651800,9.19565185546875,6.302436595153808,5.785438674163818,0.8183680549621581
1789063902062688800,9.205688720703124,6.997952177429199,5.544372494506836,1.1420341918945311
1789063902072727000,9.21572705078125,7.4609309234619134,5.689221694946289,0.8451531860351562
1789063902082764000,9.225763916015625,7.511508433532715,6.2766989273071285,0.5792471641540528
1789063902092801800,9.2358017578125,6.841431243896484,6.5768719604492185,0.7106289802551269
1789063902102839000,9.245839111328126,7.324162153625488,7.308150930023193,0.6938695686340332
1789063902112876800,9.255876708984376,8.524255735778809,6.793247935485839,0.7529764221191406
1789063902122913800,9.265913818359374,7.883507516479492,7.338228088378906,0.3851671920776367
1789063902132952000,9.2759521484375,7.902511492156982,7.707832969665527,-0.35583822174072266
1789063902142988800,9.28598876953125,8.569595929718018,7.022043831634521,-0.47599721755981445
1789063902153026800,9.29602685546875,8.505401397705077,6.972064871978759,-0.4144961624145508
1789063902163064000,9.30606396484375,8.646210382843018,6.697030956268311,0.03890577697753906
1789063902173101800,9.316101806640624,6.5409589355468745,6.861333045196533,0.6602011077880859
1789063902183138800,9.326138916015625,6.889315277099609,6.668599811553955,0.42063130416870115
1789063902193177000,9.336177001953125,7.3660606826782224,6.224475403594971,0.1083376251220703
1789063902203213800,9.3462138671875,6.247220319366455,6.622661067199707,0.04399345550537109
1789063902213251800,9.356251953125,7.378779878997802,5.958120468902588,-0.2991255699157715
1789063902223289900,9.366289794921874,6.133795015716553,6.656030252838135,-0.38142625198364255
1789063902233326800,9.376326904296874,6.0516439712524415,6.759280199432372,-0.7158662963867187
1789063902243364900,9.38636474609375,7.107187628173827,6.470180348968506,-0.8806172981262207
1789063902253402000,9.396402099609375,7.855076371765136,6.6243070808410645,-1.2868833923339842
1789063902263440000,9.40643994140625,8.405742753601073,6.598120500183105,-1.0907084938049316
1789063902273476900,9.416476806640626,7.324760704040527,7.033715564727783,-0.7802104660034179
1789063902283515000,9.426514892578124,7.234678866577148,7.113322769927978,-0.7151181083679199
1789063902293551900,9.4365517578125,7.633762355804443,6.88213267211914,-0.5705681831359863
1789063902303590000,9.44658984375,8.245331242370606,6.488585774230956,-0.6344634399414062
1789063902313627000,9.456626953125,7.930942636871338,6.151302615356445,-0.5092167655944824
1789063902323665000,9.466664794921876,6.279093128967284,6.4837973709106445,-0.22086510314941404
1789063902333702000,9.476701904296876,6.389675318145752,6.198288822937012,0.10758943710327148
1789063902343740000,9.486739990234375,7.373392925262451,5.593453628540039,0.10654197387695312
1789063902353777000,9.49677685546875,7.442675135803222,5.581781895446777,-0.13811550827026367
1789063902363815000,9.50681494140625,5.7131637115478515,6.356006857299804,0.04144961624145507
1789063902373852000,9.516851806640625,5.875819786834716,6.632836424255371,0.12090718383789062
1789063902383890000,9.526889892578126,8.322394608306885,6.08381605606079,0.17507599639892577
1789063902393927000,9.536927001953124,8.672247325897215,6.46060354232788,0.5813420906066894
1789063902403965000,9.54696484375,8.031648744201659,7.119308274078369,0.6833949363708496
1789063902414002000,9.557001953125,7.334786423492432,7.545027256774902,0.563086302947998
1789063902424040000,9.5670400390625,7.840711161804199,7.537246101379394,-0.24824878463745115
1789063902434076700,9.57707666015625,8.865130197143554,7.147889056396484,-0.6874351516723632
1789063902444115000,9.587114990234374,9.05921016921997,6.839186679840087,-0.6853402252197265
1789063902454152000,9.59715185546875,9.08494783706665,6.31410832824707,-0.5874772323608398
1789063902464189700,9.607189697265625,7.38072516784668,6.619069764709472,-0.8255506599426269
1789063902474227000,9.61722705078125,6.590788257598876,6.517465831756591,-1.2882301307678221
1789063902484265000,9.627264892578125,6.411522408294678,6.292111600494384,-1.4145242683410644
1789063902494301700,9.6373017578125,7.424269710540771,5.757755717468261,-1.1914146011352538
1789063902504340000,9.647340087890624,7.578845355224609,5.39473489074707,-0.7909843734741211
1789063902514377700,9.657377685546875,5.616647457122802,6.188412741088867,-0.4661211357116699
1789063902524414700,9.667414794921875,5.824943001556396,6.104316407775879,-0.37618893585205077
1789063902534453000,9.677452880859375,7.345859606170654,5.672462283325195,-0.8291419624328613
1789063902544490000,9.687489990234376,7.925705320739746,6.037578036499023,-1.6373346603393553
1789063902554528000,9.697528076171874,7.736264114379883,6.333860491943359,-1.9858406394958494
1789063902564565000,9.70756494140625,7.341220840454101,6.682216833496093,-1.539322029876709
1789063902574602800,9.717602783203125,7.719953615570068,6.475417665100097,-0.37828386230468747
1789063902584640300,9.72764013671875,7.417685655975341,6.659621555328369,0.541388850402832
1789063902594678500,9.737678466796876,8.233210596466064,6.485593022155761,0.47494975433349607
1789063902604715300,9.74771533203125,8.316858016967773,6.147112762451171,-0.044891281127929686
1789063902614753300,9.757753173828124,6.666205609893798,6.879439195251464,-0.6959644950866699
1789063902624790300,9.767790283203125,6.697779144287109,6.929567792510986,-0.8469488372802734
1789063902634828300,9.777828369140625,8.755296195983886,5.635052882385254,-0.20994155807495116
1789063902644865300,9.787865234375,7.1297829063415525,6.249165608215332,-0.01227028350830078
1789063902654903300,9.7979033203125,5.281758499908447,7.133523846435547,0.21877017669677734
1789063902664940300,9.807940185546874,6.193350782012939,6.343736573791504,-0.009427169036865234
1789063902674978300,9.817978271484375,7.666981903839111,6.430676021575928,-0.28655601119995117
1789063902685015300,9.828015380859375,8.189516416168212,6.013187107086181,0.127042325592041
1789063902695053300,9.83805322265625,7.344512867736816,6.30168840713501,0.1518821678161621
1789063902705090300,9.84809033203125,6.121973645019531,7.00393768157959,0.32785598983764647
1789063902715128000,9.858128173828124,6.729502316284179,6.743418613433837,0.5897217964172363
1789063902725165300,9.868165283203124,8.027009978485108,6.434267324066162,0.6545148788452148
1789063902735203300,9.878203369140625,8.757091847229004,6.3901242309570305,0.3987842140197754
1789063902745240300,9.888240234375,7.374440388488769,6.957998937225342,0.2075473564147949
1789063902755278300,9.8982783203125,6.036979486083984,7.51405227279663,-0.19722236175537108
1789063902765315300,9.9083154296875,7.577498616790771,7.082048510742187,-0.4252700698852539
1789063902775353000,9.91835302734375,8.944138851928711,6.354211206054687,-0.10429740982055663
1789063902785390300,9.928390380859375,7.745541645812988,6.785017867279052,0.5214870491027832
1789063902795428400,9.938428466796875,7.229890463256836,7.08025285949707,0.8764274452209472
1789063902805465300,9.94846533203125,7.415291454315185,6.760028387451172,0.7211036125183105
1789063902815503400,9.95850341796875,7.436988906860351,7.006780796051025,0.43020811080932614
1789063902825540400,9.968540283203126,9.387215796661376,6.316951442718506,0.20979192047119138
1789063902835578000,9.978578125,8.291569261932372,6.289268486022949,0.31917700881958005
1789063902845615400,9.988615478515625,4.6909892402648925,7.663989151763915,0.7921814743041992
1789063902855653400,9.9986533203125,4.402936853027343,7.331793671417236,0.8426093467712402
1789063902865690000,10.008690185546875,6.462249555969238,6.265476107025146,0.4034229797363281
1789063902875728400,10.018728271484376,7.044788747406005,6.147262400054931,-0.030974983978271482
1789063902885766100,10.02876611328125,6.693439653778076,6.042366439819336,0.30151977157592774
1789063902895803100,10.03880322265625,6.319046369171142,5.889736083984375,0.9246107536315917
1789063902905840400,10.04884033203125,6.883030497741699,5.704185455322265,1.3021464279174804
1789063902915878400,10.05887841796875,6.954856547546386,6.025008477783203,1.3964181182861328
1789063902925916200,10.068916259765626,7.2355766921997065,6.035782385253906,1.3813047203063964
1789063902935953400,10.078953369140624,7.343615042114258,6.521356409454345,0.9917980377197265
1789063902945991200,10.0889912109375,8.026112152862549,6.729502316284179,0.3479074287414551
1789063902956028200,10.099028076171875,7.186345920562744,6.998700365447998,0.2609679809570312
1789063902966066400,10.10906640625,6.907122151947021,7.409455587768554,0.10983400115966796
1789063902976103400,10.119103515625,8.899097933197021,6.508487575531006,0.4556465034484863
1789063902986141200,10.12914111328125,8.509142337799071,6.40972675704956,0.9394248764038086
1789063902996178400,10.139178466796874,7.874529260253905,6.870161663818359,1.0058639724731444
1789063903006216200,10.14921630859375,8.205826914978028,6.408529656219482,0.8665513633728027
1789063903016253200,10.159253173828125,7.883507516479492,6.531980679321289,0.37289690856933594
1789063903026291500,10.16929150390625,7.005284420013427,6.931213806152344,-0.06314706878662109
1789063903036328200,10.179328125,6.038625499725342,7.050923889160156,-0.25094226150512694
1789063903046366200,10.1893662109375,6.487837586212158,6.94602792892456,-0.24465748214721678
1789063903056403500,10.199403564453124,7.915230688476562,6.428281819915771,0.047584757995605464
1789063903066441200,10.209441162109375,7.853430358123779,6.499958232116699,0.01975216369628906
1789063903076478200,10.219478271484375,7.35438894958496,6.891559841156005,-0.09831190567016601
1789063903086516500,10.2295166015625,7.625382649993896,6.829460235595703,0.050427872467041016
1789063903096553200,10.23955322265625,7.67416450881958,6.458209340667724,0.2527379127502441
1789063903106591200,10.24959130859375,6.64585489578247,7.123797402191162,0.02798223190307617
1789063903116628500,10.25962841796875,7.027430785369873,6.838288854217529,-0.26485855865478514
1789063903126666200,10.269666259765625,8.026112152862549,6.368277140808105,-0.7691372833251953
1789063903136703200,10.279703125,7.949946612548827,6.470778899383545,-1.2222399475097656
1789063903146741500,10.289741455078126,6.770203744506835,6.663512133026122,-0.8770259956359863
1789063903156778200,10.2997783203125,6.265775382232666,6.720972972869872,-0.16729484100341796
1789063903166816300,10.309816162109374,7.5156982864379875,6.153098266601562,0.1288379768371582
1789063903176853500,10.319853515625,7.472303381347656,5.885995143890381,0.26710312271118164
1789063903186891300,10.329891357421875,6.087556996154785,6.46135173034668,-0.008379705810546874
1789063903196928300,10.33992822265625,6.956352923583984,6.003011750030518,-0.445620783996582
1789063903206966500,10.349966552734376,8.197147933959961,5.614103617858887,-0.4878185882568359
1789063903217003300,10.360003173828124,8.647706758880615,5.461173986816406,-0.2141314109802246
1789063903227041300,10.370041259765625,7.585130134582519,5.892130285644531,0.38801030654907226
1789063903237078300,10.380078369140625,6.545448063659667,6.468085422515869,0.6808510971069336
1789063903247116300,10.3901162109375,8.0054621635437,6.225822142028808,0.20066402664184568
1789063903257153300,10.4001533203125,9.440187508392333,5.902904193115234,-0.3087023765563965
1789063903267191300,10.41019140625,7.9463553100585935,6.507140837097167,-0.32501287536621093
1789063903277228300,10.420228271484374,6.941089888000488,6.993762324523925,-0.261117618560791
1789063903287266300,10.430266357421875,7.5637319572448725,6.713341455078124,-0.1836053398132324
1789063903297303300,10.44030322265625,8.251017471313476,6.430376746368408,0.005237316131591796
1789063903307341300,10.45034130859375,7.260566172027588,6.775441060638427,0.1758241844177246
1789063903317378300,10.46037841796875,7.173626724243164,6.815843213653564,0.12120645904541015
1789063903327416300,10.470416259765624,7.6182000450134275,6.385485465240478,0.32127193527221676
1789063903337453300,10.480453369140625,7.015908689880371,6.454019487762451,0.4930559043884277
1789063903347491300,10.4904912109375,7.2723875427246085,6.209212368011475,0.6498761131286621
1789063903357528300,10.5005283203125,7.407360661315917,6.158784495544433,0.48033670806884765
1789063903367566300,10.51056640625,7.345261055755615,6.14816022567749,0.008379705810546874
1789063903377603300,10.520603271484376,6.992565223693847,6.433818411254882,-0.28969840087890625
1789063903387641000,10.53064111328125,7.365911045074462,6.419303563690185,-0.21517887420654297
1789063903397679400,10.540679443359375,7.605331211090087,6.151302615356445,0.2367266891479492
1789063903407716400,10.55071630859375,6.484994471740722,6.901884835815429,0.28655601119995117
1789063903417754400,10.56075439453125,7.29109224319458,6.521655684661865,0.10205284576416015
1789063903427791400,10.570791259765626,7.706037318420409,6.455665501403808,-0.2702455123901367
1789063903437829400,10.580829345703124,7.600991720581054,6.705560299682617,-0.7595604766845703
1789063903447866000,10.5908662109375,7.838466597747802,6.509535038757324,-0.7154173835754394
1789063903457904400,10.600904296875,7.700201451873779,6.296750366210937,-0.9115922821044922
1789063903467941400,10.61094140625,6.533327417755126,6.752696144866943,-0.9361328491210937
1789063903477979100,10.620979248046876,6.534823793792724,6.467786147308349,-0.7609072151184082
1789063903488016400,10.631016357421874,7.518242125701904,5.927295122528076,-0.4982932205200195
1789063903498054100,10.64105419921875,7.006182245635986,6.104914958190918,-0.12150573425292968
1789063903508091100,10.651091064453125,7.134421672058105,5.95632481765747,-0.02798223190307617
1789063903518129400,10.66112939453125,6.177339558410644,6.491279251098632,-0.3942950859069824
1789063903528166400,10.67116650390625,6.74192223739624,6.660220105743408,-0.34012627334594725
1789063903538204200,10.6812041015625,8.43327607269287,5.885695868682861,-0.2332850242614746
1789063903548241400,10.691241455078124,8.00680890197754,6.7830725784301755,-0.32187048568725585
1789063903558279200,10.701279052734375,6.922834100341796,7.300818687438964,-0.1997662010192871
1789063903568316200,10.711316162109375,8.547449564361571,6.8393363174438475,-0.6953659446716308
1789063903578354200,10.721354248046875,8.552686880493164,7.01665687789917,-0.9569324760437011
1789063903588391200,10.73139111328125,6.991218485260009,7.768885111999511,-0.9042600395202636
1789063903598429000,10.741428955078124,8.418013037109375,6.829460235595703,-0.32830490264892576
1789063903608466200,10.751466064453124,8.451232585144043,6.674585315704345,0.18899229354858396
1789063903618504000,10.76150390625,8.34469061126709,6.851905876159668,0.2841618095397949
1789063903628541000,10.771541015625,8.764873002624512,6.296151815795898,0.2615665313720703
1789063903638579200,10.7815791015625,7.766490910339355,6.528987927246093,-0.05970540390014648
1789063903648616200,10.7916162109375,5.974131692504883,7.120804650115966,-0.18659809188842771
1789063903658654000,10.801654052734374,5.635352157592773,7.013215213012695,-0.0022445640563964844
1789063903668691200,10.811691162109375,6.523750611114502,6.338199982452392,0.14395137481689452
1789063903678729000,10.82172900390625,6.492326714324951,6.298845292663574,0.01227028350830078
1789063903688766000,10.831765869140625,5.437680883026123,6.427084719085693,-0.0017956512451171875
1789063903698804200,10.84180419921875,6.654683514404296,5.990891104125976,0.26261399459838863
1789063903708841000,10.851841064453126,7.3760864021301265,5.215169766235351,0.7052420265197753
1789063903718879000,10.86187890625,7.239018357086181,5.776460417938232,0.46686932373046874
1789063903728916200,10.871916259765625,8.269273258972168,5.789329251861572,0.35628713455200195
1789063903738954000,10.8819541015625,7.304110714721679,5.733664063262939,0.5053261878967285
1789063903748991000,10.891990966796875,6.444293043518066,7.145494854736327,0.43933600463867184
1789063903759029200,10.902029296875,7.176469838714599,6.950068144226074,0.670975015258789
1789063903769066000,10.91206591796875,7.734468463134765,6.701370446777343,0.6949170318603515
1789063903779104000,10.92210400390625,7.413944715881347,7.589768900299072,0.4103063095092773
1789063903789141000,10.93214111328125,8.19789612197876,6.866271086120605,0.7246949150085449
1789063903799179000,10.942178955078125,8.405293840789794,6.597671587371826,0.9587281272888183
1789063903809216000,10.952216064453125,8.055291485595703,6.843376532745361,1.2409446479797364
1789063903819254300,10.962254150390624,8.891316777801514,5.869834282684326,1.2062287239074707
1789063903829291000,10.972291015625,7.485770765686035,6.356755045318603,0.9302969825744628
1789063903839329000,10.9823291015625,6.728155577850341,6.703914286041259,0.5128080680847168
1789063903849366000,10.992365966796875,6.979097839355468,6.197241359710693,0.43409868850708005
1789063903859404000,11.002404052734375,6.594080284881591,6.528838289642334,0.40013095245361324
1789063903869441000,11.01244091796875,7.18844084701538,6.572233194732665,0.41539398803710936
1789063903879479300,11.022479248046874,7.736413751983642,6.347028601074219,0.6290764862060546
1789063903889516000,11.03251611328125,8.943689939117432,6.060173314666748,0.3582324234008789
1789063903899554000,11.042553955078125,8.393173194885254,6.321440570831299,0.4312555740356445
1789063903909591000,11.052591064453125,6.731746880340576,6.700921533966064,0.4825812721252441
1789063903919629000,11.062629150390626,6.628646571350097,6.706607762908935,0.3224690361022949
1789063903929666000,11.072666015625,7.892186497497558,6.163572898864746,0.16340426330566404
1789063903939704000,11.0827041015625,8.876502655029297,5.462969638061523,0.08738836059570312
1789063903949741000,11.092740966796875,7.070227140045166,6.204274327087402,0.010324994659423827
1789063903959779000,11.102779052734375,6.4257379806518555,6.197540634918212,0.31977555923461914
1789063903969816000,11.112816162109375,6.837241390991211,5.691316621398926,0.5737105728149414
1789063903979854000,11.12285400390625,7.02907679901123,5.777208605957031,0.2516904495239258
1789063903989891000,11.13289111328125,7.056909393310547,5.583427909088134,0.02289455337524414
1789063903999928800,11.1429287109375,6.4740709266662595,5.833472344970703,-0.26485855865478514
1789063904009966000,11.152966064453125,7.327304543304443,5.98191284790039,-0.6358101783752441
1789063904020004000,11.163004150390625,8.277952239990235,5.804741925048828,-0.6860884132385253
1789063904030041000,11.173041015625,7.6300214157104485,6.4196028388977044,-0.20485387954711912
1789063904040079000,11.1830791015625,7.157316225433349,7.025784771728516,0.239420166015625
1789063904050116000,11.1931162109375,7.338078450775146,7.503577640533447,0.11701660614013672
1789063904060153900,11.20315380859375,8.303240995025634,7.294982820892334,-0.22131401596069333
1789063904070191000,11.213191162109375,9.497498710632323,7.1401079010009765,-0.7933785751342773
1789063904080229000,11.22322900390625,8.57438433303833,7.350797647094726,-0.7643488800048828
1789063904090266000,11.23326611328125,7.645583726501465,7.296479196929932,-0.510114591217041
1789063904100304100,11.24330419921875,7.905354606628418,7.100154660797119,-0.4782417816162109
1789063904110341000,11.253341064453124,8.449287296295166,6.17958412246704,0.004638765716552734
1789063904120379000,11.26337890625,6.5758244972229,6.5375172706604,-0.06374561920166015
1789063904130416000,11.273416015625,5.837063647460937,6.743568251037598,0.09038111267089843
1789063904140454100,11.2834541015625,5.895721588134765,5.865045879364013,0.09561842880249023
1789063904150491000,11.293490966796876,6.451625286102295,6.120626906585693,-0.08798691101074219
1789063904160529200,11.303529052734374,7.015908689880371,5.678447787475585,0.21652561264038084
1789063904170566100,11.313566162109375,7.269544428253173,5.570708712768554,0.21248539733886718
1789063904180604000,11.32360400390625,6.778733087921142,6.278344940948486,0.06314706878662109
1789063904190641200,11.33364111328125,7.014711589050292,6.271611248779297,0.5198410354614258
1789063904200679200,11.34367919921875,7.90340931777954,6.165967100524902,1.1104606575012206
1789063904210716000,11.3537158203125,8.044966490936279,6.48050534362793,1.271021806335449
1789063904220754200,11.363754150390625,7.377582778167724,6.911162367248535,1.1701660614013671
1789063904230791200,11.373791259765625,7.5899185379028316,6.9630866157531734,0.7969698776245117
1789063904240829000,11.383828857421875,7.781305033111572,6.85684391708374,0.22176292877197265
1789063904250866000,11.393865966796875,7.555052976226806,6.986280444335937,0.30151977157592774
1789063904260904200,11.403904296875,8.566453540039062,6.265027194213867,0.48078562088012694
1789063904270941000,11.41394091796875,7.070376777648925,6.394463721466064,0.7486369316101074
1789063904280979200,11.423979248046875,5.300612837982177,7.022941657257079,0.8022071937561035
1789063904291016200,11.43401611328125,6.954706909942627,6.053439622497558,0.7089829666137695
1789063904301054000,11.444053955078125,7.650821042633056,5.801599535369872,0.8062474090576172
1789063904311091000,11.454091064453126,7.716212675476074,5.9108349861145015,1.0250175857543944
1789063904321129000,11.46412890625,7.044040559387207,6.117783792114257,1.1348515869140625
1789063904331166000,11.474166015625,6.677428430175781,6.4558151390075675,1.1783961296081542
1789063904341204200,11.484204345703125,6.802076554107666,6.705111386871337,1.0972925483703613
1789063904351241200,11.4942412109375,8.407538404846191,6.479008967590332,1.2814964385986327
1789063904361279000,11.504279052734375,9.041702569580078,6.169109490203857,1.3364134391784668
1789063904371316000,11.51431591796875,7.182156067657471,7.489661343383789,0.8487444885253905
1789063904381354000,11.52435400390625,7.256974869537353,7.407659936523437,0.536899722290039
1789063904391391000,11.534390869140625,8.212859882354735,6.854449715423583,0.4321533996582031
1789063904401429000,11.544428955078125,8.335263442230223,6.969820307922363,0.45175592575073237
1789063904411466200,11.55446630859375,8.180388522338866,6.607098756408691,0.9513958847045898
1789063904421504000,11.56450390625,7.720701803588867,6.515520542907715,1.0307038146972656
1789063904431541000,11.574541015625,7.735815201568603,6.401197413635254,0.7848492317199707
1789063904441579000,11.5845791015625,7.318475924682617,6.383390538787841,0.29269115295410153
1789063904451616000,11.594615966796875,7.606079399108887,6.35870033416748,-0.03995324020385742
1789063904461654000,11.604654052734375,6.556970159149169,6.569090805053711,0.06239888076782226
1789063904471691000,11.61469091796875,6.373065544128417,6.719326959228515,0.07990648040771484
1789063904481729000,11.62472900390625,7.040748532104492,6.35914924697876,0.047584757995605464
1789063904491766000,11.63476611328125,6.65887336730957,6.381744525146484,-0.2045546043395996
1789063904501804000,11.644803955078125,6.42274522857666,6.479457880401611,-0.2723404388427734
1789063904511841000,11.654841064453125,7.310994044494628,5.902904193115234,-0.3290530906677246
1789063904521879000,11.664879150390625,7.723694555664062,5.7417444938659665,-0.4638765716552734
1789063904531916000,11.674916015625,7.444919699859619,5.88659369430542,-0.630123949432373
1789063904541954000,11.6849541015625,6.878840644836425,5.986102700805664,-0.6871358764648438
1789063904551991000,11.694990966796874,6.585102028656006,6.216095697784423,-0.5967547637939453
1789063904562029000,11.705029052734375,7.727884408569335,6.066757369232177,-0.596305850982666
1789063904572066000,11.715066162109375,8.859443968200683,5.606322462463378,-0.7076362281799315
1789063904582104300,11.725104248046875,7.538143927001952,6.514921992492676,-0.8620622352600097
1789063904592141000,11.73514111328125,7.510311332702636,6.628347296142578,-0.6501753883361816
1789063904602179000,11.745178955078124,7.670423568725585,6.436212612915039,-0.23104046020507812
1789063904612216300,11.75521630859375,8.646958570861816,6.612036797332763,0.0076315177917480465
1789063904622254000,11.765254150390625,9.712228672027587,5.853224508666992,0.11267711563110351
1789063904632291000,11.775291015625,7.504625103759765,6.802076554107666,-0.4330512252807617
1789063904642329300,11.785329345703126,6.898592808532714,7.147589781188964,-1.1385925270080566
1789063904652366000,11.795365966796876,7.308300567626953,6.505195548248291,-1.4642039527893065
1789063904662404000,11.805404052734374,7.345111418151855,6.5571197967529296,-1.5322890624999999
1789063904672441300,11.81544140625,7.33568424911499,6.44818362121582,-1.1168950744628905
1789063904682479000,11.82547900390625,7.822455374145507,6.01378565750122,-0.6572083557128906
1789063904692516000,11.83551611328125,7.379827342224121,6.083217505645751,-0.7231985389709472
1789063904702554000,11.84555419921875,6.7757403358459465,6.575375584411621,-1.046415763092041
1789063904712591000,11.855591064453124,7.500884163665771,6.060622227478027,-1.0127473022460938
1789063904722629000,11.865629150390625,7.184250994110107,6.368726053619384,-0.9501987838745116
1789063904732666000,11.875666015625,7.0196496299743645,6.489034687042236,-0.849791951751709
1789063904742704000,11.8857041015625,6.5206082214355465,6.663661770629883,-0.8328829025268554
1789063904752741000,11.8957412109375,7.8338278320312495,6.476914041137695,-1.0567407577514647
1789063904762779100,11.905779052734376,8.776544735717772,6.029647243499755,-1.0295067138671874
1789063904772816100,11.915816162109374,7.050624613952636,6.5677440666198725,-0.4930559043884277
1789063904782854100,11.925854248046875,6.490979975891113,6.769455556488037,-0.11207856521606445
1789063904792891100,11.93589111328125,7.663091326141357,5.957821193695068,-0.08993219985961913
1789063904802929200,11.94592919921875,6.565349864959717,6.351068816375732,-0.24226328048706053
1789063904812966100,11.955966064453126,7.398681680297851,6.1447185607910155,-0.36376901473999024
1789063904823004200,11.966004150390624,7.323413965606689,5.979518646240234,-0.37439328460693355
1789063904833041200,11.976041259765625,8.01758280944824,6.243030466461181,-0.2614168937683105
1789063904843079200,11.9860791015625,7.535749725341796,6.101772568511962,0.03815758895874023
1789063904853116200,11.9961162109375,6.719476596832275,7.106738715362549,0.09861118087768554
1789063904863154200,12.006154296875,7.302315063476562,6.6343328002929685,0.055365913391113276
1789063904873191200,12.016191162109376,7.302315063476562,7.055712292480468,-0.598849690246582
1789063904883229000,12.02622900390625,8.554781806945801,6.846219647216796,-0.4601356315612793
1789063904893266200,12.03626611328125,8.29336491317749,6.301838044738769,-0.2967313682556152
1789063904903304200,12.04630419921875,6.812551186370849,7.521983065795898,-0.14454992523193358
1789063904913341000,12.0563408203125,7.070975328063964,6.670395462799072,0.3124433166503906
1789063904923379200,12.066379150390626,7.440430571746826,6.7657146163940425,-0.08813654861450194
1789063904933416200,12.076416259765624,7.80779088897705,6.708702689361572,-0.2998737579345703
1789063904943454000,12.086453857421875,8.327482286834716,5.960065757751464,-0.4852747489929199
1789063904953491200,12.0964912109375,6.463895569610595,6.826617121124267,-0.9157821350097656
1789063904963529200,12.106529296875,6.471227812194824,6.845321821594238,-0.6510732139587402
1789063904973566000,12.11656591796875,7.800608283996581,5.86130493927002,-0.390703783416748
1789063904983604200,12.126604248046876,8.246528343200684,6.28208588104248,-0.34491467666625975
1789063904993641200,12.13664111328125,7.222558220672607,6.58195963897705,-0.26710312271118164
1789063905003679000,12.146678955078125,6.34613077545166,6.8685156501770015,-0.03007715835571289
1789063905013716200,12.15671630859375,6.35870033416748,6.964732629394531,0.18914193115234373
1789063905023754200,12.166754150390625,7.456292157745361,6.32682752456665,0.610371785736084
1789063905033791000,12.176791015625,7.082946336364746,6.270863060760497,0.6576572685241698
1789063905043829200,12.186829345703124,7.331793671417236,6.415113710784912,-0.09292495193481445
1789063905053866200,12.1968662109375,7.781005757904052,5.903053830718994,-0.48811786346435543
1789063905063904000,12.206904052734375,6.872555865478515,6.155642105865478,-0.5442319648742675
1789063905073941200,12.216941162109375,6.9713166839599605,6.190956580352783,-0.5948094749450683
1789063905083979000,12.22697900390625,7.1501336204528805,5.974281330108642,-0.438587816619873
1789063905094016000,12.23701611328125,6.56968935546875,6.309319924926758,-0.612915625
1789063905104054300,12.24705419921875,6.075735625457764,6.392967345428467,-0.699106884765625
1789063905114091300,12.25709130859375,5.7125651611328125,6.685359223175048,-0.7073369529724121
1789063905124129000,12.26712890625,8.831461736297607,5.701491978454589,-0.4885667762756347
1789063905134166300,12.277166259765625,7.366210320281982,6.1255649475097655,-0.04384381790161133
1789063905144204000,12.2872041015625,7.387608497619628,6.53796618347168,0.2271498825073242
1789063905154241000,12.297240966796876,7.281665074157714,6.6334349746704095,0.4433762199401855
1789063905164279300,12.307279296875,9.622595747375488,6.5583168975830075,0.515202269744873
1789063905174316300,12.31731640625,10.175805968475341,6.402843427276611,0.5322609565734863
1789063905184354000,12.32735400390625,8.582913676452636,7.681796026611328,-0.02483984222412109
1789063905194391300,12.337391357421875,7.3192241127014155,8.241590302276611,-0.36107553787231444
1789063905204429000,12.347428955078126,7.013364850616455,8.393322832489012,-0.3585316986083984
1789063905214466000,12.357466064453124,8.778041111755371,7.6665329910278315,-0.28206688308715816
1789063905224504300,12.36750439453125,9.389759635925293,7.038055055236816,0.23089082260131835
1789063905234541000,12.377541015625,8.89969648361206,6.7453639022827145,0.6238391700744629
1789063905244579000,12.3875791015625,6.347028601074219,6.878990282440185,0.6527192276000976
1789063905254616000,12.397615966796875,6.003161387634277,6.903979762268066,0.38786066894531246
1789063905264654000,12.407654052734374,7.5153990112304685,5.56696777267456,0.6003460662841796
1789063905274691000,12.417691162109374,6.813598649597168,5.639392372894287,0.8182184173583984
1789063905284729300,12.427729248046875,6.584204203033447,5.627271726989746,1.1149497856140136
1789063905294766000,12.43776611328125,5.501875415039062,5.430797553253173,0.8758288948059082
1789063905304804000,12.44780419921875,5.245845475006103,5.625775350952148,0.31663316955566406
1789063905314841000,12.457841064453126,6.834996826934814,5.029319862365722,0.24031799163818357
1789063905324879000,12.467879150390624,7.43773709487915,4.6359226020812985,0.34431612625122066
1789063905334916000,12.477916015625,7.069329314422607,5.102941563415527,0.5943605621337891
1789063905344954400,12.487954345703125,6.867617824554443,5.303605590057373,0.5351040710449219
1789063905354991000,12.4979912109375,7.294384270477295,5.806687213897705,0.2780266677856445
1789063905365029000,12.508029052734376,8.128913186645507,5.811325979614257,0.26710312271118164
1789063905375066000,12.518066162109376,8.757091847229004,6.048651219177246,0.25902269210815426
1789063905385104100,12.528104248046875,7.241113283538818,7.00363840637207,0.28101941986083984
1789063905395141000,12.53814111328125,6.3132105026245116,7.569268548583984,0.18854338073730467
1789063905405179100,12.54817919921875,7.311442957305908,7.174674187469482,0.4761468551635742
1789063905415216000,12.558216064453125,9.112930068969726,6.611737522125244,0.3024175971984863
1789063905425254100,12.568254150390626,9.90226842880249,6.584054565429687,0.5659294174194336
1789063905435291100,12.578291015625,8.379855448150634,6.5209074966430665,1.0730512565612793
1789063905445329200,12.5883291015625,6.835894652557372,7.200411855316162,0.6480804618835448
1789063905455366100,12.5983662109375,6.674286040496826,7.180958966827392,0.5898714340209961
1789063905465404200,12.608404052734375,7.548169646453857,6.515221267700195,0.22355858001708984
1789063905475441200,12.618441162109375,8.863334545898438,6.3527148300170895,-0.18046295013427732
1789063905485479200,12.628479248046874,7.128286530303955,6.631489685821533,-0.06778583450317383
1789063905495516200,12.63851611328125,6.85025986251831,7.027730060577392,-0.08259995727539061
1789063905505554200,12.64855419921875,7.689876457214355,6.51881257019043,0.0028431144714355467
1789063905515591200,12.658591064453125,8.310423600006104,6.303633695983886,-0.20335750350952148
1789063905525629000,12.66862890625,7.705588405609131,6.731447605133056,-0.42721535873413086
1789063905535666200,12.678666259765626,6.998101815032959,6.811503723144531,-0.3678092300415039
1789063905545704200,12.6887041015625,7.934384301757812,6.406734004974365,-0.44861353607177734
1789063905555741200,12.6987412109375,6.928969242095947,6.707655226135254,-0.5122095176696777
1789063905565778000,12.70877783203125,6.423194141387939,6.925677214813232,-0.42975919799804685
1789063905575816200,12.718816162109375,5.896320138549805,6.648698010253906,-0.502483073425293
1789063905585853400,12.728853515625,6.616974838256835,6.4381579017639154,-0.48722003784179685
1789063905595890200,12.73889013671875,6.92672467803955,5.82224952468872,-0.22355858001708984
1789063905605927400,12.748927490234376,5.5906105140686035,6.082918230438232,-0.4424783943176269
1789063905615965400,12.75896533203125,6.594529197692871,5.640589473724365,-0.577152237701416
1789063905626002400,12.76900244140625,7.015908689880371,5.221454545593262,-0.6631938598632812
1789063905636040400,12.77904052734375,8.087313932800292,5.629067378234863,-0.7224503509521484
1789063905646077400,12.789077392578125,8.302792082214355,5.645826789855957,-0.8831611373901367
1789063905656115200,12.799115234375,7.70588768081665,6.504596997833252,-0.6548141540527344
1789063905666152400,12.80915234375,6.4852937469482415,7.5062711174011225,-0.3441664886474609
1789063905676190500,12.8191904296875,7.737311577606201,7.710825721740722,-0.5770026000976562
1789063905686227200,12.829227294921875,9.362824867248534,7.632116342163085,-1.082777700805664
1789063905696265500,12.839265380859375,9.906458281707764,7.62268917312622,-1.1445780311584473
1789063905706302500,12.849302490234376,8.852859913635253,7.736862664794922,-0.596305850982666
1789063905716340200,12.85934033203125,7.7507789619445795,7.771279313659668,0.11013327636718749
1789063905726377500,12.86937744140625,7.50791713104248,6.98403588027954,0.7300818687438965
1789063905736415500,12.87941552734375,8.200589598846435,6.289268486022949,0.5662286926269531
1789063905746452200,12.8894521484375,7.533056248474121,5.887641157531738,0.35883097381591794
1789063905756490500,12.899490478515625,5.9959787826538085,5.949291850280761,0.22086510314941404
1789063905766527500,12.909527587890626,5.391442863464355,5.998372984313964,-0.008828618621826172
1789063905776565200,12.919565185546874,5.830629230499267,5.678298149871826,0.4358943397521972
1789063905786602500,12.9296025390625,7.334038235473632,5.16504116897583,0.9250596664428711
1789063905796640500,12.939640625,6.389974593353271,5.960365032958984,0.872087954711914
1789063905806677200,12.94967724609375,5.913827738189697,6.688800888061523,0.5398924743652344
1789063905816715500,12.959715576171876,5.922656356811523,6.8572928298950195,0.2684498611450195
1789063905826752500,12.96975244140625,7.545625807189941,7.064540911102294,0.5102642288208008
1789063905836790300,12.979790283203124,10.301501555633545,6.196493171691894,1.0748469078063965
1789063905846827300,12.9898271484375,9.326313291931152,6.4640452072143555,1.4522329444885254
1789063905856865300,12.999865234375,7.146841593170166,7.442375860595702,1.2654852149963378
