time,seconds_elapsed,z,y,x
1789063892899674400,0.04267431640625,-0.0004915829092264175,0.12233633985817431,0.172556853184849
1789063892909711400,0.05271142578125,0.13225041562914847,0.11628829186558723,0.1948766023468226
1789063892919749400,0.062749267578125,0.03066401833295822,0.2789315076708794,0.15470051317252217
1789063892929787400,0.072787353515625,-0.012144026780128478,0.23101181863248346,0.09689385556578635
1789063892939824400,0.082824462890625,0.009540566283464431,0.2883732897549868,-0.005219780474901199
1789063892949862400,0.0928623046875,0.011223989325761794,0.28656419450640674,-0.006380494817346334
1789063892959899400,0.1028994140625,0.02155833633542061,0.2272942594140768,-0.0001616203024983406
1789063892969937400,0.1129375,-0.03874561797976494,0.20308862344026565,-0.0467147702280432
1789063892979974100,0.12297412109375,-0.20654314780831337,0.20642507438659666,-0.13892740917503832
1789063892990012400,0.133012451171875,-0.20729542748034,0.14943477466404437,-0.11622238702252506
1789063893000049400,0.14304931640625,-0.2061976953715086,0.14835399369001387,-0.11785612570419907
1789063893010087400,0.15308740234375,-0.18420096761882304,0.12361176662147044,-0.0567263880893588
1789063893020125400,0.16312548828125,-0.09753916773200035,0.1051315225571394,0.19336875506713985
1789063893030162400,0.173162353515625,-0.09635492638349533,0.10369476775228977,0.19411876971684394
1789063893040200400,0.183200439453125,-0.5014636672496795,0.18108546594679353,-0.30152415549010037
1789063893050237400,0.193237548828125,-0.5021481423825025,0.18210194951295852,-0.30368381774201986
1789063893060275200,0.203275146484375,-0.5010983410686254,0.19549685313701629,-0.5244864501144737
1789063893070312400,0.2133125,-0.4586521150052547,-0.020503274324536323,-0.04881276542060077
1789063893080350500,0.2233505859375,-0.5436304918497801,0.34419103856682776,-0.4460088334660977
1789063893090387500,0.233387451171875,-0.15317454571425915,0.02594400407373905,-0.12027926119789481
1789063893100425500,0.243425537109375,-0.15604513271450995,0.029045477220416067,-0.11852576859407127
1789063893110462500,0.25346240234375,0.23486089527606963,0.19284370827972888,-0.22301000622361897
1789063893120500200,0.263500244140625,0.0921732567846775,0.2480073770970106,0.24337438353411853
1789063893130538500,0.27353857421875,0.019140753799676894,0.38808395630717274,0.20729827702455222
1789063893140575500,0.283575439453125,0.18508418019413947,0.18182547065913676,0.3324173064038157
1789063893150613200,0.29361328125,0.18647475776970385,0.18011223700046539,0.3334790904164314
1789063893160650500,0.303650390625,0.12439210334420203,0.1834352439433336,0.26302988192290067
1789063893170688500,0.3136884765625,-0.20662965704798697,0.06645078650712967,0.34650004616156216
1789063893180725200,0.323725341796875,-0.14925006574690342,-0.008059387814998627,0.38449718386158344
1789063893190763500,0.333763427734375,-0.1482961260229349,-0.009095745125412941,0.3839796627935022
1789063893200800500,0.343800537109375,-0.21581366497874258,-0.13381108907461164,0.4581435078959912
1789063893210838300,0.35383837890625,-0.35531565917134283,-0.03423603160083294,0.41682811249345536
1789063893220875500,0.36387548828125,-0.289719443666935,-0.033658523973822595,0.4111339194398373
1789063893230913300,0.373913330078125,-0.09310615372061729,-0.021193010154366494,0.40324857301749284
1789063893240951300,0.383951416015625,-0.030402737048268316,0.029869653084874152,0.4164832445785403
1789063893250988500,0.393988525390625,-0.031308161455392836,0.03066401833295822,0.4187514087062329
1789063893261026300,0.4040263671875,-0.011045710149407386,0.08857260194420814,0.42337673041932283
1789063893271063300,0.414063232421875,0.006844751328229904,0.16611995200514793,0.38973121205754574
1789063893281101600,0.4241015625,0.006600421178340912,0.1660252594590187,0.39325361403003334
1789063893291138300,0.43413818359375,0.25940789203345777,0.1222504151403904,0.2942212120655924
1789063893301176300,0.44417626953125,0.08110299671590328,0.20592004747390746,0.21251834976039827
1789063893311213600,0.454213623046875,-0.04463409149646759,0.2559025142610073,0.0743570295870304
1789063893321251300,0.464251220703125,-0.020591537129878996,0.17005378432273863,0.05616743903234601
1789063893331288300,0.474288330078125,-0.07374386612474917,0.09757482356727122,0.039950902116298675
1789063893341326600,0.48432666015625,-0.0719300947010517,0.09518354451656341,0.0430078785341233
1789063893351364400,0.4943642578125,-0.08025602449774742,0.12526304095983504,-0.08520948218666016
1789063893361401300,0.5044013671875,-0.32126550553143024,0.07052431955635548,-0.0748875562671572
1789063893371439400,0.514439453125,-0.21410276940762996,0.035303368571400644,-0.20470153852961956
1789063893381476400,0.524476318359375,-0.08247896124422549,0.09968202497959136,-0.28598222989998756
1789063893391514400,0.534514404296875,-0.08246610176265239,0.09947042805552482,-0.28402905000559986
1789063893401551400,0.54455126953125,-0.1757669012725353,0.1464800165116787,-0.22774229544252156
1789063893411589400,0.55458935546875,-0.29009879837334157,0.22581834164261816,-0.2935370291937142
1789063893421626400,0.56462646484375,-0.01915828945636749,0.1989560536801815,-0.30513094781041145
1789063893431664400,0.574664306640625,0.11959610123932361,0.3905734350353479,-0.6591035218097269
1789063893441702400,0.584702392578125,0.12001871056556701,0.3901449804902076,-0.6596647358890623
1789063893451739400,0.594739501953125,-0.1304150168955326,0.391406963250041,-0.4969456053033471
1789063893461777400,0.60477734375,0.2163531786829233,0.23394494947493075,-0.37767880908362567
1789063893471814400,0.614814453125,-0.12810966256260872,0.32385727559030053,0.005427504941448569
1789063893481852400,0.624852294921875,-0.4230944794118404,0.22587854739725588,-0.08883907086066901
1789063893491889400,0.634889404296875,0.03192307848334312,0.2782318349689245,-0.2520991033900529
1789063893501927400,0.644927490234375,-0.4858505030542612,0.021364275068044662,0.17228147030957042
1789063893511964400,0.65496435546875,-0.22084581392705438,0.24115502698421476,-0.02494622520804405
1789063893522002400,0.66500244140625,-0.6379366690099239,0.1300397538423538,0.12303133638501167
1789063893532039400,0.675039306640625,-0.7446440625816583,0.3065951751440763,-0.1825778233963996
1789063893542077200,0.6850771484375,-0.8280465684115886,0.5145300695717334,-0.6600513240538537
1789063893552115500,0.695115478515625,-0.717997463196516,0.5378671060174703,-0.827989869788289
1789063893562152400,0.70515234375,-0.6156394970059395,0.707480745357275,-0.9697643389575182
1789063893572191000,0.71519091796875,-0.4296995767652988,0.838601864695549,-0.9144305012051016
1789063893582228000,0.72522802734375,-0.6156558636188507,0.9867530292898415,-0.6933673182003199
1789063893592265700,0.735265625,-0.32111177627444265,1.0951420923382043,-0.6219442231733352
1789063893602303000,0.745302978515625,0.023279753300547597,0.9407751219689845,-0.43982232685089107
1789063893612341000,0.755341064453125,-0.5370809240758418,1.068929792717099,-0.43338783682398496
1789063893622378000,0.7653779296875,-0.6205705236673354,1.2346540234029293,-0.5230601436384021
1789063893632416000,0.775416015625,0.2693658069461584,0.5085732069939375,-0.1750371256932616
1789063893642453000,0.785452880859375,0.1718424213051796,0.569669772991538,-0.13746844253838061
1789063893652490800,0.79549072265625,-0.6932663420438766,0.7161375145435332,0.38227950781211256
1789063893662529000,0.805529052734375,-0.5233890833318233,0.522656677404046,0.4444218565355986
1789063893672566000,0.81556591796875,-0.4947551095217466,0.5681102685898543,0.45228411434330046
1789063893682603800,0.825603759765625,-0.9837848271340132,0.5972907703667879,0.7697940667334944
1789063893692641000,0.83564111328125,-0.9304138869524001,0.5524257927238941,0.8358804769076407
1789063893702679000,0.845678955078125,-1.2867401844710111,0.572571924173832,0.9403193410255014
1789063893712715800,0.8557158203125,-1.1794523606628178,0.5864017120838165,0.7233451078347861
1789063893722754000,0.865754150390625,-0.5383838233679533,0.4454068489849567,0.3890921835016459
1789063893732791000,0.875791015625,-0.594278729069233,0.5252841032981872,0.3096516401052475
1789063893742828800,0.885828857421875,-0.7659352724134921,0.7721417258381843,0.28094876577742395
1789063893752866000,0.895865966796875,-0.7600076359301805,0.8272446043789387,0.39542876611202954
1789063893762903800,0.90590380859375,-0.7456278129220009,0.8826543569117784,0.48286213489323854
1789063893772941800,0.91594189453125,-0.6036562137454747,0.9637702131092548,0.24227760127335785
1789063893782979000,0.92597900390625,-0.689160660290718,1.0077572388738394,-0.08740772288329898
1789063893793016800,0.936016845703125,-0.8964479044646024,1.167090891739726,-0.3726507517885417
1789063893803053800,0.9460537109375,-0.45785482714772224,1.110754672011733,-0.5342214429914951
1789063893813092000,0.956092041015625,0.12573884177803993,0.9227753548979759,-0.4725336331024766
1789063893823128800,0.96612890625,-0.2607043615847826,1.05374683663249,-0.20816950690113006
1789063893833166800,0.976166748046875,-0.9508324056029319,1.3140396948069333,0.00908500453568995
1789063893843204000,0.9862041015625,-1.1475059013038873,1.2583926263868808,0.22805267656594513
1789063893853241900,0.996241943359375,-1.0515805985093116,1.091804472348094,0.3161933898989111
1789063893863278800,1.00627880859375,-0.9982090738058089,0.9291524887144565,0.25235395493395624
1789063893873317000,1.016317138671875,-1.366715638461709,0.9579185644716024,0.08775324838533997
1789063893883355000,1.02635498046875,-1.1409832215368747,0.7456459331005811,-0.12789528915956616
1789063893893392000,1.036391845703125,-0.9000514819145202,0.5871031383514403,-0.2890716472826898
1789063893903430000,1.046429931640625,-1.0854524729728698,0.7237462359815836,-0.2867229652646929
1789063893913467000,1.056466796875,-1.111675878509879,0.7819774756759404,-0.07441767373308539
1789063893923505000,1.0665048828125,-0.75053428966403,0.806312875509262,0.14134345734082163
1789063893933542000,1.0765419921875,-0.8328460776478052,0.9447609767347573,0.40288390442356464
1789063893943580000,1.086579833984375,-1.5825065070867537,1.440896142438054,0.47373372960723936
1789063893953617000,1.096616943359375,-0.9307879809617996,1.325551268902421,0.41273083324246107
1789063893963655000,1.106655029296875,0.19837036274671555,0.8821399776488542,0.281205590082705
1789063893973692000,1.11669189453125,0.1226817922949791,0.9844365690410136,0.15762809105701744
1789063893983730000,1.12672998046875,-0.7381938635289669,1.095142676860094,0.2693704100560397
1789063893993768000,1.136767822265625,-1.1657897460132836,1.1816706212341785,0.32457514153607187
1789063894003805000,1.146804931640625,-0.679708941334486,0.9350508991032839,0.5500028033606708
1789063894013843000,1.156843017578125,-0.9673790512561797,0.8630915783077477,0.7480446648053825
1789063894023880000,1.1668798828125,-1.3739771538972854,1.1453273882210253,0.629004516948387
1789063894033918000,1.17691796875,-0.7405822199702262,0.7977607357412576,0.6009302228476852
1789063894043955000,1.186954833984375,-0.7641478044748305,0.8952683392912149,0.5302376340523361
1789063894053993000,1.196992919921875,-0.6930734498202801,0.9219038327604532,0.6647289604760706
1789063894064030000,1.207030029296875,-1.040606200030446,0.9761486331671476,0.786064452728629
1789063894074067700,1.217067626953125,-1.0263590634912252,1.20330202280581,0.6944656348310411
1789063894084105000,1.22710498046875,-0.8169768928647041,1.0690332530915736,0.6491796552971005
1789063894094143000,1.23714306640625,-0.4489624956399202,0.9809487269252538,0.5210387208133935
1789063894104180700,1.2471806640625,-0.4876619363903999,1.0348989282995462,0.44349465868808324
1789063894114218000,1.257218017578125,-0.34338206027150153,0.8564695298194884,0.48598662358932193
1789063894124256000,1.267256103515625,-1.1881477082937955,1.043437624064088,0.3848904940281063
1789063894134292700,1.277292724609375,-1.6456465616106986,1.3798393239289521,0.2301033985506743
1789063894144331000,1.2873310546875,-0.4933060797572136,0.7517062560528517,0.20108444401100276
1789063894154368000,1.297367919921875,0.09757716165482998,0.6852414410203694,0.14414331719242035
1789063894164405800,1.30740576171875,-0.8855418950468301,0.9477572359412908,0.35755298976935446
1789063894174443000,1.317443115234375,-1.2610101154088973,1.0181208119779825,0.40192795540560033
1789063894184481000,1.32748095703125,-0.8569862471699714,0.7627309234142303,0.22666893058996646
1789063894194517800,1.337517822265625,-0.8559890528261661,0.7607055550664663,0.23655571649521587
1789063894204556000,1.34755615234375,-0.7196510756224394,0.9764829796880483,-0.4562714304137975
1789063894214593800,1.35759375,-0.10385668031573295,0.2513017424672842,-0.4777224704498425
1789063894224630800,1.367630859375,-1.7223095300525426,1.1764461645841597,-0.7308459849841892
1789063894234669000,1.3776689453125,-0.6655167498528957,0.8641273510962724,-0.9075285397969186
1789063894244705800,1.387705810546875,-0.763311353650689,0.6666898852854967,-0.5648806024862453
1789063894254743800,1.397743896484375,-0.1919587421387434,0.8208774074345827,-0.3243669421454891
1789063894264781000,1.407781005859375,-1.056277816414833,0.8763017730146646,0.07653722317032516
1789063894274818800,1.41781884765625,-1.9765718758910893,1.4863123242229221,0.17906038985997438
1789063894284855800,1.427855712890625,-0.1905810240447521,0.8917360735118388,-0.24450112254172562
1789063894294894000,1.43789404296875,0.6664198361724615,0.6222393336623907,-0.6956788830783218
1789063894304930800,1.447930908203125,-0.5969049859195947,1.1691595147073268,-0.8668775265872478
1789063894314968800,1.45796875,-2.331222349151969,1.6503127998560667,-0.7083863158948719
1789063894325006800,1.4680068359375,-1.628148314321041,1.2168968329161405,-0.35033502121455967
1789063894335043800,1.4780439453125,-0.9332780442118644,0.8948638501435517,0.23288181375544517
1789063894345082000,1.48808203125,-1.3484656960219144,0.9443518114119768,0.6944536521323025
1789063894355119000,1.498119140625,-1.737191457363963,0.970323288014531,0.968035177077353
1789063894365156900,1.508156982421875,-1.4551917942941188,0.9814993465453385,0.6397725061349571
1789063894375193900,1.51819384765625,-0.4927250649988651,0.8413584699273109,0.06233016291316598
1789063894385232000,1.52823193359375,-0.349470440274477,1.0648913309812544,-0.46977012320589273
1789063894395268900,1.538268798828125,-0.35289807663559913,1.2758943808078764,-0.6567365004174411
1789063894405307000,1.548306884765625,-1.3293290338754653,1.7575678904384373,-0.2478790014769882
1789063894415343900,1.55834375,-0.947408276373148,1.5689543670743702,0.4203756123745814
1789063894425382000,1.5683818359375,-0.006768763482570648,0.8314496548533439,0.9572736906968057
1789063894435420200,1.578420166015625,0.32943302989602086,0.5477735830038786,1.14561248877272
1789063894445457000,1.588456787109375,0.17268413282632827,0.23038170403540134,0.8268436223626137
1789063894455495000,1.598494873046875,0.39697102711796756,-0.3402250575453043,0.020006138457357884
1789063894465532000,1.608531982421875,0.40401685397624965,-0.768913995963335,-1.0222115153577178
1789063894475570000,1.61856982421875,-0.7066197446137666,-0.6837257757604122,-1.854416445557773
1789063894485607000,1.62860693359375,-2.0683003115177154,-0.24156945300400257,-2.455913143181801
1789063894495645000,1.63864501953125,-1.249210956543684,-0.6357417893141508,-2.341360296806693
1789063894505682000,1.648681884765625,0.20217092407345771,-1.300802612093091,-1.7719205331787466
1789063894515720000,1.658719970703125,0.6258236218899488,-0.9185761496424675,-1.1812100179851055
1789063894525757000,1.6687568359375,0.6171656836599111,-0.9084621673852205,-1.1859092817172407
1789063894535795000,1.678794921875,1.5242653305202722,-0.8770417777270079,-0.43433509107884016
1789063894545832000,1.68883203125,0.04308393944501877,0.185021636351943,-1.0267515699401497
1789063894555869700,1.69886962890625,-1.0571715503841639,1.2469745757937432,-1.9209353288650513
1789063894565908000,1.708907958984375,0.8623334534168243,0.5979892740249634,-2.415502660729736
1789063894575945500,1.718945556640625,1.4292618187457322,0.6970096202254294,-2.6541391290217637
1789063894585983200,1.728983154296875,0.22302549605369568,1.44043729275465,-1.73342523669824
1789063894596020200,1.739020263671875,-0.7887690355122089,1.4099451238572596,-0.05601528067793697
1789063894606058200,1.749058349609375,1.5823019244253635,0.43421091670989986,1.1879307045422494
1789063894616095200,1.75909521484375,1.2311673503309488,0.10534954922199248,2.062720757819712
1789063894626133200,1.76913330078125,-0.21009061115682123,0.6642863312751054,2.190887995788455
1789063894636170200,1.779170166015625,-0.9049795859664678,0.2577712307423353,1.6851716395303606
1789063894646208300,1.789208251953125,-2.2077011834233997,0.5249912578314543,0.7615534040674566
1789063894656245200,1.799245361328125,-1.3869365887135265,0.10061492191553115,0.48508284315001216
1789063894666283300,1.809283203125,-0.6266898833304644,-0.44502924784421916,0.7221183425188065
1789063894676321300,1.8193212890625,0.1557160468906164,-0.6242769769698381,1.1743614672645926
1789063894686358300,1.829358154296875,-1.0215350043356417,-0.35711832467913623,1.9357488671153782
1789063894696396300,1.839396240234375,-0.8346358836740255,-0.000737082102894783,1.9621207412123678
1789063894706433300,1.849433349609375,0.5237585011661052,-0.31222762807309623,1.3338248839899898
1789063894716471300,1.85947119140625,0.9818956523865461,-0.045640638190507885,0.5344323092631995
1789063894726508000,1.869508056640625,1.4380956980645656,-0.04019990844130516,-0.5359359187591821
1789063894736546300,1.87954638671875,0.25823534112274643,0.6514800411939621,-1.593563907673955
1789063894746583300,1.889583251953125,0.3916284970462322,0.5209487044423818,-1.8960528165429829
1789063894756621300,1.899621337890625,-0.8365946165263652,0.6213409235179423,-1.9737801993459463
1789063894766658300,1.909658203125,-0.7094190199434757,0.7334867087513208,-1.844216538582742
1789063894776696300,1.9196962890625,-0.24591069707870483,0.07392097625732422,-1.6686062891766429
1789063894786733000,1.929733154296875,0.2540373049110174,0.09462298802435398,-1.9748849457174538
1789063894796771300,1.939771240234375,0.6214847159028053,0.08264671902656555,-2.3332852730311453
1789063894806809000,1.94980908203125,0.8426490942597389,0.13740589869618414,-2.502304307478666
1789063894816846300,1.959846435546875,0.37005730122923847,0.43058629647195334,-2.8277319011256097
1789063894826884400,1.96988427734375,0.05470072748064995,0.8898439761549234,-2.723020065285265
1789063894836921000,1.979921142578125,-0.6988304059118032,1.1797031205534934,-2.190822090945393
1789063894846959400,1.98995947265625,0.0520621956706047,0.801499337747693,-1.5479384670525789
1789063894856996400,1.999996337890625,-0.19090134204030035,0.47250703735649585,-0.7424161573991179
1789063894867034000,2.0100341796875,-1.3712018439650535,0.7610334718465804,-0.452265263512358
1789063894877071000,2.020071044921875,-0.4935428111225366,0.15930910294651984,-0.4232276042722165
1789063894887109400,2.030109375,1.3233587272942064,-0.8723124111175536,-0.5834765088194981
1789063894897146000,2.04014599609375,0.8421241936028003,-0.6046838032275438,-0.8303153901264071
1789063894907184400,2.050184326171875,-1.1202794562041758,-0.04285539138615131,-1.0446907659303397
1789063894917222100,2.06022216796875,-0.4853226797878742,-0.09364099124968052,-1.1851239034932106
1789063894927259100,2.070259033203125,0.1442529881119728,-0.4235474838763475,-1.0160057195201515
1789063894937297400,2.08029736328125,-1.711222903370857,0.5566816966027021,-0.588527070207335
1789063894947334400,2.09033447265625,-1.5740402920365333,0.40484570601582526,-0.241130842391029
1789063894957372200,2.1003720703125,0.08317629585862159,-0.11284370436966419,-0.9550693125203251
1789063894967409400,2.110409423828125,0.4736684823513031,-0.08688742533624172,-1.1668480228945612
1789063894977447200,2.120447265625,0.6176648653537035,-0.43540158779919147,-1.175166719232872
1789063894987484200,2.130484130859375,0.1874614307194948,-0.11376841799914836,-1.6811656187593935
1789063894997522400,2.1405224609375,-0.6120329969465732,0.07350421214997768,-1.5202666162729261
1789063895007559400,2.150559326171875,0.5199819052368402,-0.17014029356241225,-1.0828077306177466
1789063895017597200,2.16059716796875,0.6774357357054949,-0.2988409077554941,-0.47443778622336685
1789063895027635500,2.170635498046875,-0.20996961512565612,0.3109107002556324,0.33869375632479787
1789063895037672200,2.180672119140625,0.39329906060695646,-0.23862930789887904,1.0883375999551266
1789063895047710200,2.190710205078125,0.7245932081997394,-0.4189905512243509,1.218567469542101
1789063895057747500,2.20074755859375,0.624821751371026,-0.44157939965128895,1.0026391652077435
1789063895067785200,2.21078515625,1.1252128209531307,-0.9446399807035922,0.5411547493860125
1789063895077822200,2.220822265625,1.3126327506184576,-1.1226923625648022,0.03136354490444064
1789063895087860200,2.230860107421875,-0.2441074470490217,-0.6403413920640945,-0.42787119229435916
1789063895097897200,2.240897216796875,-0.8204840242028236,-0.35931963411569595,-0.05804696916863322
1789063895107935200,2.250935302734375,0.9291565803676843,-1.1258078642368317,1.040111621446535
1789063895117972500,2.260972412109375,0.6843617355763911,-0.9817278946042061,2.0526291335247455
1789063895128010200,2.27101025390625,-1.1884124967098235,-0.10694003328382969,2.870941805037856
1789063895138047200,2.281047119140625,0.13618950864374638,-0.6301514219611882,2.9769422193840143
1789063895148085200,2.291085205078125,0.13309680332541465,-0.6285287891954183,2.9945342824369665
1789063895158123300,2.301123291015625,1.802145867833495,-0.6975111400067806,1.3994181768849492
1789063895168160300,2.31116015625,0.8068301773816347,-0.3371440426647663,0.7401236625477671
1789063895178198300,2.3211982421875,0.28819384153485295,-0.24408289712965486,0.5927819877054542
1789063895188235300,2.3312353515625,-0.6038157882213592,0.06664367873072624,1.4528642281293869
1789063895198273300,2.341273193359375,0.2730734292924404,-0.3611643851995468,2.8519357835337518
1789063895208310300,2.351310302734375,1.5486130053132772,-1.0364818135768175,3.730936878634989
1789063895218348300,2.361348388671875,1.769482200115919,-1.520325068461895,3.88471435867846
1789063895228385300,2.37138525390625,-1.0605845736980437,-0.521069700473547,3.743606390593946
1789063895238423300,2.38142333984375,-1.879414985474944,-0.6650415335565805,2.4999451771318912
1789063895248460300,2.391460205078125,-1.3819985477894543,-0.6532125640749931,0.5676059723295271
1789063895258498300,2.401498291015625,-0.012575403934717178,-0.5716916342079639,-0.02462265580948442
1789063895268535300,2.411535400390625,1.1123638607740403,-0.30025837333798405,0.8351759819000959
1789063895278573300,2.4215732421875,1.1023720435917377,-0.29046354003250596,0.8635212018966675
1789063895288611000,2.431611083984375,0.4187070581078529,0.3033253596931696,4.4381984282836315
1789063895298648300,2.4416484375,-1.1366337941557167,1.439091138842702,4.419497527205944
1789063895308686300,2.451686279296875,-1.0688754321813583,1.8084224638849495,3.7524613127008077
1789063895318723300,2.461723388671875,-0.21233108355998992,2.091999167013168,4.288694095514715
1789063895328761300,2.47176123046875,-0.43340603006780143,1.9427321501314638,3.7158664430141446
1789063895338798300,2.48179833984375,1.7227058358937501,1.2160802558362482,1.951806414077431
1789063895348836000,2.491836181640625,4.28813441580534,-0.2807704135358333,0.35034517728239295
1789063895358873300,2.501873291015625,0.982460885053873,-0.3279728942155838,-1.1292724716074765
1789063895368911400,2.511911376953125,-2.5369933435440064,1.000848190137744,-2.0082333808287975
1789063895378948000,2.521947998046875,-1.4528987149208783,-0.6787053172498941,-1.3539910353146494
1789063895388986400,2.531986328125,0.20633505801558494,-2.1154010853886605,1.6278635060302913
1789063895399024000,2.542024169921875,-0.4844248541653156,-1.5933300989180803,3.9819147959753867
1789063895409061000,2.55206103515625,-2.063767344263196,-0.9714058225542306,4.724135430802405
1789063895419099400,2.562099365234375,-1.785081335785985,-1.1483932055324315,4.537629985633492
1789063895429136400,2.572136474609375,-1.5395950015991926,-1.5580179625183344,2.599797882503271
1789063895439174100,2.582174072265625,-1.190325052332878,-0.13595160823464392,0.012181271784286945
1789063895449211400,2.59221142578125,-0.11225625987052917,0.08334054650962353,-0.8565607152342796
1789063895459249200,2.602249267578125,0.36140579273998735,-0.3819172503709793,-0.559269155812636
1789063895469286100,2.6122861328125,0.24091478848755357,0.059011576417088506,0.31490375194717196
1789063895479324400,2.622324462890625,1.8269792803168297,-0.16297580876052378,0.849718155863136
1789063895489361400,2.632361328125,1.816717414021492,-0.11547931357026099,1.049247917778045
1789063895499399200,2.642399169921875,0.6453074900388718,0.2518313192993402,1.0958360659517348
1789063895509436400,2.6524365234375,-0.03111410018801689,0.6194196000665426,0.6278101195320487
1789063895519474200,2.66247412109375,0.017447393885254858,0.3894406316131353,0.07777615384813398
1789063895529511200,2.67251123046875,0.017862404426932335,0.39192251155674457,0.10825593818798661
1789063895539549400,2.682549560546875,0.17904957620501516,0.025422610548138616,-1.0286756698705255
1789063895549587200,2.692587158203125,-0.42747547097504135,0.042454409369826314,-1.490217076576501
1789063895559624200,2.702624267578125,-0.8502028706401586,0.27842589623630043,-1.8263244696699081
1789063895569662200,2.712662109375,0.03293313230872154,-0.20360592531263827,-1.5206667215064167
1789063895579698200,2.7226982421875,0.2646031225889921,-0.40928398072421546,-0.9496071746569126
1789063895589736200,2.732736083984375,0.29012334829270836,-0.2911737341284752,-0.6945591583333909
1789063895599773200,2.742773193359375,-0.49089784957170485,-0.3627905250966549,-0.7996281370483338
1789063895609811000,2.75281103515625,-1.122244618797302,0.10485971987843513,-1.289677406966686
1789063895619848200,2.76284814453125,-0.20712650065422056,0.22314473851919173,-2.0450946463666857
1789063895629886200,2.77288623046875,1.5045815558850764,-0.3479138584822416,-2.1572928924396635
1789063895639923200,2.782923095703125,0.897041778704524,0.20093641384243963,-1.9872493372499942
1789063895649961200,2.792961181640625,0.8917518556028604,0.20749358040094373,-1.9851853904575107
1789063895659998200,2.802998291015625,-0.10605097548961638,0.8671411459594964,-0.9525633941140025
1789063895670036000,2.813035888671875,1.2852531607836484,0.2970242137223482,-0.9837426684927195
1789063895680074200,2.82307421875,-0.12278525266945362,0.6918214039325714,-1.3412719851255417
1789063895690111200,2.833111328125,-0.5473088881015777,0.7753548426657915,-1.522011121852696
1789063895700149000,2.84314892578125,0.5919470712512731,-0.3015694559365511,-1.5876181510120628
1789063895710186200,2.853186279296875,-0.2811474301546812,-0.015507950255274771,-1.6473733854033052
1789063895720224300,2.863224365234375,-0.7310287942051887,-0.013371522748470305,-1.2074828156217932
1789063895730261000,2.873260986328125,0.16005495287775992,-0.49422144103646276,-0.8347117253892123
1789063895740299300,2.88329931640625,-0.6443026969105005,-0.04528057270646095,-0.5900539509810507
1789063895750336300,2.893336181640625,-1.3197002047866582,0.4956488434910774,-0.08342566750980913
1789063895760374000,2.9033740234375,-0.2633908241897821,0.16938158414959906,0.1721591591041535
1789063895770411300,2.913411376953125,-0.40529578787088394,0.5529939480006695,0.08145370984971523
1789063895780449000,2.923448974609375,-0.4091127158105373,0.5561386757671832,0.07145641277469694
1789063895790486000,2.933486083984375,0.39062545748353,0.5127694896399975,0.3234627233147621
1789063895800524300,2.943524169921875,0.4947247143834829,0.7680962498396635,0.3000633622225374
1789063895810562000,2.95356201171875,0.3423725909680128,0.7954583040177822,0.5306261949785054
1789063895820599000,2.96359912109375,0.9399678972393274,0.6425684204638004,0.5221682362999767
1789063895830637300,2.97363720703125,1.3767220686912536,0.28886662622988224,0.4050898169700056
1789063895840674000,2.983674072265625,-0.8288783430606126,0.936257352283597,0.2593659525878727
1789063895850712000,2.993712158203125,0.16676760225892065,0.3858154268532991,0.20151399453468619
1789063895860749300,3.003749267578125,0.1743815843939781,0.37518706533312796,0.18829561652131377
1789063895870787000,3.013787109375,-0.41901042496860025,-0.04171674274504184,0.029583894946053624
1789063895880824000,3.023823974609375,-0.6357452964454889,-0.5017863233327865,-0.04751658813022077
1789063895890862300,3.0338623046875,-1.2576245646238327,-0.32110300844609735,-0.37478659477345644
1789063895900899000,3.043899169921875,-1.0371861624538898,-0.5693132146388292,-0.3744705876268446
1789063895910937000,3.05393701171875,0.5310732080936431,-1.0518459714472292,-0.1027694696009159
1789063895920974000,3.06397412109375,0.019390344646573066,-0.827068663290143,0.14342559737712143
1789063895931012000,3.07401220703125,-1.8915490753829478,0.16314590463042258,0.6843331670690328
1789063895941050000,3.084050048828125,-0.5755933178216218,-0.10874386783540248,1.091966311846301
1789063895951087400,3.09408740234375,0.6091448742896318,-0.1468926889657974,1.4016988351680337
1789063895961125000,3.104125,0.4470411721885204,0.22424831584692,1.8993984737090766
1789063895971162000,3.114162109375,1.134617193636298,0.48823593688607214,1.9785113195210695
1789063895981200100,3.1242001953125,1.2795745306253432,0.5459451985329389,1.8220814252726734
1789063895991237000,3.134237060546875,0.8989315379738807,0.7717401592999696,1.5061597649872303
1789063896001275100,3.144275146484375,0.3231529267132282,0.9907014746546745,0.7711551990188658
1789063896011312000,3.15431201171875,-0.36318683093786236,1.1140285791158675,-0.2153594184052199
1789063896021350100,3.16435009765625,0.1856359688580036,0.6062111589252949,-0.8243989326242357
1789063896031387100,3.17438720703125,0.19307167181670665,0.596729044830799,-0.8319663722038269
1789063896041425200,3.184425048828125,0.22853753747344016,-0.017735563176870344,-1.8434600211270153
1789063896051462100,3.194462158203125,0.13756664221584797,-0.30977848135530944,-2.1763461140863596
1789063896061500200,3.204500244140625,0.680022245067358,-0.8908096063166856,-2.7030925450220704
1789063896071538200,3.2145380859375,-0.8105816388696432,-0.5203758729904889,-3.444206679911911
1789063896081575200,3.2245751953125,-0.990627824896574,-0.5403349574357271,-3.729702368403971
1789063896091613000,3.234613037109375,-0.3842413094043731,-1.028024950876832,-3.9164369461536404
1789063896101650200,3.244650146484375,-0.43639001431465146,-1.1875783839732408,-3.73128028524518
1789063896111688200,3.254688232421875,-1.031128177589178,-1.171923134201765,-3.463205979414284
1789063896121725200,3.26472509765625,-0.3882786020964384,-0.795531369253993,-3.750502287587523
1789063896131763200,3.27476318359375,-0.062194298106431956,-0.32593525090813635,-3.7187040045276283
1789063896141800200,3.28480029296875,-0.6998749465286731,0.1912877110093832,-3.4289597186803817
1789063896151838000,3.294837890625,-0.06605448066592216,0.32779929121434687,-3.605107143703103
1789063896161875200,3.304875244140625,0.48507718059420585,0.37932664935588833,-3.4583801666930314
1789063896171913200,3.314913330078125,0.09864859027862548,0.6069640231192112,-2.929871548390388
1789063896181950200,3.3249501953125,0.5867524252176285,0.4820364977240562,-2.2654233045518395
1789063896191988200,3.33498828125,0.2878752771049738,0.5744178443014621,-1.8839638809509573
1789063896202026200,3.345026123046875,0.08442366557121277,0.7365308987528085,-1.4349017243288456
1789063896212063000,3.35506298828125,0.1842342853665352,0.42622108699977396,-1.16845640793927
1789063896222101200,3.365101318359375,0.4355822050631046,0.17756722869277,-0.8228528722260147
1789063896232138200,3.37513818359375,0.4099269548028707,-0.3083826430827379,-0.2968087808733806
1789063896242176000,3.385176025390625,0.4380225839525461,-0.46016193504631514,-0.6790970199812203
1789063896252213200,3.395213134765625,0.30650749686062334,-0.6804384246528148,-0.9994812126334756
1789063896262251300,3.405251220703125,-1.7570821527481078,-0.4528659328192472,-1.2788529383525251
1789063896272288000,3.4152880859375,-1.6093302166044712,-0.15042904639840124,-1.1240919271644205
1789063896282326300,3.425326171875,-0.7189046411693095,-0.8858762415677308,-0.4966164829468354
1789063896292363300,3.43536328125,-0.9605389761030674,-0.47910570496916766,0.23021758124856276
1789063896302401000,3.445401123046875,0.260246680945158,-0.4086947826594114,0.3474189876373857
1789063896312438300,3.455438232421875,1.6113310350328682,-0.5572738172769546,0.49740693920478224
1789063896322476000,3.46547607421875,0.524728807502985,-0.16103461156487464,0.7367007023617624
1789063896332514000,3.47551416015625,0.11882394782304763,0.7558458400756121,0.5115553646098822
1789063896342551300,3.48555126953125,0.48247430461943147,0.4176362140059471,0.6844437147714197
1789063896352589000,3.495589111328125,-0.19192016369402407,0.37997196152210233,0.43432712696809317
1789063896362626000,3.5056259765625,-0.10635609591603279,0.6304828458726406,0.3371158029509708
1789063896372664300,3.515664306640625,0.03639291737377643,0.14678981311321257,0.7026432421982288
1789063896382701000,3.525701171875,0.3986000896245241,-0.2250239763945341,0.9582789222165942
1789063896392739000,3.535739013671875,0.4696586621880531,-0.0903437032699585,0.6948920435495675
1789063896402776300,3.5457763671875,0.7446183436185121,-0.39793899536728855,0.28785514763239767
1789063896412814000,3.55581396484375,-0.8347510344862937,-0.05320902761816978,0.17759795262459666
1789063896422851000,3.56585107421875,-0.85506784632802,0.008496610188484192,0.2133038010496646
1789063896432889300,3.575889404296875,-2.2804197981536385,0.1659954488426447,0.20155209805537014
1789063896442926000,3.585926025390625,-2.2888690620690584,0.35051731897890565,0.43127753013912584
1789063896452964000,3.595964111328125,-0.8590969557136297,-0.1461737270414829,0.653655777797848
1789063896463001300,3.60600146484375,-0.5982067161679268,-0.03421031263768673,0.6137516374327242
1789063896473039000,3.6160390625,0.12172434543967246,0.054797173592448234,0.2578600780695677
1789063896483077000,3.6260771484375,1.114447096788883,-0.019405542215704917,-0.19922968298979102
1789063896493114000,3.636114013671875,0.5892015719354152,0.47154725241363044,-0.6128751468591391
1789063896503152000,3.646152099609375,0.01814531302154064,0.6900953107923269,-0.4892261900324374
1789063896513189000,3.656189208984375,-1.7499252667307852,1.3377479026526211,-0.2043777134027332
1789063896523227100,3.66622705078125,-1.6613713694870471,1.4564619603604076,0.17874905888848006
1789063896533264100,3.67626416015625,0.5943804358780383,0.4389560654103756,0.6851163533359765
1789063896543302100,3.68630224609375,0.5594383018344641,0.3459562946736812,0.6864263399560004
1789063896553339100,3.696339111328125,0.19595278021097182,0.5190624523043632,0.3898535963281989
1789063896563377200,3.706377197265625,0.5410930823266505,0.049991234615445135,0.06994535062462091
1789063896573414700,3.71641455078125,-0.38629648836851116,0.240046773481369,-0.2700349383793771
1789063896583452400,3.726452392578125,-0.8521931676745415,0.35337972267270085,-0.43302251064293085
1789063896593489400,3.736489501953125,-0.9733294840931892,0.31488895623683927,-0.1871643474690616
1789063896603527400,3.74652734375,-2.0235306109428404,0.6462719511568545,-0.06130779759548604
1789063896613565400,3.7565654296875,-2.02550863301754,0.7775000380009413,0.07438121418021619
1789063896623602400,3.7666025390625,-1.2146119368493555,0.6720248165726661,0.14094715149961412
1789063896633640400,3.776640380859375,0.4901151747614145,0.24715572870373725,-0.01963854725398123
1789063896643677400,3.786677490234375,1.0875509065568447,0.19535072266459463,-0.2587047122001648
1789063896653715700,3.7967158203125,0.8587883281558751,0.5481143592655658,-0.5399432547044009
1789063896663752400,3.80675244140625,-0.10261047964692115,0.678515347635746,-0.7274449443690478
1789063896673790500,3.81679052734375,-0.6164625038266182,1.21484633012712,-0.7953193339385092
1789063896683827500,3.826827392578125,-0.6955038918375969,1.0335925218760966,-0.8580507345963269
1789063896693865500,3.836865478515625,-0.6535334665924311,1.2201321615755558,-0.6463306225415318
1789063896703902500,3.84690234375,-0.3596469663739204,0.8845154746085405,-0.1098140543501824
1789063896713940700,3.856940673828125,-0.2791641473829746,0.49367199046015736,0.15637721421308814
1789063896723977500,3.8669775390625,-0.061299395093321794,0.5095002587109804,0.025687983486056325
1789063896734015500,3.877015380859375,0.30677345432043074,0.03605097206830978,-0.31417576646618545
1789063896744053500,3.887053466796875,0.2936240498900413,-0.08652911341786385,-0.6382872360132634
1789063896754090500,3.897090576171875,-0.8258844219416379,0.3940864115923643,-0.6049550213843584
1789063896764128500,3.90712841796875,-1.0265396807551384,0.44265667349398136,0.009001564035937189
1789063896774165500,3.91716552734375,-1.1036673440992832,0.3371615783214569,0.9308526436958462
1789063896784203500,3.92720361328125,-1.494794905886054,0.6428939991563558,1.5384598600894213
1789063896794240500,3.937240478515625,-1.3774386925280093,0.8170148867875338,1.7692270563110708
1789063896804278500,3.947278564453125,0.14758827001452446,0.4888853407055139,2.289358599151671
1789063896814315500,3.9573154296875,0.7981780843704939,0.30228023455440994,2.674200504797697
1789063896824353500,3.967353515625,0.14703531230688094,0.48767128874063487,2.8133824732556936
1789063896834390500,3.977390625,0.6256932735085488,0.12369418420791625,3.023329584288597
1789063896844428500,3.987428466796875,-0.44870355244278903,0.506201801687479,2.5111393558412787
1789063896854465500,3.997465576171875,0.05575403592586517,0.7487339622437954,1.9806867638640104
1789063896864503600,4.007503662109375,0.535635401442647,0.07457038007676602,2.3225132652565836
1789063896874540500,4.01754052734375,-0.9809680161476134,0.5812777931988239,2.540942081169784
1789063896884578600,4.02757861328125,-1.3381634977161883,0.43479543859958647,2.5239447691395878
1789063896894616600,4.037616455078125,-0.7035521737366914,-0.1903326022416353,2.7753102244928476
1789063896904653600,4.047653564453125,-0.0518880081474781,-0.7521499081671238,2.536796067406237
1789063896914691300,4.05769140625,0.16138707826435564,-0.5900678333759307,1.3773906156025826
1789063896924728300,4.067728271484375,-0.3065180182546377,-0.24159517196714878,0.5550904818885029
1789063896934766600,4.0777666015625,-1.185895545452833,0.14251345096826554,0.16791333822794258
1789063896944803600,4.087803466796875,-1.1113818639993667,0.3667342942863703,0.24694804076980797
1789063896954841600,4.097841552734375,-0.7680623475700616,0.2588859139859676,0.37530930347330865
1789063896964878600,4.107878662109375,-0.4662766185343265,0.7863543755859136,0.4974258265683427
1789063896974916400,4.117916259765625,1.0920669226765631,0.11121522638499737,0.8732078986525535
1789063896984953300,4.127953369140625,0.2679354818820953,0.3199211051851511,1.4178218485817313
1789063896994991600,4.13799169921875,-0.5837105733036995,0.7214210079044103,1.7276869853071868
1789063897005028600,4.148028564453125,-0.17360358575880527,0.09377776937186717,1.7361571458801626
1789063897015066600,4.158066650390625,0.6348994932711124,0.021266659912467,1.074665121498704
1789063897025104600,4.168104736328125,0.7418103004604577,-0.4429074333846569,0.6697451081376522
1789063897035141400,4.178141357421875,-0.7681991256922484,0.34139410132467746,0.2916904514789581
1789063897045179600,4.1881796875,0.14920330399572848,-0.2237082176208496,0.6531136337451636
1789063897055216600,4.198216552734375,-0.9460404951512813,-0.20955109745264053,1.423687818005681
1789063897065254400,4.20825439453125,-0.007844283759593963,-0.020543606334924698,1.5970619789227842
1789063897075291400,4.21829150390625,0.3516781794518232,-0.7503443200498819,1.842538083976507
1789063897085329400,4.228329345703125,0.4050011888384819,-0.28838264210522174,1.2582352438680826
1789063897095366400,4.238366455078125,0.6065209555268287,-0.3798731773227453,0.6221891378451139
1789063897105404700,4.24840478515625,0.16148293985426426,-0.08025543997585773,0.2902117024295963
1789063897115441700,4.258441650390625,0.9114671944200992,-0.36823242388963695,-0.11825805756859481
1789063897125479400,4.2684794921875,-0.7189438041359186,0.4720920268148184,-0.21268647286891937
1789063897135516400,4.278516357421875,0.38307343466877936,0.11867372569739817,0.005118530323822051
1789063897145554400,4.288554443359375,-0.5438479339927434,0.25799159549474715,0.3533275540940463
1789063897155592400,4.298592529296875,1.4932090979993342,0.04005202440321445,0.5182861707022414
1789063897165629700,4.308629638671875,0.5396802929192781,-0.45899932100772856,0.626354294700548
1789063897175667500,4.31866748046875,-1.1464245358079672,0.8061363498985767,0.23109533219747244
1789063897185704400,4.328704345703125,0.37779286391735073,-0.3623755145549774,-0.13804715574178844
1789063897195742700,4.33874267578125,0.3807704184234142,-0.3645464288532734,-0.11717066419068724
1789063897205779500,4.348779541015625,0.16994740133881567,-0.11043956583738326,-0.6739611914627254
1789063897215817500,4.3588173828125,-0.16185001960098744,-0.5340677137345076,-0.42300694725885984
1789063897225854500,4.3688544921875,-0.7655220154374838,0.0333925665140152,-0.41868985124472524
1789063897235892500,4.378892578125,0.02949555907547474,-0.3546984040558338,-0.19986567933838814
1789063897245929500,4.388929443359375,0.5656318957775831,-0.5336532877147198,-0.010632489706017077
1789063897255967700,4.3989677734375,0.37384500307440754,-0.581850040128827,0.01825063655953854
1789063897266004500,4.40900439453125,-0.9701619599729776,0.1465846459299326,-0.08902206274475902
1789063897276042500,4.41904248046875,0.2541203070193529,-0.573690699070692,-0.15896777869556097
1789063897286079500,4.42907958984375,-0.4374041597932577,-0.15124270086884498,-0.2720363047970459
1789063897296117500,4.439117431640625,0.263044202709198,-0.015317980641126631,-0.31944650994334367
1789063897306155500,4.449155517578125,0.9051087653040886,-0.32443419869542117,-0.23806385603584349
1789063897316192500,4.459192626953125,-0.32651626566648484,0.6370370898216963,-0.26442257839031513
1789063897326230500,4.46923046875,-0.6332149011850357,0.8762181863844394,0.0325784736521542
1789063897336267500,4.479267578125,-0.44618075596690177,1.0217653059601783,0.1636827149208635
1789063897346305500,4.489305419921875,1.642322385624051,0.2645078455209732,0.36389154514111577
1789063897356342500,4.499342529296875,0.0040939913153648375,0.8588637314796447,0.4920621441107243
1789063897366380500,4.509380615234375,0.4549351403087377,0.6735498341828584,0.5592844995122402
1789063897376417300,4.519417236328125,-0.1322708738952875,0.3903746975928545,0.6291316504593938
1789063897386455600,4.52945556640625,-0.7739063974231482,0.7002174763560295,0.5003129628445953
1789063897396492500,4.539492431640625,-0.26044892551898957,-0.030099370187520978,0.5091735109746456
1789063897406530600,4.549530517578125,-0.9535036706387996,0.17576456318497657,0.2778761533990502
1789063897416567600,4.559567626953125,-0.7516524800390004,-0.04649696275889873,0.40806583710610866
1789063897426605600,4.56960546875,-0.43397652343213555,-0.2386485971212387,0.4560076649110764
1789063897436643600,4.5796435546875,0.6628758799552917,-0.4753057281643152,0.2604460029095411
1789063897446680600,4.5896806640625,-0.1814846943974495,0.06697334907650947,-0.1528003055743873
1789063897456718300,4.59971826171875,-0.6456301461219788,0.5281821628272533,-0.3030169513311237
1789063897466755300,4.60975537109375,-0.18429156851172446,0.5310866520971059,-0.33469818388260897
1789063897476793600,4.619793701171875,0.4494499868959188,0.6447434264153242,-0.38590683146379884
1789063897486830600,4.62983056640625,1.3765736001312732,0.3583072422027588,-0.2528603700861335
1789063897496868600,4.63986865234375,0.7808604543447494,0.6246814661175012,-0.43604697303064166
1789063897506905600,4.649905517578125,-0.1460135680437088,0.9888479557424783,-0.4700611055091023
1789063897516943400,4.659943359375,0.14645605111420154,0.8166758640915155,-0.6265394420091063
1789063897526980400,4.66998046875,0.3988268841177225,0.4818880291640758,-0.1549105757266283
1789063897537018600,4.6800185546875,-0.45810558703839777,0.5431552755534649,0.32840514815300703
1789063897547055400,4.690055419921875,-0.8766863884180783,0.7061673246711492,0.42918614735044536
1789063897557093600,4.70009375,-0.9339660264760256,0.3717278647899627,0.48594819127507505
1789063897567130600,4.710130615234375,-0.28911738612055776,0.056957566496729846,0.3654950348149985
1789063897577169200,4.720169189453125,-0.09045768503844738,-0.0977326444774866,0.21896869494356214
1789063897587207400,4.73020751953125,-1.2072504681706429,0.30128420925438404,0.14611227917782962
1789063897597244200,4.740244140625,-0.9245902953654527,-0.019960253489017487,0.3759004012342542
1789063897607282200,4.7502822265625,-0.3601999240815639,-0.24677578947544096,-0.24665230922624468
1789063897617319400,4.7603193359375,-1.2587772417902945,0.4332914637774229,-0.11084558935500681
1789063897627357200,4.770357177734375,-1.3910422704666852,0.05319850622415542,0.22460209772065282
1789063897637394200,4.780394287109375,-0.5888169565320015,0.40739539049863815,-0.16448014890886842
1789063897647432400,4.790432373046875,-0.5925456216663122,0.41190906853079795,-0.16307561587318778
1789063897657469200,4.80046923828125,0.1082160445690155,0.2810503995209932,-0.5651299376048148
1789063897667507200,4.810507080078125,0.36656478293836114,0.6137409699082375,-0.8121885626096278
1789063897677544400,4.82054443359375,0.998100937256217,0.14906711039543152,-0.3098053693622351
1789063897687582200,4.830582275390625,-0.3984346699297428,0.4847440031170845,0.1524391441117972
1789063897697619200,4.840619140625,0.08807575833797454,0.34255729988515377,0.17508133016116917
1789063897707657200,4.8506572265625,-1.0344248810470105,0.48907121866643427,0.2826217404909432
1789063897717695200,4.8606953125,-0.5107265856355429,0.31183892101645466,0.43896695213057096
1789063897727732200,4.870732177734375,-0.5799222869366407,-0.019243629652261732,0.42410066077969966
1789063897737770200,4.880770263671875,-1.7743793245077133,0.7495207287073135,0.30628676678203043
1789063897747807200,4.89080712890625,-1.5473352404624223,0.5892828204780817,0.6233417419463396
1789063897757845200,4.90084521484375,0.9751122758567332,-0.29410744949281215,0.7202159429635853
1789063897767882200,4.91088232421875,0.6299129370301961,0.21910335417389867,0.6983455450043082
1789063897777920300,4.920920166015625,0.6758738932162522,0.6135866561293601,0.682914751638472
1789063897787957200,4.930957275390625,0.362715706294775,0.49347208397388453,0.702270755624026
1789063897797995300,4.940995361328125,0.3808370539188385,0.9884382058978081,0.2681622763752937
1789063897808032300,4.9510322265625,0.01392681854367256,0.9218985720634459,0.5960745995100587
1789063897818070300,4.9610703125,0.3042857291579246,0.48068391407132144,0.9532931696932763
1789063897828107300,4.971107177734375,-0.21185060656666754,0.4762035537868738,0.9914330037996172
1789063897838145300,4.981145263671875,-0.4289151483893394,0.46823184425532816,1.0431016701079905
1789063897848182300,4.991182373046875,0.08984627514183521,-0.2699310396134853,1.0352744836136698
1789063897858220300,5.00122021484375,-0.5417366409271955,0.029964930152893064,0.710810620432347
1789063897868258300,5.01125830078125,-0.7676017443209886,0.035304537615180015,0.4855773852013051
1789063897878295300,5.02129541015625,-0.7927285867929458,-0.06108312199413776,0.6428976524181663
1789063897888333300,5.031333251953125,-0.42731881910860536,-0.11477847182452677,0.8719778454009443
1789063897898370300,5.041370361328125,-0.8363912029087543,0.46454643374085425,1.0324568689096718
1789063897908408000,5.051407958984375,0.49709670421183105,0.00009235445857048034,1.3507657896578311
1789063897918445300,5.0614453125,0.936072643366456,0.019244798696041107,1.1944498041126876
1789063897928483300,5.0714833984375,0.04879530282914638,0.7049760690599679,1.0667002070341258
1789063897938520300,5.081520263671875,0.08709843773841858,0.4776140051066875,0.8540773739859461
1789063897948558300,5.091558349609375,0.9787649531453847,0.22212416329979895,0.6499304736644029
1789063897958595300,5.10159521484375,-0.1349076521396637,0.38936464376747604,0.641121728786826
1789063897968633000,5.111633056640625,0.16618541845679283,0.27144670487344263,0.47570839068107307
1789063897978670300,5.12167041015625,0.09241875597834587,-0.16480477775335312,-0.09733202778734266
1789063897988708400,5.131708251953125,-0.5121744463562965,0.2360170795738697,-0.6573001256495714
1789063897998745000,5.1417451171875,-0.6512088230371474,-0.19001871398687362,-0.8267874351959675
1789063898008783400,5.151783447265625,0.33159985254108904,-0.5486749157577753,-1.0455287511244415
1789063898018821000,5.161821044921875,0.295698518076539,-0.47692251571118827,-1.2002859629202633
1789063898028858000,5.171858154296875,0.2942944964975118,-0.47670974974334235,-1.2133739925522355
1789063898038896400,5.181896484375,-0.5342646976113319,-0.2776215941160917,-0.9263587663426994
1789063898048933400,5.191933349609375,-0.9495493800550698,0.47239714724123477,-1.1283373096492142
1789063898058971100,5.20197119140625,0.2693576236397028,-0.24093057057857512,-1.6499541956767438
1789063898069008400,5.21200830078125,0.16752514262795448,0.31704233487844463,-2.505413379409909
1789063898079046100,5.222046142578125,0.8055354613959789,0.14410568859577177,-2.6581553789258003
1789063898089083100,5.232083251953125,0.8245745083868503,-0.02915945898890495,-2.3032127908505498
1789063898099121400,5.242121337890625,1.1009235983490944,0.1154138471186161,-1.9405697114005684
1789063898109158400,5.252158447265625,0.6935054114967584,-0.0008335282146930694,-1.7306076950594782
1789063898119196200,5.262196044921875,0.45641924138665196,0.32580957870185373,-2.076779386049509
1789063898129233400,5.2722333984375,-0.029026772519946096,0.4608475792229175,-2.1111650552541015
1789063898139271200,5.282271240234375,0.5187281057834625,0.06696107411682606,-1.8092165368720887
1789063898149309200,5.29230908203125,0.5248936426758766,0.05738309843242168,-1.8432386334612965
1789063898159346400,5.302346435546875,-0.5616507171869277,0.0707803401440382,-1.295737145397067
1789063898169384200,5.31238427734375,-0.5621715261906385,-0.20137597430348395,-1.3823726417988538
1789063898179421200,5.322421142578125,-0.2263397351682186,-0.4446487240940332,-1.437875041051209
1789063898189459200,5.332459228515625,-0.7148620877802372,-0.3778372875809669,-1.351864690810442
1789063898199496200,5.34249609375,-0.9356541256934404,0.03795709795057774,-1.4428417235478759
1789063898209534200,5.3525341796875,-1.1611831290006638,-0.044832828938961025,-0.948905821454525
1789063898219571500,5.362571533203125,-0.5017272866219282,-0.1254524260520935,-0.37301724701337513
1789063898229609200,5.372609130859375,0.2626648480027914,-0.2702192089051008,0.20197699067024513
1789063898239646200,5.382646240234375,0.006579378390312194,-0.21036475192308424,0.7340564714632928
1789063898249684200,5.392684326171875,-0.8076099295824766,0.048561494073271746,0.877004076065123
1789063898259721200,5.40272119140625,-0.2810650125682354,0.14656301862001417,0.4905806368486956
1789063898269759200,5.41275927734375,0.2105021145671606,-0.2651449743807316,0.1874593118276447
1789063898279797200,5.42279736328125,0.21170330705046653,-0.26675883931815625,0.16168038038881494
1789063898289834200,5.432834228515625,-0.7890677261978387,0.1478518893867731,-0.3442591718995944
1789063898299872300,5.442872314453125,-0.8764648546218872,0.12954524832367897,-0.18768738496247678
1789063898309909200,5.4529091796875,-0.18947803123891352,-0.06326455768644809,-0.011429380271327682
1789063898319947300,5.462947265625,-0.48487961219549175,0.19579846643209456,-0.30101828832719474
1789063898329984300,5.472984375,-0.7768681698381901,0.47817514612078665,-0.6760226540371775
1789063898340022300,5.483022216796875,-0.6549480095654726,0.5669879865616559,-0.8443436232179403
1789063898350059300,5.493059326171875,0.3086772421151399,0.2031990980774164,-0.5193007911048829
1789063898360097300,5.50309716796875,0.31594927894473074,0.20471300977170467,-0.24415616329526527
1789063898370134300,5.51313427734375,0.7064812129259109,0.27866087403595446,-0.22715654971012844
1789063898380172300,5.52317236328125,-0.5412666853278875,0.5899672956109047,-0.6292882292605936
1789063898390209300,5.533209228515625,-1.0190279899507761,0.7999053465545177,-0.7365381322111934
1789063898400247300,5.543247314453125,-0.7170470306038856,0.43806817665994163,-0.5064625715155154
1789063898410284300,5.5532841796875,0.3673679160147905,0.09935060106813907,0.0036181539645418525
1789063898420322300,5.563322265625,0.12434767968058585,-0.07360825704634189,0.44864546558000146
1789063898430360300,5.5733603515625,0.5080436301618814,-0.2287368594378233,0.4029376804374158
1789063898440397300,5.583397216796875,-0.6874047565340995,0.09027706777453422,0.037401016704086215
1789063898450435000,5.59343505859375,-0.8344441604942083,0.38603579160571094,-0.15153202093793078
1789063898460472300,5.603472412109375,0.16359832457304,-0.06979775884747505,0.08714549175053835
1789063898470510300,5.61351025390625,0.5620318254590034,-0.031421558701992036,0.6623138621583581
1789063898480547000,5.623547119140625,0.16113105767667293,0.319684373819828,1.1686208047207445
1789063898490585300,5.63358544921875,0.29842063651680945,0.48830900212228295,1.3868265524677932
1789063898500622300,5.643622314453125,0.49921150440871714,0.6247282278686761,1.0602142060156912
1789063898510660000,5.65366015625,0.15480477726459502,0.8224170380920172,0.9567657411746681
1789063898520697300,5.663697265625,0.682549133196473,0.622207184958458,0.8093848303005099
1789063898530735400,5.6737353515625,0.6872282309234142,0.6171575003534555,0.8031630331762134
1789063898540772000,5.683772216796875,-0.18172434837222098,0.25220249069929124,1.6310718005523084
1789063898550810400,5.693810302734375,-0.8101017463982105,0.22036825954318046,1.5006792877495287
1789063898560847400,5.703847412109375,-1.383832777479291,0.17985329380333423,0.9804405582074075
1789063898570885000,5.713885009765625,-1.7940414718329905,-0.10204466245770454,0.7276887630622834
1789063898580922600,5.723922607421875,-0.787763657861948,-0.5546206724196672,0.4761095918931067
1789063898590959900,5.7339599609375,-1.0146627804785966,-0.7799450930655002,0.5831817271240055
1789063898600997600,5.74399755859375,-2.1604127780258655,-0.20925299128890038,0.9778206580325961
1789063898611034600,5.75403466796875,-1.3845605072319507,-0.48530806674063204,0.8467913086310028
1789063898621073000,5.764072998046875,0.02563420747220516,-0.5675368526160717,0.3176536717098206
1789063898631109600,5.774109619140625,-0.14582535199522972,0.17708499813377857,-0.4579917879329994
1789063898641147600,5.784147705078125,1.4732698872983454,0.12397650828063488,-0.36481052314955736
1789063898651184600,5.7941845703125,0.7197247253805399,0.4232195670962333,-0.3908778978746384
1789063898661222700,5.80422265625,0.36029403210580346,1.2649293346792458,-0.24207711026519535
1789063898671259600,5.814259765625,-0.42479602263271804,1.1947896305263042,-0.3665250354498625
1789063898681297700,5.824297607421875,0.2847112601161003,1.2214181097328662,-0.8493598439447582
1789063898691334700,5.834334716796875,1.0754635784000157,0.6251303789287805,-0.8637753227882087
1789063898701372700,5.84437255859375,1.329797820430994,0.18670038321912288,-0.7340605631165206
1789063898711409700,5.85440966796875,0.5312257683068513,0.21751871533095835,-0.30676223880667236
1789063898721447700,5.86444775390625,-0.18463585190474985,-0.06247194600403309,0.09449114180561155
1789063898731485700,5.874485595703125,-0.019299743753671644,-0.12161971602141856,0.26270886980760844
1789063898741522700,5.884522705078125,0.2780477105736732,-0.504168834555149,0.04414928538789972
1789063898751560700,5.894560791015625,-0.9861287599116563,0.04257189826965332,-0.18056551545960828
1789063898761597700,5.90459765625,-1.2916905003547667,0.28423487477600573,-0.5487235406724735
1789063898771635700,5.9146357421875,-0.685990213561058,-0.12325754635632037,-0.4192850041262805
1789063898781672700,5.924672607421875,-0.6874217076689004,-0.1217623393625021,-0.4157853254422545
1789063898791710700,5.934710693359375,0.7886690822690725,-0.13687456829845904,-0.4588512908391654
1789063898801747500,5.94474755859375,0.8083920198708772,-0.43320904619097705,-0.18208960148803888
1789063898811785700,5.95478564453125,0.34555239004790783,0.19553250897228716,-0.32861922929510473
1789063898821822700,5.96482275390625,0.23395839347839353,0.4474684576898813,-0.3691628731401637
1789063898831860700,5.97486083984375,0.7131167054176331,-0.01872574325799942,-0.24888560296995563
1789063898841897700,5.984897705078125,-0.739409669059515,0.7167512625277042,-0.30676220227405426
1789063898851935700,5.994935791015625,-0.10270049601793288,0.41326808192431924,-0.5495962683863937
1789063898861972500,6.004972412109375,0.28145430414676664,-0.0649023880213499,-0.5775447441503405
1789063898872010800,6.0150107421875,1.0467676452696322,-0.2021452051103115,-0.9294809900164603
1789063898882048500,6.025048583984375,0.4555541489899158,-0.3572685468047857,-0.7712960687942803
1789063898892085800,6.035085693359375,-0.728689537602663,0.037509938704967494,-0.7625583433263003
1789063898902123800,6.045123779296875,-0.88304306396842,0.14930442628264426,-0.26649708310943093
1789063898912160500,6.055160400390625,-0.6929214741289615,-0.22304770788550377,-0.28305236872686074
1789063898922198800,6.06519873046875,-0.028465631505846977,-0.026598668590188026,-0.7181661708269268
1789063898932235800,6.07523583984375,0.3205518043041229,-0.3282563873320818,-1.0742829903133213
1789063898942273500,6.0852734375,-0.21022446666955946,-0.1884288144469261,-1.0499707521598785
1789063898952310500,6.095310546875,-1.2212719792604445,0.2860141594082117,-1.0401477887384594
1789063898962348800,6.105348876953125,0.36531916679143905,-0.37421558995246884,-0.7140503330059349
1789063898972385500,6.115385498046875,1.7438263653337955,-1.0637298859864472,-0.1032936213391833
1789063898982423800,6.125423828125,-0.4461842630982399,-0.23244974248111247,0.35154359328672286
1789063898992460800,6.135460693359375,-1.2080828273415565,0.13782324732542037,0.5717242213033139
1789063899002498600,6.14549853515625,0.4533107539772987,-0.67153264914155,0.2048166162766516
1789063899012535600,6.15553564453125,0.46352293591201305,-0.1768003359735012,-0.05276075412770733
1789063899022573800,6.16557373046875,0.7989490687429904,-0.514318472647667,0.18354034828562288
1789063899032611600,6.175611572265625,0.11668109057545661,-0.027774726632237432,0.35697033104319126
1789063899042648800,6.18564892578125,0.1815840631186962,0.2786263872444629,0.10589742889571935
1789063899052686600,6.1956865234375,0.1219885493338108,0.48200844067335125,0.09554558276198803
1789063899062723600,6.2057236328125,0.6758849991321564,0.7045552132993936,-0.33520540275238453
1789063899072761900,6.215761962890625,0.629312633049488,0.9293214155405759,0.06375615886198356
1789063899082798600,6.225798583984375,-0.08008592862784862,1.2089596101760864,0.3186001222470775
1789063899092836600,6.235836669921875,-0.9444920966655015,1.572432856839895,0.6351920464769005
1789063899102873600,6.24587353515625,0.5437023880422115,0.7992839997857809,0.9790021229021251
1789063899112911600,6.25591162109375,1.0343459705919027,0.25230712011754514,0.9577340016849338
1789063899122948600,6.265948486328125,-0.2588806532889604,0.4997311443686485,0.9440713139701634
1789063899132987000,6.27598681640625,-2.2950585643589494,0.6229688169807195,0.8193492480192333
1789063899143023600,6.286023681640625,-1.6918080088049172,0.1929027449905872,0.4690259172424674
1789063899153061600,6.2960615234375,-0.5548328538656234,-0.5895224744528532,0.8516712626922875
1789063899163098600,6.3060986328125,-0.9596540099620818,-0.707540366590023,1.56095883827582
1789063899173136600,6.31613671875,-1.4644599733769892,-0.390487510317564,1.7595239929422735
1789063899183174700,6.326174560546875,-1.7582751619249581,-0.16862813543379307,1.8815061125352979
1789063899193212000,6.3362119140625,0.20807225707173346,-0.618989976477623,1.4655711494892836
1789063899203249700,6.346249755859375,0.34659225448966025,-0.2561673026770353,0.8440521659906953
1789063899213286700,6.35628662109375,0.12587386633455752,0.2946627452880144,0.4524721111960709
1789063899223324700,6.36632470703125,-0.398285032325983,0.5320633881747723,0.6348318348623812
1789063899233361700,6.376361572265625,0.08441139061152934,0.6900479645192623,0.7229429567746818
1789063899243399700,6.386399658203125,0.9755424839675426,0.42721418969035146,0.8739418389502912
1789063899253436700,6.396436767578125,0.6210498316168784,0.5329039306521416,0.6600672522753477
1789063899263474700,6.406474609375,0.04896715226471424,0.734685563147068,0.21781784440800547
1789063899273511700,6.41651171875,-1.1005085878074168,0.8873626807332038,0.28756765419421715
1789063899283549700,6.4265498046875,0.21573241643607616,0.17320260374248025,0.3314830212283879
1789063899293586700,6.436586669921875,0.222732066065073,-0.2099228533744812,0.5435747430745512
1789063899303624700,6.446624755859375,-1.0123580106675625,0.09368424586951732,0.3963633435484022
1789063899313661700,6.45666162109375,-1.7028034500718117,0.3386006712138653,0.09264469195501879
1789063899323699700,6.46669970703125,0.024794834038615224,-0.3781663734048605,-0.05127460722317919
1789063899333736700,6.47673681640625,-0.4502414295345545,-0.1495692146986723,-0.14870477988906203
1789063899343774500,6.4867744140625,-0.9368255075603723,0.5114671748697758,-0.2860742738313041
1789063899353812700,6.496812744140625,-0.9779460379779338,0.4342454035013914,-0.13476448080930858
1789063899363849700,6.506849609375,0.7956997115582227,0.32068039911985396,-0.029654549029469488
1789063899373887700,6.5168876953125,1.4069459420412778,0.20315525893568992,0.05655157951172441
1789063899383924700,6.5269248046875,0.7364344526410103,0.7560387322992086,0.14674201018242164
1789063899393962500,6.53696240234375,1.0965087045162916,0.8285410739302634,0.1649294635789469
1789063899403999500,6.54699951171875,0.6532850447893143,0.783569128781557,0.07506426454093307
1789063899414037800,6.557037841796875,0.3573872047483921,1.0646177747368812,-0.03530926858922467
1789063899424074800,6.56707470703125,0.22051322097182272,0.9784346982777118,-0.08924779779203236
1789063899434112800,6.57711279296875,0.8308797460108995,0.45848786435425276,0.16693510431293399
1789063899444149800,6.587149658203125,-0.07728314616680144,0.3266138808220625,0.3913417890593409
1789063899454187500,6.5971875,-1.3676374294817446,0.5740601169049739,0.7832521717868745
1789063899464224500,6.607224609375,-0.6589800415605306,-0.3094938191950321,1.0067436779171228
1789063899474262800,6.6172626953125,-1.3046096031606196,-0.5471563278883695,1.0780685732666402
1789063899484299800,6.6272998046875,-1.6001146444916725,-0.5954957036435604,0.8311001107633114
1789063899494337500,6.637337646484375,-1.5171347479879855,-0.809179370856285,0.7870994948647916
1789063899504375800,6.647375732421875,-1.490520297306776,-0.9518015428960322,0.7753592265799641
1789063899514412500,6.65741259765625,-1.0624877769708634,-0.4447136060237884,0.5739820832327008
1789063899524450800,6.667450927734375,0.5303618449538946,-0.7659498854607343,0.43008028317857533
1789063899534487800,6.67748779296875,0.5013660520941019,-0.34030396800041196,0.3973313848629594
1789063899544525600,6.687525634765625,0.00824877290725708,0.609560469353199,0.4864998338084668
1789063899554562600,6.6975625,0.6176461606532335,0.38047348130345343,0.5400900427639485
1789063899564600800,6.707600830078125,0.6265718099087476,0.6814578308284283,0.19932806533034889
1789063899574637800,6.717637939453125,0.8720493762671947,0.7557458868324756,-0.08984316986929625
1789063899584676000,6.727676025390625,1.3942185624152421,0.2829033339112997,-0.3129372376471758
1789063899594713000,6.737713134765625,2.3213380839973685,-0.17402268795371054,-0.2595934412008151
1789063899604750800,6.747750732421875,1.9843746585965156,-0.5311503649830818,-0.2650271201547235
1789063899614787800,6.757787841796875,0.2593704826325178,-0.1566740782678127,-0.22399010330215094
1789063899624825900,6.767825927734375,-1.0804290918529034,-0.1882674864053726,-0.5332885825881735
1789063899634862800,6.77786279296875,-0.33244156406223774,-0.3218669785559177,-0.8804378499060869
1789063899644901000,6.787901123046875,-0.2563017427116632,-0.7474047594666481,-0.7987760502636432
1789063899654937900,6.797937744140625,-0.8573609257012605,-0.26246611056029795,-0.6725703216262161
1789063899664976000,6.807975830078125,-0.8519728029221296,-0.2882791817307472,-0.4993018130406737
1789063899675014100,6.81801416015625,0.36462007861137385,-0.40396366248428817,-0.4445027032194659
1789063899685051000,6.82805078125,0.3734071961790323,-0.21778934896588326,-0.43332843478694555
1789063899695089000,6.8380888671875,1.2847165696889162,0.01542611719071865,-0.9277113499954343
1789063899705126000,6.8481259765625,1.1172060401082038,0.2918997103154659,-1.1351933860890566
1789063899715164000,6.858163818359375,-0.1490115808159113,0.9732879830390214,-1.0292692518495024
1789063899725201000,6.868200927734375,-0.023279753300547597,1.090136831396818,-0.9899873350359499
1789063899735239000,6.878239013671875,0.4126180935829878,0.7694745524555444,-0.8965378477703779
1789063899745276000,6.88827587890625,0.224238963496685,0.8031026812911033,-0.797774033614248
1789063899755314000,6.89831396484375,1.0334025522619485,0.19629180290699003,-0.5324423775549978
1789063899765351000,6.908350830078125,0.4240542643547058,-0.29442133774757384,-0.24121647484786807
1789063899775389000,6.918388916015625,-1.3747101443469523,0.08061784354746342,-0.06199932352360338
1789063899785426000,6.928426025390625,-1.4206640862703324,-0.37219255969226356,-0.16600878324825316
1789063899795464000,6.9384638671875,-0.6572510258108377,-1.0318307729005813,-0.5566237193377688
1789063899805501000,6.9485009765625,-0.34539982983469963,-0.9630658642321824,-1.0685934734348208
1789063899815539000,6.9585390625,-0.7938426855146884,-0.8969248743265866,-0.9821947814635932
1789063899825576000,6.968575927734375,-1.9024322884470224,-0.25674247221648694,-0.8059343245204538
1789063899835614000,6.978614013671875,-0.7804185557961464,-0.22887656016945837,-0.6793088361009955
1789063899845652000,6.98865185546875,0.19660978281497954,-0.29296938537359235,-0.35929570525083687
1789063899855688700,6.998688720703125,0.14912205545306204,0.09909458048045634,-0.06899683599444106
1789063899865727000,7.00872705078125,0.14468962596356869,0.10376549490094185,-0.08179227588800712
1789063899875764000,7.018763916015625,1.272180328720808,0.36361411643922326,-0.2462321293191053
1789063899885802000,7.028802001953125,0.9502566515415907,0.478215478131175,-0.5866466998208314
1789063899895839000,7.0388388671875,1.4446066873937844,0.6506681402891874,-0.4978232649207115
1789063899905877000,7.048876953125,0.21281799029409884,0.49311143396794793,-0.05284399369806051
1789063899915913700,7.058913818359375,0.1614589744567871,0.9302619112610816,-0.0276383047030773
1789063899925952000,7.068951904296875,0.9176713097572327,0.3090443218618631,-0.18023147946596144
1789063899935989000,7.078989013671875,0.5294786323785782,0.4290338063329458,-0.33747857184875757
1789063899946027000,7.089027099609375,-0.13926234021782874,0.5354641365289687,-0.39171380070950834
1789063899956064000,7.09906396484375,-0.6957622505128384,0.4779518587589264,-0.24218254340104758
1789063899966101800,7.109101806640625,-0.7708674681186676,0.19919336956739425,-0.03596095569729805
1789063899976138800,7.119138671875,-0.10964636963307857,-0.11434066492915153,0.03180464430202264
1789063899986177000,7.129177001953125,-0.06188859315812587,-0.3557353458881378,0.2873573541780934
1789063899996214000,7.139214111328125,-1.056352635216713,-0.248155845656991,0.2415156769901514
1789063900006251800,7.149251708984375,-1.1239525917589663,0.20434709906876086,-0.19156499358080326
1789063900016290000,7.1592900390625,-0.26457857266962526,-0.6134738434046506,-0.11960804740544408
1789063900026326800,7.169326904296875,-1.0203086774110794,-0.14262567917108535,0.14981405630521474
1789063900036365000,7.179364990234375,-0.40702889527380465,-0.22598083872795105,0.5387581731056794
1789063900046402000,7.189402099609375,-0.08010521785020827,-0.5245359152793884,0.866658915400505
1789063900056439800,7.199439697265625,0.062414078336954115,-0.2505120533943176,0.8245265045266598
1789063900066476800,7.209476806640625,-0.1979921770840883,-0.048557402420043944,0.5181251349216327
1789063900076515000,7.21951513671875,0.2743511941432953,-0.12686053928434848,0.5199375911710784
1789063900086551800,7.2295517578125,-0.4190881663799286,0.3275076147913933,0.49398839946556833
1789063900096590000,7.239590087890625,0.3675549630194902,0.3384609704822302,0.4149373303107917
1789063900106627000,7.249626953125,0.8302677515923976,-0.10340309132933616,0.7809596769355237
1789063900116664800,7.259664794921875,-0.15066168611049652,0.5903180087447166,0.5085207461543381
1789063900126701800,7.269701904296875,-0.3365940075665712,0.6992518461942673,0.5356242224615066
1789063900136740000,7.279739990234375,0.3879951089799404,0.01686053390800953,0.6835515882372856
1789063900146776800,7.28977685546875,0.17112170581519603,0.20373861178159713,0.9151919140316546
1789063900156814800,7.29981494140625,0.5652233149766922,-0.13415712603330612,1.055459558834508
1789063900166852000,7.30985205078125,-0.7307318570852279,-0.14521861827373503,1.182262011256069
1789063900176889900,7.319889892578125,-1.2750345491081476,0.24290216291248798,1.0200086715511978
1789063900186926800,7.3299267578125,0.2676139948427677,-0.49303953777551646,0.9879277721576392
1789063900196964900,7.33996484375,0.6247416718721389,-0.4526110812753439,1.0542582932859659
1789063900207003000,7.3500029296875,-0.052771220722794526,0.055741760966181754,1.0230844987999648
1789063900217040000,7.360039794921875,-0.5696960764765739,0.34914076992869375,1.1708024596087634
1789063900227078000,7.370077880859375,0.09434241751730442,0.4266548022419214,1.1036511966820806
1789063900237115000,7.380114990234375,1.54929806496799,0.06593816080987452,1.028247799847275
1789063900247153200,7.390153076171875,0.9564531680941581,0.47730187041759486,0.7958184425670654
1789063900257190000,7.40018994140625,1.12064478238523,0.7326677935838699,0.42108423556797203
1789063900267228000,7.410227783203125,1.5331278514117002,0.4108095828562975,0.17664193054139612
1789063900277265000,7.420264892578125,0.7231587914824485,0.9698001409232616,-0.2285102110750973
1789063900287303000,7.430302978515625,0.9435819960832595,0.7259592358559369,-0.1082747524863109
1789063900297340000,7.44033984375,-0.08803717989325523,0.5243395159244537,0.2851884857064113
1789063900307378000,7.4503779296875,0.2801829690366983,0.3188005767226219,0.6122542019492014
1789063900317415000,7.460414794921875,-0.1656944200694561,-0.5241372713506222,1.0115221443653106
1789063900327453000,7.470452880859375,-1.6997089911878107,-0.23933599486351012,0.6655747636504471
1789063900337490000,7.480489990234375,-1.9386948574393987,-0.7380956638514995,0.3180646636635065
1789063900347528000,7.49052783203125,-1.0464531724929809,-1.3924445384800432,0.24046642366554585
1789063900357565000,7.50056494140625,-0.992280268278718,-1.6117787788003681,0.40980705475024876
1789063900367603000,7.51060302734375,-0.7350199096679687,-1.6408698487281799,0.6462254086013883
1789063900377640000,7.520639892578125,-0.5559826084226369,-1.475719618538022,0.4241383624415844
1789063900387678000,7.530677978515625,-0.5145242243528366,-0.7965139505505562,0.39399719893895085
1789063900397715700,7.5407158203125,-0.3096627460211515,-0.5366097994327544,0.43116442515347153
1789063900407753000,7.5507529296875,0.5836264021515846,0.0841740747243166,0.07456718347268179
1789063900417791000,7.560791015625,0.8271610177487134,0.3880038768082857,-0.10970451129479333
1789063900427827700,7.57082763671875,0.41277240736186505,0.9644494275450706,-0.4214608868606388
1789063900437866000,7.580865966796875,1.0268599987506866,1.0527338601976632,-0.5527198072344064
1789063900447903000,7.590903076171875,1.8168173672646284,0.4124988511174917,-0.6962434581585228
1789063900457940700,7.600940673828125,1.7459008335202932,0.5508545978844166,-0.6924814022112638
1789063900467978000,7.61097802734375,1.155416236037016,0.2928840451776981,-0.7649550292044878
1789063900478016000,7.62101611328125,0.18969956503510474,0.2701449746251106,-0.9456846674509346
1789063900488052700,7.631052734375,-0.37340485809147356,0.31194355043470856,-1.1513750708874315
1789063900498091000,7.641091064453125,-0.5377618920773267,-0.043267479318380354,-1.145405860284716
1789063900508128000,7.6511279296875,-1.0176806669950484,0.05813128645122051,-1.213269436199218
1789063900518165800,7.661165771484375,-0.638604193007946,-0.10687105970084666,-1.2338377385839818
1789063900528203000,7.671203125,-0.603810527524352,0.019617723661661146,-0.9161158970087766
1789063900538241000,7.681240966796875,0.11221242072880268,-0.2645195359587669,-0.6898406784441322
1789063900548277800,7.69127783203125,-0.656161477008462,0.31885552178025245,-0.7745609158091247
1789063900558316000,7.70131591796875,0.13188508944809435,0.3629945232361555,-0.7561593630041926
1789063900568353000,7.71135302734375,0.9707195938557386,-0.1521352657943964,-0.7119370671790093
1789063900578390500,7.721390625,0.04090425731837749,0.6178548349678517,-0.8516980045687407
1789063900588428500,7.731428466796875,0.04906301385462284,0.32009587723016736,-0.8734685223501175
1789063900598465500,7.741465576171875,-0.21191139684319496,0.41019875748157497,-0.8671928030814975
1789063900608503600,7.751503662109375,0.5221037196964026,0.11641922476887702,-0.7763199613709002
1789063900618540500,7.76154052734375,0.1422621065557003,-0.3742401398718357,0.002066102216951549
1789063900628578300,7.771578369140625,-0.387055782303214,0.008975333616137504,0.40677700287196783
1789063900638615600,7.781615478515625,-0.03839198223650455,-0.4986977096676826,0.6910157866381108
1789063900648653600,7.791653564453125,-0.03517944993078709,-0.5024310509771108,0.6851172301188111
1789063900658690600,7.801690673828125,-1.3435364229261875,0.0622013123691082,-0.6035310164632275
1789063900668728600,7.811728515625,-0.6266448751449585,-0.4387228411763906,-0.769632811757177
1789063900678765600,7.821765625,-0.5762976666986942,-0.41191257566213607,-0.8741038245789706
1789063900688803300,7.83180322265625,-0.7441326059281825,0.17717676807045935,-0.8167595968522131
1789063900698840600,7.841840576171875,0.8812257854133844,-0.5800958899378776,-0.35177557541169224
1789063900708878600,7.851878662109375,-0.12992869468331336,0.22229951986670493,-0.18020208897469564
1789063900718915600,7.86191552734375,-0.790512664309144,0.9917255570054053,0.05639691410639788
1789063900728953600,7.87195361328125,0.5524976889163256,0.37930093039274215,-0.29719662941349667
1789063900738990600,7.881990478515625,0.930253727954626,0.8341793720781803,-0.541849124858342
1789063900749028400,7.8920283203125,1.310155546849966,0.42260874172151086,-0.22439305807985363
1789063900759065600,7.902065673828125,1.2464099276483058,0.36006489952504633,-0.2988157185153104
1789063900769103600,7.912103515625,-0.4853834700644016,1.1820242569774388,-0.5492397830989212
1789063900779140400,7.922140380859375,-0.48330023404955863,1.1796727254152297,-0.5546258600514382
1789063900789178600,7.9321787109375,0.5455857175707817,0.5303361259907484,-1.237643122216314
1789063900799216400,7.94221630859375,0.4755313536137342,0.27209026347398757,-0.964361530065909
1789063900809253400,7.95225341796875,-0.12356851200163364,-0.03283259454369545,-0.1555998731650412
1789063900819291600,7.962291748046875,-0.8163134605199098,0.13270809626877308,0.08074113200041465
1789063900829328600,7.97232861328125,-1.3539485113471745,-0.012101356682181357,0.5309539656281471
1789063900839366400,7.982366455078125,-0.4332084616690874,-0.6948106488764285,0.15152196533479728
1789063900849403600,7.992403564453125,0.04770926115810871,-0.7565040117233991,-0.6536435028381645
1789063900859441400,8.00244140625,-0.4209808482587337,-0.5301274516761303,-1.2200835731934756
1789063900869478400,8.012478515625,-0.2763350614368915,-0.6859411137223244,-1.1907439353320748
1789063900879516700,8.0225166015625,-1.2668360450834035,-0.18912030384242534,-0.28365093740820885
1789063900889553700,8.0325537109375,-1.0666390514314175,-0.19837854605317115,0.6689695206552744
1789063900899591400,8.04259130859375,0.4459878637433052,-0.38561785845458507,0.9913722135230898
1789063900909628400,8.05262841796875,0.7375099729180336,-0.2449783846646547,1.0963454037133604
1789063900919666400,8.06266650390625,-0.210602067810297,0.4249298781454563,0.5222743270229548
1789063900929703400,8.072703369140624,-0.022390695506334303,0.7285895843595266,0.07221355128493159
1789063900939741700,8.08274169921875,0.7834533934473991,0.4256178604096174,0.0843770316842012
1789063900949778400,8.0927783203125,1.045468253108859,0.34556466500759125,0.3310102160848677
1789063900959816400,8.10281640625,0.3244336141735315,0.5820271502614021,0.6613939708344638
1789063900969853400,8.112853515625,-0.12957622798383236,0.5612456435173749,1.0011065488129853
1789063900979891500,8.122891357421874,0.3140197721868753,0.1663730499833822,1.3883483552075921
1789063900989929500,8.132929443359375,0.8984802870750427,-0.28958032745718953,1.394875272758305
1789063900999966700,8.142966796875,0.07278583474755286,0.06166238318681717,1.4053531198918818
1789063901010004500,8.15300439453125,0.5960591827452183,-0.4585299499303102,1.0515683966148643
1789063901020041500,8.16304150390625,-0.35071371833384035,-0.18766718242466449,1.1103830622203648
1789063901030079500,8.17307958984375,-0.3499351351767778,-0.1886690529435873,1.116771155822277
1789063901040116500,8.183116455078125,-0.30040333476662634,-0.1135790329068899,1.4009388105809688
1789063901050154500,8.193154541015625,-0.2884878560453653,0.047263270956277845,1.3158258475713431
1789063901060191500,8.20319140625,0.07429974644184112,0.33160862036943434,0.8781002007387578
1789063901070229500,8.2132294921875,1.467360370993614,-0.19549451504945753,0.8681658858973532
1789063901080266500,8.2232666015625,0.6106313134551048,-0.11057985109090804,0.9193225840955972
1789063901090304500,8.233304443359375,-0.7947346659183502,0.6284679989188909,1.0953572694588452
1789063901100341500,8.243341552734375,0.9243290140807628,-0.2862216646790504,1.072764913900569
1789063901110379500,8.253379638671875,1.552815133178234,-0.8349234684437513,0.7138675237849355
1789063901120416500,8.26341650390625,-0.21028291885852812,-0.08284136481583118,0.1850152248774655
1789063901130454500,8.27345458984375,-0.10851824238598345,-0.4071124819040298,-0.24408222127621992
1789063901140491500,8.283491455078124,-1.144873214712739,-0.23737550844550132,-0.11960141673525794
1789063901150529500,8.293529541015625,-1.1449801822185515,-0.23717677100300788,-0.10843473795414901
1789063901160566500,8.30356640625,0.513038954231143,-1.2802321177512406,0.7720473986182361
1789063901170604500,8.3136044921875,-1.3620838870078325,-0.1757932047575712,0.5414133272569627
1789063901180641500,8.3236416015625,-1.5345494086474178,-0.2271019517123699,0.07048950397130102
1789063901190679600,8.333679443359374,-0.983654478752613,-0.44316871466934676,-0.3578901858344674
1789063901200716500,8.343716552734374,-0.9871545958280563,-0.4390121795117855,-0.3475201464569196
1789063901210754300,8.35375439453125,0.537444496691227,-0.49550855823755263,-0.20265067041441798
1789063901220792600,8.36379248046875,0.8147206383705139,-0.49112464406490325,-0.057882910313876344
1789063901230829600,8.37382958984375,-0.3294838833004236,0.2269540676742792,-0.06870072085838765
1789063901240867600,8.38386767578125,-0.5179448464512825,0.47669396765232086,0.029366425403626634
1789063901250904600,8.393904541015624,0.339492651617527,0.47178398377895353,-0.34757790452614423
1789063901260942300,8.4039423828125,1.1743114906430243,0.17493337305784223,-0.42590719874501226
1789063901270979300,8.413979248046875,0.4927729957938194,0.3950011883497238,-0.6648045099303126
1789063901281017600,8.424017578125,0.4948211604952812,0.39263971991539,-0.6651032006159424
1789063901291054600,8.4340546875,-0.4148831159055233,0.23434593149125574,-0.35390360041633245
1789063901301092600,8.444092529296874,1.0516314519137144,-0.21198972277641295,-0.4744632859908044
1789063901311129600,8.454129638671875,1.2715847009152172,-0.4124515048444271,-0.05075195332225412
1789063901321167400,8.46416748046875,-0.39224809024929996,-0.09808628022074699,0.12225255229854956
1789063901331204400,8.474204345703125,-0.33726796130537984,0.490364181086421,-0.26836673117252063
1789063901341242600,8.48424267578125,-0.30611119101941586,-0.009372808501124381,-0.29955742199439556
1789063901351279600,8.494279541015626,-0.654853901541233,0.6385007326334714,-0.5767705449074506
1789063901361317400,8.5043173828125,1.0047685784518718,0.1564174731582403,-0.49335784647706893
1789063901371354600,8.514354736328125,0.9615607203662395,-0.12720423815548418,-0.23641413433374836
1789063901381392400,8.524392333984375,-0.4518254838556051,0.6717120973616838,-0.1395053369271569
1789063901391429400,8.534429443359375,-0.9894365692853927,0.7919996879965067,-0.31839915631487964
1789063901401467600,8.544467529296876,0.14680442616045475,0.15886895796358586,-0.35890995733626185
1789063901411504400,8.55450439453125,1.125529631817341,-0.08112403950393199,-0.4740223372902721
1789063901421542400,8.56454248046875,-0.23004969560205935,0.3576993394374847,-0.38358657182268796
1789063901431580400,8.574580322265625,-0.6540630434244871,0.0737169781178236,-0.14853324098074808
1789063901441617400,8.584617431640625,-0.9253723856538534,0.22293957133591175,-0.4502290084443986
1789063901451655700,8.59465576171875,-0.6213356628209352,0.06740706431865692,-0.17275770951919256
1789063901461692700,8.604692626953126,0.3303939838826656,-0.6717728876382112,0.22901969496719538
1789063901471730400,8.61473046875,-0.39874680461883544,-0.3635392976373434,0.9091821522228419
1789063901481767400,8.624767333984375,-1.322000298422575,-0.15574001228809356,1.640812711713463
1789063901491805400,8.634805419921875,-0.16926994046866892,-0.49702480801939963,1.7180068644225597
1789063901501842400,8.644842529296875,0.7148667639553546,-0.7028378879874945,1.4746718630507587
1789063901511880400,8.65488037109375,-0.4262497285723686,-0.4047346468567848,1.429545604123175
1789063901521917700,8.664917724609374,-1.3018529979288578,0.3145785751134157,1.2281551629029213
1789063901531955500,8.67495556640625,-1.3104945695459842,0.3246399504005909,1.232389731732756
1789063901541992400,8.684992431640625,1.940157915729284,-0.6349713894635438,1.470069191560894
1789063901552030500,8.695030517578125,0.8448539108276367,0.12229600784778594,1.6474059724986552
1789063901562067500,8.7050673828125,-1.0141051465958357,1.101778169351816,1.7700830886185168
1789063901572105500,8.71510546875,0.03247837427854538,0.8242991985768079,1.3696794567033648
1789063901582142700,8.725142822265624,1.7430080346882342,0.43356326645612714,0.869839737393707
1789063901592181000,8.735180908203125,1.2359569226950406,0.5114753581762314,0.7927021371774375
1789063901602218000,8.745218017578125,0.5181850849479437,0.7477870367825031,0.8784936570357531
1789063901612255700,8.755255859375,0.25680150892734527,0.44112697970867154,0.9504892912536859
1789063901622293000,8.76529296875,-0.08884849627614021,0.4995388366669416,0.40290059983003884
1789063901632331000,8.7753310546875,-0.24956863506436347,0.39048867936134335,0.13697868626005946
1789063901642367700,8.78536767578125,-0.041271921586990355,-0.09642857614159583,-0.1139296547091566
1789063901652406000,8.795406005859375,-0.8016179956912994,0.10939151808917522,-0.3241804796626791
1789063901662443800,8.80544384765625,-0.8151216203868389,0.01364449447095394,-0.13333057554867117
1789063901672480800,8.815480712890626,0.09892506913244724,-0.6437853950381278,0.17468089613411575
1789063901682519000,8.82551904296875,-0.1600596290528774,-0.4844903206169605,0.07244491235539317
1789063901692556000,8.83555615234375,-0.8402192367643118,-0.07997896112203598,-0.4275518972121179
1789063901702593800,8.84559375,-1.037407696250081,0.268708219820261,-1.0977032480631024
1789063901712631000,8.855631103515625,0.4551537514954805,-0.15716858378648757,-1.2024712710700929
1789063901722668800,8.865668701171876,0.7615969509482383,-0.2260305230885744,-0.4994272660512477
1789063901732705800,8.875705810546876,0.3414221583753824,0.01094224977493286,0.2159806555761024
1789063901742744000,8.885744140625,0.30864743149876595,0.04495967018902301,0.6169273448593914
1789063901752780800,8.89578076171875,0.6917354792147874,-0.28347967249453065,0.575419386026822
1789063901762818800,8.90581884765625,0.5367828179121017,-0.28685762449502944,-0.22289434395469723
1789063901772856000,8.91585595703125,-0.4980097274035215,0.1639291639626026,-0.8149518167778849
1789063901782893800,8.925893798828126,0.20637948167920112,-0.29581892958581446,-0.8145795493993908
1789063901792930800,8.935930908203124,0.7111240702956915,-0.8384002046436071,-0.623517609969899
1789063901802969000,8.945968994140625,-0.5947305644899606,-0.1895230394244194,-0.24582776803560555
1789063901813005800,8.956005859375,-0.5607201583385467,-0.31847733611762524,-0.21723975225910544
1789063901823043800,8.9660439453125,-0.23462533295452592,-0.4752063594430685,-0.47386290894486005
1789063901833080800,8.976080810546875,0.09539046526551247,-0.22943244048655032,-0.656213499456644
1789063901843118800,8.986118896484374,0.5087117386817932,-0.562340453016758,-0.6904615137562156
1789063901853155800,8.99615576171875,0.044433015966415405,-0.25471944195628166,-0.8558627960979938
1789063901863194000,9.006194091796875,-0.4559159680396318,0.135904846483469,-0.8058273570146411
1789063901873230800,9.01623095703125,-0.01373860249519348,-0.06804594674408436,-0.7813133126787841
1789063901883268900,9.026268798828125,0.1855266632646322,0.2595703891187906,-0.8267056751966476
1789063901893305900,9.036305908203126,0.5575222390800714,0.3233329594552517,-0.6557319264847785
1789063901903343900,9.04634375,0.616065613463521,0.5256809936612844,-0.7754758386969566
1789063901913380900,9.056380859375,0.8294611113846302,0.8225058854192495,-0.8582612355418503
1789063901923419000,9.0664189453125,1.2311048064887522,0.41691023781895636,-0.45592692782506344
1789063901933457000,9.076456787109375,1.3039035007178783,0.41458500974178314,-0.5139045580845326
1789063901943494000,9.086493896484376,-0.4801005612254142,0.9887538477182388,-0.5415276743516325
1789063901953532000,9.096531982421874,-0.15830781694948673,0.688826898291707,-0.5017566588468849
1789063901963569000,9.10656884765625,1.041931895676255,-0.11559271081686019,-0.37814975106362253
1789063901973607000,9.11660693359375,1.0555571009248494,-0.1326630880832672,0.0669201941171661
1789063901983643600,9.1266435546875,-0.17950784136652945,-0.09266367065012454,0.44317916299812493
1789063901993682000,9.136681884765625,-0.42798225145339963,-0.3028530660063028,1.0153922637969255
1789063902003719000,9.146718994140626,-1.884829411739111,-0.17974807986319064,1.217802257323265
1789063902013757000,9.1567568359375,-1.6670844864368437,-0.19441782572865485,0.989873353267461
1789063902023794000,9.1667939453125,-1.0686264258563518,-0.7134212413221597,0.5893323952408507
1789063902033832000,9.17683203125,-1.4283704228639602,-0.612827946716547,0.5145647024936973
1789063902043868700,9.18686865234375,-1.1098083310723303,-0.6806260561794042,0.8094251623108982
1789063902053907000,9.196906982421876,-0.7589525739192963,-0.8044903362572192,1.2628257865287362
1789063902063944000,9.20694384765625,0.1321446171671152,-0.9769371531963348,1.192025280379504
1789063902073982000,9.21698193359375,0.0309393281430006,-0.33200843334197994,0.7875606826357543
1789063902084019000,9.22701904296875,-0.07923077310323715,-0.10220657502114772,0.8559344730947166
1789063902094057000,9.237056884765625,-0.6657505586087703,0.7054074462145566,0.9007655484680086
1789063902104093700,9.24709375,0.9989882414847612,0.5357558129519224,0.8845695428833364
1789063902114132000,9.257132080078126,0.7254507018119096,0.6007680910885334,0.8538717684112489
1789063902124169000,9.2671689453125,0.3657563891649246,1.260816638663411,0.00523808331657201
1789063902134206700,9.277206787109375,0.9622761751592158,0.909475728341937,-0.2491362349964678
1789063902144244000,9.287243896484375,1.1371680471628904,0.44530748026371,-0.2561420951705426
1789063902154281700,9.29728173828125,1.3699994824379682,0.44269232932925223,-0.046001014201808715
1789063902164318700,9.307318603515625,-0.002761281406879425,0.2566577165424824,0.7414147252716123
1789063902174357000,9.31735693359375,-0.9824299053937197,0.4051397205263376,0.7324230250425636
1789063902184394000,9.32739404296875,0.10886661743223666,-0.13601239851117133,0.4321673551183194
1789063902194431700,9.337431640625,-0.8231623035013675,-0.009771452429890632,0.23118898356398565
1789063902204469000,9.347468994140625,-0.822870627078414,-0.010018705189228058,0.23388099912693722
1789063902214506800,9.3575068359375,-0.47600890799760814,-0.2637456289768219,-0.15126401765150949
1789063902224545000,9.367544921875,-1.682436953869462,0.44178047518134117,-0.4109592935252934
1789063902234582000,9.37758203125,-0.5971311958909035,0.09630699558854103,-0.5384961977012455
1789063902244619800,9.387619873046875,0.20034429316818714,0.020923545563220975,-1.0156858399160207
1789063902254656800,9.39765673828125,0.9238058669894933,0.29726562126278877,-0.9535747631136328
1789063902264695000,9.407695068359375,0.44149990467429157,0.24171324538886546,-0.7014698145046829
1789063902274731800,9.417731689453126,-0.2915770542323589,0.8376262976616621,-0.5006467248436063
1789063902284769800,9.427769775390624,0.028195582392811773,0.4732388587623834,-0.40055217354036865
1789063902294807000,9.43780712890625,0.7359954767018556,0.2080050370544195,-0.4736415578117594
1789063902304844800,9.4478447265625,0.7313257313251494,-0.19487550636827944,-0.3583947012905031
1789063902314881800,9.4578818359375,-0.3297182765781879,-0.21307693349123,-0.1951732289395295
1789063902324920000,9.467920166015626,-1.4652689516723154,0.08000701817274093,0.21812915711319072
1789063902334956800,9.477956787109376,-0.17493746471107005,-0.8037304578006267,0.3234890998650342
1789063902344994800,9.487994873046874,0.2087199073255062,-0.9507067333966494,0.07456435219477861
1789063902355032000,9.498031982421875,-0.9657382983118296,-0.404741661119461,0.15009944911785422
1789063902365069800,9.50806982421875,-1.9261451724678278,0.12136661804318427,0.22801015259847043
1789063902375106800,9.51810693359375,-0.04085457295775413,-0.06565817482471466,0.3332746538855135
1789063902385144800,9.528144775390626,1.5739280638337134,-0.3451812186479568,0.5470206822773441
1789063902395181800,9.538181884765624,0.7404016027063131,0.5445926148802042,0.8465405487403274
1789063902405219800,9.5482197265625,0.24129180510640144,0.9679758481055497,0.8429409168131649
1789063902415257000,9.558257080078125,-0.0018359832555055618,1.1479618283778428,0.19108283608704804
1789063902425294800,9.568294921875,1.2088695938050746,0.9337421545922756,-0.40802535896524783
1789063902435331800,9.578331787109375,1.589068934342265,0.483741548076272,-0.5847912081472575
1789063902445369900,9.588369873046876,1.855244420814514,0.09115443513095378,-0.4495405877888202
1789063902455406800,9.59840673828125,0.6571592558741569,-0.04012918129265308,-0.5578691893542185
1789063902465444900,9.60844482421875,-0.5778548330128193,0.18751286864578723,-1.0417283359281717
1789063902475482000,9.618482177734375,-1.0941145028561352,-0.07159399461448192,-1.2599002544708549
1789063902485520000,9.628519775390625,-0.25238018535375595,-0.5361620556652545,-1.2202325532101095
1789063902495556900,9.638556884765626,0.3145914345949888,-0.9767401693195104,-0.8101802184619009
1789063902505595000,9.648594970703124,-0.8766682682394981,-0.7456207986593246,-0.5096344795498997
1789063902515633000,9.6586328125,-2.0244418805688618,-0.10758768353760242,-0.26850794800780714
1789063902525670000,9.668669921875,-0.5440449178695679,-0.7542752297580242,-0.49672129502817985
1789063902535708000,9.6787080078125,-0.5486649788856506,-0.7490799992024898,-0.5019880564499646
1789063902545745000,9.688744873046875,0.36861645477116106,-0.1253220776706934,-1.8548085136152803
1789063902555783000,9.698782958984374,0.1602829164147377,0.011914894199371338,-1.7946331541158258
1789063902565820000,9.70881982421875,0.16304185973405838,0.18941198026537895,-0.8257561193868518
1789063902575858000,9.71885791015625,0.1178144785195589,0.05686696560382843,0.32319786183349786
1789063902585895400,9.7288955078125,0.5350134701520204,0.1518202084958553,0.5389673954095691
1789063902595933200,9.73893310546875,0.9989420642554759,-0.20095745663046835,0.22364134466340765
1789063902605970400,9.748970458984376,0.19193010056614876,-0.060661681711673736,-0.5284864064708352
1789063902616008200,9.75900830078125,-1.3428455180525778,0.7948352036833762,-0.9063360420767217
1789063902626045200,9.769045166015625,0.9936077174901962,-0.4866811086595058,-0.5094772066289559
1789063902636083500,9.77908349609375,0.7001870812177657,-0.7128197682976722,-0.10613315561404452
1789063902646120200,9.7891201171875,-1.7323358340263366,0.6058598612695932,0.05136162791950628
1789063902656158200,9.799158203125,-1.6265490624308585,0.05947276418805122,0.031174141545873134
1789063902666195500,9.809195556640624,-0.3334136239647865,0.014099252501130104,-0.31702012304663657
1789063902676233200,9.819233154296874,0.9548398876786232,-0.41782910622954367,-0.20970226942636072
1789063902686270200,9.829270263671875,0.27141630973517894,-0.29306875409483907,0.12575652356520295
1789063902696308500,9.83930859375,-0.75689388782382,0.22455109818577765,0.02714660306284204
1789063902706345200,9.84934521484375,-1.1572107182383538,0.5549819069474935,0.3873369373321533
1789063902716383200,9.85938330078125,0.1676198351740837,0.001104161849617958,0.48992473022323096
1789063902726420500,9.86942041015625,1.3979969119101763,-0.12349427772164344,0.34118615766242144
1789063902736458200,9.879458251953125,0.5392226122796535,0.33822307007312774,0.15033132164496926
1789063902746495200,9.8894951171875,-0.932355668669939,0.7711030304402112,-0.2571256263151765
1789063902756533500,9.899533447265625,-0.7646890717446804,1.026217609193921,-0.5261780199306085
1789063902766570200,9.9095703125,1.4612532862901686,0.016144494593143464,-0.5049134789099916
1789063902776608300,9.919608154296874,0.9688637368559837,0.07731880200207233,0.08452124419417231
1789063902786645500,9.9296455078125,-0.3043780836164951,0.7054670674473047,0.6222330500520765
1789063902796683300,9.939683349609375,0.2430582302570343,0.269422505569458,0.5417693010877818
1789063902806720300,9.94972021484375,-0.33503684125244615,0.5512433049410581,0.3465994879480451
1789063902816758300,9.95975830078125,1.3972861332923172,0.1938666215866804,0.037855665136408055
1789063902826795300,9.969795166015626,1.8582523704588412,-0.44746787316799164,-0.016841262951958924
1789063902836833300,9.979833251953124,-1.4351654898315667,0.7759802810877561,0.40174839758761227
1789063902846870300,9.989870361328125,-3.338916459661722,1.165399285390973,0.6302222221750766
1789063902856908300,9.999908203125,-1.6611398988187311,0.15979542515873907,0.40599385313764214
1789063902866945300,10.0099453125,-0.2676280233681202,-0.40146073975265023,-0.1935203654322773
1789063902876983300,10.0199833984375,-0.5649409909039735,-0.36152912685871125,-0.1595257231055759
1789063902887021300,10.030021240234374,-0.97280575248003,-0.513234769064188,0.4978148624185472
1789063902897058300,10.040058349609374,-0.6426724653601646,-0.8043330998688936,0.9408687916018068
1789063902907095300,10.05009521484375,-0.5392360562831163,-0.500830630043149,1.1564149647507815
1789063902917133300,10.06013330078125,-0.027560791620612143,-0.5524257927238941,1.1429998951215297
1789063902927171300,10.07017138671875,-0.34386370630860325,-0.0550818357527256,0.9757669403731822
1789063902937208300,10.080208251953126,0.6052239014536142,0.18194295955896375,0.31879560828655956
1789063902947246300,10.090246337890624,0.2678828749120235,0.40565994500815866,0.08754985303403809
1789063902957283300,10.100283447265625,-0.8156208020806313,0.9213286632210016,-0.0900450308506377
1789063902967321300,10.1103212890625,0.9770517194867133,0.45054070474207397,0.08205054323170334
1789063902977358300,10.1203583984375,1.390699156117439,-0.14596914438009262,0.5939204171508551
1789063902987396400,10.130396240234376,0.63805591147542,0.33857845938205716,0.7989856013610959
1789063902997433000,10.14043310546875,0.7056313180983066,0.11616378870308398,0.7568574282709508
1789063903007471400,10.150471435546875,0.6786088711380959,0.04070961152911186,0.46043461450785395
1789063903017508400,10.16050830078125,0.040247254714369775,0.27228081761002537,-0.173992000554502
1789063903027546400,10.17054638671875,-1.1052689340770243,0.5982306815654039,-0.35687596729062493
1789063903037583400,10.180583251953125,-1.2198235340178012,0.6336608913868665,-0.44287236207127567
1789063903047621400,10.190621337890626,-0.0022872341543436047,0.12323767261207103,-0.23879567744173108
1789063903057658000,10.200658203125,0.6768132198929786,-0.024784897166490554,-0.1144293113269843
1789063903067696400,10.2106962890625,0.10767769990861416,0.2706868264168501,-0.2129651619461365
1789063903077733400,10.2207333984375,-0.0008610007435083389,0.5412982495099306,-0.21175865396689622
1789063903087771400,10.230771484375,0.5150228215247392,0.044295068800449366,0.07376571263037622
1789063903097808400,10.240808349609376,-0.5263198760867118,0.4096621663868427,-0.026497491504345088
1789063903107846100,10.25084619140625,-0.5598731861203908,0.6449667137771844,-0.31342582488171755
1789063903117883100,10.260883056640624,0.204576231649518,0.019263503396511075,-0.6633113487631083
1789063903127921400,10.27092138671875,0.8758861779510975,-0.041155017209053034,-1.2935827438421548
1789063903137958400,10.28095849609375,-0.24703473267257212,0.15313012205064297,-1.2229610283259302
1789063903147996200,10.29099609375,-0.24400983189344405,0.14969780951440334,-1.2242934459734707
1789063903158033400,10.301033447265626,-0.5359153874278069,-0.01341711545586586,-0.09310218993155285
1789063903168071200,10.3110712890625,0.6051169339478015,-0.6784405288338661,0.11050255720415152
1789063903178108200,10.321108154296875,-1.08795130405128,-0.12867021905481815,-0.012539373640110716
1789063903188146400,10.331146484375,-0.802133543998003,-0.23316928892731664,-0.42130379660278555
1789063903198183400,10.341183349609375,0.32012101167142387,-0.7442255449086427,-0.6827830880828202
1789063903208221200,10.35122119140625,1.25800275028646,-0.9739771343469619,-0.5231983100000769
1789063903218258400,10.361258544921874,0.8281050206005572,-0.8447288231432437,0.024801282045710832
1789063903228296200,10.371296142578124,-0.7640507738411426,-0.08246610176265239,0.4724529690816998
1789063903238333200,10.381333251953125,-0.09284721052348613,-0.12267185542285441,0.3100418084666133
1789063903248371500,10.391371337890625,1.753102143201232,-0.4362228410542011,-0.3441584880040958
1789063903258408200,10.401408203125,1.3422265093713999,-0.2940501663476229,-0.5271990335414186
1789063903268446200,10.4114462890625,-0.290444835332036,0.47164895922243594,-0.43583493771515786
1789063903278483500,10.4214833984375,-0.2773246569961309,0.47553836787641046,-0.36923666902873664
1789063903288521200,10.431521240234375,0.9128624481707811,-0.02397942600250244,-0.2500011812627315
1789063903298558200,10.44155810546875,0.1936918495416641,0.1835626697152853,-0.02148077758718282
1789063903308596500,10.451596435546875,-0.33326807801425457,0.46673254560828203,-0.024077808343060312
1789063903318633200,10.46163330078125,0.2292594220072031,0.012744915282726288,0.06160447898712009
1789063903328671200,10.471671142578124,-0.2519534843742847,0.009817045137286186,0.24273129985760897
1789063903338708500,10.48170849609375,-0.19247195235788822,-0.1511807415485382,0.47590749344974753
1789063903348746200,10.491746337890625,-0.030847558206319806,-0.3338011619776487,0.4036522949801758
1789063903358783200,10.501783203125,0.03531505900919437,-0.2726169176965952,0.03560580385038629
1789063903368821500,10.511821533203126,-0.21836334946155547,-0.22859014444351194,-0.3537654340546578
1789063903378858200,10.521858154296876,-0.3898077113598585,0.12093874801993369,-0.4997872584700584
1789063903388896300,10.531896240234374,0.4952911160945892,-0.35753158165514465,-0.029878293049056082
1789063903398934300,10.541934326171875,-0.683379154279828,0.16332126119732857,0.11240549561548978
1789063903408971300,10.55197119140625,-0.46834641054570675,0.38000995544493194,0.04545326239224523
1789063903419009300,10.56200927734375,0.26881460280418396,-0.15768004043996334,-0.27191143630836156
1789063903429046300,10.57204638671875,0.2439940498024225,0.2710679346889257,-0.8072429959662258
1789063903439084300,10.582084228515624,0.3185357883065939,0.14061784648001194,-0.8728368003178387
1789063903449121300,10.592121337890624,0.5614642547041178,-0.1683604244083166,-1.015825979039073
1789063903459159300,10.6021591796875,-0.4761667289078235,0.1974567550331354,-1.1048001475214957
1789063903469196300,10.6121962890625,-1.0542390040636063,0.15782324830293654,-1.057776749735698
1789063903479234300,10.622234375,-0.11472001963555813,-0.3515004847973585,-0.7683101117860526
1789063903489271300,10.632271240234376,-0.10494330650866031,-0.4707341824650764,-0.42282329778764394
1789063903499309300,10.642309326171874,-0.3207745071440935,-0.41807402090132234,-0.1849742170136422
1789063903509346300,10.65234619140625,-0.6734773534685373,-0.30703882725834847,-0.4023997376358136
1789063903519384300,10.66238427734375,-1.3069453526318073,0.3881371477991342,-0.6587279664956033
1789063903529421300,10.67242138671875,-1.3147007890641689,0.3971358622908592,-0.6630372810620814
1789063903539459300,10.682459228515626,0.9036258332699537,-0.061624973785877224,-0.5061644288191571
1789063903549496300,10.692496337890624,-0.18393501015901564,0.7814701106756925,-0.4777856718791648
1789063903559534300,10.702534423828125,0.3021317659944296,0.6418091265290975,-0.6259117385648191
1789063903569571300,10.7125712890625,1.6319465375602245,0.3858762171298265,-1.1394218174390494
1789063903579609000,10.722609130859375,-0.08887772237062454,1.1275327883332966,-1.2360317414969204
1789063903589646000,10.73264599609375,0.27557050680518147,0.9556389291018247,-0.7578918128199875
1789063903599684000,10.74268408203125,1.4143424820333719,-0.005244914916157722,-0.23481037066522983
1789063903609720800,10.752720947265624,0.7292880880177021,0.5822247186601162,0.07785256181890145
1789063903619759000,10.762759033203125,1.3364379890978335,-0.018474398845434187,0.008208039038069546
1789063903629796000,10.772796142578125,0.9360510160565376,-0.11467793405950069,-0.21428559689493848
1789063903639834000,10.782834228515625,-0.7691291000187397,0.5190817415267229,-0.42367461738735435
1789063903649871000,10.79287109375,-0.7656827589571475,0.5155184960871935,-0.4327022657126188
1789063903659909000,10.8029091796875,-1.08843587269783,0.12517653172016144,-0.11913197259260341
1789063903669945900,10.81294580078125,-0.7667559411466122,-0.20063129341602323,-0.25092861657226456
1789063903679984000,10.822984130859375,-1.5368091702729463,-0.1000029274970293,-0.3057537924164906
1789063903690021000,10.833021240234375,-1.53174837975204,-0.10414777221679687,-0.14776432070117443
1789063903700059000,10.843058837890625,0.12954057214856146,-1.169334286752343,0.2559220226790756
1789063903710096100,10.85309619140625,-0.30150574305057526,-0.9004583091497421,0.36351949695833025
1789063903720134100,10.863134033203124,0.5795435167521238,-0.5520721569806337,0.005900730210077017
1789063903730171000,10.8731708984375,0.5845417634308337,-0.9240390912234783,0.19244926560204476
1789063903740209200,10.883209228515625,-0.9621499184310436,0.2702384981274605,0.18847214213199912
1789063903750246100,10.89324609375,-0.5057657483577728,0.7222983752608299,0.20577108572358263
1789063903760284000,10.903283935546876,0.26982524115145207,0.20681495048701762,0.48673967044632876
1789063903770321200,10.913321044921876,-0.05177694898843765,0.9489911616504192,0.19102126035923137
1789063903780359000,10.92335888671875,-0.053430561414361,0.9507166702687739,0.19511346157630904
1789063903790396000,10.93339599609375,0.8948375466585159,0.172050511097908,0.6548929914426058
1789063903800434200,10.94343408203125,0.7914999217808246,0.4109744180291891,0.8203959075279533
1789063903810471200,10.95347119140625,1.1535656397342682,-0.19484569575190544,0.9922475350528955
1789063903820509000,10.963509033203126,0.8401572774440049,-0.3892109145104885,0.8437360857788473
1789063903830546200,10.973546142578124,-0.5893617309331893,0.21389292604923246,0.29608696940485385
1789063903840584000,10.983583984375,-0.5908961008936167,0.04828150808811187,0.24730017867572604
1789063903850621000,10.993620849609375,-0.4790227028608322,-0.24335516737699509,0.11183149511981755
1789063903860659200,11.0036591796875,-0.686588763976097,0.3284276522457599,0.16305373283494262
1789063903870696200,11.0136962890625,-0.6895417685627937,0.3314654125064611,0.1726688621919602
1789063903880734000,11.02373388671875,1.1261311048418283,-0.34875264739394185,0.2144646432562731
1789063903890771200,11.033771240234374,1.4145862276613712,-0.14368132570385933,0.18495215131230652
1789063903900809000,11.04380908203125,-0.04637596672773361,0.011090718334913253,0.24538970541190355
1789063903910846000,11.053845947265625,-0.967335796636343,0.42859833752512927,0.2232394127990119
1789063903920884200,11.06388427734375,-0.14425006550252437,-0.04447568606436252,-0.015546711363084614
1789063903930921000,11.0739208984375,1.5355290673345325,-0.8539140001177787,-0.07299034434370696
1789063903940959000,11.083958984375,0.3785176710605621,-0.5753004723548889,-0.15619692574273794
1789063903950996200,11.093996337890625,-0.9015595483899116,-0.08755144220292568,-0.024779106746520847
1789063903961034000,11.104033935546875,-0.7221323710441588,-0.6673813746809959,0.3664221230646595
1789063903971071000,11.114071044921875,-0.40952188113331794,-0.6960001509219408,0.2567052820112556
1789063903981109200,11.124109130859376,-0.19265373866558075,-0.8479857791125774,-0.09511758487457408
1789063903991146000,11.13414599609375,-0.7733399957120418,-0.7266045480221509,-0.22817970047909766
1789063904001184000,11.14418408203125,-0.5321189177542924,-0.5072025031626224,-0.6918676542270928
1789063904011221000,11.154220947265625,0.7216554011821746,-0.6102122112601995,-0.8719669586807489
1789063904021259000,11.164259033203125,0.5573211635500193,-0.3250362562417984,-0.5501419195704161
1789063904031296000,11.1742958984375,0.5499199473828077,-0.31656770310401916,-0.5485363840699196
1789063904041334300,11.184334228515626,-0.32105040147602554,0.9688830260783433,0.07468657206865027
1789063904051371000,11.19437109375,0.5446271016716957,0.9778513454318046,-0.19138844970380886
1789063904061409000,11.204408935546875,1.68631993278265,0.7764718639969825,-0.707894586855173
1789063904071446000,11.214446044921875,1.7420301295667886,0.8484551501899957,-0.9856501826144755
1789063904081484000,11.224484130859375,0.4777414308786392,0.8770353479862213,-0.693409257645905
1789063904091521000,11.23452099609375,0.1252262160807848,0.8946037379026412,-0.5982163607791066
1789063904101559000,11.24455908203125,1.2464385692209006,-0.03397884196937084,-0.31726028847806154
1789063904111596000,11.254595947265624,-0.10340426037311554,-0.1731798073887825,-0.06168733496498316
1789063904121634000,11.264634033203125,-1.473432968905568,0.472765980553627,-0.14641538117709568
1789063904131671000,11.274671142578125,-1.4521651399493216,-0.4481611161291599,0.032350135655840856
1789063904141709000,11.284708984375,-1.327462655481696,-0.3522001574993133,-0.16490140652824192
1789063904151746000,11.29474609375,-0.3336977016031742,-0.6530167492419481,-0.05419170937943272
1789063904161783800,11.30478369140625,-0.3356494201928377,-0.6508358980715274,-0.05150907356617972
1789063904171821000,11.314821044921874,-0.24430033927261827,-0.5055021289855242,-0.05251916392417624
1789063904181859000,11.324859130859375,-0.6365747330069541,-0.06615560295283794,0.17842830250151454
1789063904191896000,11.33489599609375,0.11894377481043338,-0.2653133166849613,0.8586423438139259
1789063904201934000,11.34493408203125,0.11266776328086853,-0.25818331867456434,0.8628332926977426
1789063904211971000,11.35497119140625,0.0008247603863477706,0.4125637330472469,1.1382947861704975
1789063904222008800,11.3650087890625,0.15252514189481733,0.5214309350013733,0.9176479288816451
1789063904232046000,11.375046142578125,0.3809539582967758,0.4346802877873182,0.28152137803360816
1789063904242084000,11.385083984375,0.04660159217715263,0.6034586453467607,0.17557123256996274
1789063904252121000,11.39512109375,0.9801415021955966,0.03869534909725189,0.30337272423254324
1789063904262159000,11.4051591796875,0.4743249004334211,-0.1556722077488899,0.6277849850907922
1789063904272196000,11.415196044921874,-1.7010954771101474,0.3680693422824144,0.7474348623439669
1789063904282233900,11.42523388671875,-1.698002187269926,0.36442426377832887,0.7605863126009702
1789063904292271000,11.43527099609375,0.16832418405115604,-0.7139999179929495,0.7339787300519645
1789063904302309000,11.44530908203125,0.48185821854770183,-0.6002735855698585,0.8981948942624032
1789063904312345900,11.455345947265625,-0.2653478034764528,-0.38373511344790456,1.1197351201944052
1789063904322384100,11.465384033203126,-0.35007308234274387,-0.2171288392305374,1.1793285150874406
1789063904332421000,11.475421142578124,-0.9944541051864624,0.2548614807754755,1.1591704009387642
1789063904342459000,11.485458984375,0.42371641070246696,0.2006809777766466,1.1877119472250341
1789063904352496000,11.49549609375,1.786798661097884,-0.3437795351564884,1.4623808290153741
1789063904362534100,11.5055341796875,0.3622580256551504,0.6030676002025603,1.065443631101772
1789063904372571000,11.51557080078125,-0.31189328155219553,1.158519462749362,0.6935135217379779
1789063904382609200,11.525609130859374,0.42555180943608284,0.5623521434545516,0.5665699072800576
1789063904392646100,11.535646240234374,0.9516998360872269,0.5371352846115828,0.5149561129640787
1789063904402684000,11.545683837890625,1.0038140542060137,0.25919804867506024,0.854922592638433
1789063904412721200,11.55572119140625,0.2610463068902492,0.16396248171031474,1.2405153166517615
1789063904422759200,11.56575927734375,0.5760720412492751,-0.0712941348850727,1.045178841708228
1789063904432796000,11.5757958984375,-0.06377952147126198,-0.06698620855808257,0.665284329336509
1789063904442834200,11.585834228515624,0.1478653333902359,-0.01323883627951145,0.2411642149376683
1789063904452871200,11.59587109375,-0.20202830073237418,-0.12574293343126772,0.1901299558090046
1789063904462909000,11.605908935546875,-1.357153444868326,0.4174743014425039,0.30549842941593375
1789063904472946200,11.6159462890625,-0.359058352831006,-0.04097673803269863,0.3053263973172754
1789063904482984200,11.625984130859376,-0.5051309575855731,-0.11549801827073096,0.12207524123657494
1789063904493021000,11.63602099609375,-1.1073661986172199,0.10787059213221073,-0.021032230102084576
1789063904503059200,11.64605908203125,-0.2637257552325725,-0.4102244764447212,-0.02555151589112356
1789063904513096200,11.65609619140625,0.12331716758906841,-0.6551648671865463,-0.13924336152272299
1789063904523134000,11.666134033203125,0.35479601921141146,-0.6463567068308591,-0.25790492185829206
1789063904533171000,11.6761708984375,-0.33201194047331806,-0.53406303755939,-0.4287016883017495
1789063904543209000,11.686208984375,-0.7993161484897137,-0.29288346065580845,-0.3246952242517844
1789063904553246000,11.696245849609374,-0.2412801146686077,-0.2545908471405506,-0.23402999740988015
1789063904563284200,11.7062841796875,1.3123147707104683,-0.7363298232227563,-0.383356452861242
1789063904573321200,11.7163212890625,0.6910942587018013,-0.3702653910219669,-0.47619716057870537
1789063904583359200,11.726359130859375,-0.011063245806097983,0.33294483740925784,-0.45548813454899933
1789063904593396200,11.736396240234376,0.1837111382752657,0.00708323625922203,-0.022760515199415386
1789063904603434000,11.74643408203125,0.7435837398737668,0.18106909933388232,0.24495025454871355
1789063904613471000,11.756470947265624,2.200418040677905,-0.31566520130634307,0.4520051512714475
1789063904623509200,11.76650927734375,1.0808937867552042,-0.13701017737686633,0.21697032420057802
1789063904633546200,11.776546142578125,-0.5549281309336423,0.7763549596190452,-0.6046071212621406
1789063904643584300,11.786584228515625,-0.31278058578073975,0.32027590997219085,-1.0056246107593179
1789063904653621200,11.796621337890626,0.17071604762375353,-0.024403204372525213,-1.1865291671812535
1789063904663659000,11.806658935546874,-0.2983399724960327,0.2006687028169632,-1.010912341903895
1789063904673696000,11.816696044921875,0.41362873193025584,-0.33298867655098435,-0.42180736221075055
1789063904683734300,11.826734375,0.2457633975625038,-0.46743806352913375,-0.31956677532214667
1789063904693771000,11.83677099609375,-0.5774322236865759,0.03763794899880886,-0.5990512041680515
1789063904703809000,11.84680908203125,-0.025742928543686865,-0.21270985374450682,-0.7113976265400648
1789063904713846300,11.85684619140625,-0.17842238421738146,-0.21488719778358936,-0.6474966706462204
1789063904723884000,11.866884033203124,-0.09649930329024792,-0.018377368211746216,-0.5677153144555166
1789063904733921000,11.876921142578125,-0.9338304173976182,0.18448270716965198,-0.5108775749461725
1789063904743959300,11.886959228515625,-0.11059855579137802,0.17199205890893934,-0.6588859335362911
1789063904753996000,11.89699609375,1.2489420764744281,-0.3448942184001207,-0.8206067737996577
1789063904764034000,11.907033935546876,0.5307628269702196,-0.13776713322401046,-0.45316199315637345
1789063904774071300,11.9170712890625,-1.1668220116704702,0.4232546384096145,0.11979509441014378
1789063904784109000,11.927109130859375,0.10492518633008002,-0.2545680507868528,0.16743322656080126
1789063904794146000,11.93714599609375,-0.4027227225124836,-0.3418056047350168,0.15781475446922705
1789063904804184300,11.947184326171875,-0.46738487203717227,-0.0731330407500267,-0.11728124842569232
1789063904814221000,11.957220947265625,0.1268868427693844,-0.5878402204543351,-0.12007924511376768
1789063904824259000,11.967259033203124,0.19631869091391563,-0.168234752202034,-0.058402248879708345
1789063904834296300,11.97729638671875,0.7469745513558387,-0.47544367533028126,0.17589233601680024
1789063904844334000,11.987333984375,-0.7602712553024291,0.40876083363294596,0.35255225887261327
1789063904854371000,11.99737109375,-0.10738660800755023,0.3876081554889679,0.3267232960132882
1789063904864409000,12.0074091796875,-0.29721827498972414,0.3846352771580219,-0.10878275680737569
1789063904874446000,12.017446044921876,-0.2993839285910129,0.3869575826257467,-0.11352204202264547
1789063904884484000,12.027484130859374,1.357256320720911,-0.23478140029907224,-0.08987718173675238
1789063904894521300,12.037521240234375,-0.23270284045934675,0.7993716780692338,-0.04346654555443674
1789063904904559000,12.04755908203125,-0.4490618643611669,0.5849725560635328,0.3718228495970368
1789063904914596000,12.05759619140625,-0.15869126330912112,0.21033084965348242,0.3439501790156588
1789063904924634000,12.067634033203126,0.3018658085346222,0.36658348763883114,-0.11102525677084922
1789063904934671000,12.077671142578126,0.8974994593441485,-0.24778701234459877,-0.14356228416776284
1789063904944709000,12.087709228515624,-0.11786416288018225,-0.1138239475786686,-0.6077494744084775
1789063904954746400,12.097746337890625,-1.218643384322524,0.6239560744524002,-0.6715519383639097
1789063904964784000,12.1077841796875,-0.12514438301622866,-0.2675888604015112,-0.22309799503432584
1789063904974821000,12.117821044921875,0.9719026661604643,-0.4797124386906624,-0.21230742868976665
1789063904984859100,12.127859130859376,0.22929741593003272,0.0830757580935955,-0.18155850855233147
1789063904994896100,12.137896240234374,-0.7385515909254551,0.3049666971594095,0.06457215141998604
1789063905004934100,12.14793408203125,-1.2241279532134532,0.5032184019625187,0.19015151005368677
1789063905014971100,12.15797119140625,-0.25333412507772446,0.1844680941224098,0.6102676312418654
1789063905025009200,12.168009033203125,-0.04120528609156608,-0.29811960774362084,0.9202357534177601
1789063905035046100,12.178046142578125,-0.3164566439449787,-0.009753332251310348,0.3060879380079917
1789063905045084200,12.188084228515624,0.41680619292259213,-0.37110067280232906,-0.221458064073883
1789063905055121200,12.19812109375,-0.09444237076044082,-0.5188397494643926,-0.4303834673762321
1789063905065159200,12.2081591796875,-0.659870852920413,-0.130397481238842,-0.4481009469071403
1789063905075196000,12.21819580078125,-0.1109346558779478,-0.5279904396474361,-0.38145387064293024
1789063905085234200,12.228234130859375,-0.6362696125805377,-0.25591420469880105,-0.41808235033825036
1789063905095271200,12.238271240234376,-0.9842343244671821,-0.09548165068030356,-0.5687525485487654
1789063905105309200,12.24830908203125,-1.9885025521814823,0.16821897011101244,-0.6609345366291701
1789063905115346200,12.25834619140625,0.3983692034780979,-0.27483225565850733,-0.4811453575706109
1789063905125384200,12.26838427734375,0.9584498948693275,-0.7834639148414134,-0.124551686953241
1789063905135421000,12.2784208984375,-0.4187994125664234,0.21162088946402072,0.24318406686009839
1789063905145459200,12.288459228515626,0.036709143716096876,-0.022711598023772237,0.4818980391014367
1789063905155496200,12.29849609375,0.9706599726229905,0.3783610191941261,0.5476324940327555
1789063905165534000,12.308533935546874,3.1551901238173246,-0.19479191973805426,0.6674732176829129
1789063905175571200,12.3185712890625,1.6370160959094762,0.8147919500410556,0.33928963985871524
1789063905185609200,12.328609130859375,0.42976679678261276,1.6846043610364199,-0.25894917021421715
1789063905195646000,12.33864599609375,-0.6483949346601963,2.0533780521959066,-0.21636143505461514
1789063905205684200,12.348684326171876,-0.6471317828565836,2.0519050570338964,-0.2170964347982779
1789063905215721200,12.35872119140625,1.9522692092835903,0.8054957139074802,0.11604724965132772
1789063905225759000,12.368759033203125,1.758189821729064,0.4770791675776243,0.6063916665913537
1789063905235796200,12.378796142578125,0.15568331366479396,0.17829145131409166,0.7591621250167488
1789063905245834200,12.388834228515625,-1.8896528863728046,0.7295347562551499,0.5929867895625531
1789063905255871000,12.39887109375,-0.1127384904295206,-0.5095370835900307,0.5072795504542067
1789063905265909200,12.4089091796875,-0.252607564368844,-0.9897329218834638,0.8778398693021386
1789063905275946200,12.4189462890625,-0.6741010383248329,-0.7292085930407047,1.0792870091456919
1789063905285984000,12.42898388671875,-1.3302467332422732,-1.1088836174428462,1.1703422947511075
1789063905296021200,12.439021240234375,-2.3200538894057274,-0.8467974461108445,0.5977964548666029
1789063905306059000,12.44905908203125,-1.098322475939989,-1.2358435254484414,0.2960188726047054
1789063905316096000,12.459095947265626,0.014939210456609725,-1.801080868950486,0.40507728628199546
1789063905326134300,12.46913427734375,-0.07966507286727428,-1.5917057125866412,0.6295456380877643
1789063905336171300,12.479171142578124,-0.44199908636808394,-1.2700403940826654,0.7297917997561395
1789063905346209000,12.489208984375,-0.4137386220455169,-0.8070183934301137,0.47401978000700473
1789063905356246300,12.499246337890625,0.5617717132180929,-0.7137240236610174,0.36010318570882077
