time,seconds_elapsed,z,y,x
1789063892899674400,0.04267431640625,7.381216750755906,6.4205678845375775,0.6814248784068971
1789063892909711400,0.05271142578125,7.381053669148683,6.4206304283797735,0.6825983061004429
1789063892919749400,0.062749267578125,7.380287360951304,6.421391475880146,0.6837190537586808
1789063892929787400,0.072787353515625,7.379401810288429,6.422324957337975,0.6845136382024735
1789063892939824400,0.082824462890625,7.378067931336164,6.42377106449306,0.6853226164977997
1789063892949862400,0.0928623046875,7.376384508293866,6.425580744263529,0.6864833308402448
1789063892959899400,0.1028994140625,7.374429867094754,6.427688530197739,0.6877464095786213
1789063892969937400,0.1129375,7.372334940642118,6.429896853896975,0.6895580621104687
1789063892979974100,0.12297412109375,7.370593065410852,6.431648666000366,0.691838282002136
1789063892990012400,0.133012451171875,7.369250418630242,6.432973192602396,0.6938233183395117
1789063893000049400,0.14304931640625,7.368152686521411,6.434053973576426,0.695457130086422
1789063893010087400,0.15308740234375,7.366955585691333,6.435303681376576,0.6965766356356442
1789063893020125400,0.16312548828125,7.365587219947576,6.436874876216054,0.6965261475574225
1789063893030162400,0.173162353515625,7.364402978599071,6.438311631020904,0.6957762059729546
1789063893040200400,0.183200439453125,7.363694538068771,6.439181399592757,0.6952205448515713
1789063893050237400,0.193237548828125,7.364379013201594,6.438164916026592,0.697380280168727
1789063893060275200,0.203275146484375,7.365274500736594,6.4367404361814256,0.7010588956162334
1789063893070312400,0.2133125,7.365923904556036,6.435766622713208,0.7031779335968196
1789063893080350500,0.2233505859375,7.368002464395761,6.433494586127996,0.702188264972344
1789063893090387500,0.233387451171875,7.370943778544664,6.430169825619458,0.7017707702126353
1789063893100425500,0.243425537109375,7.373814950066804,6.427068936994671,0.7000175698697566
1789063893110462500,0.25346240234375,7.37570763194561,6.424729680392145,0.7015511361125856
1789063893120500200,0.263500244140625,7.376688459676504,6.423436133450269,0.7030833871811628
1789063893130538500,0.27353857421875,7.376848034152388,6.423120491629839,0.7042940050799399
1789063893140575500,0.283575439453125,7.376552850598096,6.423478219026327,0.7041224479053169
1789063893150613200,0.29361328125,7.375162273022532,6.425190868163108,0.703060590827465
1789063893160650500,0.303650390625,7.373349670642614,6.427404452559352,0.7018335332505404
1789063893170688500,0.3136884765625,7.371577400273084,6.429467230308055,0.7015618767023086
1789063893180725200,0.323725341796875,7.370162272778153,6.431103891599178,0.7014229066230356
1789063893190763500,0.333763427734375,7.369208333054185,6.432140248909592,0.7019404276911169
1789063893200800500,0.343800537109375,7.3684917092174285,6.432955656945705,0.7019969071187079
1789063893210838300,0.35383837890625,7.368531456705927,6.43303924357593,0.7008150769229978
1789063893220875500,0.36387548828125,7.369523390352725,6.432161876219511,0.698428985504061
1789063893230913300,0.373913330078125,7.370881234702468,6.430919767203926,0.6955403513904661
1789063893240951300,0.383951416015625,7.3720724903136485,6.429835479098558,0.6929300227615982
1789063893250988500,0.393988525390625,7.372977330198884,6.429041698372363,0.6906615663729607
1789063893261026300,0.4040263671875,7.373664727941155,6.428444317001104,0.688879578327015
1789063893271063300,0.414063232421875,7.374628604537248,6.427661057668924,0.6858639568328857
1789063893281101600,0.4241015625,7.374872934687137,6.427755750215053,0.6823413356646895
1789063893291138300,0.43413818359375,7.3743544637709855,6.428734239858389,0.6787224145151675
1789063893301176300,0.44417626953125,7.373543147388101,6.430058181938529,0.6749822781387717
1789063893311213600,0.454213623046875,7.37253660069406,6.431551635366678,0.6717361358243972
1789063893321251300,0.464251220703125,7.371389184224605,6.433154978910088,0.6689764618527144
1789063893331288300,0.474288330078125,7.369923787847161,6.435154043772816,0.6658898209489882
1789063893341326600,0.48432666015625,7.368110016423463,6.437545322823524,0.6628325522702186
1789063893351364400,0.4943642578125,7.366709501975774,6.439487689062952,0.6595186054166406
1789063893361401300,0.5044013671875,7.365904615333676,6.440805785924196,0.6556310964588076
1789063893371439400,0.514439453125,7.365433490690589,6.441610672566294,0.6530157263286411
1789063893381476400,0.524476318359375,7.365490773835778,6.441875460982322,0.649751317705214
1789063893391514400,0.534514404296875,7.365477329832315,6.442086473384499,0.6477979916803538
1789063893401551400,0.54455126953125,7.3658543464511625,6.441914039427042,0.6452312829975039
1789063893411589400,0.55458935546875,7.366461080172657,6.441434146955609,0.6430904715765268
1789063893421626400,0.56462646484375,7.367262459683418,6.440763700348138,0.6406183823745697
1789063893431664400,0.574664306640625,7.367521402880549,6.440682451805472,0.638453459425643
1789063893441702400,0.584702392578125,7.367098209032416,6.441110321828723,0.6390147465702146
1789063893451739400,0.594739501953125,7.366440037384629,6.441943265521526,0.6382034301873296
1789063893461777400,0.60477734375,7.365484928616881,6.44318420549333,0.6367015742570161
1789063893471814400,0.614814453125,7.3630872198253865,6.445897556105256,0.6369668741296977
1789063893481852400,0.624852294921875,7.3614903060227626,6.44795858028829,0.6345672656420618
1789063893491889400,0.634889404296875,7.359426359230279,6.450372071170807,0.6339741220545023
1789063893501927400,0.644927490234375,7.357658180513978,6.452257738786935,0.6353126771818846
1789063893511964400,0.65496435546875,7.356164727085829,6.453930640435218,0.6356172861516475
1789063893522002400,0.66500244140625,7.355318923911452,6.454612777480483,0.6384745022136717
1789063893532039400,0.675039306640625,7.355483759084343,6.454331037929654,0.6394215007402002
1789063893542077200,0.6850771484375,7.357033911135792,6.452446539357304,0.6405984355650842
1789063893552115500,0.695115478515625,7.359661921551823,6.449310579419135,0.6419901821844279
1789063893562152400,0.70515234375,7.362499775326252,6.44594490237832,0.6432551606189459
1789063893572191000,0.71519091796875,7.366001061445474,6.441716471028328,0.6455316541835665
1789063893582228000,0.72522802734375,7.369399471712112,6.437516681250929,0.6486257477413863
1789063893592265700,0.735265625,7.372634215849637,6.4335746656268835,0.6509739913679659
1789063893602303000,0.745302978515625,7.374353879249096,6.431270480337739,0.654252939973399
1789063893612341000,0.755341064453125,7.373424489444494,6.431953786426782,0.6579938070021569
1789063893622378000,0.7653779296875,7.37236884291172,6.432776793247461,0.6617743484541774
1789063893632416000,0.775416015625,7.371130241027474,6.433713781836628,0.6664470895055681
1789063893642453000,0.785452880859375,7.367647659608721,6.437110438537597,0.6721233815763146
1789063893652490800,0.79549072265625,7.364409992861748,6.440130663141608,0.6786511028446257
1789063893662529000,0.805529052734375,7.3631737290650605,6.441327179449797,0.6807032130688428
1789063893672566000,0.81556591796875,7.361624746057391,6.442710158240795,0.6843631238158792
1789063893682603800,0.825603759765625,7.360142398545146,6.443906674548983,0.6890230053856968
1789063893692641000,0.83564111328125,7.358546069264412,6.4452265249758955,0.6937150356594473
1789063893702679000,0.845678955078125,7.356789580985903,6.446777846071123,0.6979132180016487
1789063893712715800,0.8557158203125,7.356642281469703,6.4468655243545765,0.6986611137595027
1789063893722754000,0.865754150390625,7.3579679771155115,6.44540421963036,0.6981746454168111
1789063893732791000,0.875791015625,7.3596934857338665,6.443339103794098,0.6990553737740963
1789063893742828800,0.885828857421875,7.3619602616220705,6.440539828464389,0.700973190094158
1789063893752866000,0.895865966796875,7.364412330949306,6.437361198428273,0.7044075484570116
1789063893762903800,0.90590380859375,7.36649322887659,6.43462446694076,0.7076546406194567
1789063893772941800,0.91594189453125,7.368323366913199,6.43236762792468,0.7091183564964681
1789063893782979000,0.92597900390625,7.369432204937935,6.431027319231629,0.7097505169201642
1789063893793016800,0.936016845703125,7.370518831130862,6.429860613539814,0.7090360119752586
1789063893803053800,0.9460537109375,7.372459443804622,6.427838167801499,0.7072025860030203
1789063893813092000,0.956092041015625,7.374097858661413,6.426077003347873,0.7061178595062345
1789063893823128800,0.96612890625,7.374027131512761,6.426037840381264,0.7072108423747122
1789063893833166800,0.976166748046875,7.3732783589720725,6.426712963163852,0.7088763644341379
1789063893843204000,0.9862041015625,7.372430217710137,6.42744361552596,0.7110728515651077
1789063893853241900,0.996241943359375,7.371075880491733,6.428831855013966,0.7125651359494775
1789063893863278800,1.00627880859375,7.368879831752181,6.431221380499005,0.7137062688086181
1789063893873317000,1.016317138671875,7.366734051895141,6.43357992632389,0.7146034368440508
1789063893883355000,1.02635498046875,7.366206228628754,6.434264985978603,0.7138759993523359
1789063893893392000,1.036391845703125,7.366341253185272,6.434191920742392,0.7131445432726293
1789063893903430000,1.046429931640625,7.3673881318897,6.432971439036726,0.713339919714257
1789063893913467000,1.056466796875,7.3701190181583165,6.429806253004074,0.7136694439295679
1789063893923505000,1.0665048828125,7.374242820090055,6.425073963785171,0.7136858836077153
1789063893933542000,1.0765419921875,7.378294141307473,6.420401880320906,0.7138615324355662
1789063893943580000,1.086579833984375,7.38186147840023,6.416274571257829,0.7140896421030163
1789063893953617000,1.096616943359375,7.386004569554329,6.41176030870378,0.7117957590121775
1789063893963655000,1.106655029296875,7.387806650540233,6.409999144250154,0.7089463609304278
1789063893973692000,1.11669189453125,7.386432439577579,6.411701271992921,0.7078758090894669
1789063893983730000,1.12672998046875,7.384197812393308,6.414270245698094,0.7079125609032809
1789063893993768000,1.136767822265625,7.3827832694202655,6.416029072064161,0.7067272235762327
1789063894003805000,1.146804931640625,7.382874454835057,6.4161950762808315,0.7042595182884485
1789063894013843000,1.156843017578125,7.382343708959222,6.417077119812369,0.7017940780229867
1789063894023880000,1.1668798828125,7.381926944851875,6.417955656212568,0.6981315369274467
1789063894033918000,1.17691796875,7.382246678325534,6.41806379276216,0.6937342518165707
1789063894043955000,1.186954833984375,7.382468796643614,6.4182695444673294,0.689458328063041
1789063894053993000,1.196992919921875,7.383520351523161,6.417521356448531,0.6851519361060112
1789063894064030000,1.207030029296875,7.38434277382195,6.417145508873462,0.6797855867672711
1789063894074067700,1.217067626953125,7.385508310469985,6.4165440358489745,0.6727732968524098
1789063894084105000,1.22710498046875,7.386815885937214,6.4158396869719025,0.6650872723944484
1789063894094143000,1.23714306640625,7.387059631565212,6.416386214938759,0.6570580605220049
1789063894104180700,1.2471806640625,7.3859554697155945,6.41840047737062,0.6497576013155281
1789063894114218000,1.257218017578125,7.385178055602312,6.420107281288504,0.641682431409508
1789063894124256000,1.267256103515625,7.383443779155612,6.422880253133178,0.633842312368378
1789063894134292700,1.277292724609375,7.383500477778911,6.4237617121428245,0.6241776813138276
1789063894144331000,1.2873310546875,7.3847162833094595,6.423416844227909,0.6132433956496417
1789063894154368000,1.297367919921875,7.3846017170190805,6.4244900264173745,0.6032964770549908
1789063894164405800,1.30740576171875,7.383254978585243,6.426683152547478,0.5963867341991513
1789063894174443000,1.317443115234375,7.382684485220909,6.428145626315474,0.5876256643882021
1789063894184481000,1.32748095703125,7.381933374592662,6.429899776506423,0.5777829733530059
1789063894194517800,1.337517822265625,7.380936764770746,6.431925144854188,0.5678961509151383
1789063894204556000,1.34755615234375,7.382714295837283,6.430877681627869,0.5565286249328404
1789063894214593800,1.35759375,7.383426828020811,6.430915091028809,0.5465556585814804
1789063894224630800,1.367630859375,7.381753341850638,6.4336728653043505,0.5366164118366316
1789063894234669000,1.3776689453125,7.382598560503125,6.433399309059977,0.5281972507985309
1789063894244705800,1.387705810546875,7.383727856794,6.432566949889064,0.5225330144917593
1789063894254743800,1.397743896484375,7.386085818096995,6.430261595556139,0.5175491616645828
1789063894264781000,1.407781005859375,7.386696643471717,6.429754230555892,0.5151298986284062
1789063894274818800,1.41781884765625,7.3876172654479735,6.4290680018574,0.5104697613302618
1789063894284855800,1.427855712890625,7.390843241757154,6.426141885277628,0.5005310260420665
1789063894294894000,1.43789404296875,7.392015208145976,6.42554216581881,0.49082525925952936
1789063894304930800,1.447930908203125,7.389553786468506,6.428689231672883,0.48664833890106524
1789063894314968800,1.45796875,7.38687784525752,6.431913454416394,0.48467787907831367
1789063894325006800,1.4680068359375,7.386203306996822,6.432876746490598,0.4821658962573856
1789063894335043800,1.4780439453125,7.384903330314159,6.434385982009768,0.48193698287233705
1789063894345082000,1.48808203125,7.383050980445742,6.436372771912813,0.48379269374161954
1789063894355119000,1.498119140625,7.3815212866604325,6.438084252005815,0.4843473319496959
1789063894365156900,1.508156982421875,7.382487501344085,6.437383410260081,0.4789181099751964
1789063894375193900,1.51819384765625,7.385631644588709,6.434470737683773,0.4694820269795134
1789063894385232000,1.52823193359375,7.38932114675641,6.431054207238555,0.4580983535800129
1789063894395268900,1.538268798828125,7.391850957494974,6.428796199178695,0.4488897226646542
1789063894405307000,1.548306884765625,7.392794375824928,6.428057948032021,0.44390422586966305
1789063894415343900,1.55834375,7.393197695928811,6.427828815451264,0.4404894855227321
1789063894425382000,1.5683818359375,7.389139944970608,6.432707235142588,0.4373487032789737
1789063894435420200,1.578420166015625,7.3801955910146235,6.443145627048612,0.4347102080015465
1789063894445457000,1.588456787109375,7.370547472703456,6.454528606328368,0.4295138084022328
1789063894455495000,1.598494873046875,7.360840902203321,6.466089280262589,0.4220234891794622
1789063894465532000,1.608531982421875,7.350203188332915,6.478785680228471,0.4125877715099603
1789063894475570000,1.61856982421875,7.3399044971585266,6.490861317947506,0.4060738961039111
1789063894485607000,1.62860693359375,7.334795191320777,6.496870202973485,0.40228648651968685
1789063894495645000,1.63864501953125,7.33572107399404,6.495849627754092,0.4019074240742251
1789063894505682000,1.648681884765625,7.338815532878041,6.49217999933064,0.4046818572236225
1789063894515720000,1.658719970703125,7.3438751543551675,6.486142472732067,0.40967853299975393
1789063894525757000,1.6687568359375,7.352532508063316,6.47602790595293,0.4143776140687987
1789063894535795000,1.678794921875,7.36091630552709,6.466455190965533,0.415031694063358
1789063894545832000,1.68883203125,7.367269473946094,6.4591872457891695,0.41548181245103477
1789063894555869700,1.69886962890625,7.377863348674774,6.447240202885866,0.41303723231051115
1789063894565908000,1.708907958984375,7.3900301718086,6.433481142124533,0.41005949514135714
1789063894575945500,1.718945556640625,7.395914553672075,6.426488506758212,0.413615251394175
1789063894585983200,1.728983154296875,7.398465991720557,6.422569287487864,0.42858518578261134
1789063894596020200,1.739020263671875,7.401703658467531,6.417747566419839,0.44462402804419393
1789063894606058200,1.749058349609375,7.4044836445748805,6.413954603877663,0.4529951852221042
1789063894616095200,1.75909521484375,7.400677822551131,6.41780251147747,0.46061826397906985
1789063894626133200,1.76913330078125,7.395837981304526,6.423298770806193,0.4617377695282921
1789063894636170200,1.779170166015625,7.390422970518469,6.42968233436346,0.45958402556050565
1789063894646208300,1.789208251953125,7.384713360700011,6.436299706676602,0.45874136419128625
1789063894656245200,1.799245361328125,7.382765733763575,6.438548362386226,0.4585318130938336
1789063894666283300,1.809283203125,7.383575881102681,6.437416728007793,0.46136550214979793
1789063894676321300,1.8193212890625,7.385121356979012,6.435453318980336,0.46402058323584494
1789063894686358300,1.829358154296875,7.386071205049753,6.4340510509669775,0.46832891142163424
1789063894696396300,1.839396240234375,7.391007492408156,6.428869264414906,0.461559599949792
1789063894706433300,1.849433349609375,7.398056241875887,6.421482076773047,0.45135187499448653
1789063894716471300,1.85947119140625,7.40319711189568,6.41631198065877,0.4404566061664372
1789063894726508000,1.869508056640625,7.406234872156381,6.4134150901734825,0.43148879826962944
1789063894736546300,1.87954638671875,7.405903448244929,6.414108333134651,0.4268395111590624
1789063894746583300,1.889583251953125,7.4050897937744855,6.415053505030274,0.42676114869322623
1789063894756621300,1.899621337890625,7.4013459310710425,6.41910833337903,0.4307173024404794
1789063894766658300,1.909658203125,7.398968096023798,6.421584952625632,0.4346303842309862
1789063894776696300,1.9196962890625,7.397391055965423,6.423194141387939,0.43768747024666516
1789063894786733000,1.929733154296875,7.39648387799263,6.424188997644186,0.4384060303121805
1789063894796771300,1.939771240234375,7.3975944695830345,6.422848104429245,0.4393220491785556
1789063894806809000,1.94980908203125,7.401335409677028,6.418367744144797,0.44179461330454795
1789063894816846300,1.959846435546875,7.404364402109384,6.414585302996635,0.44595008901618416
1789063894826884400,1.96988427734375,7.406229611459374,6.41187195238471,0.45391562453527
1789063894836921000,1.979921142578125,7.408580558499693,6.408270128500461,0.4662487806793302
1789063894846959400,1.98995947265625,7.409317056080699,6.406393813234567,0.4801244900902733
1789063894856996400,1.999996337890625,7.404630359569191,6.410523460385203,0.4970105237657204
1789063894867034000,2.0100341796875,7.398155610597133,6.416783105301857,0.5124195436911657
1789063894877071000,2.020071044921875,7.394679458919167,6.419956474640965,0.5227365377072245
1789063894887109400,2.030109375,7.391834590882063,6.42252077217102,0.5314026957763358
1789063894897146000,2.04014599609375,7.388542563599348,6.4252873142749065,0.5436097047900781
1789063894907184400,2.050184326171875,7.388299402493238,6.424300641325115,0.5583686267763376
1789063894917222100,2.06022216796875,7.3927441069424145,6.418073729634284,0.5710112507283688
1789063894927259100,2.070259033203125,7.396734637883305,6.4118947487384075,0.5884911221111193
1789063894937297400,2.08029736328125,7.399246912965178,6.4070034695655105,0.6097756464738399
1789063894947334400,2.09033447265625,7.403771696913242,6.400223600167036,0.6258490485921502
1789063894957372200,2.1003720703125,7.406933960336446,6.395528720349073,0.6363412895772605
1789063894967409400,2.110409423828125,7.407294610342383,6.393812564080953,0.6492514784242958
1789063894977447200,2.120447265625,7.408447287508845,6.391427130249142,0.6595155366767197
1789063894987484200,2.130484130859375,7.409339852434396,6.389419297558069,0.6688673023898154
1789063894997522400,2.1405224609375,7.410967161375284,6.386350557637214,0.6800513250313699
1789063895007559400,2.150559326171875,7.41574855043292,6.380100265070795,0.6865673558618873
1789063895017597200,2.16059716796875,7.419155728527903,6.375175083628297,0.6954525269765407
1789063895027635500,2.170635498046875,7.42190356593132,6.370856635907292,0.7056270072493702
1789063895037672200,2.180672119140625,7.42391841288507,6.367486282691359,0.7147955253500491
1789063895047710200,2.190710205078125,7.42242554397881,6.3681321793794625,0.7244767422132193
1789063895057747500,2.20074755859375,7.420294377169013,6.369622710198164,0.7331569653403014
1789063895067785200,2.21078515625,7.418795078521966,6.370798768240213,0.7380971251562237
1789063895077822200,2.220822265625,7.4170754151225085,6.37257746835053,0.7400183024771511
1789063895087860200,2.230860107421875,7.416237795254587,6.373257267308235,0.7425590730011463
1789063895097897200,2.240897216796875,7.419053437197208,6.369813264334201,0.7439857448033989
1789063895107935200,2.250935302734375,7.42511083754003,6.362974358224869,0.7420722393322735
1789063895117972500,2.260972412109375,7.427791454926132,6.359853011333942,0.7420028273578733
1789063895128010200,2.27101025390625,7.429048761510849,6.358499843159318,0.7410105283848941
1789063895138047200,2.281047119140625,7.432929402336478,6.35528614180982,0.7295812257453799
1789063895148085200,2.291085205078125,7.43602210765481,6.3536635090440505,0.7119891626924276
1789063895158123300,2.301123291015625,7.436928701105713,6.35441111254096,0.6956578402902931
1789063895168160300,2.31116015625,7.437603239366411,6.35541882827878,0.6790393715098499
1789063895178198300,2.3211982421875,7.436997090166806,6.357527198734879,0.6658198975179344
1789063895188235300,2.3312353515625,7.435819863080978,6.360141765147447,0.6538838144000619
1789063895198273300,2.341273193359375,7.436405554014444,6.361033745551109,0.6383612510975449
1789063895208310300,2.351310302734375,7.435328864693641,6.364477748525142,0.6161849289942533
1789063895218348300,2.361348388671875,7.426496738940477,6.376963136088848,0.593190897299908
1789063895228385300,2.37138525390625,7.414646142148971,6.39284868748486,0.5699968129888177
1789063895238423300,2.38142333984375,7.409422270020842,6.4018485710203645,0.5359025279462337
1789063895248460300,2.391460205078125,7.409251589629053,6.405282052600383,0.4957188034547493
1789063895258498300,2.401498291015625,7.414100198704004,6.402470502310991,0.45812286696676163
1789063895268535300,2.411535400390625,7.424910346531868,6.392154860001802,0.4259697060545906
1789063895278573300,2.4215732421875,7.43490216371417,6.382360026696324,0.3976245225906372
1789063895288611000,2.431611083984375,7.439810978543758,6.3782929233878844,0.3701065837310627
1789063895298648300,2.4416484375,7.447001182308792,6.371692502209544,0.337781281122379
1789063895308686300,2.451686279296875,7.4576529247045515,6.360743238171935,0.3078055738471448
1789063895318723300,2.461723388671875,7.463918999361992,6.354594652414321,0.2818369833214208
1789063895328761300,2.47176123046875,7.46397920511663,6.356019716781377,0.2457890434604138
1789063895338798300,2.48179833984375,7.461302094861865,6.361118501225113,0.18846010463433338
1789063895348836000,2.491836181640625,7.449439223110676,6.376557477897405,0.1255023661410436
1789063895358873300,2.501873291015625,7.423881003484129,6.407149600037932,0.06938935157652013
1789063895368911400,2.511911376953125,7.400365103340149,6.43464434068501,0.0185021853264363
1789063895378948000,2.521947998046875,7.3876757176369425,6.449180231037736,-0.02656555177187547
1789063895388986400,2.531986328125,7.380141815000772,6.457585071289539,-0.05906283624686766
1789063895399024000,2.542024169921875,7.373440856057405,6.464931926921009,-0.08609971815780736
1789063895409061000,2.55206103515625,7.37290952565968,6.465051169386506,-0.11709285884727723
1789063895419099400,2.562099365234375,7.379881702759861,6.456188648495078,-0.1592338822858408
1789063895429136400,2.572136474609375,7.388629657360911,6.444733188501,-0.20963636458329854
1789063895439174100,2.582174072265625,7.396693721351027,6.43344957794249,-0.26461994585962967
1789063895449211400,2.59221142578125,7.406939221033453,6.419460800078511,-0.3133059978943318
1789063895459249200,2.602249267578125,7.415409527736902,6.4075242785692215,-0.35456761728301645
1789063895469286100,2.6122861328125,7.420081611201167,6.399646677061915,-0.3966059566652402
1789063895479324400,2.622324462890625,7.4246648473381995,6.391043099367618,-0.44644477719794956
1789063895489361400,2.632361328125,7.428492296671867,6.383199984651804,-0.4925960317917168
1789063895499399200,2.642399169921875,7.429137608838081,6.379059816107153,-0.5346949422547593
1789063895509436400,2.6524365234375,7.429346867674589,6.375539825287461,-0.572444096543081
1789063895519474200,2.66247412109375,7.43001614523828,6.371784856668114,-0.6046501201536506
1789063895529511200,2.67251123046875,7.429601134696602,6.369302976724505,-0.6351298679608851
1789063895539549400,2.682549560546875,7.428226923733949,6.367395097276568,-0.6694119306605308
1789063895549587200,2.692587158203125,7.4266247492343185,6.365476111912727,-0.7045175847027451
1789063895559624200,2.702624267578125,7.4269251934856175,6.361294442313909,-0.7383144211687147
1789063895569662200,2.712662109375,7.42889561677575,6.355507091084123,-0.7677412258569151
1789063895579698200,2.7226982421875,7.430360428631305,6.350644453483819,-0.7933715608716011
1789063895589736200,2.732736083984375,7.432374106541276,6.345511766770482,-0.8152842636026442
1789063895599773200,2.742773193359375,7.434082079502939,6.340962432903051,-0.8348633357543498
1789063895609811000,2.75281103515625,7.437101135063171,6.3346449203193185,-0.8556769912023097
1789063895619848200,2.76284814453125,7.444349206495285,6.323201150763034,-0.8770284067887812
1789063895629886200,2.77288623046875,7.452126854759454,6.311720556327701,-0.8935186460796744
1789063895639923200,2.782923095703125,7.45722563920319,6.304558409613371,-0.9015046033322811
1789063895649961200,2.792961181640625,7.4625149777829645,6.298000658532977,-0.9035684770595281
1789063895659998200,2.802998291015625,7.467921220740675,6.290773629888892,-0.9092276718650013
1789063895670036000,2.813035888671875,7.468995571973919,6.288377090141177,-0.9169541744638234
1789063895680074200,2.82307421875,7.464754281142354,6.293112301969527,-0.919004019665718
1789063895690111200,2.833111328125,7.460865457010269,6.29756635876894,-0.9200746445719152
1789063895700149000,2.84314892578125,7.4570596349865195,6.302037366703153,-0.9203080880016088
1789063895710186200,2.853186279296875,7.451631180197,6.309115342265367,-0.91576912939772
1789063895720224300,2.863224365234375,7.4493082902073855,6.312665143701434,-0.9101886258516461
1789063895730261000,2.873260986328125,7.4502142991364,6.31213147521615,-0.9064714319594204
1789063895740299300,2.88329931640625,7.451017432212829,6.312252471247315,-0.8989898440323769
1789063895750336300,2.893336181640625,7.4537944957107305,6.310168066188693,-0.8905654953625053
1789063895760374000,2.9033740234375,7.4584157257705925,6.305736805742979,-0.8832370521705597
1789063895770411300,2.913411376953125,7.462205181181431,6.302652868252992,-0.8731862713426352
1789063895780449000,2.923448974609375,7.466022109121083,6.299508140486479,-0.8631889012023806
1789063895790486000,2.933486083984375,7.46878982026875,6.297387495070695,-0.85467621666193
1789063895800524300,2.943524169921875,7.468987973189353,6.298090090382098,-0.8477369919832796
1789063895810562000,2.95356201171875,7.468261412480473,6.299758315855264,-0.8417228462602943
1789063895820599000,2.96359912109375,7.466822319588065,6.3021127700269215,-0.8368561170067638
1789063895830637300,2.97363720703125,7.46341864862442,6.307158947500586,-0.8291627129599451
1789063895840674000,2.983674072265625,7.456627088788151,6.316976577159762,-0.8154192881591618
1789063895850712000,2.993712158203125,7.450983529943227,6.32483255135715,-0.8060498406589031
1789063895860749300,3.003749267578125,7.4433689632862805,6.335460328355431,-0.7928314626455306
1789063895870787000,3.013787109375,7.4355170807421205,6.345948404622078,-0.7825603901304304
1789063895880824000,3.023823974609375,7.427496271371841,6.356656845641136,-0.7717491463240236
1789063895890862300,3.0338623046875,7.421497323217988,6.3648161866992705,-0.7621598455280065
1789063895900899000,3.043899169921875,7.4186314123928545,6.369416958492994,-0.7515523076001555
1789063895910937000,3.05393701171875,7.419023042058944,6.369966409069299,-0.7429821937840432
1789063895920974000,3.06397412109375,7.4195432665407655,6.3708420228600495,-0.7301546417191624
1789063895931012000,3.07401220703125,7.421257084721327,6.370480788332223,-0.7157569907933473
1789063895941050000,3.084050048828125,7.427349556377529,6.364194839930534,-0.7084450603447854
1789063895951087400,3.09408740234375,7.43387632779777,6.35730215780735,-0.70184376238361
1789063895961125000,3.104125,7.439159236636757,6.3518754565835,-0.6949653279814869
1789063895971162000,3.114162109375,7.444854817929864,6.3455632046967745,-0.6916279271870851
1789063895981200100,3.1242001953125,7.449834359908103,6.340227688887715,-0.6869306362163276
1789063895991237000,3.134237060546875,7.450697114217281,6.3396379063010215,-0.6830032336395233
1789063896001275100,3.144275146484375,7.448425662153959,6.342738210403919,-0.678978362037614
1789063896011312000,3.15431201171875,7.444187878453731,6.348249082779884,-0.6739368607390671
1789063896021350100,3.16435009765625,7.438400527223944,6.3556783559978,-0.667787252068147
1789063896031387100,3.17438720703125,7.430964239743352,6.365159885570407,-0.6602198124885559
1789063896041425200,3.184425048828125,7.4224325582414865,6.376435897344351,-0.6472578934542834
1789063896051462100,3.194462158203125,7.415241769954561,6.386112657228112,-0.6341474327947944
1789063896061500200,3.204500244140625,7.407890238147973,6.395977048638462,-0.6205081259556114
1789063896071538200,3.2145380859375,7.400322433242201,6.406371016880869,-0.6033409372512251
1789063896081575200,3.2245751953125,7.395266903418302,6.413761127132177,-0.5865942755138501
1789063896091613000,3.234613037109375,7.390872467851638,6.420066364756226,-0.5728408042430877
1789063896101650200,3.244650146484375,7.387505037245154,6.425043568646908,-0.5603263367153704
1789063896111688200,3.254688232421875,7.3868351751595736,6.426596643307804,-0.551271654252708
1789063896121725200,3.26472509765625,7.388026430770754,6.425495988589525,-0.5481371190866455
1789063896131763200,3.27476318359375,7.390097391825914,6.423817241722345,-0.5398326339367777
1789063896141800200,3.28480029296875,7.393613875514268,6.42134705221653,-0.5207247960260137
1789063896151838000,3.294837890625,7.398446117976308,6.4177142486721275,-0.4963097916178405
1789063896161875200,3.304875244140625,7.402919463998079,6.415118386960029,-0.4619753776764497
1789063896171913200,3.314913330078125,7.405827460399269,6.41478053330779,-0.4179707066573202
1789063896181950200,3.3249501953125,7.40763655564785,6.41550826306045,-0.3722385542584583
1789063896191988200,3.33498828125,7.406789583429694,6.419045205014943,-0.3251360633544624
1789063896202026200,3.345026123046875,7.403740717253089,6.424825541982054,-0.27680284334542227
1789063896212063000,3.35506298828125,7.398950560367107,6.432268843725323,-0.22766236207410692
1789063896222101200,3.365101318359375,7.393158532962203,6.440454488268494,-0.17927012362051753
1789063896232138200,3.37513818359375,7.385743288269639,6.450108451798558,-0.13145406848653218
1789063896242176000,3.385176025390625,7.3778487356275315,6.459881657794117,-0.08749634188166819
1789063896252213200,3.395213134765625,7.370500126430392,6.468720213288068,-0.0421462156369118
1789063896262251300,3.405251220703125,7.364153972274065,6.476078759357333,0.005736064000544138
1789063896272288000,3.4152880859375,7.36214789314866,6.478154981109499,0.05178871249146759
1789063896282326300,3.425326171875,7.365507140448689,6.4737932787686585,0.09843072801055386
1789063896292363300,3.43536328125,7.3687693571150295,6.469248621076345,0.14297873039245604
1789063896302401000,3.445401123046875,7.3753107415825125,6.460788251245021,0.1827469876845367
1789063896312438300,3.455438232421875,7.383086051759124,6.450750841355323,0.21965636668046934
1789063896322476000,3.46547607421875,7.387808404105901,6.443868680626154,0.2592872795947827
1789063896332514000,3.47551416015625,7.392085935294627,6.437383410260081,0.29588927314197644
1789063896342551300,3.48555126953125,7.395646258124708,6.431427132204175,0.3339899990806356
1789063896352589000,3.495589111328125,7.394875858274101,6.430334660792351,0.3701246673770249
1789063896362626000,3.5056259765625,7.391911747771501,6.431813501173258,0.4022434876281768
1789063896372664300,3.515664306640625,7.390121357223391,6.432028020706772,0.4307118590803817
1789063896382701000,3.525701171875,7.3873437092036,6.433637793990969,0.4537016529910266
1789063896392739000,3.535739013671875,7.384968796765804,6.434828465080261,0.4749747791768983
1789063896402776300,3.5457763671875,7.382798466989398,6.435517031866311,0.49878980839792636
1789063896412814000,3.55581396484375,7.379750185334682,6.436749204009771,0.5271951976165176
1789063896422851000,3.56585107421875,7.3792673702538005,6.435047660788893,0.5540379040956497
1789063896432889300,3.575889404296875,7.378872817978262,6.433022876963019,0.5820999597692862
1789063896442926000,3.585926025390625,7.380587805202603,6.429113594564795,0.6031672977173701
1789063896452964000,3.595964111328125,7.385391406092047,6.422274688455462,0.6170666802648455
1789063896463001300,3.60600146484375,7.390406603905558,6.415505340451002,0.6273426481507718
1789063896473039000,3.6160390625,7.395619954639673,6.408649483206868,0.6359253291875123
1789063896483077000,3.6260771484375,7.401428933179378,6.400850792154669,0.64679575583525
1789063896493114000,3.636114013671875,7.40698306017518,6.392778544858098,0.6628542526453733
1789063896503152000,3.646152099609375,7.410763163235783,6.386416608610749,0.6816600754022598
1789063896513189000,3.656189208984375,7.4125114682078355,6.382355350521206,0.7004263698663562
1789063896523227100,3.66622705078125,7.415984697276353,6.377066596463322,0.7117443210858851
1789063896533264100,3.67626416015625,7.417965057438612,6.374343308979272,0.7154916178554296
1789063896543302100,3.68630224609375,7.415348152938485,6.376961967045069,0.719269382828474
1789063896553339100,3.696339111328125,7.412520820558071,6.37997926903963,0.7216545974645763
1789063896563377200,3.706377197265625,7.410199684134125,6.3820315253943205,0.7273237291421741
1789063896573414700,3.71641455078125,7.408339735481142,6.383212259611487,0.7358567258182913
1789063896583452400,3.726452392578125,7.407367675578594,6.383155560988188,0.7460643777083605
1789063896593489400,3.736489501953125,7.40864368686378,6.380795261597633,0.7535425315693021
1789063896603527400,3.74652734375,7.410185071086883,6.378315135219693,0.7593671460695565
1789063896613565400,3.7565654296875,7.41350983159542,6.3744292336970565,0.7595492246381939
1789063896623602400,3.7666025390625,7.418736626332998,6.3685740779280655,0.7576265860125422
1789063896633640400,3.776640380859375,7.424516963300109,6.362187591761351,0.7546583838567137
1789063896643677400,3.786677490234375,7.428474761015177,6.3574301681011915,0.7558009049553424
1789063896653715700,3.7967158203125,7.432331436443328,6.352572791197896,0.758713358335942
1789063896663752400,3.80675244140625,7.434403566542267,6.349663041231036,0.7627594188563526
1789063896673790500,3.81679052734375,7.436944483196735,6.346641063061356,0.7631473221953958
1789063896683827500,3.826827392578125,7.439371418082714,6.343989671769738,0.7615344801712781
1789063896693865500,3.836865478515625,7.44109458861351,6.342252472713589,0.7591573757763952
1789063896703902500,3.84690234375,7.441246564304828,6.3420829613655805,0.7590916901290417
1789063896713940700,3.856940673828125,7.43842624618709,6.34551410485804,0.7580581823628395
1789063896723977500,3.8669775390625,7.435141233167052,6.349588222429156,0.7561684961587191
1789063896734015500,3.877015380859375,7.434129425776004,6.351230144417285,0.752314597209543
1789063896744053500,3.887053466796875,7.433063257849216,6.352903046065569,0.7487198606532066
1789063896754090500,3.897090576171875,7.433282453557848,6.352923504331708,0.7463625569373369
1789063896764128500,3.90712841796875,7.4364160754084585,6.349693436369299,0.7426281927146017
1789063896774165500,3.91716552734375,7.440071675306558,6.345803443193435,0.7392526518668979
1789063896784203500,3.92720361328125,7.442291104921698,6.34383535799086,0.733787226067856
1789063896794240500,3.937240478515625,7.445093887382745,6.3410489421427245,0.7294216512694954
1789063896804278500,3.947278564453125,7.450112592327594,6.335786491569876,0.723894046954438
1789063896814315500,3.9573154296875,7.4528393869429825,6.332950391361117,0.7206278847653418
1789063896824353500,3.967353515625,7.453956408274173,6.332062502610683,0.7168678746446967
1789063896834390500,3.977390625,7.453989141499996,6.33316841802597,0.7066868185006082
1789063896844428500,3.987428466796875,7.452042683607339,6.337324368661641,0.689758480053395
1789063896854465500,3.997465576171875,7.450517081475257,6.341693669787049,0.6656543316926806
1789063896864503600,4.007503662109375,7.446183436185121,6.3492217272043225,0.6419571566976606
1789063896874540500,4.01754052734375,7.439177356815338,6.359812094801664,0.6179078072641044
1789063896884578600,4.02757861328125,7.432005857750773,6.370573142790794,0.5928567699747159
1789063896894616600,4.037616455078125,7.426320797851681,6.379643753474951,0.5659478663915768
1789063896904653600,4.047653564453125,7.421839268523454,6.387502065759897,0.5352640839122236
1789063896914691300,4.05769140625,7.41940356580913,6.393014107179641,0.5022072886912152
1789063896924728300,4.067728271484375,7.419092015641927,6.395740317273139,0.4711242046959698
1789063896934766600,4.0777666015625,7.420695943707227,6.396051282918453,0.4406627962630242
1789063896944803600,4.087803466796875,7.4242930914163585,6.3940422811836,0.40801567782144993
1789063896954841600,4.097841552734375,7.427084767961501,6.392953901425003,0.3727289681239053
1789063896964878600,4.107878662109375,7.4301114223062985,6.391462201562524,0.33620522744469344
1789063896974916400,4.117916259765625,7.4332362763285635,6.3896402468323705,0.2998013502854854
1789063896984953300,4.127953369140625,7.431666835054755,6.392821214956045,0.2693420424780808
1789063896994991600,4.13799169921875,7.429031810376047,6.39713907815516,0.2376532842072658
1789063897005028600,4.148028564453125,7.426388017868995,6.4013914749026295,0.20329585471646858
1789063897015066600,4.158066650390625,7.424432207626104,6.404770011425018,0.16463347630705683
1789063897025104600,4.168104736328125,7.421519535049796,6.408958695286512,0.1291699944036547
1789063897035141400,4.178141357421875,7.419889888021349,6.411451681146025,0.09437451142231001
1789063897045179600,4.1881796875,7.419915022462606,6.411821098980307,0.06155554354516789
1789063897055216600,4.198216552734375,7.418764683383703,6.413376511728763,0.030191115008026827
1789063897065254400,4.20825439453125,7.419095522773265,6.413062623474001,-0.006115038539393572
1789063897075291400,4.21829150390625,7.4197507718116045,6.412182333508134,-0.04000348625348415
1789063897085329400,4.228329345703125,7.420895265671611,6.4105053402066225,-0.07819305495279841
1789063897095366400,4.238366455078125,7.422733587014675,6.4078744071811435,-0.11207452836176379
1789063897105404700,4.24840478515625,7.425292623847723,6.404239850071072,-0.14536253852276132
1789063897115441700,4.258441650390625,7.4273875503003595,6.401022641590237,-0.17667762290928513
1789063897125479400,4.2684794921875,7.428544319120049,6.3988178250223395,-0.20555061137331648
1789063897135516400,4.278516357421875,7.430104408043623,6.395948991587757,-0.23615891746366396
1789063897145554400,4.288554443359375,7.430020821413398,6.394896267664432,-0.26549022588813675
1789063897155592400,4.298592529296875,7.430428817692398,6.392868561229109,-0.3005635120307095
1789063897165629700,4.308629638671875,7.426427180835605,6.3961705253839485,-0.3279769128035754
1789063897175667500,4.31866748046875,7.422225637492537,6.399512821549177,-0.3566412452192977
1789063897185704400,4.328704345703125,7.4205708560228345,6.39995413557589,-0.3822427925309166
1789063897195742700,4.33874267578125,7.417592716994881,6.402124465352297,-0.4031192475493997
1789063897205779500,4.348779541015625,7.416529471677541,6.401952615916729,-0.42482776947785167
1789063897215817500,4.3588173828125,7.415532861855626,6.401806485444307,-0.44399329239260404
1789063897225854500,4.3688544921875,7.415117851313949,6.400725119948387,-0.46596773524824525
1789063897235892500,4.378892578125,7.416321966406702,6.397663978812098,-0.4883176238201558
1789063897245929500,4.388929443359375,7.417384627202153,6.394658951777219,-0.5110041604679078
1789063897255967700,4.3989677734375,7.41658792386651,6.394073845365643,-0.5295622920740396
1789063897266004500,4.40900439453125,7.416250654736161,6.393026966661214,-0.5466384780267253
1789063897276042500,4.41904248046875,7.418248550555109,6.389206531590223,-0.5639314850678667
1789063897286079500,4.42907958984375,7.419943664035201,6.38589346151948,-0.5789527843173593
1789063897296117500,4.439117431640625,7.424287830719352,6.379255046418309,-0.5961858778648078
1789063897306155500,4.449155517578125,7.429256851303577,6.372037954646348,-0.61127910983935
1789063897316192500,4.459192626953125,7.433104758903384,6.366302625864744,-0.6241254396699368
1789063897326230500,4.46923046875,7.4375354348272085,6.360106693834066,-0.6344209159739315
1789063897336267500,4.479267578125,7.442188229069114,6.353423270547389,-0.6467128998573869
1789063897346305500,4.489305419921875,7.443971605354547,6.350072206553817,-0.6589768997553735
1789063897356342500,4.499342529296875,7.441573896563053,6.3518731184959405,-0.6686345165472477
1789063897366380500,4.509380615234375,7.4387477332264185,6.353731313583254,-0.6822866098027676
1789063897376417300,4.519417236328125,7.4344357152462,6.357533043953776,-0.6937750222183764
1789063897386455600,4.52945556640625,7.429787012657522,6.3616299578785895,-0.7059151034757495
1789063897396492500,4.539492431640625,7.425545721825957,6.365456238168478,-0.7159726793706417
1789063897406530600,4.549530517578125,7.421289817947149,6.369533862870931,-0.7237961395379156
1789063897416567600,4.559567626953125,7.419504103574156,6.370930285665392,-0.7297866121243685
1789063897426605600,4.56960546875,7.420107330164313,6.369151585555076,-0.7391219381593167
1789063897436643600,4.5796435546875,7.421894213581084,6.365790584689378,-0.7500600962810218
1789063897446680600,4.5896806640625,7.424243991577625,6.361907021254301,-0.7596898021526635
1789063897456718300,4.59971826171875,7.427805483451485,6.3567936237633225,-0.767640030504763
1789063897466755300,4.60975537109375,7.432737094634771,6.350148194399476,-0.7748647210612892
1789063897476793600,4.619793701171875,7.436749837407469,6.344829045203328,-0.7799195932980626
1789063897486830600,4.62983056640625,7.439026550167799,6.341566828536987,-0.7847267743840813
1789063897496868600,4.63986865234375,7.437087691059708,6.343492828163504,-0.7875396398477256
1789063897506905600,4.649905517578125,7.434113059163093,6.346686071246862,-0.7898875912133604
1789063897516943400,4.659943359375,7.431940391299128,6.3488704295486205,-0.7927733027175068
1789063897526980400,4.66998046875,7.428416308826208,6.353108213248849,-0.7918463971309363
1789063897537018600,4.6800185546875,7.422837047389149,6.359776438966393,-0.790635706166923
1789063897547055400,4.690055419921875,7.417794961568712,6.365555606889725,-0.7914588591180741
1789063897557093600,4.70009375,7.414321147978305,6.369445600065589,-0.7927051328521222
1789063897567130600,4.710130615234375,7.410520586651563,6.373419179871678,-0.7963016960393637
1789063897577169200,4.720169189453125,7.407287011557817,6.3769748265266415,-0.7979165838900953
1789063897587207400,4.73020751953125,7.404940156170725,6.379885161015391,-0.796437305117771
1789063897597244200,4.740244140625,7.4046467261821025,6.380456238901615,-0.7945864896193147
1789063897607282200,4.7502822265625,7.404988671487569,6.380272114506363,-0.7928799779623746
1789063897617319400,4.7603193359375,7.405890004241466,6.380306601297855,-0.7841369187321513
1789063897627357200,4.770357177734375,7.409466693684458,6.376579689729214,-0.7806553602267057
1789063897637394200,4.780394287109375,7.413338566681742,6.371786610233784,-0.7830251580979675
1789063897647432400,4.790432373046875,7.417067816337942,6.367272932201623,-0.7844296911336481
1789063897657469200,4.80046923828125,7.419153974962234,6.364654274135828,-0.7859479136768728
1789063897667507200,4.810507080078125,7.42132430473864,6.362364117372036,-0.7839956836305558
1789063897677544400,4.82054443359375,7.422755214324593,6.3615153915882106,-0.777311748887226
1789063897687582200,4.830582275390625,7.420627554646134,6.3650669465899465,-0.7684972318559885
1789063897697619200,4.840619140625,7.418045136937499,6.368539006614685,-0.7646534889746457
1789063897707657200,4.8506572265625,7.415271580570936,6.3725611017376185,-0.7580204076357185
1789063897717695200,4.8606953125,7.414556710299849,6.373520302158593,-0.756946860120073
1789063897727732200,4.870732177734375,7.413273100230097,6.375250486952066,-0.7549494757577776
1789063897737770200,4.880770263671875,7.412126268282532,6.377119787955284,-0.7504111747410148
1789063897747807200,4.89080712890625,7.415523509505391,6.373803795275092,-0.744997113803029
1789063897757845200,4.90084521484375,7.420604758292436,6.3678977861016985,-0.7449061475839466
1789063897767882200,4.91088232421875,7.424180863213539,6.3642024387150995,-0.7408426244720816
1789063897777920300,4.920920166015625,7.428648364016413,6.3590767662644385,-0.7400763893399387
1789063897787957200,4.930957275390625,7.431607798343896,6.355889952921867,-0.7377348677150904
1789063897797995300,4.940995361328125,7.432790286126733,6.35457828580141,-0.737126453493163
1789063897808032300,4.9510322265625,7.432340204271673,6.355875339874625,-0.7304492407515645
1789063897818070300,4.9610703125,7.4307812843918795,6.358054437479376,-0.7273403880160302
1789063897828107300,4.971107177734375,7.425430571013688,6.364628555172682,-0.7244795186921954
1789063897838145300,4.981145263671875,7.421181096875667,6.3694590440690515,-0.7255706018645316
1789063897848182300,4.991182373046875,7.417771580693126,6.373349037244916,-0.7262728318497538
1789063897858220300,5.00122021484375,7.415189747506379,6.376170524406433,-0.7278692341957241
1789063897868258300,5.01125830078125,7.415102653744817,6.376666783490776,-0.724399000801891
1789063897878295300,5.02129541015625,7.41718472071588,6.3744432622224085,-0.7226544221568852
1789063897888333300,5.031333251953125,7.420781868425011,6.370527550083398,-0.7202452421233058
1789063897898370300,5.041370361328125,7.4255334468662735,6.364913801854849,-0.7209113778818398
1789063897908408000,5.051407958984375,7.4311518712699405,6.358009429293871,-0.7239337213777005
1789063897918445300,5.0614453125,7.434205998143553,6.3539703830361365,-0.7280293931934982
1789063897928483300,5.0714833984375,7.43592799963057,6.351932739728689,-0.728219947329536
1789063897938520300,5.081520263671875,7.437278829717636,6.350349854451418,-0.7282322222892195
1789063897948558300,5.091558349609375,7.436853882303834,6.351006857055426,-0.7268441289316863
1789063897958595300,5.10159521484375,7.434229379019141,6.35450288247764,-0.7231230625819415
1789063897968633000,5.111633056640625,7.431813550049066,6.3571998664766545,-0.7242565235912799
1789063897978670300,5.12167041015625,7.427768658572435,6.361746862256527,-0.7258243574298918
1789063897988708400,5.131708251953125,7.4230375383973115,6.3674903743445865,-0.723854883987829
1789063897998745000,5.1417451171875,7.419317056569457,6.37244536640346,-0.7183704612273722
1789063898008783400,5.151783447265625,7.4167849077433345,6.376311978703737,-0.7101692537888884
1789063898018821000,5.161821044921875,7.416174666890502,6.378330332788825,-0.6983159535836428
1789063898028858000,5.171858154296875,7.417578103947639,6.378117566820979,-0.6852278508864342
1789063898038896400,5.181896484375,7.41804279884994,6.378945249816775,-0.672369246096164
1789063898048933400,5.191933349609375,7.4201786418348545,6.377413802465796,-0.6632737932316959
1789063898058971100,5.20197119140625,7.423062672838569,6.374874639376998,-0.6553625086504966
1789063898069008400,5.21200830078125,7.424189046519994,6.374900358340144,-0.6422136156767606
1789063898079046100,5.222046142578125,7.42498165820241,6.375903982424735,-0.6227987211108207
1789063898089083100,5.232083251953125,7.425245277574658,6.377834073704481,-0.5994574468813836
1789063898099121400,5.242121337890625,7.424828513467311,6.380504169696569,-0.5757362699562684
1789063898109158400,5.252158447265625,7.423436766847968,6.384223482480645,-0.5519643126919865
1789063898119196200,5.262196044921875,7.421102770942449,6.388728977206349,-0.5308055336007849
1789063898129233400,5.2722333984375,7.418879834195971,6.393452498596906,-0.5043507304606959
1789063898139271200,5.282271240234375,7.4155059738487,6.399477750235795,-0.4767970627006143
1789063898149309200,5.29230908203125,7.409341021478176,6.4090563104420895,-0.44277503917664285
1789063898159346400,5.302346435546875,7.402931738957762,6.418703259709477,-0.4089344001015648
1789063898169384200,5.31238427734375,7.397916541144252,6.4265989813953635,-0.374223261802271
1789063898179421200,5.322421142578125,7.39502841848731,6.431649250522256,-0.34326135650128126
1789063898189459200,5.332459228515625,7.391691967540979,6.437112776625156,-0.3112077104408294
1789063898199496200,5.34249609375,7.391319627097249,6.438956943187117,-0.28038490308327596
1789063898209534200,5.3525341796875,7.391942727431655,6.439745463216305,-0.24340653223805128
1789063898219571500,5.362571533203125,7.3931374901741735,6.439560169777274,-0.20967163682607934
1789063898229609200,5.372609130859375,7.393842423573136,6.4397776119202375,-0.1753414789346978
1789063898239646200,5.382646240234375,7.393449040341377,6.440975297272205,-0.145382193071302
1789063898249684200,5.392684326171875,7.391514272886514,6.443765220251679,-0.11744359024739824
1789063898259721200,5.40272119140625,7.391544083502888,6.444075016853213,-0.09673439068775623
1789063898269759200,5.41275927734375,7.391387431636452,6.444579459244013,-0.07193902692617848
1789063898279797200,5.42279736328125,7.390186239153146,6.446193324181437,-0.04616014571969863
1789063898289834200,5.432834228515625,7.387936414399743,6.448921872362494,-0.01367392948634806
1789063898299872300,5.442872314453125,7.388543732643127,6.448224537748098,0.014706367531826253
1789063898309909200,5.4529091796875,7.390338799366354,6.446056546059251,0.04045902060179505
1789063898319947300,5.462947265625,7.392450676953792,6.443472374784946,0.060999622128880576
1789063898329984300,5.472984375,7.393693370491266,6.441815839749574,0.08181169297453016
1789063898340022300,5.483022216796875,7.396123227986693,6.438745346263051,0.10154264948600902
1789063898350059300,5.493059326171875,7.398108264324069,6.436071743139625,0.12395816890634595
1789063898360097300,5.50309716796875,7.399066295701265,6.4345578314453356,0.1437493859713897
1789063898370134300,5.51313427734375,7.399985748633742,6.433034567400813,0.16326136596994473
1789063898380172300,5.52317236328125,7.399307703241705,6.4332730523318045,0.18336809699125586
1789063898390209300,5.533209228515625,7.399125916934013,6.432827646651863,0.2050252175260335
1789063898400247300,5.543247314453125,7.39866472916305,6.432691453051567,0.22499423884339628
1789063898410284300,5.5532841796875,7.398374806305766,6.43233138756752,0.24403195239370687
1789063898420322300,5.563322265625,7.397036835700273,6.433206416836381,0.2609359418509528
1789063898430360300,5.5733603515625,7.395964238032698,6.433908427625894,0.27372354549793526
1789063898440397300,5.583397216796875,7.394311794650554,6.435268610063195,0.2861155374234542
1789063898450435000,5.59343505859375,7.3959034477561705,6.432800758644938,0.3001220336072147
1789063898460472300,5.603472412109375,7.399534497734904,6.427899542599916,0.3152299151616171
1789063898470510300,5.61351025390625,7.4036267354845995,6.422293977677822,0.33292587698046117
1789063898480547000,5.623547119140625,7.407090027680993,6.417599097859859,0.3461605485415086
1789063898490585300,5.63358544921875,7.410459796375036,6.413276558485626,0.35405729314070195
1789063898500622300,5.643622314453125,7.41272715678513,6.4104837128967045,0.3571532133294269
1789063898510660000,5.65366015625,7.412817757678032,6.410166902032494,0.3609431071316823
1789063898520697300,5.663697265625,7.411648129376768,6.411358742165565,0.3637740197086707
1789063898530735400,5.6737353515625,7.406969616171717,6.416408426770568,0.3699956707024947
1789063898540772000,5.683772216796875,7.400691266554594,6.423429703709483,0.3737729972841218
1789063898550810400,5.693810302734375,7.393408123809099,6.43192105320096,0.37188572223279626
1789063898560847400,5.703847412109375,7.387292855799198,6.439066833302379,0.3697395405169576
1789063898570885000,5.713885009765625,7.381509011700749,6.445781236249208,0.36825711993947624
1789063898580922600,5.723922607421875,7.379449741083383,6.448247334101795,0.36635000767651943
1789063898590959900,5.7339599609375,7.376804195010662,6.451210275560617,0.36746600609440355
1789063898600997600,5.74399755859375,7.3776768861919635,6.4501891158193345,0.36787042217683047
1789063898611034600,5.75403466796875,7.384280229979753,6.4431292604357004,0.35898835633471604
1789063898621073000,5.764072998046875,7.393547240018844,6.433180697873234,0.3464378676455468
1789063898631109600,5.774109619140625,7.4025009463250635,6.423429703709483,0.33603728699926283
1789063898641147600,5.784147705078125,7.413557762390375,6.4109969231158495,0.3296456862660125
1789063898651184600,5.7941845703125,7.421607797855138,6.401750955864787,0.3281797418992966
1789063898661222700,5.80422265625,7.426846867552399,6.395767789801955,0.32632297158408907
1789063898671259600,5.814259765625,7.429481892231106,6.3928837587982414,0.3228307455541566
1789063898681297700,5.824297607421875,7.429406488907337,6.393340270394086,0.3154529467951506
1789063898691334700,5.834334716796875,7.427094704833626,6.396314902290701,0.30951771152727303
1789063898701372700,5.84437255859375,7.421458160251379,6.403040411153436,0.30564803048707545
1789063898711409700,5.85440966796875,7.4151295417517415,6.41037966800034,0.3054154273075983
1789063898721447700,5.86444775390625,7.409288999029994,6.41713206487,0.30534060850571837
1789063898731485700,5.874485595703125,7.4069082413733005,6.420016095873713,0.30247234132671724
1789063898741522700,5.884522705078125,7.405693604886531,6.421587875235081,0.29881999283162874
1789063898751560700,5.894560791015625,7.4049828262686725,6.4225201876491305,0.2963848929055035
1789063898761597700,5.90459765625,7.405883574500679,6.421624115592241,0.2932921693208627
1789063898771635700,5.9146357421875,7.408010649657249,6.419259724548459,0.29134476158013567
1789063898781672700,5.924672607421875,7.409442143765092,6.4177639330327505,0.28784517422765493
1789063898791710700,5.934710693359375,7.413267255011201,6.413573495605587,0.2827278677465394
1789063898801747500,5.94474755859375,7.41643887078464,6.4100342155635355,0.2798030480747111
1789063898811785700,5.95478564453125,7.4186939562350505,6.40752603213489,0.277443205341883
1789063898821822700,5.96482275390625,7.422399240493774,6.403240317639709,0.27728529310012234
1789063898831860700,5.97486083984375,7.424624515327811,6.400619321486354,0.2782146463721059
1789063898841897700,5.984897705078125,7.423122878593206,6.402257736343145,0.2805754754856229
1789063898851935700,5.994935791015625,7.421475695908069,6.404221145370602,0.2793507011973299
1789063898861972500,6.004972412109375,7.418746563205122,6.407441860982775,0.2779703162222169
1789063898872010800,6.0150107421875,7.415987035363912,6.410759022706746,0.27511558437822387
1789063898882048500,6.025048583984375,7.41239105669856,6.414898022207617,0.2755466327392496
1789063898892085800,6.035085693359375,7.408063256627321,6.419801576340198,0.27773250714465975
1789063898902123800,6.045123779296875,7.407242003372311,6.420684204393625,0.279216279429011
1789063898912160500,6.055160400390625,7.407609667640924,6.4202890675961966,0.27856327714668583
1789063898922198800,6.06519873046875,7.407993698522448,6.420014926829934,0.27464036808190867
1789063898932235800,6.07523583984375,7.407032744535804,6.421200337222218,0.27282402110863474
1789063898942273500,6.0852734375,7.404351542627811,6.424276091405749,0.2732019327766262
1789063898952310500,6.095310546875,7.402652337494492,6.426130194839835,0.27564927112981674
1789063898962348800,6.105348876953125,7.404164495623111,6.424363185167312,0.27621068613855165
1789063898972385500,6.115385498046875,7.404717453330755,6.423748852661252,0.2756761408704333
1789063898982423800,6.125423828125,7.402088273870945,6.42669835011661,0.27753289291933175
1789063898992460800,6.135460693359375,7.402481072580814,6.426478569886088,0.2720821897653863
1789063899002498600,6.14549853515625,7.404459094655513,6.424500547811388,0.2648958767241798
1789063899012535600,6.15553564453125,7.406666833832859,6.422075366491079,0.26195414245016874
1789063899022573800,6.16557373046875,7.409571323102712,6.4187190418004985,0.2620804722435772
1789063899032611600,6.175611572265625,7.41263421780467,6.415205480721593,0.2614818304969929
1789063899042648800,6.18564892578125,7.416713596072793,6.410622829106449,0.2581707879865542
1789063899052686600,6.1956865234375,7.423038122919201,6.4035653118103735,0.25146389249274503
1789063899062723600,6.2057236328125,7.427889070081711,6.398292924365401,0.24228046908387912
1789063899072761900,6.215761962890625,7.430468565180897,6.395588926103711,0.2344716219638474
1789063899082798600,6.225798583984375,7.429985750100016,6.3963716009140015,0.22832542909272013
1789063899092836600,6.235836669921875,7.427840554764867,6.399060986128449,0.22268024454629048
1789063899102873600,6.24587353515625,7.424799287372827,6.402924091297388,0.21286135451178997
1789063899112911600,6.25591162109375,7.418382990589738,6.410756684619188,0.20046103314934297
1789063899122948600,6.265948486328125,7.407966225993633,6.423102371451258,0.19018161293100563
1789063899132987000,6.27598681640625,7.398298818460106,6.434538542222977,0.17963132161572576
1789063899143023600,6.286023681640625,7.3916539736181495,6.442478103050589,0.1682807102356106
1789063899153061600,6.2960615234375,7.387435479140281,6.4475353864401574,0.15957971831513568
1789063899163098600,6.3060986328125,7.384793440198898,6.4507812364935875,0.1504465363893192
1789063899173136600,6.31613671875,7.3842732157170765,6.4517082882106305,0.13548669413663447
1789063899183174700,6.326174560546875,7.38809072817862,6.4477212644010775,0.11570703964522108
1789063899193212000,6.3362119140625,7.395164027565717,6.4400424003362655,0.08826570968581363
1789063899203249700,6.346249755859375,7.401493230587244,6.4330579482764,0.06364957038208376
1789063899213286700,6.35628662109375,7.406583831724524,6.427357106286287,0.044474261292256415
1789063899223324700,6.36632470703125,7.411649882942438,6.421596058541536,0.030606609606894198
1789063899233361700,6.376361572265625,7.417370598676801,6.415044737201929,0.014321537499281112
1789063899243399700,6.386399658203125,7.421072375804186,6.4107753893196575,-0.005594787228931091
1789063899253436700,6.396436767578125,7.420026081621646,6.41192689744234,-0.028147592232353053
1789063899263474700,6.406474609375,7.415555073687433,6.41694443334341,-0.052468342485814355
1789063899273511700,6.41651171875,7.410876560482382,6.422134987723827,-0.07403477992929984
1789063899283549700,6.4265498046875,7.407555307105183,6.425666084459424,-0.09655192852662876
1789063899293586700,6.436586669921875,7.403249134343862,6.430358041667938,-0.11306737532401456
1789063899303624700,6.446624755859375,7.398591663926839,6.435452734458446,-0.12716523045250214
1789063899313661700,6.45666162109375,7.397861011564731,6.435942563802003,-0.14382076157401316
1789063899323699700,6.46669970703125,7.400073426917195,6.432952734336257,-0.16255751028321683
1789063899333736700,6.47673681640625,7.401955587401986,6.4303083573073145,-0.18049796664873138
1789063899343774500,6.4867744140625,7.40550889596939,6.425731550911069,-0.19695596590414644
1789063899353812700,6.496812744140625,7.411015676692128,6.418857573488355,-0.21329258553590624
1789063899363849700,6.506849609375,7.417609083607792,6.410617568409442,-0.23116386738903819
1789063899373887700,6.5168876953125,7.422121592596173,6.40484073857367,-0.24599278587158768
1789063899383924700,6.5269248046875,7.424650818812847,6.4014271307379005,-0.25822197018451987
1789063899393962500,6.53696240234375,7.427147896325588,6.398056777521967,-0.2696757131455466
1789063899403999500,6.54699951171875,7.4274448334455485,6.397239615920186,-0.2806662407753058
1789063899414037800,6.557037841796875,7.425264566797018,6.399305900800227,-0.291050308678206
1789063899424074800,6.56707470703125,7.422227391058206,6.4022904695689675,-0.30265303165586666
1789063899434112800,6.57711279296875,7.417593301516771,6.407184671351313,-0.31253249277118594
1789063899444149800,6.587149658203125,7.409525730395317,6.416056544592976,-0.32176033984366803
1789063899454187500,6.5971875,7.401025613075494,6.425388436561822,-0.3310472236270085
1789063899464224500,6.607224609375,7.393419814246893,6.4335623906672,-0.34205347854886203
1789063899474262800,6.6172626953125,7.385283269542455,6.442429003211855,-0.3508297459289431
1789063899484299800,6.6272998046875,7.37971745210886,6.448271299499273,-0.36048977387361225
1789063899494337500,6.637337646484375,7.378290049654245,6.449319931769371,-0.37080775427035984
1789063899504375800,6.647375732421875,7.381004569309949,6.445596527332067,-0.38136348894573746
1789063899514412500,6.65741259765625,7.388716751122474,6.435903985357284,-0.3954644584799185
1789063899524450800,6.667450927734375,7.399682966294884,6.4225505827873945,-0.4073353308744728
1789063899534487800,6.67748779296875,7.4092258706659075,6.410951330408453,-0.41648503467682746
1789063899544525600,6.687525634765625,7.41886405210495,6.399315253150463,-0.42380160476788875
1789063899554562600,6.6975625,7.427769243094325,6.388383524769544,-0.4326502067318186
1789063899564600800,6.707600830078125,7.43201170296967,6.382783805066347,-0.4423394973035902
1789063899574637800,6.717637939453125,7.433286545211076,6.380770711678267,-0.4498996303595602
1789063899584676000,6.727676025390625,7.431407307335734,6.38240445035994,-0.45769634865038095
1789063899594713000,6.737713134765625,7.427701438555121,6.38637744564414,-0.46240796040743587
1789063899604750800,6.747750732421875,7.421246563327312,6.393652405083179,-0.46550358833521605
1789063899614787800,6.757787841796875,7.414494750979542,6.401500195974111,-0.4652406996153295
1789063899624825900,6.767825927734375,7.40920248979032,6.407505573868751,-0.4668891244094819
1789063899634862800,6.77786279296875,7.406260006597638,6.410621075540781,-0.47078967551197853
1789063899644901000,6.787901123046875,7.4050886247307055,6.412085887396335,-0.46925300399661063
1789063899654937900,6.797937744140625,7.405352828624844,6.411972490149736,-0.4666208653947338
1789063899664976000,6.807975830078125,7.40849346473813,6.40875586619079,-0.4609227268183604
1789063899675014100,6.81801416015625,7.413541980299353,6.403234472420811,-0.45646527248546476
1789063899685051000,6.82805078125,7.419419932422041,6.396925143143534,-0.4493837167266756
1789063899695089000,6.8380888671875,7.42628689558208,6.38921237680912,-0.44566250424645837
1789063899705126000,6.8481259765625,7.431141349875927,6.384181981426477,-0.4367495683420449
1789063899715164000,6.858163818359375,7.434866507878899,6.3805024161309,-0.4270038714079186
1789063899725201000,6.868200927734375,7.436625918766856,6.378874522668123,-0.4206463921399787
1789063899735239000,6.878239013671875,7.4349758134722705,6.381407256016135,-0.41129480908997357
1789063899745276000,6.88827587890625,7.429126502922177,6.388928883692622,-0.40007487488482146
1789063899755314000,6.89831396484375,7.422917126888036,6.397040293955802,-0.38543472044002264
1789063899765351000,6.908350830078125,7.413664145374297,6.408763464975356,-0.3684070498041808
1789063899775389000,6.918388916015625,7.402561736601591,6.42263241585195,-0.3496537244195118
1789063899785426000,6.928426025390625,7.395244691586494,6.431767323943972,-0.3363245429754257
1789063899795464000,6.9384638671875,7.390195006981491,6.4380877591371535,-0.3262381428448483
1789063899805501000,6.9485009765625,7.387195825165509,6.442046725896001,-0.3158536365505308
1789063899815539000,6.9585390625,7.386276956754922,6.443841208097338,-0.3003491203613579
1789063899825576000,6.968575927734375,7.389493580713868,6.44096594492197,-0.2823798762927763
1789063899835614000,6.978614013671875,7.397692084738612,6.432253646156192,-0.2658022692456841
1789063899845652000,6.98865185546875,7.406027951407432,6.423322151681781,-0.24913080990267916
1789063899855688700,6.998688720703125,7.412514975339174,6.416425962427258,-0.2334207794703543
1789063899865727000,7.00872705078125,7.416947404828667,6.411755048006772,-0.2206252299789339
1789063899875764000,7.018763916015625,7.422363000136613,6.405841440048813,-0.21001286974549294
1789063899885802000,7.028802001953125,7.423762345540523,6.404665382006764,-0.1959580043753609
1789063899895839000,7.0388388671875,7.4241148122400045,6.404744876983761,-0.1792869468911551
1789063899905877000,7.048876953125,7.421842191132902,6.407875576224923,-0.16053919273074715
1789063899915913700,7.058913818359375,7.420229495239258,6.410061103570461,-0.14728807235839775
1789063899925952000,7.068951904296875,7.4190885085105895,6.41162937580049,-0.136102396615874
1789063899935989000,7.078989013671875,7.414632113623619,6.417036203280091,-0.12355480313668958
1789063899946027000,7.089027099609375,7.409704594093561,6.4229837135076515,-0.10927286014556885
1789063899956064000,7.09906396484375,7.40416566466689,6.429619790521263,-0.09330495509519242
1789063899966101800,7.109101806640625,7.399812730154395,6.434840155518055,-0.07731469208253547
1789063899976138800,7.119138671875,7.395351074570417,6.4401201417475935,-0.06337826089372392
1789063899986177000,7.129177001953125,7.392036250934004,6.444040530061722,-0.0503314172220882
1789063899996214000,7.139214111328125,7.3885671135187145,6.448090682235359,-0.039804246487491764
1789063900006251800,7.149251708984375,7.3880819603502745,6.448690401694178,-0.03199358643628657
1789063900016290000,7.1592900390625,7.389124162879586,6.447544738790392,-0.020153406007518058
1789063900026326800,7.169326904296875,7.389483643841743,6.44715778529942,-0.008855355360879912
1789063900036365000,7.179364990234375,7.391962601175904,6.444321685090661,0.001882564341467514
1789063900046402000,7.189402099609375,7.394540927231311,6.441355821022391,0.008870637411691131
1789063900056439800,7.199439697265625,7.397170691213011,6.438326244068145,0.014641156808508093
1789063900066476800,7.209476806640625,7.400498958852887,6.434491780471801,0.018026409624406367
1789063900076515000,7.21951513671875,7.403703892374038,6.4307935104757545,0.021451282064639962
1789063900086551800,7.2295517578125,7.4068649867534635,6.427134403446316,0.026151977418747262
1789063900096590000,7.239590087890625,7.410906955620646,6.4224652425915,0.027989956268516834
1789063900106627000,7.249626953125,7.41311820192933,6.419905621236563,0.02947752109528519
1789063900116664800,7.259664794921875,7.411826408553123,6.4214008282303805,0.028678260476374996
1789063900126701800,7.269701904296875,7.41131027572453,6.422001716732979,0.027611782022332772
1789063900136740000,7.279739990234375,7.410368610960245,6.423093019101024,0.026329224548640194
1789063900146776800,7.28977685546875,7.406975461390614,6.427002301499247,0.02722578751258552
1789063900156814800,7.29981494140625,7.404625683394074,6.429710391414165,0.0270188690469251
1789063900166852000,7.30985205078125,7.400079856657982,6.4349360171079635,0.028306173477682748
1789063900176889900,7.319889892578125,7.398504570165276,6.43677083131969,0.022217204386240336
1789063900186926800,7.3299267578125,7.398769358581304,6.436495521509647,0.011352080676349578
1789063900196964900,7.33996484375,7.400621708449721,6.434374291571975,0.0008364458294476207
1789063900207003000,7.3500029296875,7.403119370484352,6.431497274830937,-0.006745981399426819
1789063900217040000,7.360039794921875,7.407237327197194,6.426748618999123,-0.011260661224473733
1789063900227078000,7.370077880859375,7.412676887902617,6.420463255119324,-0.01623469476889004
1789063900237115000,7.380114990234375,7.416987152317166,6.415465008440614,-0.022383799974666906
1789063900247153200,7.390153076171875,7.418912567421794,6.413210507512092,-0.029225012205517847
1789063900257190000,7.40018994140625,7.420220727410912,6.411629960322379,-0.04130407942407764
1789063900267228000,7.410227783203125,7.420138309824466,6.411617685362696,-0.05558503603450954
1789063900277265000,7.420264892578125,7.417276490652561,6.414815604621172,-0.06732341375635005
1789063900287303000,7.430302978515625,7.41337889869213,6.419236343672871,-0.07488160145040601
1789063900297340000,7.44033984375,7.406811795261502,6.426776091527938,-0.07794030403443612
1789063900307378000,7.4503779296875,7.3975728422731155,6.437337817552685,-0.08358443826809525
1789063900317415000,7.460414794921875,7.386008076685666,6.450534568256139,-0.08870703284568153
1789063900327453000,7.470452880859375,7.373218737739324,6.465008499288558,-0.09844819060200825
1789063900337490000,7.480489990234375,7.363207631334662,6.476248855227231,-0.10842233513030224
1789063900347528000,7.49052783203125,7.356969613727927,6.48311581838727,-0.12075634065773337
1789063900357565000,7.50056494140625,7.353972769999504,6.486372774356603,-0.12818910274067893
1789063900367603000,7.51060302734375,7.3557356880187985,6.484190169620514,-0.13715834454274736
1789063900377640000,7.520639892578125,7.361201552209257,6.477805437019467,-0.14536349750398658
1789063900387678000,7.530677978515625,7.371816469725966,6.465534568989277,-0.15352955143069846
1789063900397715700,7.5407158203125,7.385127202197909,6.4501382624149315,-0.16121818797085433
1789063900407753000,7.5507529296875,7.398791570413112,6.434188998132944,-0.1716819335138425
1789063900417791000,7.560791015625,7.409491243603825,6.421703610569239,-0.17759972445657476
1789063900427827700,7.57082763671875,7.416267021349072,6.413731901037693,-0.18277579365391283
1789063900437866000,7.580865966796875,7.420182733488082,6.409094888886809,-0.1864899188062176
1789063900447903000,7.590903076171875,7.418965174391865,6.4103767453908915,-0.19080822039674966
1789063900457940700,7.600940673828125,7.414314718237518,6.415674267277121,-0.1935229227155447
1789063900467978000,7.61097802734375,7.408043967404961,6.422851611560583,-0.19556865799790246
1789063900478016000,7.62101611328125,7.4003680259495965,6.431674969485401,-0.19619988683983683
1789063900488052700,7.631052734375,7.393802676084637,6.439256218394637,-0.19506399641139432
1789063900498091000,7.641091064453125,7.388918995696306,6.444913805764913,-0.19325223428169264
1789063900508128000,7.6511279296875,7.385808170199394,6.448560637834667,-0.19048086987221613
1789063900518165800,7.661165771484375,7.38396809529066,6.45075727109611,-0.18742013059472665
1789063900528203000,7.671203125,7.384788179501891,6.449964074891805,-0.18237371565904467
1789063900538241000,7.681240966796875,7.3871753668993705,6.447395685708522,-0.17641131838960572
1789063900548277800,7.69127783203125,7.389255095782875,6.445213080972433,-0.16890412109727038
1789063900558316000,7.70131591796875,7.393090728422999,6.441027319720387,-0.16052054282920433
1789063900568353000,7.71135302734375,7.395668469956517,6.43826136213839,-0.15251942454008385
1789063900578390500,7.721390625,7.396084065020084,6.438006510594487,-0.1427935374181252
1789063900588428500,7.731428466796875,7.394061034759878,6.440531645157932,-0.13344291334934533
1789063900598465500,7.741465576171875,7.391523040714859,6.44365240752697,-0.12295913879848085
1789063900608503600,7.751503662109375,7.3890867534786455,6.446685491612553,-0.10968423569174483
1789063900618540500,7.76154052734375,7.385107912975549,6.451472141367197,-0.09529032935928552
1789063900628578300,7.771578369140625,7.380668469223379,6.456716471761465,-0.0832604852770455
1789063900638615600,7.781615478515625,7.377517896237969,6.460408896538615,-0.07570596454453188
1789063900648653600,7.791653564453125,7.374304194888472,6.464142822369933,-0.06980748109046835
1789063900658690600,7.801690673828125,7.372435478407144,6.466337702065706,-0.06370306326814461
1789063900668728600,7.811728515625,7.373354931339621,6.465377917122841,-0.05397255476999562
1789063900678765600,7.821765625,7.374782918316125,6.463856406643987,-0.03913448030003346
1789063900688803300,7.83180322265625,7.379662507051229,6.458353133052587,-0.02555052266056882
1789063900698840600,7.841840576171875,7.386401459917425,6.450678360641002,-0.014387607880769064
1789063900708878600,7.851878662109375,7.390494866710901,6.44600101647973,-0.006545540052792057
1789063900718915600,7.86191552734375,7.395965407076478,6.439726758515834,-0.0005820856207166799
1789063900728953600,7.87195361328125,7.401339501330256,6.433549531185626,0.0027099219686337163
1789063900738990600,7.881990478515625,7.404560801464319,6.429828464835881,0.013029800063645234
1789063900749028400,7.8920283203125,7.405636321741342,6.428548946419358,0.026422494605951943
1789063900759065600,7.902065673828125,7.404289583307504,6.430040061759948,0.03814696253344882
1789063900769103600,7.912103515625,7.401483293715119,6.433183035960793,0.05079697064091451
1789063900779140400,7.922140380859375,7.399400057700276,6.4355345675230025,0.056183093259204175
1789063900789178600,7.9321787109375,7.396579739582538,6.4387359939128155,0.060593772141193034
1789063900799216400,7.94221630859375,7.391964939263462,6.443944668471813,0.0693790630779462
1789063900809253400,7.95225341796875,7.385481422463059,6.451238332611322,0.08108035562583245
1789063900819291600,7.962291748046875,7.378820211008191,6.458678711745143,0.09418527246052398
1789063900829328600,7.97232861328125,7.374617498621344,6.463277729973196,0.1069510935339611
1789063900839366400,7.982366455078125,7.372353060820698,6.4657338909536595,0.11438409307892433
1789063900849403600,7.992403564453125,7.3702756700247525,6.468021709629893,0.11883872526707127
1789063900859441400,8.00244140625,7.37015058234036,6.468046844071149,0.12503557974635623
1789063900869478400,8.012478515625,7.3714014591842885,6.4664417469620705,0.13400311364852824
1789063900879516700,8.0225166015625,7.374594117745756,6.462527203866839,0.14658287409795448
1789063900889553700,8.0325537109375,7.380448104470968,6.45562458487153,0.15583302433378993
1789063900899591400,8.04259130859375,7.3879890213698145,6.4469876894295215,0.15604887730786576
1789063900909628400,8.05262841796875,7.392899589765071,6.441321918752789,0.15746818778757005
1789063900919666400,8.06266650390625,7.39724726358056,6.436403167051076,0.15438695371132344
1789063900929703400,8.072703369140624,7.402367090812325,6.43052229231894,0.15403852386614306
1789063900939741700,8.08274169921875,7.406811210739612,6.425389605605602,0.15459427631907163
1789063900949778400,8.0927783203125,7.407409761154651,6.424638494977355,0.15710764737948774
1789063900959816400,8.10281640625,7.404947170433402,6.4274471226572985,0.15832093215938656
1789063900969853400,8.112853515625,7.401664495500921,6.431318995654583,0.15454477462153882
1789063900979891500,8.122891357421874,7.398451963195204,6.435189699608087,0.14708317003659904
1789063900989929500,8.132929443359375,7.393837162876129,6.440733305209875,0.1360670695741661
1789063900999966700,8.142966796875,7.389192551940679,6.446226641929149,0.1279834058344364
1789063901010004500,8.15300439453125,7.38575965488255,6.450319464200735,0.11964512801282107
1789063901020041500,8.16304150390625,7.3821847190052265,6.454490027883648,0.11529868717319332
1789063901030079500,8.17307958984375,7.381406135848164,6.455491898402571,0.10891044744080863
1789063901040116500,8.183116455078125,7.383648946338892,6.45312575379312,0.09633514397079125
1789063901050154500,8.193154541015625,7.385500127163529,6.451198000600933,0.08253755956366658
1789063901060191500,8.20319140625,7.387528418120741,6.449069171878695,0.06566422553958837
1789063901070229500,8.2132294921875,7.388492294716834,6.448101788151264,0.05045936815042514
1789063901080266500,8.2232666015625,7.384954768240451,6.452222082951664,0.04075217202920466
1789063901090304500,8.233304443359375,7.380285022863745,6.45762014260292,0.030216719806741454
1789063901100341500,8.243341552734375,7.38010849725306,6.457874994146824,0.015100400359201011
1789063901110379500,8.253379638671875,7.37621090529263,6.462344248515367,-0.0009939621346889908
1789063901120416500,8.26341650390625,7.370292036637664,6.469075018075108,-0.015775076758861542
1789063901130454500,8.27345458984375,7.365642165005206,6.474318763947487,-0.029904217508179134
1789063901140491500,8.283491455078124,7.36261434161663,6.477711913517117,-0.03916406715412158
1789063901150529500,8.293529541015625,7.362721309122443,6.477513176074623,-0.05033085553308483
1789063901160566500,8.30356640625,7.3605924804002045,6.479838404151797,-0.0612688127253903
1789063901170604500,8.3136044921875,7.359259770491719,6.481221967464685,-0.0737958611734677
1789063901180641500,8.3236416015625,7.361736389738321,6.478212264254688,-0.08934385117818601
1789063901190679600,8.333679443359374,7.365249950817227,6.47401305899918,-0.10314322568359784
1789063901200716500,8.343716552734374,7.368749483370781,6.469856523841619,-0.11351329246060922
1789063901210754300,8.35375439453125,7.374045836213231,6.463654746592044,-0.12251181515608914
1789063901220792600,8.36379248046875,7.379733818721771,6.457026268362998,-0.12931372285643591
1789063901230829600,8.37382958984375,7.384148712554573,6.45182110093534,-0.13690134670753032
1789063901240867600,8.38386767578125,7.389602886307239,6.445391944670677,-0.14518590331422165
1789063901250904600,8.393904541015624,7.396022690221667,6.437731785306334,-0.15759860923420638
1789063901260942300,8.4039423828125,7.399025379168987,6.434110672199726,-0.1644131846198812
1789063901270979300,8.413979248046875,7.398365453955531,6.434758322453498,-0.16867707087574527
1789063901281017600,8.424017578125,7.396317873775959,6.437119790887833,-0.16837825232595205
1789063901291054600,8.4340546875,7.39487878088355,6.4387435926973815,-0.1695287192690186
1789063901301092600,8.444092529296874,7.393615629079937,6.4400564288616176,-0.17466454778751359
1789063901311129600,8.454129638671875,7.392432556775212,6.441350560325383,-0.17699647960010914
1789063901321167400,8.46416748046875,7.391397368508577,6.442421404427289,-0.18120967684835196
1789063901331204400,8.474204345703125,7.3931298913896075,6.440250490128993,-0.18757902921717612
1789063901341242600,8.48424267578125,7.395491944345832,6.437504990813136,-0.18871007907371967
1789063901351279600,8.494279541015626,7.397374689352512,6.435317709901929,-0.18952356914738192
1789063901361317400,8.5043173828125,7.4009741751492015,6.431228394761681,-0.18779258063631132
1789063901371354600,8.514354736328125,7.401236040955782,6.43098757174313,-0.1857136006714776
1789063901381392400,8.524392333984375,7.399499426421523,6.433081329151988,-0.1823650939611718
1789063901391429400,8.534429443359375,7.3993123794168225,6.433251425021886,-0.18393427950665353
1789063901401467600,8.544467529296876,7.398971018633246,6.433565313276648,-0.18666872770553453
1789063901411504400,8.55450439453125,7.397379365527629,6.435335830080509,-0.18872262802803888
1789063901421542400,8.56454248046875,7.394698163619637,6.43854134812355,-0.18443775378307325
1789063901431580400,8.574580322265625,7.392094703122973,6.441653927186131,-0.18007091860938818
1789063901441617400,8.584617431640625,7.38881904245317,6.445510602614283,-0.17645325783519072
1789063901451655700,8.59465576171875,7.388247380045056,6.4463178273439405,-0.1708102287132293
1789063901461692700,8.604692626953126,7.388063255649804,6.446587291935086,-0.16856610304825007
1789063901471730400,8.61473046875,7.385774852451681,6.449300642547011,-0.16503440352445467
1789063901481767400,8.624767333984375,7.3851657806426285,6.449945954713225,-0.16703198881614953
1789063901491805400,8.634805419921875,7.387488086110353,6.44706426179707,-0.17539293512729928
1789063901501842400,8.644842529296875,7.39055331889987,6.4433852810233825,-0.18135401722248642
1789063901511880400,8.65488037109375,7.391580908381939,6.442163045752048,-0.1829146906679496
1789063901521917700,8.664917724609374,7.395245276108383,6.437967347627878,-0.18248762436229735
1789063901531955500,8.67495556640625,7.4038874322474,6.427905972340703,-0.18672222972474992
1789063901541992400,8.684992431640625,7.411293909111619,6.419212962797284,-0.19186474371235818
1789063901552030500,8.695030517578125,7.414543266296386,6.415221847334504,-0.19966210132399573
1789063901562067500,8.7050673828125,7.4176967618912455,6.411226640218496,-0.21056003703316672
1789063901572105500,8.71510546875,7.4226160981148475,6.404993298786878,-0.22629854464130475
1789063901582142700,8.725142822265624,7.425437585276365,6.401283922874927,-0.23836919565796852
1789063901592181000,8.735180908203125,7.424469032505154,6.402230848336219,-0.24308327336674554
1789063901602218000,8.745218017578125,7.420687760400772,6.406386798971891,-0.24896816668687388
1789063901612255700,8.755255859375,7.415567348647117,6.411975997281075,-0.2575175117095932
1789063901622293000,8.76529296875,7.4103171730339525,6.417459397128224,-0.27166831173487005
1789063901632331000,8.7753310546875,7.404789934045076,6.423259607839584,-0.2849701850469224
1789063901642367700,8.78536767578125,7.398952898454666,6.429390657940506,-0.2980226684414781
1789063901652406000,8.795406005859375,7.391807702875137,6.4372536464005705,-0.3054945386921055
1789063901662443800,8.80544384765625,7.388402278345823,6.440973543706536,-0.3094471670417115
1789063901672480800,8.815480712890626,7.387893159779906,6.441344715106487,-0.3138438310980797
1789063901682519000,8.82551904296875,7.386807702630758,6.442311514312029,-0.3194965596301481
1789063901692556000,8.83555615234375,7.386863816732168,6.441820515924692,-0.3279684007035568
1789063901702593800,8.84559375,7.389374338248372,6.438497508981824,-0.3365732205068692
1789063901712631000,8.855631103515625,7.393338565704226,6.433717873489856,-0.34089097410812974
1789063901722668800,8.865668701171876,7.3952984676003455,6.431501366484165,-0.3401892921121791
1789063901732705800,8.875705810546876,7.395739781627059,6.431105645164847,-0.33808497677668925
1789063901742744000,8.885744140625,7.395594235676526,6.431206767451763,-0.3393496264176443
1789063901752780800,8.89578076171875,7.394231715151667,6.432537139272689,-0.3437803754067048
1789063901762818800,8.90581884765625,7.39101742928028,6.435915675795078,-0.349619128030166
1789063901772856000,8.91585595703125,7.386875507169962,6.440625168660283,-0.3504257682379335
1789063901782893800,8.925893798828126,7.386381586173177,6.441285678395628,-0.34870314569640903
1789063901792930800,8.935930908203124,7.384419930711388,6.443824256962538,-0.34329102098718284
1789063901802969000,8.945968994140625,7.38184335822165,6.447067768928409,-0.3377589231600985
1789063901813005800,8.956005859375,7.381500828394294,6.447483948513865,-0.3373171342093497
1789063901823043800,8.9660439453125,7.381766201332211,6.447092903369665,-0.33896862774342296
1789063901833080800,8.976080810546875,7.383646023729443,6.444929003334045,-0.33917576768808066
1789063901843118800,8.986118896484374,7.385269825538993,6.443247333857417,-0.33575324589349326
1789063901853155800,8.99615576171875,7.386121473932266,6.442683270233869,-0.32777057657651604
1789063901863194000,9.006194091796875,7.388027599814534,6.440967113965749,-0.31839985043462365
1789063901873230800,9.01623095703125,7.3923682593673465,6.4363225030303,-0.3114899979809299
1789063901883268900,9.026268798828125,7.396311444035172,6.432073613414168,-0.3056020359208807
1789063901893305900,9.036305908203126,7.399906253656744,6.428166084581613,-0.30075158194871615
1789063901903343900,9.04634375,7.4024144370853895,6.425583666872978,-0.29413378951046615
1789063901913380900,9.056380859375,7.403898538163304,6.42429304254055,-0.28482038304638113
1789063901923419000,9.0664189453125,7.403882756072282,6.424820281285047,-0.27310736809466035
1789063901933457000,9.076456787109375,7.399468446761369,6.430287899041176,-0.26391170625872906
1789063901943494000,9.086493896484376,7.393207632800936,6.4379094799607985,-0.25334729508655146
1789063901953532000,9.096531982421874,7.388198280206322,6.443948760125041,-0.24583288260214028
1789063901963569000,9.10656884765625,7.382365920791029,6.450949578797817,-0.23730964013505726
1789063901973607000,9.11660693359375,7.375922736001014,6.458741840109229,-0.225386453031376
1789063901983643600,9.1266435546875,7.36824796358943,6.4679737788349385,-0.21124082237156105
1789063901993682000,9.136681884765625,7.36099170885086,6.4766013219267125,-0.19956793850082902
1789063902003719000,9.146718994140626,7.353784553951025,6.485027789488434,-0.19143789660241453
1789063902013757000,9.1567568359375,7.349722711339592,6.489671815901994,-0.1900603246388957
1789063902023794000,9.1667939453125,7.347569332697987,6.492126223316788,-0.18950066319582984
1789063902033832000,9.17683203125,7.345190913128852,6.494932512909173,-0.18551155702704564
1789063902043868700,9.18686865234375,7.345954883238673,6.494196599850058,-0.18094718998726456
1789063902053907000,9.196906982421876,7.349890469121933,6.489820868983864,-0.1781027238089591
1789063902063944000,9.20694384765625,7.356020350179076,6.482852199015021,-0.1788290287895128
1789063902073982000,9.21698193359375,7.363103001916408,6.474781120762229,-0.1797326448320411
1789063902084019000,9.22701904296875,7.372417942750453,6.464198936471343,-0.17882422475023194
1789063902094057000,9.237056884765625,7.383281866592168,6.451759141615033,-0.17981161008607596
1789063902104093700,9.24709375,7.393436180859804,6.440049414598941,-0.18232023190613836
1789063902114132000,9.257132080078126,7.398524443909525,6.4341451589912175,-0.18439314745636656
1789063902124169000,9.2671689453125,7.399986333155631,6.432351845833659,-0.18824485444845632
1789063902134206700,9.277206787109375,7.400819861370325,6.431295614778995,-0.19154647154342383
1789063902144244000,9.287243896484375,7.3983105088979,6.434131714987754,-0.1932196106537245
1789063902154281700,9.29728173828125,7.393377144148945,6.439739617997407,-0.19521487612416966
1789063902164318700,9.307318603515625,7.387526664555073,6.446508381479978,-0.1932921461669728
1789063902174357000,9.31735693359375,7.381682030180096,6.45305093499124,-0.19821677962020037
1789063902184394000,9.32739404296875,7.377801973876356,6.45730274721682,-0.20411973831998184
1789063902194431700,9.337431640625,7.374446818229556,6.461097463324665,-0.2053015685156919
1789063902204469000,9.347468994140625,7.3741545572847125,6.461344716084003,-0.20799362061126156
1789063902214506800,9.3575068359375,7.373853528511524,6.461735176706314,-0.20651938334023578
1789063902224545000,9.367544921875,7.375698864117265,6.459655447822809,-0.20569718023715539
1789063902234582000,9.37758203125,7.380951377817988,6.45362961166203,-0.20639983034748582
1789063902244619800,9.387619873046875,7.385085116621852,6.448807306072116,-0.20924760272772983
1789063902254656800,9.39765673828125,7.389460847488046,6.443758790510892,-0.2103065737287514
1789063902264695000,9.407695068359375,7.391579739338159,6.441401413729786,-0.20802744981562718
1789063902274731800,9.417731689453126,7.391582077425718,6.441494937232136,-0.20504412315590306
1789063902284769800,9.427769775390624,7.390387899205088,6.443011187013983,-0.2003923883599229
1789063902294807000,9.43780712890625,7.387830031415819,6.446079342412948,-0.19598679207842795
1789063902304844800,9.4478447265625,7.38352093604505,6.45122371956408,-0.18897956193117424
1789063902314881800,9.4578818359375,7.375255796524882,6.460895803272724,-0.18116532624997198
1789063902324920000,9.467920166015626,7.368771695202589,6.468433797562122,-0.17593126152139155
1789063902334956800,9.477956787109376,7.366969029694795,6.470505927661061,-0.17519819800648836
1789063902344994800,9.487994873046874,7.36563573526442,6.472034452402592,-0.17482160151274873
1789063902355032000,9.498031982421875,7.365738026595115,6.472096996244788,-0.16805590677009893
1789063902365069800,9.50806982421875,7.3707093852669,6.466578525084257,-0.16246882735276594
1789063902375106800,9.51810693359375,7.381925191286205,6.453836532410979,-0.15984472592687232
1789063902385144800,9.528144775390626,7.392058462765813,6.442315021443367,-0.15631695365952328
1789063902395181800,9.538181884765624,7.398537303391098,6.434954137286543,-0.15297027358012272
1789063902405219800,9.5482197265625,7.403693370980024,6.4290604030728336,-0.15131593050183728
1789063902415257000,9.558257080078125,7.406503167703748,6.425795848318934,-0.15247630691756495
1789063902425294800,9.568294921875,7.40711399307847,6.425135923105478,-0.1505718524025753
1789063902435331800,9.578331787109375,7.40370155428648,6.42921647041738,-0.14409350496763362
1789063902445369900,9.588369873046876,7.396998257255554,6.437084719574451,-0.1368890717478469
1789063902455406800,9.59840673828125,7.386909409439563,6.448808475115895,-0.1297155268566683
1789063902465444900,9.60844482421875,7.37693921956718,6.46028731598556,-0.1258937857445795
1789063902475482000,9.618482177734375,7.369466691729426,6.4689008305519815,-0.12110509929647668
1789063902485520000,9.628519775390625,7.3642065792441365,6.474978689160943,-0.11618080376996658
1789063902495556900,9.638556884765626,7.359573074224591,6.48041123560369,-0.106499650838878
1789063902505595000,9.648594970703124,7.35522832301855,6.485569056758284,-0.09160951282153837
1789063902515633000,9.6586328125,7.354832601699233,6.486189819005132,-0.07850166424424387
1789063902525670000,9.668669921875,7.359438634189963,6.481055963248014,-0.07040521865475456
1789063902535708000,9.6787080078125,7.364059864249825,6.47586073269248,-0.06513853486478328
1789063902545745000,9.688744873046875,7.36854548523128,6.470854302707314,-0.05456711856308393
1789063902555783000,9.698782958984374,7.372474056851863,6.466495522975921,-0.038128189334319905
1789063902565820000,9.70881982421875,7.3748027920603745,6.46392479570508,-0.018798408918699713
1789063902575858000,9.71885791015625,7.376035548725723,6.46254415500164,0.000019463472512677524
1789063902585895400,9.7288955078125,7.376625915834307,6.461863187000155,0.010352213743200991
1789063902595933200,9.73893310546875,7.375227154952287,6.463440811580419,0.018472390693082708
1789063902605970400,9.748970458984376,7.370155843037367,6.469191337931155,0.027350197060254867
1789063902616008200,9.75900830078125,7.366956170213222,6.47276335119903,0.0409817886671517
1789063902626045200,9.769045166015625,7.368291218209266,6.471137795823812,0.05517751924612094
1789063902636083500,9.77908349609375,7.36587772732675,6.473717290922999,0.07216537846138235
1789063902646120200,9.7891201171875,7.362600313091278,6.477236112698912,0.08899838047507219
1789063902656158200,9.799158203125,7.362307467624545,6.47744595605731,0.09751413375544361
1789063902666195500,9.809195556640624,7.3644357118248935,6.474936019062995,0.10333764314400032
1789063902676233200,9.819233154296874,7.366207982194423,6.4727651047647,0.11258743718680925
1789063902686270200,9.829270263671875,7.367284086993336,6.471306138128042,0.12533535727737471
1789063902696308500,9.83930859375,7.366386261370778,6.472030360749364,0.13984895359990185
1789063902706345200,9.84934521484375,7.368667650306224,6.469156851139664,0.1521066424881108
1789063902716383200,9.85938330078125,7.373816119110584,6.463091267490387,0.16025082250973208
1789063902726420500,9.86942041015625,7.377051447769999,6.45930005851388,0.1641400850332342
1789063902736458200,9.879458251953125,7.377354230108857,6.458765805506705,0.17138950817221774
1789063902746495200,9.8894951171875,7.376499074584245,6.459535620835423,0.17901470582103354
1789063902756533500,9.899533447265625,7.377623694700002,6.458056780454516,0.18590210898090154
1789063902766570200,9.9095703125,7.379335759314894,6.45583150562048,0.19501400152351706
1789063902776608300,9.919608154296874,7.377173028323054,6.457953904601931,0.20622454684581606
1789063902786645500,9.9296455078125,7.3755030492842195,6.459629728859663,0.2133432380109094
1789063902796683300,9.939683349609375,7.374543264341354,6.460677776607871,0.21479847832052035
1789063902806720300,9.94972021484375,7.3726429836779825,6.462719511568546,0.21858174145258963
1789063902816758300,9.95975830078125,7.373722011086344,6.461415443232655,0.220718132426776
1789063902826795300,9.969795166015626,7.371544667047262,6.463647147807478,0.22797990359067916
1789063902836833300,9.979833251953124,7.36455495429039,6.4711179220795625,0.24154347831252962
1789063902846870300,9.989870361328125,7.360725751391053,6.47524581566453,0.24755188841447232
1789063902856908300,9.999908203125,7.360088038009405,6.476183388775587,0.24193702594107017
1789063902866945300,10.0099453125,7.356260588675737,6.480787667700648,0.23496987207587808
1789063902876983300,10.0199833984375,7.350856683805585,6.486943852242827,0.23419503351217136
1789063902887021300,10.030021240234374,7.349463183620571,6.488413340273499,0.23720497418418526
1789063902897058300,10.040058349609374,7.351225517117976,6.4863721898347135,0.23842509056366978
1789063902907095300,10.05009521484375,7.355677820351719,6.481247101905941,0.2404520115477033
1789063902917133300,10.06013330078125,7.3635443159431215,6.472388088145852,0.23830486171748488
1789063902927171300,10.07017138671875,7.372342539426684,6.46256402874589,0.2328559669281356
1789063902937208300,10.080208251953126,7.381533561620116,6.452389840734004,0.2236407418752089
1789063902947246300,10.090246337890624,7.386379832607507,6.4469941191703075,0.21920710680931804
1789063902957283300,10.100283447265625,7.3890510976433745,6.4439838314384215,0.217685979922954
1789063902967321300,10.1103212890625,7.392179458796978,6.440570223602652,0.21243644363060593
1789063902977358300,10.1203583984375,7.391681446146965,6.441223134553432,0.20993295464338735
1789063902987396400,10.130396240234376,7.390002114757895,6.44329701821804,0.20538215947123242
1789063902997433000,10.14043310546875,7.3899132674306625,6.443649484917521,0.19738157090507447
1789063903007471400,10.150471435546875,7.389701085984706,6.4441352226078505,0.18929182448443024
1789063903017508400,10.16050830078125,7.388361946335435,6.445848456266522,0.18311987611753866
1789063903027546400,10.17054638671875,7.386756264704466,6.44775516667068,0.18075263552954418
1789063903037583400,10.180583251953125,7.388483526888489,6.445843780091405,0.17831296902615576
1789063903047621400,10.190621337890626,7.390045369377732,6.444207703322172,0.17265580178098752
1789063903057658000,10.200658203125,7.3913470996260635,6.442891360026597,0.16590457395510746
1789063903067696400,10.2106962890625,7.39170950319767,6.442654628661274,0.15879631285248325
1789063903077733400,10.2207333984375,7.392360076060891,6.441988858228921,0.15549484188798815
1789063903087771400,10.230771484375,7.3936238123863935,6.440549765336513,0.15503020178461446
1789063903097808400,10.240808349609376,7.391992411792278,6.442393347376584,0.15623342182822525
1789063903107846100,10.25084619140625,7.391428348168731,6.443066716593504,0.1551091670386493
1789063903117883100,10.260883056640624,7.391178172799944,6.443434965384006,0.15170034497585147
1789063903127921400,10.27092138671875,7.389197812637686,6.445793511208891,0.14795716725899838
1789063903137958400,10.28095849609375,7.386244808050989,6.449180231037736,0.14781489097778686
1789063903147996200,10.29099609375,7.383219907271862,6.452612543573975,0.1491474456226453
1789063903158033400,10.301033447265626,7.381386846625804,6.4547174068987365,0.14876739679649473
1789063903168071200,10.3110712890625,7.3793959650695315,6.456996457746625,0.14866982730668968
1789063903178108200,10.321108154296875,7.3754241388291115,6.4614832477718585,0.15080461084567942
1789063903188146400,10.331146484375,7.374067463523149,6.4630316462576385,0.15075894507304766
1789063903198183400,10.341183349609375,7.374543848863244,6.462476934984326,0.15127038346021435
1789063903208221200,10.35122119140625,7.376685537067055,6.459990963387489,0.15299493309734388
1789063903218258400,10.361258544921874,7.378021169584989,6.458383528190851,0.15640987437367437
1789063903228296200,10.371296142578124,7.37952982058227,6.456578524595499,0.1597659068033099
1789063903238333200,10.381333251953125,7.3851365545481436,6.450247568008304,0.15637876684935761
1789063903248371500,10.391371337890625,7.390653272143006,6.444022409883141,0.15232295211991295
1789063903258408200,10.401408203125,7.391372234067321,6.443107048603892,0.1560977944835089
1789063903268446200,10.4114462890625,7.390749133732914,6.443703260931373,0.1609507326737046
1789063903278483500,10.4214833984375,7.390946702131629,6.443405154767632,0.16378414773503316
1789063903288521200,10.431521240234375,7.391724700766801,6.442534801673888,0.16291198627669362
1789063903298558200,10.44155810546875,7.3896432183176275,6.444934264031052,0.1624394916604273
1789063903308596500,10.451596435546875,7.386735806438327,6.448320399338007,0.1602480825633742
1789063903318633200,10.46163330078125,7.384301857289671,6.451150654327869,0.1585124178771861
1789063903328671200,10.471671142578124,7.38023943015635,6.455724538114667,0.16143997749537228
1789063903338708500,10.48170849609375,7.3773214968830345,6.459004290437698,0.1636435884868726
1789063903348746200,10.491746337890625,7.375809338754415,6.4607128479212514,0.16437215848974882
1789063903358783200,10.501783203125,7.375936180004477,6.460580745974183,0.16386114022769033
1789063903368821500,10.511821533203126,7.377026313328742,6.459350327396392,0.1632768375337124
1789063903378858200,10.521858154296876,7.3780334445446725,6.458178361007571,0.16415025936737657
1789063903388896300,10.531896240234374,7.380285607385635,6.455563210073113,0.16574920073030516
1789063903398934300,10.541934326171875,7.380709385755658,6.455000315493345,0.16876343398494645
1789063903408971300,10.55197119140625,7.382950442680716,6.452443616747856,0.1685285109842196
1789063903419009300,10.56200927734375,7.384400641489028,6.450839104160666,0.1664168891251087
1789063903429046300,10.57204638671875,7.38408149253726,6.451251776614785,0.16454930515494195
1789063903439084300,10.582084228515624,7.3845087780386205,6.450768961533904,0.1643027282490395
1789063903449121300,10.592121337890624,7.382945766505599,6.452540647381544,0.1649867649904452
1789063903459159300,10.6021591796875,7.379398303157091,6.456477986830473,0.16956517882188782
1789063903469196300,10.6121962890625,7.376427178391814,6.459749555847049,0.1741665351375006
1789063903479234300,10.622234375,7.374837278851866,6.461502536994218,0.17649340718248857
1789063903489271300,10.632271240234376,7.373589909139275,6.462822387421131,0.18026068729413672
1789063903499309300,10.642309326171874,7.372895497134327,6.463582850399613,0.18138304238757116
1789063903509346300,10.65234619140625,7.3745479405164716,6.461632885375619,0.18362954267272724
1789063903519384300,10.66238427734375,7.378191849976778,6.4573343113988635,0.188416996144969
1789063903529421300,10.67242138671875,7.385946701887249,6.448335596907138,0.19272625591252
1789063903539459300,10.682459228515626,7.391683784234523,6.441573847687244,0.19880873589767142
1789063903549496300,10.692496337890624,7.39586837644279,6.436449344280362,0.20888693445548415
1789063903559534300,10.702534423828125,7.401960263577103,6.429315839138627,0.21276233285041524
1789063903569571300,10.7125712890625,7.404518715888261,6.426226056429743,0.21705566439647225
1789063903579609000,10.722609130859375,7.4039119821667665,6.426622362270951,0.22582849771045146
1789063903589646000,10.73264599609375,7.40398037122786,6.426282755053043,0.23311269990187136
1789063903599684000,10.74268408203125,7.401107446140051,6.429336297404766,0.24004781466098501
1789063903609720800,10.752720947265624,7.397379950049519,6.433384111490845,0.2464120707295835
1789063903619759000,10.762759033203125,7.39491619028449,6.435982311290502,0.2524607397766784
1789063903629796000,10.772796142578125,7.39038380755186,6.440906908211112,0.2594760436325334
1789063903639834000,10.782834228515625,7.385505387860536,6.446099800679087,0.26924853724204
1789063903649871000,10.79287109375,7.382059046798944,6.449663046118617,0.2782761673009954
1789063903659909000,10.8029091796875,7.380996386003494,6.450647965502738,0.2835836808582768
1789063903669945900,10.81294580078125,7.377296362441777,6.454734942555427,0.28684162320829926
1789063903679984000,10.822984130859375,7.372077166488766,6.460498912909626,0.2912389083191752
1789063903690021000,10.833021240234375,7.370458040854334,6.462249555969238,0.29336180049097166
1789063903700059000,10.843058837890625,7.3705954034984105,6.462016331735253,0.2950436891633086
1789063903710096100,10.85309619140625,7.371732298573852,6.4606923896551125,0.2956342572012916
1789063903720134100,10.863134033203124,7.377286425569653,6.454377799680828,0.2950205457497388
1789063903730171000,10.8731708984375,7.384408824795484,6.446115582770108,0.29746424910742786
1789063903740209200,10.883209228515625,7.390880651158094,6.438613828837871,0.29919691811893134
1789063903750246100,10.89324609375,7.400018481859564,6.42813393587768,0.2986573678821325
1789063903760284000,10.903283935546876,7.407930570158362,6.419137559473514,0.2960146896199323
1789063903770321200,10.913321044921876,7.411252992579341,6.415422922864556,0.2933556630111299
1789063903780359000,10.92335888671875,7.412906605005264,6.41369799876809,0.28926357139190656
1789063903790396000,10.93339599609375,7.411396200442313,6.415595941343903,0.2858787147265859
1789063903800434200,10.94343408203125,7.407593301028013,6.420131831207871,0.28258305244836956
1789063903810471200,10.95347119140625,7.404508194494247,6.423959280541538,0.27638005135608834
1789063903820509000,10.963509033203126,7.39948656693995,6.429930756166577,0.27196175998980177
1789063903830546200,10.973546142578124,7.395478500342369,6.434805084204673,0.26565272297346965
1789063903840584000,10.983583984375,7.395066996932029,6.435515278300643,0.25982166046611965
1789063903850621000,10.993620849609375,7.39467361370027,6.436257036578655,0.2525361248341389
1789063903860659200,11.0036591796875,7.3951418157339095,6.436089863318204,0.24291306789899245
1789063903870696200,11.0136962890625,7.398094820320606,6.433052103057503,0.23329802987352014
1789063903880734000,11.02373388671875,7.399022456559538,6.432419065850973,0.2209806740867905
1789063903890771200,11.033771240234374,7.3977218953549855,6.434146912556886,0.21413128311606122
1789063903900809000,11.04380908203125,7.394479552432895,6.437990728503466,0.21055609151041135
1789063903910846000,11.053845947265625,7.39187667645812,6.441113828960061,0.20637007453003897
1789063903920884200,11.06388427734375,7.390151752361655,6.44327889803946,0.20049877134384586
1789063903930921000,11.0739208984375,7.387211607256531,6.446918131324648,0.19165289105996489
1789063903940959000,11.083958984375,7.382137372732162,6.452915910434722,0.18522669393736868
1789063903950996200,11.093996337890625,7.377276488697529,6.458671697482466,0.17815766886658965
1789063903961034000,11.104033935546875,7.3736734957695,6.4629959904223675,0.17032792508900166
1789063903971071000,11.114071044921875,7.371860308867692,6.465277963879704,0.1619807698411867
1789063903981109200,11.124109130859376,7.371667416644096,6.465680699461698,0.15452367703458295
1789063903991146000,11.13414599609375,7.3719094087064265,6.4655059274166815,0.15021854545287788
1789063904001184000,11.14418408203125,7.375196175292134,6.461880722656845,0.14479257488138972
1789063904011221000,11.154220947265625,7.383615044069289,6.452363537248969,0.14008942955858072
1789063904021259000,11.164259033203125,7.392475811395049,6.442221497941016,0.13953635311992837
1789063904031296000,11.1742958984375,7.39987702756226,6.433752944803238,0.13793080848627723
1789063904041334300,11.184334228515626,7.408335643827915,6.424112425276637,0.1331600686868187
1789063904051371000,11.19437109375,7.4160934183478355,6.415293743526935,0.12629607380200178
1789063904061409000,11.204408935546875,7.419727390936017,6.411220794999599,0.1195195014723111
1789063904071446000,11.214446044921875,7.417287596568465,6.414055726164579,0.11879948923522606
1789063904081484000,11.224484130859375,7.411452314543723,6.420790002855658,0.11924986335122957
1789063904091521000,11.23452099609375,7.40528619312942,6.4279118175595995,0.11862778593013062
1789063904101559000,11.24455908203125,7.398873987999558,6.435325893208384,0.1167458629073575
1789063904111596000,11.254595947265624,7.388661221542954,6.447035620224476,0.11750218856683932
1789063904121634000,11.264634033203125,7.380377377322316,6.45650253674984,0.11828347513764165
1789063904131671000,11.274671142578125,7.374971134364604,6.462694961649179,0.11728742243815213
1789063904141709000,11.284708984375,7.371773799628019,6.466392062601447,0.11447354319435543
1789063904151746000,11.29474609375,7.37190239444375,6.466288017705082,0.11210147116761654
1789063904161783800,11.30478369140625,7.373854113033413,6.464107166534662,0.10941876228912732
1789063904171821000,11.314821044921874,7.376926360085606,6.4606298458129165,0.10773547624414787
1789063904181859000,11.324859130859375,7.381639360082149,6.45523237068355,0.10842694737333804
1789063904191896000,11.33489599609375,7.3888231341063975,6.446992365604639,0.10936332404115237
1789063904201934000,11.34493408203125,7.395099145635962,6.439861783072352,0.10517225642632692
1789063904211971000,11.35497119140625,7.398754745534062,6.435750256100296,0.09965705493511631
1789063904222008800,11.3650087890625,7.4010314582943915,6.433275974941253,0.08986204809970222
1789063904232046000,11.375046142578125,7.400799987626075,6.433685724785923,0.07895558202420361
1789063904242084000,11.385083984375,7.398766435971856,6.436092785927653,0.07312646487876773
1789063904252121000,11.39512109375,7.396721193879842,6.438517967247963,0.06623217532038689
1789063904262159000,11.4051591796875,7.391675016406178,6.4443421433568,0.06309186800066381
1789063904272196000,11.415196044921874,7.3849302183210845,6.4521133618801825,0.05851326693955343
1789063904282233900,11.42523388671875,7.381836928480863,6.455758440384268,0.045361807549395596
1789063904292271000,11.43527099609375,7.3807432880252595,6.4570911502927535,0.031417594912927595
1789063904302309000,11.44530908203125,7.380400758197903,6.457538309538364,0.01653970559745212
1789063904312345900,11.455345947265625,7.3812144126683465,6.456627624434232,0.004791586795487092
1789063904322384100,11.465384033203126,7.383489371863007,6.454023579415678,-0.007217139150199363
1789063904332421000,11.475421142578124,7.387421450614929,6.449501718077063,-0.017884413046052212
1789063904342459000,11.485458984375,7.394548526015877,6.4412827557861805,-0.030115433123044204
1789063904352496000,11.49549609375,7.400650934544205,6.4341796457827085,-0.04561200575106777
1789063904362534100,11.5055341796875,7.401539407816529,6.433042166185379,-0.05972928709923289
1789063904372571000,11.51557080078125,7.403069101601838,6.43109979994595,-0.0768569201113656
1789063904382609200,11.525609130859374,7.403637256878614,6.430213080239295,-0.09431362068108283
1789063904392646100,11.535646240234374,7.401670340719819,6.432235525977611,-0.10958787177833727
1789063904402684000,11.545683837890625,7.397888484093547,6.436335947033762,-0.12334433872378431
1789063904412721200,11.55572119140625,7.392917125421762,6.4417895362645385,-0.1360401815672405
1789063904422759200,11.56575927734375,7.38838941886425,6.446604243069887,-0.15288990182029083
1789063904432796000,11.5757958984375,7.384200150480866,6.450974713239074,-0.16998391569061203
1789063904442834200,11.585834228515624,7.3826470758199685,6.452294563665986,-0.1865465808968991
1789063904452871200,11.59587109375,7.381939804333448,6.452720095601678,-0.199407468975801
1789063904462909000,11.605908935546875,7.381263512507081,6.453136275187134,-0.21062817036593331
1789063904472946200,11.6159462890625,7.3817007348805666,6.452198702076077,-0.22362432046337052
1789063904482984200,11.625984130859376,7.3803802999317645,6.453249087911844,-0.23654806291172278
1789063904493021000,11.63602099609375,7.378528534585237,6.454935433563589,-0.2480161449253559
1789063904503059200,11.64605908203125,7.37719816276431,6.455882943546771,-0.26250085308011617
1789063904513096200,11.65609619140625,7.376070620039105,6.4566147649526595,-0.27585131477424873
1789063904523134000,11.666134033203125,7.376529469722509,6.45558775999248,-0.2873744149107486
1789063904533171000,11.6761708984375,7.377698513501882,6.453876279899478,-0.2956938419014215
1789063904543209000,11.686208984375,7.379779411429166,6.451219043388963,-0.3016877485539764
1789063904553246000,11.696245849609374,7.384381352266669,6.4455474274933335,-0.3102019309317693
1789063904563284200,11.7062841796875,7.389111887919903,6.439617452922463,-0.3205388352246955
1789063904573321200,11.7163212890625,7.3909823579669,6.437172397857904,-0.3264589094560593
1789063904583359200,11.726359130859375,7.393433842772245,6.434116517418623,-0.3311567484160885
1789063904593396200,11.736396240234376,7.3966305929869405,6.430326477485894,-0.3333769452162087
1789063904603434000,11.74643408203125,7.399694656732678,6.4266282074898475,-0.33667806912083176
1789063904613471000,11.756470947265624,7.401378079774975,6.424470737195015,-0.34082444821055974
1789063904623509200,11.76650927734375,7.3993684935182324,6.426726991689205,-0.3419177964052185
1789063904633546200,11.776546142578125,7.396358790308237,6.430042399847507,-0.34469383698981254
1789063904643584300,11.786584228515625,7.394529821315407,6.432120959687232,-0.3451541479779407
1789063904653621200,11.796621337890626,7.3922677216023205,6.4347285118371245,-0.34501174383256583
1789063904663659000,11.806658935546874,7.388768189048767,6.438901413607597,-0.34211094435714184
1789063904673696000,11.816696044921875,7.386680276858806,6.441345299628376,-0.34119466976244
1789063904683734300,11.826734375,7.383060332795977,6.44546033373177,-0.34183143329601734
1789063904693771000,11.83677099609375,7.380556241020559,6.448403985968231,-0.3403737087683752
1789063904703809000,11.84680908203125,7.3813289789587255,6.447659889602661,-0.33771157688703385
1789063904713846300,11.85684619140625,7.382275904420018,6.4469941191703075,-0.3296369549702853
1789063904723884000,11.866884033203124,7.383700968787074,6.445760777983069,-0.321730529227294
1789063904733921000,11.876921142578125,7.383660052254796,6.446258206111192,-0.3125781585438177
1789063904743959300,11.886959228515625,7.385230662572384,6.444683504140377,-0.30792255129031837
1789063904753996000,11.89699609375,7.386644621023535,6.443224537503719,-0.3045184419352561
1789063904764034000,11.907033935546876,7.384916774317622,6.4455906821131705,-0.29622310820622366
1789063904774071300,11.9170712890625,7.382019883832335,6.449301227068901,-0.2875387934259139
1789063904784109000,11.927109130859375,7.380545719626546,6.451210860082507,-0.28250448905313386
1789063904794146000,11.93714599609375,7.378378312459588,6.454052220988273,-0.274083190856874
1789063904804184300,11.947184326171875,7.377649413663148,6.45517742562592,-0.2671377373668365
1789063904814221000,11.957220947265625,7.378935361820459,6.4540832006484266,-0.25790537851601836
1789063904824259000,11.967259033203124,7.383125214725732,6.449572445225715,-0.25074894915642215
1789063904834296300,11.97729638671875,7.3870263138175005,6.445384930408,-0.2433789501113817
1789063904844334000,11.987333984375,7.390114927482604,6.442097579300404,-0.23658302462724967
1789063904854371000,11.99737109375,7.393840085485577,6.437961502408981,-0.23275084431953727
1789063904864409000,12.0074091796875,7.396175834956765,6.435397789400816,-0.22939820942338554
1789063904874446000,12.017446044921876,7.398341488558054,6.433075483933091,-0.22465897900704293
1789063904884484000,12.027484130859374,7.398039875262976,6.433668773651123,-0.21747841985318808
1789063904894521300,12.037521240234375,7.3949571068167685,6.4375517525643104,-0.2071764224768616
1789063904904559000,12.04755908203125,7.392994282311201,6.4400628586024045,-0.19899149031974375
1789063904914596000,12.05759619140625,7.391574478641152,6.441808825486898,-0.19521040087845176
1789063904924634000,12.067634033203126,7.389207749509811,6.44462096029818,-0.19199089084267615
1789063904934671000,12.077671142578126,7.386438284796476,6.4478714865267275,-0.18938145726295186
1789063904944709000,12.087709228515624,7.381273449379205,6.453969218879938,-0.18293560559181496
1789063904954746400,12.097746337890625,7.3784753430932755,6.457344248270988,-0.17659398148013278
1789063904964784000,12.1077841796875,7.380173963704705,6.455552104157209,-0.17104743500258773
1789063904974821000,12.117821044921875,7.380569100502133,6.455190869629383,-0.16762244725627823
1789063904984859100,12.127859130859376,7.380074010461568,6.4559373040825125,-0.16051303537618367
1789063904994896100,12.137896240234374,7.380515909010171,6.455660240706801,-0.15106271379259414
1789063905004934100,12.14793408203125,7.38081752230525,6.455528723281621,-0.14166893556867724
1789063905014971100,12.15797119140625,7.38132079565227,6.455101437780261,-0.1347192625612486
1789063905025009200,12.168009033203125,7.379433374470472,6.457353600621223,-0.13014914163411595
1789063905035046100,12.178046142578125,7.3757602389156816,6.461528255957365,-0.13116154268020763
1789063905045084200,12.188084228515624,7.3740756468296045,6.4634454877555365,-0.13138733252640813
1789063905055121200,12.19812109375,7.372665195509791,6.465138847669959,-0.1271661620342638
1789063905065159200,12.2081591796875,7.373661220809817,6.464108335578441,-0.1217190208105836
1789063905075196000,12.21819580078125,7.375840318414569,6.4617199791371815,-0.11639033660111017
1789063905085234200,12.228234130859375,7.376994749146699,6.460487222471833,-0.11148515676702372
1789063905095271200,12.238271240234376,7.379146958744525,6.458073147067427,-0.10895622281129472
1789063905105309200,12.24830908203125,7.3803943284571165,6.456686661145091,-0.10655672392151318
1789063905115346200,12.25834619140625,7.3853300312936305,6.450974713239074,-0.11052171856234781
1789063905125384200,12.26838427734375,7.388784555661678,6.447097579544782,-0.10574056696672923
1789063905135421000,12.2784208984375,7.39251029818654,6.442912402814627,-0.10028014613636768
1789063905145459200,12.288459228515626,7.398334474295377,6.436328932771087,-0.09328913647155276
1789063905155496200,12.29849609375,7.407100549075007,6.426259958699346,-0.09183640777943655
1789063905165534000,12.308533935546874,7.4164067220807075,6.415525798717141,-0.09121878733774647
1789063905175571200,12.3185712890625,7.421296247687936,6.409861197084188,-0.091789079772681
1789063905185609200,12.328609130859375,7.423214648529886,6.407647612687945,-0.09120279518417082
1789063905195646000,12.33864599609375,7.423685773172974,6.4071320643812415,-0.08904885028698481
1789063905205684200,12.348684326171876,7.422423205891251,6.408604475021362,-0.08831386880963109
1789063905215721200,12.35872119140625,7.4157929740965365,6.416314318746328,-0.08552118761749006
1789063905225759000,12.368759033203125,7.404569569292664,6.4292947963505975,-0.08310893884398975
1789063905235796200,12.378796142578125,7.3885951705694195,6.44766105864644,-0.08190228473427705
1789063905245834200,12.388834228515625,7.375068164998292,6.463095943665504,-0.08451823938633314
1789063905255871000,12.39887109375,7.366271695080399,6.47304450622797,-0.09009002076983451
1789063905265909200,12.4089091796875,7.358598091712594,6.481732255074381,-0.09254167910511604
1789063905275946200,12.4189462890625,7.351978381311893,6.489208874565363,-0.09467160380589776
1789063905285984000,12.42898388671875,7.345977095070481,6.495986990398168,-0.0956450336816255
1789063905296021200,12.439021240234375,7.340844992879033,6.501752129796147,-0.0980068857084494
1789063905306059000,12.44905908203125,7.339857150885463,6.502788487106561,-0.10313590089366771
1789063905316096000,12.459095947265626,7.3419941629141565,6.500300177422165,-0.1077473767444957
1789063905326134300,12.46913427734375,7.344719788485765,6.4971250545173875,-0.11329586858395486
1789063905336171300,12.479171142578124,7.349570151126384,6.491494939675927,-0.12121561046624556
1789063905346209000,12.489208984375,7.358419812536239,6.481276328000426,-0.1307511900473386
1789063905356246300,12.499246337890625,7.369769474068284,6.4681877138465635,-0.13938782976102082
1789063905366284000,12.509283935546875,7.381031457316875,6.455170411363244,-0.14674571824315935
1789063905376321000,12.519321044921876,7.389099612960219,6.4458455336570735,-0.1505617967994418
1789063905386359300,12.529359375,7.394367908751964,6.439708053815364,-0.15447130752652882
1789063905396396300,12.539396240234375,7.399968212977051,6.43315147177875,-0.15945645726164803
1789063905406434000,12.54943408203125,7.403067932558059,6.429312916529178,-0.17000064762970432
1789063905416471300,12.55947119140625,7.403432674217224,6.4286033069550985,-0.18062424164321272
1789063905426509000,12.569509033203126,7.40196727783978,6.430104359167814,-0.18712973281340672
1789063905436546000,12.579546142578126,7.397749367883801,6.434730849924684,-0.1947576521422714
1789063905446584300,12.589584228515625,7.395891757318377,6.436701273214816,-0.20012073181169107
1789063905456621000,12.59962109375,7.396442961460352,6.435860146215558,-0.2066910501127131
1789063905466659000,12.6096591796875,7.396852126783132,6.435123064112663,-0.21481849819524212
1789063905476696300,12.6196962890625,7.394397134846448,6.4378025124549865,-0.21904201590809969
1789063905486734000,12.629734130859376,7.392283503693342,6.439950045877695,-0.22708616962134837
1789063905496771000,12.63977099609375,7.393381820324063,6.438355470162629,-0.23637188436090945
1789063905506809300,12.649809326171875,7.392060800853371,6.4394707379281515,-0.24705285285115242
1789063905516846000,12.65984619140625,7.389989255276322,6.441640483182669,-0.25241023343214763
1789063905526884000,12.669884033203125,7.388022339117526,6.443816658177972,-0.25442471505971626
1789063905536921000,12.679921142578126,7.386930452227592,6.444909129589796,-0.2584402525776997
1789063905546959000,12.689958984375,7.383081960105896,6.449299473503231,-0.2588882338072173
1789063905556996000,12.69999609375,7.378680510276555,6.454259141737222,-0.26076926178084686
1789063905567033000,12.710033203125,7.376010414284467,6.457254816421866,-0.2621347049151547
1789063905577071000,12.720071044921875,7.37180828641951,6.461870785784721,-0.2665495439490303
1789063905587108400,12.7301083984375,7.365768421733379,6.468620844566821,-0.2697880326799117
1789063905597145300,12.740145263671875,7.360164610376954,6.4749903795987365,-0.2699178330720402
1789063905607182600,12.7501826171875,7.357443076458573,6.477956828188896,-0.272925654852204
1789063905617220400,12.760220458984374,7.357887313094735,6.477466414323449,-0.2725981216645799
1789063905627257300,12.77025732421875,7.362548290643096,6.472136159211397,-0.27334904962973666
1789063905637295400,12.78029541015625,7.373443194144964,6.459841910305619,-0.2704894954801537
1789063905647332400,12.790332275390625,7.3862991685867305,6.445303097343444,-0.2665302912592888
1789063905657370400,12.800370361328126,7.3981865902572865,6.431851495096087,-0.26174382416773584
1789063905667407400,12.810407470703124,7.411203308218717,6.416760893470048,-0.26388761299708857
1789063905677445400,12.8204453125,7.42147452686429,6.404657198700308,-0.2692009169743396
1789063905687482400,12.830482421875,7.4255258480817075,6.399984530714154,-0.26860380959771574
1789063905697520400,12.840520263671875,7.422776257112622,6.403475295439362,-0.2612973773081787
1789063905707557400,12.850557373046875,7.414764215570687,6.413143287494778,-0.2514711807500571
1789063905717595400,12.860595458984376,7.4046186691313975,6.425220094257593,-0.24197726661991326
1789063905727632400,12.87063232421875,7.392550045675039,6.439140483060479,-0.2409488003550097
1789063905737670400,12.88067041015625,7.37953040510416,6.454038192462921,-0.24145992821492254
1789063905747707400,12.890707275390625,7.367398653283715,6.467874994635582,-0.2417017558804713
1789063905757745200,12.9007451171875,7.359079153227806,6.477364707514643,-0.24098898623492568
1789063905767782400,12.910782470703126,7.357092947846651,6.479827882757783,-0.2353768637078814
1789063905777820400,12.9208203125,7.360360425209999,6.4762026779979465,-0.2329629527002573
1789063905787857400,12.930857421875,7.364632111179828,6.471455775731801,-0.22987353531755506
1789063905797895400,12.9408955078125,7.371703072479367,6.4633958033949135,-0.22999739915924144
1789063905807932400,12.950932373046875,7.380268071728945,6.453567067819834,-0.23129933033697306
