time,seconds_elapsed,z,y,x
1789063892890891300,0.033891357421875,0.004091946873813868,-0.008821987546980381,-0.006366286426782608
1789063892900929500,0.043929443359375,0.0009398295660503209,-0.011390605941414833,-0.004791559185832739
1789063892910966300,0.05396630859375,-0.0036693033762276173,-0.015251656994223595,0.006375074852257967
1789063892921004300,0.06400439453125,-0.003391801845282316,-0.015168566256761551,0.008435562252998352
1789063892931041500,0.07404150390625,-0.002951581496745348,-0.009825998917222023,0.013939517550170422
1789063892941079300,0.084079345703125,0.0009733853512443602,-0.011807923205196857,0.02081819623708725
1789063892951116300,0.0941162109375,0.008295213803648949,-0.0073138391599059105,0.02690751478075981
1789063892961154600,0.104154541015625,0.015109976753592491,-0.0034056503791362047,0.028135763481259346
1789063892971192300,0.1141923828125,0.02478497475385666,-0.005318066570907831,0.02587500587105751
1789063892981229300,0.124229248046875,0.034507375210523605,0.0059753344394266605,0.019995812326669693
1789063892991267300,0.134267333984375,0.04040122032165527,0.014185859821736813,0.017654094845056534
1789063893001304300,0.14430419921875,0.04021826013922691,0.01823040284216404,0.0174437053501606
1789063893011342300,0.15434228515625,0.0303973201662302,0.023578830063343048,0.017464477568864822
1789063893021379600,0.164379638671875,0.016957677900791168,0.02557087317109108,0.02130289189517498
1789063893031417300,0.174417236328125,0.01581651344895363,0.029983464628458023,0.01480664312839508
1789063893041454300,0.184454345703125,0.03783739358186722,0.01925997994840145,-0.002918291836977005
1789063893051492400,0.194492431640625,0.0717676654458046,0.02340945228934288,-0.020496752113103867
1789063893061529300,0.204529296875,0.06973327696323395,0.005541239399462938,-0.011722169816493988
1789063893071567400,0.2145673828125,0.06551136821508408,0.06890476495027542,-0.023431822657585144
1789063893081605400,0.22460546875,0.06583813577890396,0.060456421226263046,-0.04127606749534607
1789063893091642400,0.234642333984375,0.07269604504108429,0.09402289986610413,-0.042264364659786224
1789063893101680400,0.244680419921875,0.08704062551259995,0.0738566443324089,-0.027845213189721107
1789063893111717400,0.25471728515625,0.08655939251184464,0.04863518103957176,-0.01695954240858555
1789063893121755400,0.26475537109375,0.07678106427192688,0.05317347124218941,-0.000025566347176209092
1789063893131792400,0.27479248046875,0.05961485952138901,0.04688601568341255,0.00401578051969409
1789063893141830400,0.284830322265625,0.0467643104493618,0.05480359494686127,0.020618725568056107
1789063893151867400,0.294867431640625,0.037817418575286865,0.054546065628528595,0.033541981130838394
1789063893161905400,0.304905517578125,0.03606346249580383,0.041126396507024765,0.03171984478831291
1789063893171943400,0.314943359375,0.03460724651813507,0.034988611936569214,0.028118720278143883
1789063893181980400,0.32498046875,0.031196534633636475,0.026066221296787262,0.016618924215435982
1789063893192018200,0.33501806640625,0.022344186902046204,0.014087589457631111,0.01386921014636755
1789063893202055400,0.345055419921875,0.005608883686363697,0.0175773948431015,0.0059782639145851135
1789063893212093400,0.355093505859375,-0.007934089750051498,0.022339660674333572,-0.010901649482548237
1789063893222130200,0.365130126953125,-0.021852567791938782,0.0210107434540987,-0.019524699077010155
1789063893232168400,0.37516845703125,-0.03189508244395256,0.012431901879608631,-0.01925545372068882
1789063893242205400,0.385205322265625,-0.04231816157698631,-0.002526274649426341,-0.01906929910182953
1789063893252243200,0.3952431640625,-0.048944905400276184,-0.017587250098586082,-0.013830328360199928
1789063893262280400,0.405280517578125,-0.061393853276968,-0.019242404028773308,-0.016645556315779686
1789063893272318500,0.415318359375,-0.07000412046909332,-0.010269149206578732,-0.013263607397675514
1789063893282356500,0.4253564453125,-0.0830240473151207,-0.024263260886073112,0.0009435579413548112
1789063893292393500,0.4353935546875,-0.08571091294288635,-0.019104985520243645,0.00771730812266469
1789063893302431200,0.44543115234375,-0.08547388762235641,-0.029166940599679947,0.00968405231833458
1789063893312468200,0.45546826171875,-0.08017899096012115,-0.02792990207672119,0.013767743483185768
1789063893322506500,0.465506591796875,-0.08023518323898315,-0.03206765651702881,0.01672997698187828
1789063893332543500,0.47554345703125,-0.08389995992183685,-0.021681860089302063,0.02028796076774597
1789063893342581200,0.485581298828125,-0.08915038406848907,-0.043946150690317154,0.022595323622226715
1789063893352618500,0.495618408203125,-0.08870083838701248,-0.012207131832838058,0.008917595259845257
1789063893362656300,0.50565625,-0.08303709328174591,-0.03640621155500412,0.007496532052755356
1789063893372693200,0.515693359375,-0.0774093046784401,-0.019523100927472115,-0.00415399856865406
1789063893382731500,0.5257314453125,-0.07343053817749023,-0.03157976269721985,-0.004596616141498089
1789063893392769300,0.535769287109375,-0.07071438431739807,-0.029888655990362167,-0.008101335726678371
1789063893402806300,0.54580615234375,-0.06643708050251007,-0.021016867831349373,-0.010731473565101624
1789063893412844500,0.555844482421875,-0.05836450681090355,-0.02593332901597023,-0.015959791839122772
1789063893422881300,0.56588134765625,-0.05032255873084068,-0.003909520339220762,-0.01498321071267128
1789063893432919600,0.57591943359375,-0.035845883190631866,-0.027421237900853157,0.002079662401229143
1789063893442956500,0.58595654296875,-0.020361730828881264,-0.016387762501835823,0.00697987899184227
1789063893452994300,0.595994384765625,-0.012866264209151268,0.022066952660679817,0.013511547818779945
1789063893463031300,0.60603125,-0.016652746126055717,-0.001969673903658986,0.030119819566607475
1789063893473069300,0.6160693359375,-0.029653232544660568,-0.016456205397844315,0.02021232806146145
1789063893483106300,0.626106201171875,-0.020308732986450195,0.03257392346858978,0.03247964754700661
1789063893493144300,0.636144287109375,-0.013668407686054707,-0.05681667849421501,0.02256735973060131
1789063893503182300,0.646182373046875,-0.006400641519576311,0.016221581026911736,0.023911457508802414
1789063893513219300,0.65621923828125,-0.016534768044948578,-0.05983270704746246,0.009879528544843197
1789063893523257600,0.666257568359375,-0.030014092102646828,-0.03945712745189667,-0.0018216022290289402
1789063893533294300,0.67629443359375,-0.02678207866847515,-0.03618064150214195,-0.019579293206334114
1789063893543332400,0.686332275390625,-0.0026671558152884245,-0.016652213409543037,-0.04037618637084961
1789063893553369300,0.696369384765625,0.034378744661808014,0.011786618269979954,-0.04779309034347534
1789063893563407400,0.706407470703125,0.07332002371549606,0.04790813848376274,-0.051172904670238495
1789063893573444900,0.71644482421875,0.10438846051692963,0.04549318179488182,-0.04928738996386528
1789063893583483000,0.72648291015625,0.12444925308227539,0.08051641285419464,-0.04668095335364342
1789063893593521000,0.73652099609375,0.14340856671333313,0.0859127789735794,-0.03472229465842247
1789063893603558000,0.746557861328125,0.14958736300468445,0.0830320343375206,0.009689378552138805
1789063893613596000,0.756595947265625,0.15507400035858154,0.08701212704181671,0.03063727170228958
1789063893623633000,0.7666328125,0.15847192704677582,0.0819886103272438,0.01768818311393261
1789063893633671000,0.7766708984375,0.14806216955184937,0.06787651777267456,0.044081173837184906
1789063893643708000,0.7867080078125,0.13062138855457306,0.01534859649837017,0.06601443886756897
1789063893653746000,0.796745849609375,0.11301310360431671,0.05294257774949074,0.02725479006767273
1789063893663783000,0.806782958984375,0.10111303627490997,0.0645398423075676,0.02426033280789852
1789063893673821000,0.816821044921875,0.09787116944789886,0.01619654707610607,0.026706445962190628
1789063893683858000,0.82685791015625,0.09429720789194107,0.02846786007285118,0.02346058562397957
1789063893693896000,0.83689599609375,0.0749027356505394,-0.0009475527331233025,0.027959195896983147
1789063893703934000,0.846933837890625,0.04530569538474083,0.011296862736344337,0.015278022736310959
1789063893713971000,0.856970947265625,0.022903718054294586,0.03730476275086403,-0.01564900018274784
1789063893724009000,0.867009033203125,0.021999575197696686,0.013966682367026806,-0.02430959977209568
1789063893734046000,0.8770458984375,0.03984914720058441,0.018553709611296654,-0.030058033764362335
1789063893744084000,0.887083984375,0.05498176068067551,0.008584433235228062,-0.04194984585046768
1789063893754120700,0.89712060546875,0.05476684123277664,-0.0017805894603952765,-0.03604242205619812
1789063893764159000,0.907158935546875,0.03964994102716446,0.007109042257070541,-0.03377394378185272
1789063893774196000,0.917196044921875,0.020120980218052864,0.008563128300011158,-0.02249731868505478
1789063893784233700,0.927233642578125,0.014650847762823105,0.014817828312516212,-0.011480354703962803
1789063893794271000,0.93727099609375,0.026969032362103462,0.05049113556742668,-0.022347649559378624
1789063893804309000,0.94730908203125,0.04652063176035881,0.0676131322979927,-0.026551449671387672
1789063893814347000,0.957346923828125,0.06697983294725418,0.05303419008851051,-0.005301821045577526
1789063893824384000,0.967384033203125,0.0815981924533844,0.05116305127739906,0.01601065881550312
1789063893834421800,0.977421875,0.08958926796913147,0.05199528858065605,0.014030598104000092
1789063893844458800,0.987458740234375,0.0858675017952919,0.0506269596517086,0.02155243046581745
1789063893854497000,0.9974970703125,0.08197475969791412,0.06138746067881584,0.032642632722854614
1789063893864534000,1.007533935546875,0.0723106786608696,0.04735366627573967,0.04528891667723656
1789063893874572000,1.017572021484375,0.06913619488477707,0.06576303392648697,0.021095165982842445
1789063893884609000,1.027609130859375,0.07901572436094284,0.08437959849834442,0.00686083547770977
1789063893894646800,1.037646728515625,0.09483037143945694,0.0837327167391777,0.0003552656853571534
1789063893904683800,1.047683837890625,0.11685951054096222,0.09636329114437103,-0.02268720231950283
1789063893914722000,1.05772216796875,0.12389238178730011,0.11341390758752823,-0.04800613969564438
1789063893924759800,1.067759765625,0.1248207613825798,0.10950998216867447,-0.057195644825696945
1789063893934796800,1.077796875,0.11184530705213547,0.08792027086019516,-0.044791173189878464
1789063893944835000,1.0878349609375,0.09083402901887894,0.10411202162504196,-0.05657646059989929
1789063893954871800,1.097871826171875,0.07603191584348679,0.10599087923765182,-0.03994235768914223
1789063893964910000,1.10791015625,0.07225235551595688,0.09398721158504486,0.016467923298478127
1789063893974947000,1.117947021484375,0.07467556744813919,0.06305726617574692,0.04120336100459099
1789063893984984800,1.12798486328125,0.07473016530275345,0.07565560936927795,0.036502350121736526
1789063893995021800,1.138021728515625,0.06977295875549316,0.09429773688316345,0.012889965437352657
1789063894005059800,1.148059814453125,0.060573600232601166,0.08908487111330032,0.007056045345962048
1789063894015096800,1.158096923828125,0.03965340182185173,0.07368727028369904,0.023492010310292244
1789063894025135000,1.168135009765625,0.02804308570921421,0.08943507075309753,-0.0010274475207552314
1789063894035172900,1.1781728515625,0.01733664609491825,0.07096472382545471,0.007680556736886501
1789063894045209900,1.1882099609375,0.011480887420475483,0.07487823814153671,-0.010263556614518166
1789063894055248100,1.198248046875,-0.011738148517906666,0.05089007690548897,-0.007355917245149612
1789063894065284900,1.208284912109375,-0.03925526142120361,0.06265246123075485,-0.012605274096131325
1789063894075323000,1.218322998046875,-0.062195729464292526,0.04285718500614166,-0.017676997929811478
1789063894085359900,1.22835986328125,-0.07167445123195648,0.05398520454764366,-0.011877964250743389
1789063894095398000,1.23839794921875,-0.07696907967329025,0.033242374658584595,0.01677684858441353
1789063894105435000,1.248434814453125,-0.08463498950004578,0.033780068159103394,0.014780543744564056
1789063894115473200,1.25847314453125,-0.09610655903816223,0.02298014983534813,0.021876536309719086
1789063894125510000,1.268510009765625,-0.11148658394813538,0.02468244358897209,0.018138257786631584
1789063894135548000,1.2785478515625,-0.11766085028648376,0.043715521693229675,-0.019171563908457756
1789063894145586000,1.2885859375,-0.12047448009252548,0.051113784313201904,-0.009214004501700401
1789063894155623000,1.298622802734375,-0.12101004272699356,-0.01004837267100811,0.019107913598418236
1789063894165661000,1.308660888671875,-0.13785320520401,-0.01290301512926817,0.0060144830495119095
1789063894175698000,1.318697998046875,-0.1627628207206726,-0.008413724601268768,0.0019462381023913622
1789063894185736000,1.32873583984375,-0.1911124289035797,-0.03220294415950775,0.015328888781368732
1789063894195773000,1.33877294921875,-0.20361703634262085,-0.03864433243870735,-0.01739949733018875
1789063894205811000,1.34881103515625,-0.18354345858097076,0.014930213801562786,-0.04213094338774681
1789063894215848000,1.358847900390625,-0.1672838032245636,-0.07835578918457031,0.03419099375605583
1789063894225886000,1.368885986328125,-0.13563399016857147,0.0370807908475399,-0.012829245999455452
1789063894235922700,1.378922607421875,-0.1070910319685936,-0.04621037095785141,-0.0111607750877738
1789063894245961000,1.3889609375,-0.06406926363706589,0.02647474966943264,-0.03398832678794861
1789063894255998000,1.398998046875,-0.051780108362436295,0.001725728390738368,-0.026099244132637978
1789063894266036000,1.409035888671875,-0.07706549018621445,-0.0561349093914032,-0.002424808219075203
1789063894276074000,1.419073974609375,-0.1115369126200676,0.033912960439920425,-0.04622768238186836
1789063894286111000,1.429111083984375,-0.11431672424077988,0.041362352669239044,-0.03807840868830681
1789063894296149000,1.43914892578125,-0.08231724053621292,0.024535436183214188,0.017120663076639175
1789063894306186000,1.44918603515625,-0.03399338573217392,-0.011895807459950447,0.05519188195466995
1789063894316223700,1.4592236328125,0.01673104241490364,0.05372607707977295,0.013728062622249126
1789063894326261000,1.469260986328125,0.035709526389837265,0.054190535098314285,0.01588655449450016
1789063894336299000,1.479299072265625,0.022854715585708618,-0.0028336034156382084,0.024951688945293427
1789063894346336000,1.4893359375,-0.025379924103617668,-0.03652898222208023,0.02299213409423828
1789063894356374000,1.4993740234375,-0.09562692046165466,-0.05435032397508621,0.002868224401026964
1789063894366411000,1.509410888671875,-0.14218589663505554,0.004424575716257095,-0.04601303115487099
1789063894376448800,1.51944873046875,-0.14959082007408142,0.016158463433384895,-0.05580094829201698
1789063894386487000,1.529487060546875,-0.10584014654159546,0.06471161544322968,-0.05084294080734253
1789063894396524000,1.53952392578125,-0.048353951424360275,0.03232758119702339,-0.015074023976922035
1789063894406561800,1.549561767578125,0.0054730623960494995,0.0697532519698143,-0.01769191212952137
1789063894416599000,1.55959912109375,0.02286376990377903,0.05019738897681236,0.03154940530657768
1789063894426637000,1.569636962890625,0.009501093067228794,0.05348772555589676,0.11517692357301712
1789063894436673800,1.579673828125,-0.03893328458070755,0.015336345881223679,0.1639135628938675
1789063894446712000,1.589712158203125,-0.07539834827184677,0.03533641993999481,0.13829421997070312
1789063894456749000,1.5997490234375,-0.08928966522216797,0.04890202730894089,0.16299743950366974
1789063894466786800,1.609786865234375,-0.04954198747873306,0.06902993470430374,0.17096827924251556
1789063894476823800,1.61982373046875,0.015496933832764626,0.07746975868940353,0.12703357636928558
1789063894486861800,1.62986181640625,0.11096087098121643,0.13033217191696167,0.016810672357678413
1789063894496899800,1.63989990234375,0.1872551143169403,0.14422401785850525,-0.034626420587301254
1789063894506937000,1.64993701171875,0.2319328337907791,0.14569701254367828,-0.053530070930719376
1789063894516974800,1.659974853515625,0.2294694036245346,0.1249520555138588,-0.10986897349357605
1789063894527011800,1.67001171875,0.1753305345773697,0.12911483645439148,-0.14166046679019928
1789063894537050000,1.680050048828125,0.10904286056756973,0.09549456089735031,-0.09538137912750244
1789063894547086800,1.6900869140625,0.07064726948738098,0.0718611404299736,-0.11501553654670715
1789063894557124900,1.700124755859375,0.11346371471881866,0.16639430820941925,-0.20587806403636932
1789063894567162000,1.710162109375,0.20068968832492828,0.17927254736423492,-0.11553218960762024
1789063894577200000,1.7202001953125,0.3229767084121704,0.13533492386341095,-0.042696330696344376
1789063894587237400,1.7302373046875,0.40686577558517456,0.0941411480307579,-0.03200666978955269
1789063894597275100,1.740275146484375,0.4273185729980469,0.2502039968967438,-0.05811842903494835
1789063894607313200,1.750313232421875,0.3518299460411072,0.18529902398586273,0.038656048476696014
1789063894617350400,1.760350341796875,0.2523459494113922,0.1679176390171051,0.08998607844114304
1789063894627388200,1.77038818359375,0.17008037865161896,0.17702724039554596,0.08460596203804016
1789063894637425200,1.780425048828125,0.12989221513271332,0.12805676460266113,0.1025141254067421
1789063894647463400,1.79046337890625,0.16105680167675018,0.16138090193271637,0.0734419897198677
1789063894657500200,1.800500244140625,0.2078658491373062,0.15375041961669922,-0.00007776429993100464
1789063894667538200,1.8105380859375,0.22952160239219666,0.17997802793979645,-0.014137656427919865
1789063894677575400,1.820575439453125,0.19495537877082825,0.08185172080993652,-0.009747701697051525
1789063894687613200,1.83061328125,0.11759640276432037,0.14608930051326752,-0.03177550807595253
1789063894697650200,1.840650146484375,0.023998010903596878,0.17308123409748077,-0.11197420209646225
1789063894707688400,1.8506884765625,-0.06082873046398163,0.073391392827034,-0.07966393232345581
1789063894717725200,1.86072509765625,-0.07565268129110336,0.10341826826334,-0.06481281667947769
1789063894727763200,1.87076318359375,-0.06102793291211128,0.004830175079405308,-0.0004721784498542547
1789063894737801200,1.88080126953125,-0.009061405435204506,0.03702433034777641,-0.0015811186749488115
1789063894747838200,1.890838134765625,0.04628387466073036,-0.014256167225539684,0.044262271374464035
1789063894757876200,1.900876220703125,0.07603218406438828,0.016386164352297783,0.050343599170446396
1789063894767913200,1.910913330078125,0.08464005589485168,0.018188592046499252,0.023438746109604836
1789063894777951200,1.920951171875,0.07409260421991348,0.05216280370950699,0.01907142996788025
1789063894787988200,1.93098828125,0.07971800118684769,0.05560414120554924,0.005459746345877647
1789063894798026200,1.941026123046875,0.10085736960172653,0.07656801491975784,-0.049497779458761215
1789063894808063200,1.951063232421875,0.1504819095134735,0.07794752717018127,-0.05138223245739937
1789063894818101200,1.961101318359375,0.24343715608119965,0.14540167152881622,-0.02479110099375248
1789063894828138200,1.97113818359375,0.3461827039718628,0.1365242898464203,-0.024836640805006027
1789063894838176300,1.98117626953125,0.44275158643722534,0.21858879923820496,-0.023874439299106598
1789063894848214300,1.99121435546875,0.5071675777435303,0.21456849575042725,0.056053414940834045
1789063894858251300,2.001251220703125,0.5385580062866211,0.24611283838748932,0.12511184811592102
1789063894868289300,2.011289306640625,0.5559364557266235,0.3141012191772461,0.09938943386077881
1789063894878326300,2.021326171875,0.5611067414283752,0.38706809282302856,0.06344768404960632
1789063894888364300,2.0313642578125,0.5800367593765259,0.3616418242454529,0.08310980349779129
1789063894898401300,2.0414013671875,0.6202486157417297,0.34066569805145264,0.05811550095677376
1789063894908439000,2.05143896484375,0.6681032180786133,0.4127409756183624,-0.012378638610243797
1789063894918476300,2.061476318359375,0.7115876078605652,0.423535019159317,-0.05114680901169777
1789063894928514300,2.071514404296875,0.733797550201416,0.35294821858406067,-0.0003904194163624197
1789063894938551300,2.08155126953125,0.7154313325881958,0.35867586731910706,-0.02991235814988613
1789063894948589300,2.09158935546875,0.6641423106193542,0.4486965537071228,-0.027728300541639328
1789063894958626300,2.101626220703125,0.6243187189102173,0.36161118745803833,0.026445189490914345
1789063894968664000,2.1116640625,0.5936740040779114,0.3491755723953247,0.02538365311920643
1789063894978702300,2.121702392578125,0.5890861749649048,0.39760008454322815,0.014290256425738335
1789063894988739300,2.1317392578125,0.6012597680091858,0.3562265634536743,0.023685621097683907
1789063894998777000,2.141777099609375,0.6414923667907715,0.4601292610168457,-0.012675581499934196
1789063895008814300,2.151814453125,0.6833232045173645,0.4826856851577759,-0.02183978445827961
1789063895018852400,2.161852294921875,0.7091765999794006,0.48390063643455505,0.012824186123907566
1789063895028889000,2.17188916015625,0.7160819172859192,0.48023319244384766,0.005594236310571432
1789063895038927400,2.18192724609375,0.6899118423461914,0.4736466705799103,0.05007967725396156
1789063895048964400,2.19196435546875,0.6456019282341003,0.4294629395008087,0.08887208253145218
1789063895059002000,2.202002197265625,0.6011761426925659,0.4215938448905945,0.0677255168557167
1789063895069039400,2.212039306640625,0.5730480551719666,0.4677586853504181,0.07561033964157104
1789063895079077000,2.2220771484375,0.5609632134437561,0.44897034764289856,0.07539568841457367
1789063895089115100,2.232115234375,0.5840109586715698,0.469523549079895,0.03861956298351288
1789063895099152400,2.24215234375,0.5965707302093506,0.5308929085731506,-0.037041109055280685
1789063895109190100,2.252190185546875,0.5655432939529419,0.5169656276702881,-0.010277404449880123
1789063895119227100,2.26222705078125,0.474712997674942,0.3849109411239624,0.03051263466477394
1789063895129265400,2.272265380859375,0.35350027680397034,0.397531121969223,-0.003367567202076316
1789063895139302100,2.28230224609375,0.22314706444740295,0.4185605049133301,-0.020235231146216393
1789063895149340200,2.292340087890625,0.12730282545089722,0.34652358293533325,0.012328571639955044
1789063895159377400,2.30237744140625,0.10054711252450943,0.30069273710250854,0.022605177015066147
1789063895169415200,2.312415283203125,0.11975888907909393,0.3164498507976532,0.022506108507514
1789063895179452200,2.3224521484375,0.15810947120189667,0.2658151686191559,0.05535353720188141
1789063895189490400,2.332490478515625,0.16139741241931915,0.3516477942466736,0.03063380904495716
1789063895199527200,2.342527099609375,0.09045080095529556,0.34996360540390015,0.026141589507460594
1789063895209565200,2.352565185546875,-0.05271194875240326,0.2753649950027466,0.10809903591871262
1789063895219603200,2.362603271484375,-0.21626491844654083,0.08012013882398605,0.2067161649465561
1789063895229640200,2.37264013671875,-0.4178752601146698,0.04693395271897316,0.13052178919315338
1789063895239678200,2.38267822265625,-0.5084674954414368,0.07361776381731033,0.02243952825665474
1789063895249715500,2.392715576171875,-0.48088008165359497,0.14904753863811493,-0.02263340726494789
1789063895259753200,2.402753173828125,-0.3796567916870117,0.10645933449268341,-0.1351783275604248
1789063895269790200,2.412790283203125,-0.29844340682029724,0.15746818482875824,-0.1810656636953354
1789063895279828200,2.422828125,-0.3208344876766205,0.07157911360263824,-0.08916183561086655
1789063895289865200,2.432865234375,-0.4672931432723999,0.027601800858974457,-0.0805417150259018
1789063895299903200,2.4429033203125,-0.5708088874816895,-0.052622199058532715,-0.1702367067337036
1789063895309940200,2.452940185546875,-0.7035432457923889,-0.2809089124202728,-0.16753919422626495
1789063895319978200,2.462978271484375,-0.8721942901611328,-0.3323020339012146,-0.036801423877477646
1789063895330015200,2.47301513671875,-1.0385537147521973,-0.21763645112514496,0.01347319781780243
1789063895340053200,2.48305322265625,-1.1899133920669556,-0.12814252078533173,0.0925067663192749
1789063895350091300,2.49309130859375,-1.2766491174697876,-0.321658730506897,0.33634498715400696
1789063895360128300,2.503128173828125,-1.2276490926742554,-0.36136379837989807,0.4207991659641266
1789063895370166300,2.513166259765625,-1.0267192125320435,-0.21402600407600403,0.25479555130004883
1789063895380203300,2.523203369140625,-0.7950470447540283,-0.21341800689697266,0.11971388012170792
1789063895390241000,2.533240966796875,-0.7351983785629272,-0.2585300803184509,0.11545415967702866
1789063895400278300,2.5432783203125,-0.8565423488616943,-0.38250210881233215,0.06693695485591888
1789063895410316300,2.55331640625,-1.054025650024414,-0.4051187336444855,-0.07491391897201538
1789063895420353300,2.563353271484375,-1.2815607786178589,-0.47002050280570984,-0.12639948725700378
1789063895430391300,2.573391357421875,-1.3818227052688599,-0.4541376829147339,-0.10953554511070251
1789063895440428300,2.58342822265625,-1.3114571571350098,-0.4403526186943054,-0.1293577253818512
1789063895450466000,2.593466064453125,-1.234850287437439,-0.47229722142219543,-0.13579991459846497
1789063895460503300,2.60350341796875,-1.187788963317871,-0.5095292925834656,-0.05721215531229973
1789063895470541300,2.613541259765625,-1.1696171760559082,-0.3470309376716614,-0.04615151509642601
1789063895480579300,2.623579345703125,-1.1966676712036133,-0.37704581022262573,-0.052740976214408875
1789063895490616300,2.6336162109375,-1.2089390754699707,-0.45600056648254395,0.008234760724008083
1789063895500654300,2.643654296875,-1.1960530281066895,-0.4977794289588928,0.04669852927327156
1789063895510691000,2.653691162109375,-1.1694893836975098,-0.5345281362533569,0.028601285070180893
1789063895520729300,2.663729248046875,-1.1586334705352783,-0.601776659488678,0.05934241786599159
1789063895530766300,2.673766357421875,-1.1317342519760132,-0.5196029543876648,0.06469777226448059
1789063895540804000,2.68380419921875,-1.0970721244812012,-0.45731401443481445,0.07646548002958298
1789063895550841300,2.69384130859375,-1.0612752437591553,-0.45907145738601685,0.05949448421597481
1789063895560879000,2.703879150390625,-0.9932618737220764,-0.4046627879142761,0.020592892542481422
1789063895570916000,2.713916015625,-0.91566002368927,-0.4309561848640442,0.02371651493012905
1789063895580953000,2.723953125,-0.8771712183952332,-0.4288232624530792,0.028148014098405838
1789063895590990000,2.733989990234375,-0.8729873895645142,-0.47955140471458435,0.027176493778824806
1789063895601028000,2.744028076171875,-0.8411309123039246,-0.4418157637119293,0.026823624968528748
1789063895611066000,2.754066162109375,-0.7848612666130066,-0.3807750344276428,-0.03621979057788849
1789063895621103000,2.76410302734375,-0.6706960797309875,-0.29413920640945435,-0.09604557603597641
1789063895631141000,2.77414111328125,-0.5500082969665527,-0.31220105290412903,-0.05381156504154205
1789063895641178000,2.78417822265625,-0.47659316658973694,-0.3823942542076111,-0.02268107794225216
1789063895651216100,2.794216064453125,-0.4340822100639343,-0.30732107162475586,-0.051478635519742966
1789063895661253000,2.804253173828125,-0.42448630928993225,-0.240345761179924,-0.021761488169431686
1789063895671291100,2.814291015625,-0.4197557270526886,-0.295354962348938,0.09019088000059128
1789063895681328000,2.824328125,-0.4074820280075073,-0.3357281982898712,0.12333738058805466
1789063895691366100,2.8343662109375,-0.343177855014801,-0.2667584717273712,0.08039470762014389
1789063895701403100,2.844403076171875,-0.28552868962287903,-0.272494375705719,0.12772546708583832
1789063895711441200,2.854441162109375,-0.2402821034193039,-0.2919436991214752,0.10293969511985779
1789063895721478100,2.86447802734375,-0.19923320412635803,-0.22003090381622314,0.02171994186937809
1789063895731516200,2.87451611328125,-0.16675569117069244,-0.2106938511133194,0.013996775262057781
1789063895741554000,2.884553955078125,-0.1490885466337204,-0.24580763280391693,0.009247294627130032
1789063895751591200,2.894591064453125,-0.14176885783672333,-0.22301949560642242,-0.04298768192529678
1789063895761629200,2.904629150390625,-0.13916614651679993,-0.2235579937696457,-0.03628956526517868
1789063895771666200,2.914666259765625,-0.1410527229309082,-0.2633291184902191,-0.018091119825839996
1789063895781704200,2.9247041015625,-0.13376978039741516,-0.2394205778837204,-0.03086576983332634
1789063895791741200,2.9347412109375,-0.12596911191940308,-0.18545880913734436,0.010064885020256042
1789063895801779000,2.944779052734375,-0.12220260500907898,-0.19902494549751282,0.034038394689559937
1789063895811816200,2.954816162109375,-0.11351031810045242,-0.1678965985774994,0.03206659108400345
1789063895821854200,2.964854248046875,-0.10512002557516098,-0.15084117650985718,0.05151698738336563
1789063895831891000,2.974890869140625,-0.08594899624586105,-0.256283700466156,0.1255406141281128
1789063895841929200,2.98492919921875,-0.06143806129693985,-0.18947884440422058,0.12258077412843704
1789063895851966200,2.99496630859375,-0.04042705148458481,-0.18408595025539398,0.12280235439538956
1789063895862004000,3.00500390625,-0.04686390981078148,-0.19775062799453735,0.14738811552524567
1789063895872042200,3.015042236328125,-0.05579002946615219,-0.19441474974155426,0.15074796974658966
1789063895882079200,3.025079345703125,-0.0770694836974144,-0.17545704543590546,0.13442358374595642
1789063895892117000,3.035116943359375,-0.07203211635351181,-0.2221774011850357,0.08827447146177292
1789063895902154200,3.045154296875,-0.06560244411230087,-0.16633838415145874,0.028868665918707848
1789063895912192000,3.05519189453125,-0.05263578146696091,-0.17886029183864594,0.004610198084264994
1789063895922229000,3.06522900390625,-0.08116782456636429,-0.28526076674461365,0.02791845053434372
1789063895932267300,3.075267333984375,-0.10095963627099991,-0.21447475254535675,-0.05680948495864868
1789063895942304300,3.08530419921875,-0.12559467554092407,-0.18335731327533722,-0.09098290652036667
1789063895952342000,3.095342041015625,-0.16524462401866913,-0.24143445491790771,-0.06763496994972229
1789063895962379300,3.105379150390625,-0.21246859431266785,-0.23944294452667236,-0.05252792313694954
1789063895972417000,3.1154169921875,-0.2528897821903229,-0.2597405016422272,-0.07444068044424057
1789063895982454000,3.1254541015625,-0.2953331172466278,-0.3102971613407135,-0.006661897525191307
1789063895992492300,3.1354921875,-0.3244097828865051,-0.33341124653816223,0.05469653382897377
1789063896002530000,3.145530029296875,-0.3188994228839874,-0.32015377283096313,0.08940844237804413
1789063896012567000,3.155567138671875,-0.2778494656085968,-0.31789514422416687,0.1137729063630104
1789063896022605000,3.16560498046875,-0.21937362849712372,-0.2757146656513214,0.13089942932128906
1789063896032642000,3.17564208984375,-0.15783490240573883,-0.2736624479293823,0.16041550040245056
1789063896042680000,3.18568017578125,-0.11586881428956985,-0.29311710596084595,0.1504203975200653
1789063896052717300,3.19571728515625,-0.05691361799836159,-0.2063683569431305,0.12181352078914642
1789063896062755000,3.205755126953125,-0.0031292142812162638,-0.2228250950574875,0.14855805039405823
1789063896072792000,3.2157919921875,0.034086331725120544,-0.20487724244594574,0.10773312300443649
1789063896082830000,3.225830078125,0.0779789537191391,-0.1359250843524933,0.07479248195886612
1789063896092867000,3.2358671875,0.12950046360492706,-0.044252414256334305,0.07180574536323547
1789063896102905000,3.245905029296875,0.14541365206241608,-0.0342266783118248,0.027847344055771828
1789063896112942300,3.2559423828125,0.17045269906520844,0.08872294425964355,-0.025969015434384346
1789063896122980000,3.26597998046875,0.27192631363868713,0.19244322180747986,-0.04188806191086769
1789063896133018000,3.27601806640625,0.3597358167171478,0.10147842019796371,-0.05620761215686798
1789063896143055000,3.28605517578125,0.460185170173645,0.0846584290266037,-0.08206051588058472
1789063896153093000,3.296093017578125,0.6290676593780518,0.15955691039562225,-0.0933413952589035
1789063896163130000,3.306130126953125,0.7498867511749268,0.08228342235088348,-0.05500306561589241
1789063896173168000,3.316168212890625,0.848947286605835,0.12388279289007187,-0.04857392609119415
1789063896183205000,3.326205078125,0.9289105534553528,0.1807631254196167,-0.01534859649837017
1789063896193243100,3.3362431640625,0.9677637219429016,0.19543340802192688,0.025913355872035027
1789063896203280100,3.346280029296875,0.997171938419342,0.21197509765625,0.053827546536922455
1789063896213318100,3.356318115234375,1.0312092304229736,0.2324225902557373,0.07454374432563782
1789063896223355100,3.366355224609375,1.0423791408538818,0.2596089243888855,0.09029927104711533
1789063896233393200,3.37639306640625,1.0063148736953735,0.2668663263320923,0.12183082848787308
1789063896243430100,3.38643017578125,0.9963948130607605,0.28098824620246887,0.1023269072175026
1789063896253468200,3.39646826171875,1.0133780241012573,0.24523425102233887,0.11032065004110336
1789063896263506200,3.406506103515625,1.054570198059082,0.28628289699554443,0.0675811767578125
1789063896273543200,3.416543212890625,1.0885341167449951,0.3668922483921051,-0.029502497985959053
1789063896283581000,3.426580810546875,1.0898767709732056,0.3269219398498535,-0.04770653694868088
1789063896293618200,3.4366181640625,1.0589979887008667,0.3761672377586365,-0.0660591796040535
1789063896303656200,3.44665625,1.0207579135894775,0.3994576632976532,-0.1290069818496704
1789063896313693000,3.45669287109375,0.9836742281913757,0.32191359996795654,-0.08313856273889542
1789063896323731200,3.466731201171875,0.9619673490524292,0.33281630277633667,-0.046121690422296524
1789063896333768200,3.476768310546875,0.946968674659729,0.316129207611084,-0.06585464626550674
1789063896343806000,3.486805908203125,0.8995926380157471,0.27830806374549866,0.0009307747823186219
1789063896353843200,3.49684326171875,0.8807326555252075,0.32636451721191406,0.057736266404390335
1789063896363881200,3.506881103515625,0.8371002078056335,0.30703744292259216,0.06015494838356972
1789063896373918000,3.51691796875,0.798204779624939,0.38910728693008423,0.039683498442173004
1789063896383956200,3.526956298828125,0.7395632863044739,0.33422139286994934,0.08200059086084366
1789063896393994000,3.536993896484375,0.7233755588531494,0.3600229024887085,0.03753805533051491
1789063896404031000,3.547031005859375,0.7256197929382324,0.24757571518421173,0.08079258352518082
1789063896414069200,3.5570693359375,0.7362726926803589,0.28660139441490173,0.034030672162771225
1789063896424106200,3.567106201171875,0.7266485691070557,0.23656779527664185,0.027998611330986023
1789063896434144000,3.57714404296875,0.6877797245979309,0.2774595618247986,0.01721946708858013
1789063896444181200,3.58718115234375,0.6419193148612976,0.3417898118495941,-0.035357989370822906
1789063896454219000,3.597218994140625,0.5894683599472046,0.3571629226207733,-0.05120619758963585
1789063896464256000,3.607256103515625,0.5426957607269287,0.35836267471313477,-0.04133572056889534
1789063896474294300,3.617294189453125,0.521372377872467,0.3366941213607788,-0.06292197108268738
1789063896484331000,3.6273310546875,0.5384823679924011,0.27398762106895447,-0.06286364793777466
1789063896494369000,3.637369140625,0.5621280670166016,0.25675109028816223,-0.0524139404296875
1789063896504406300,3.64740625,0.580405592918396,0.22044289112091064,-0.00812130980193615
1789063896514444000,3.657444091796875,0.5581969618797302,0.2895846664905548,-0.014432468451559544
1789063896524481000,3.66748095703125,0.5231183171272278,0.37374722957611084,-0.013378921896219254
1789063896534519300,3.677519287109375,0.460001677274704,0.3628903031349182,0.05018780380487442
1789063896544557000,3.68755712890625,0.41345202922821045,0.31039169430732727,0.09323301166296005
1789063896554594000,3.697593994140625,0.39897534251213074,0.30782467126846313,0.05998983234167099
1789063896564632000,3.707632080078125,0.4056822657585144,0.2344716191291809,0.06343090534210205
1789063896574669600,3.717669677734375,0.43045923113822937,0.23643916845321655,0.045222338289022446
1789063896584707600,3.72770751953125,0.4428096413612366,0.267970472574234,0.0185257475823164
1789063896594744300,3.737744384765625,0.4170571565628052,0.2637275159358978,0.01101696491241455
1789063896604782600,3.747782470703125,0.3827018439769745,0.3113195300102234,-0.00929256808012724
1789063896614819600,3.757819580078125,0.34899553656578064,0.31029313802719116,-0.033482059836387634
1789063896624857300,3.767857421875,0.3409261703491211,0.3455222547054291,-0.06457686424255371
1789063896634894600,3.77789453125,0.3382211923599243,0.29432857036590576,-0.036982517689466476
1789063896644932600,3.7879326171875,0.35392293334007263,0.2712128758430481,-0.02840474247932434
1789063896654969300,3.79796923828125,0.3722505271434784,0.26204919815063477,-0.019116703420877457
1789063896665007600,3.808007568359375,0.382439523935318,0.2926931083202362,0.004177168011665344
1789063896675045400,3.81804541015625,0.3934357166290283,0.3574146032333374,-0.007045392412692308
1789063896685082400,3.828082275390625,0.4092319905757904,0.3815028965473175,0.014421283267438412
1789063896695120600,3.83812060546875,0.41312286257743835,0.36415717005729675,0.018081799149513245
1789063896705157600,3.84815771484375,0.40224891901016235,0.3510349988937378,0.06925524026155472
1789063896715195400,3.8581953125,0.37822747230529785,0.34704717993736267,0.09995988756418228
1789063896725232600,3.868232666015625,0.3497079312801361,0.3337081968784332,0.058975700289011
1789063896735270400,3.8782705078125,0.3456897437572479,0.356998085975647,0.05238810554146767
1789063896745307400,3.888307373046875,0.34849539399147034,0.3335998058319092,0.048719070851802826
1789063896755345700,3.898345703125,0.37092533707618713,0.35448458790779114,0.006183859892189503
1789063896765382700,3.908382568359375,0.3638916611671448,0.3778599500656128,-0.025890452787280083
1789063896775420400,3.91842041015625,0.32463720440864563,0.33366426825523376,-0.0038133803755044937
1789063896785457700,3.928457763671875,0.264909952878952,0.2939133942127228,0.00014141385327093303
1789063896795495400,3.938495361328125,0.2335222065448761,0.26935797929763794,-0.04456773400306702
1789063896805532400,3.948532470703125,0.19095183908939362,0.22659452259540558,-0.04626603052020073
1789063896815570700,3.95857080078125,0.11132412403821945,0.12013492733240128,-0.002112685702741146
1789063896825608400,3.9686083984375,0.0185284111648798,0.13017398118972778,-0.00794314406812191
1789063896835645400,3.9786455078125,-0.08330847322940826,0.1153034195303917,0.042705386877059937
1789063896845683500,3.988683349609375,-0.15764449536800385,0.1632661521434784,0.03231346607208252
1789063896855720400,3.998720458984375,-0.18894381821155548,0.17325833439826965,0.05953177064657211
1789063896865758500,4.008758544921875,-0.22744807600975037,0.11811865121126175,0.11284852027893066
1789063896875795700,4.018795654296875,-0.2759934961795807,0.09753134846687317,0.12483806908130646
1789063896885833500,4.02883349609375,-0.32570353150367737,0.07539302110671997,0.10069119185209274
1789063896895870500,4.038870361328125,-0.398470401763916,0.047329697757959366,0.08073879033327103
1789063896905908500,4.048908447265625,-0.48560264706611633,0.03214595094323158,0.05404113233089447
1789063896915945500,4.058945556640625,-0.5158321857452393,-0.012460930272936821,0.007080812472850084
1789063896925983500,4.0689833984375,-0.5053619742393494,-0.03754284605383873,-0.0158854890614748
1789063896936020700,4.079020751953125,-0.4988444149494171,-0.0019747340120375156,-0.054371897131204605
1789063896946058500,4.08905859375,-0.502923309803009,0.0315677784383297,-0.058158110827207565
1789063896956096500,4.099096435546875,-0.5087750554084778,0.050871968269348145,-0.029162945225834846
1789063896966133500,4.109133544921875,-0.4997376501560211,0.0820557177066803,-0.06575051695108414
1789063896976171500,4.119171630859375,-0.49255165457725525,0.011233746074140072,-0.008007592521607876
1789063896986208500,4.12920849609375,-0.5364000797271729,-0.0626671090722084,0.04476027935743332
1789063896996246500,4.13924658203125,-0.5790446996688843,-0.04288781061768532,0.025173796340823174
1789063897006283500,4.149283447265625,-0.6582064032554626,-0.06461548060178757,0.032710541039705276
1789063897016321500,4.159321533203125,-0.6798219084739685,-0.07393254339694977,0.02731577679514885
1789063897026358500,4.169358642578125,-0.6717376112937927,-0.1351919025182724,0.03906404599547386
1789063897036396500,4.179396484375,-0.6288620829582214,-0.058821503072977066,-0.008106661960482597
1789063897046433500,4.18943359375,-0.6072283983230591,-0.12626339495182037,0.011182080954313278
1789063897056471600,4.199471435546875,-0.6256212592124939,-0.05832535773515701,0.004740693140774965
1789063897066508500,4.209508544921875,-0.6736897230148315,-0.10683776438236237,-0.01864532381296158
1789063897076546300,4.21954638671875,-0.726180374622345,-0.13551229238510132,-0.009552226401865482
1789063897086584600,4.22958447265625,-0.7385398149490356,-0.1422351747751236,-0.035838689655065536
1789063897096621600,4.23962158203125,-0.7355483174324036,-0.2161456197500229,-0.024527447298169136
1789063897106659300,4.249659423828125,-0.7040463089942932,-0.13250690698623657,-0.049908705055713654
1789063897116696600,4.259696533203125,-0.6685061454772949,-0.21634508669376373,-0.0062368568032979965
1789063897126734600,4.269734619140625,-0.6388023495674133,-0.1060236394405365,-0.03026948869228363
1789063897136771300,4.279771240234375,-0.6120389103889465,-0.16482622921466827,0.001514806062914431
1789063897146809600,4.2898095703125,-0.6068827509880066,-0.036621928215026855,-0.007761782966554165
1789063897156846600,4.2998466796875,-0.6056816577911377,-0.11365572363138199,0.030844731256365776
1789063897166884400,4.30988427734375,-0.615444540977478,-0.17185938358306885,0.10175778716802597
1789063897176921600,4.319921630859375,-0.5930526852607727,-0.1274823248386383,0.021710621193051338
1789063897186959600,4.329959716796875,-0.5626598596572876,-0.20822963118553162,0.055201735347509384
1789063897196996400,4.339996337890625,-0.5270488858222961,-0.15054796636104584,0.04043184593319893
1789063897207034600,4.35003466796875,-0.4838511049747467,-0.15109017491340637,0.014213557355105877
1789063897217072400,4.360072265625,-0.4879041612148285,-0.14739717543125153,0.031093470752239227
1789063897227109400,4.370109375,-0.4773865342140198,-0.09350917488336563,-0.012738431803882122
1789063897237147600,4.380147705078125,-0.4891451895236969,-0.124470554292202,-0.010670221410691738
1789063897247184600,4.3901845703125,-0.47831010818481445,-0.12312299758195877,0.002758502261713147
1789063897257222400,4.400222412109375,-0.480881929397583,-0.19936344027519226,0.040952492505311966
1789063897267259600,4.410259765625,-0.4628792405128479,-0.14574681222438812,-0.02093777246773243
1789063897277297400,4.42029736328125,-0.44398757815361023,-0.18250057101249695,-0.01173601858317852
1789063897287334400,4.43033447265625,-0.4301966428756714,-0.15408889949321747,-0.03863341361284256
1789063897297372700,4.44037255859375,-0.3911967873573303,-0.09300104528665543,-0.0805710107088089
1789063897307409400,4.450409423828125,-0.373957097530365,-0.15546442568302155,-0.04917420446872711
1789063897317447400,4.460447509765625,-0.3309137523174286,-0.11608292907476425,-0.056229982525110245
1789063897327484700,4.470484619140625,-0.3163662254810333,-0.15243001282215118,-0.06418031454086304
1789063897337522400,4.4805224609375,-0.29533150792121887,-0.043652936816215515,-0.059479571878910065
1789063897347559400,4.490559326171875,-0.3080478310585022,-0.15190137922763824,0.03983316570520401
1789063897357597700,4.50059765625,-0.3208922743797302,-0.0858435332775116,0.053834203630685806
1789063897367635500,4.510635498046875,-0.32931745052337646,-0.10872035473585129,0.06195977330207825
1789063897377672400,4.52067236328125,-0.34624797105789185,-0.1400737464427948,0.09725598245859146
1789063897387710500,4.53071044921875,-0.334733247756958,-0.1317734718322754,0.06970105320215225
1789063897397747500,4.54074755859375,-0.3289637863636017,-0.18109175562858582,0.09029766917228699
1789063897407785500,4.550785400390625,-0.3141233026981354,-0.1711328625679016,0.06601151078939438
1789063897417822700,4.56082275390625,-0.3219258487224579,-0.18372268974781036,0.01841336116194725
1789063897427860500,4.570860595703125,-0.3389594256877899,-0.13421054184436798,-0.011779161170125008
1789063897437897500,4.5808974609375,-0.35485342144966125,-0.16798047721385956,-0.019401926547288895
1789063897447935500,4.590935546875,-0.34768977761268616,-0.18312880396842957,-0.022779347375035286
1789063897457972500,4.600972412109375,-0.3125664293766022,-0.16104666888713837,-0.06289374083280563
1789063897468010500,4.611010498046875,-0.28261011838912964,-0.15258581936359406,-0.04783809557557106
1789063897478047500,4.621047607421875,-0.2572198212146759,-0.15219832956790924,-0.03744564205408096
1789063897488085500,4.63108544921875,-0.24990704655647278,-0.1636160910129547,0.028265992179512978
1789063897498123500,4.64112353515625,-0.2404448240995407,-0.17892581224441528,0.07373654097318649
1789063897508160500,4.651160400390625,-0.21480470895767212,-0.13039742410182953,0.04794622212648392
1789063897518198500,4.661198486328125,-0.1931324452161789,-0.16433514654636383,0.05813387781381607
1789063897528235500,4.671235595703125,-0.17390096187591553,-0.18047364056110382,0.09710551053285599
1789063897538273500,4.6812734375,-0.18397995829582214,-0.14861130714416504,0.10877681523561478
1789063897548310500,4.691310546875,-0.19944439828395844,-0.15722903609275818,0.06707970052957535
1789063897558348500,4.7013486328125,-0.21425370872020721,-0.14628024399280548,0.08469358086585999
1789063897568385500,4.711385498046875,-0.2008207142353058,-0.12172803282737732,0.05549788102507591
1789063897578424300,4.72142431640625,-0.18036338686943054,-0.16480040550231934,0.07463295757770538
1789063897588461000,4.7314609375,-0.1584961712360382,-0.16450506448745728,0.029955236241221428
1789063897598499300,4.741499267578125,-0.13292476534843445,-0.09945255517959595,0.011563711799681187
1789063897608536300,4.751536376953125,-0.12429585307836533,-0.2019118219614029,0.019999807700514793
1789063897618574000,4.761573974609375,-0.1313612163066864,-0.2054077535867691,-0.01858966238796711
1789063897628611300,4.771611328125,-0.13976535201072693,-0.08735008537769318,-0.05421476811170578
1789063897638649300,4.7816494140625,-0.1736713945865631,-0.13281583786010742,-0.042094189673662186
1789063897648687400,4.791687255859375,-0.16119448840618134,-0.09746556729078293,-0.03158003091812134
1789063897658724400,4.801724365234375,-0.12316161394119263,-0.12649881839752197,-0.012555738911032677
1789063897668762000,4.81176220703125,-0.06797399371862411,-0.10626758635044098,-0.02835041470825672
1789063897678799000,4.821799072265625,-0.04488944262266159,-0.17513985931873322,0.0329158715903759
1789063897688837400,4.83183740234375,-0.04532620310783386,-0.08970858156681061,0.056893642991781235
1789063897698874000,4.8418740234375,-0.060029782354831696,-0.14534494280815125,0.05242752283811569
1789063897708912400,4.851912353515625,-0.0868600606918335,-0.0978567898273468,0.040526121854782104
1789063897718949400,4.861949462890625,-0.07274743914604187,-0.08152921497821808,0.001716673607006669
1789063897728987100,4.871987060546875,-0.07983703911304474,-0.10035749524831772,0.053942594677209854
1789063897739024100,4.882024169921875,-0.06812525540590286,-0.16751016676425934,-0.024775920435786247
1789063897749062400,4.8920625,-0.05760843679308891,-0.045998118817806244,-0.07110214233398438
1789063897759099100,4.90209912109375,-0.06892100721597672,-0.10761727392673492,-0.06490948796272278
1789063897769137200,4.91213720703125,-0.08684488385915756,-0.09497631341218948,-0.03951118886470795
1789063897779174400,4.92217431640625,-0.09340105205774307,-0.12001961469650269,-0.06851594150066376
1789063897789212200,4.932212158203125,-0.0831846371293068,-0.04727670177817345,-0.00660650385543704
1789063897799250400,4.94225048828125,-0.08119658380746841,-0.1509021669626236,0.006656304933130741
1789063897809287400,4.952287353515625,-0.07349685579538345,-0.11326663941144943,0.028543228283524513
1789063897819325200,4.9623251953125,-0.09812310338020325,-0.11514949053525925,0.07440073043107986
1789063897829362200,4.972362060546875,-0.14367727935314178,-0.14304184913635254,0.10494079440832138
1789063897839400200,4.982400146484375,-0.18475866317749023,-0.10883300751447678,0.05122723430395126
1789063897849437200,4.992437255859375,-0.22779162228107452,-0.20789514482021332,0.08986756950616837
1789063897859475500,5.002475341796875,-0.23294909298419952,-0.18987859785556793,0.02666489966213703
1789063897869512200,5.01251220703125,-0.24331438541412354,-0.258412629365921,0.026729881763458252
1789063897879550200,5.02255029296875,-0.24456074833869934,-0.2380405217409134,-0.040704552084207535
1789063897889587200,5.032587158203125,-0.2656596302986145,-0.2234029918909073,-0.025590049102902412
1789063897899625200,5.042625244140625,-0.30691787600517273,-0.22297129034996033,-0.07454480975866318
1789063897909662200,5.052662109375,-0.3350914418697357,-0.20404314994812012,-0.0374339260160923
1789063897919700200,5.0627001953125,-0.3596801459789276,-0.2933272123336792,0.0007411577389575541
1789063897929738200,5.07273828125,-0.35660791397094727,-0.3051873445510864,0.011757323518395424
1789063897939775200,5.082775146484375,-0.3593563139438629,-0.3011992573738098,0.015017032623291016
1789063897949813200,5.092813232421875,-0.35844311118125916,-0.3773776590824127,0.08172495663166046
1789063897959850200,5.102850341796875,-0.37980538606643677,-0.30711308121681213,0.07010558247566223
1789063897969888300,5.11288818359375,-0.3830192983150482,-0.31195148825645447,0.08360381424427032
1789063897979925200,5.12292529296875,-0.3683127760887146,-0.3013545274734497,0.11023622751235962
1789063897989963300,5.13296337890625,-0.31955695152282715,-0.3541269302368164,0.10407660156488419
1789063898000000300,5.143000244140625,-0.2551223039627075,-0.2911660671234131,0.07604309916496277
1789063898010038300,5.153038330078125,-0.19320781528949738,-0.3209114372730255,0.06350041180849075
1789063898020075300,5.1630751953125,-0.1425749957561493,-0.2851254940032959,0.0073511237278580666
1789063898030113300,5.17311328125,-0.13067305088043213,-0.292553573846817,0.021894114091992378
1789063898040150300,5.183150390625,-0.14678384363651276,-0.2785125970840454,0.004714061506092548
1789063898050188300,5.193188232421875,-0.15343083441257477,-0.2183815985918045,-0.03247618302702904
1789063898060225300,5.203225341796875,-0.10739223659038544,-0.23594994843006134,-0.001811748486943543
1789063898070263000,5.213262939453125,-0.013848171569406986,-0.2321312427520752,0.010221478529274464
1789063898080301300,5.22330126953125,0.10864339023828506,-0.22549811005592346,0.002320145955309272
1789063898090338300,5.23333837890625,0.18472164869308472,-0.1608583927154541,0.017056748270988464
1789063898100376300,5.243376220703125,0.20063696801662445,-0.14452069997787476,0.02057025581598282
1789063898110413300,5.253413330078125,0.22062531113624573,-0.09247773885726929,0.05194921791553497
1789063898120451300,5.263451416015625,0.2679787278175354,-0.09047476947307587,0.030706247314810753
1789063898130488000,5.273488037109375,0.3452575206756592,-0.06336485594511032,0.0531923808157444
1789063898140526300,5.2835263671875,0.4204641282558441,-0.05693758651614189,0.07246407866477966
1789063898150563300,5.293563232421875,0.4532313942909241,-0.07620502263307571,0.12308970838785172
1789063898160601300,5.303601318359375,0.4671972692012787,-0.061952050775289536,0.08109991252422333
1789063898170638300,5.313638427734375,0.4777764081954956,-0.008268316276371479,0.05810857564210892
1789063898180676000,5.323676025390625,0.5003997087478638,0.010830809362232685,0.04724021628499031
1789063898190713000,5.333713134765625,0.5150641202926636,0.03494440019130707,0.028420988470315933
1789063898200751400,5.34375146484375,0.5466825366020203,0.0019331886433064938,-0.019719375297427177
1789063898210789000,5.3537890625,0.5654090642929077,0.008189486339688301,-0.012402607128024101
1789063898220826000,5.363826171875,0.5722557902336121,0.05071830376982689,-0.024057133123278618
1789063898230864400,5.373864501953125,0.5323246121406555,0.018671954050660133,0.0001699096756055951
1789063898240901000,5.383901123046875,0.47781476378440857,0.03877349570393562,0.022067219018936157
1789063898250939400,5.393939453125,0.4206697344779968,0.05926705151796341,0.01847195066511631
1789063898260976400,5.403976318359375,0.41427016258239746,0.05275535583496094,-0.0260465145111084
1789063898271014100,5.41401416015625,0.4209568202495575,0.03971678763628006,0.0264811422675848
1789063898281051100,5.424051025390625,0.47258859872817993,-0.0021704763639718294,0.018306303769350052
1789063898291089400,5.43408935546875,0.49405258893966675,0.00820919405668974,0.02485794574022293
1789063898301126100,5.444126220703125,0.5015909671783447,0.08277637511491776,-0.04459223523736
1789063898311164200,5.4541640625,0.45879021286964417,0.09893936663866043,-0.020483437925577164
1789063898321201400,5.464201416015625,0.43956485390663147,0.12331447750329971,-0.037213414907455444
1789063898331239200,5.4742392578125,0.4343559741973877,0.08987689018249512,-0.015333415940403938
1789063898341276200,5.484276123046875,0.47305649518966675,0.1503588855266571,-0.05631227418780327
1789063898351314400,5.494314453125,0.47912585735321045,0.08766806870698929,-0.009278452955186367
1789063898361352200,5.504352294921875,0.4848282039165497,0.17130330204963684,-0.027607925236225128
1789063898371389200,5.51438916015625,0.44465309381484985,0.11996102333068848,0.0193121787160635
1789063898381427200,5.52442724609375,0.45891857147216797,0.12855423986911774,-0.005277053453028202
1789063898391464200,5.534464111328125,0.48741281032562256,0.1336403489112854,0.030533675104379654
1789063898401502500,5.54450244140625,0.5216701030731201,0.21375861763954163,-0.01703491061925888
1789063898411539200,5.554539306640625,0.4805794060230255,0.14141066372394562,0.04301617667078972
1789063898421577200,5.5645771484375,0.43621140718460083,0.2247430980205536,0.0015851134667173028
1789063898431614200,5.5746142578125,0.395736426115036,0.15704341232776642,0.05754132196307182
1789063898441652200,5.58465234375,0.4118101894855499,0.199627086520195,-0.020259199663996696
1789063898451689200,5.594689208984375,0.4383946657180786,0.1768975406885147,-0.020356670022010803
1789063898461727200,5.604727294921875,0.4517331123352051,0.16619908809661865,-0.07917790859937668
1789063898471764200,5.61476416015625,0.418645977973938,0.1520896703004837,-0.03455211967229843
1789063898481802200,5.62480224609375,0.3437059819698334,0.16185255348682404,-0.0611853264272213
1789063898491839200,5.634839111328125,0.2588246464729309,0.1789548397064209,-0.032340895384550095
1789063898501877200,5.644877197265625,0.21046535670757294,0.12829804420471191,-0.01595499739050865
1789063898511915300,5.654915283203125,0.19946010410785675,0.14298272132873535,0.021754032000899315
1789063898521952300,5.6649521484375,0.19940125942230225,0.11030813306570053,0.04771186038851738
1789063898531990300,5.674990234375,0.17409484088420868,0.0717463567852974,0.09317947924137115
1789063898542027300,5.68502734375,0.12031549215316772,0.10385209321975708,0.1173524558544159
1789063898552065300,5.695065185546875,0.057985272258520126,0.10682684928178787,0.09369426965713501
1789063898562102300,5.705102294921875,0.018936406821012497,0.009885920211672783,0.10393758118152618
1789063898572140300,5.715140380859375,0.039133019745349884,0.07789213210344315,0.03778839111328125
1789063898582176800,5.7251767578125,0.051228832453489304,0.04661836847662926,0.043229762464761734
1789063898592214500,5.735214599609375,0.021106084808707237,-0.0032948628067970276,0.012751215137541294
1789063898602251800,5.745251708984375,-0.05353619530797005,0.007994542829692364,-0.059845224022865295
1789063898612289800,5.755289794921875,-0.09667035192251205,0.11644165962934494,-0.16086557507514954
1789063898622326500,5.765326416015625,-0.12511476874351501,0.02611069567501545,-0.1160842627286911
1789063898632364800,5.77536474609375,-0.0788242444396019,0.06785468012094498,-0.18488995730876923
1789063898642401800,5.78540185546875,-0.04773822799324989,-0.022099709138274193,-0.13890835642814636
1789063898652439600,5.795439453125,-0.025726668536663055,0.013607688248157501,-0.11350259184837341
1789063898662477800,5.805477783203125,-0.03610101342201233,-0.01846209727227688,-0.048831719905138016
1789063898672514600,5.8155146484375,-0.04186489060521126,0.07185288518667221,-0.027541080489754677
1789063898682552600,5.825552490234375,-0.017612548545002937,0.066096730530262,0.03232837840914726
1789063898692589800,5.83558984375,0.02064535766839981,0.09674811363220215,0.06603866815567017
1789063898702627600,5.845627685546875,0.062258847057819366,0.06969066709280014,0.10390029847621918
1789063898712664600,5.85566455078125,0.06797931343317032,0.06263541430234909,0.10267417877912521
1789063898722702800,5.865702880859375,0.05470612272620201,0.06639819592237473,0.05495699122548103
1789063898732739600,5.875739501953125,0.015670305117964745,0.06845282763242722,0.020072510465979576
1789063898742777600,5.885777587890625,0.010350908152759075,0.04800241440534592,0.012028433382511139
1789063898752814800,5.89581494140625,0.002996056107804179,0.04729640856385231,0.006298642139881849
1789063898762852600,5.9058525390625,0.027847610414028168,0.06066574528813362,-0.04511980712413788
1789063898772889600,5.9158896484375,0.03352387249469757,0.05369358882308006,-0.007337008602917194
1789063898782928000,5.925927978515625,0.06655719131231308,0.14529594779014587,-0.05598124489188194
1789063898792965600,5.935965576171875,0.07761729508638382,0.10274209082126617,-0.05238970369100571
1789063898803002600,5.946002685546875,0.09068089723587036,0.12340635806322098,-0.04270085692405701
1789063898813040600,5.95604052734375,0.10710728168487549,0.09885440766811371,-0.036793965846300125
1789063898823077600,5.96607763671875,0.12203163653612137,0.1152203306555748,-0.06966882944107056
1789063898833115600,5.97611572265625,0.14131984114646912,0.06847386807203293,0.021158281713724136
1789063898843152600,5.986152587890625,0.1359461098909378,0.14605015516281128,0.02365899085998535
1789063898853190700,5.996190673828125,0.140635684132576,0.11528132110834122,0.043481431901454926
1789063898863227600,6.0062275390625,0.13697676360607147,0.190008282661438,0.043000731617212296
1789063898873265700,6.016265625,0.16727660596370697,0.1372489333152771,0.05336229130625725
1789063898883302700,6.026302734375,0.18296769261360168,0.15010002255439758,0.07368673384189606
1789063898893340700,6.036340576171875,0.1918219029903412,0.1301950216293335,0.03933302313089371
1789063898903377700,6.046377685546875,0.1611260324716568,0.13505768775939941,-0.0016876452136784792
1789063898913415700,6.056415771484375,0.1369093805551529,0.15957394242286682,-0.008650746196508408
1789063898923452700,6.06645263671875,0.14122556149959564,0.1600589156150818,0.012602344155311584
1789063898933490700,6.07649072265625,0.17795374989509583,0.17695853114128113,0.029822343960404396
1789063898943528700,6.08652880859375,0.2207089364528656,0.13359081745147705,0.05885239690542221
1789063898953565700,6.096565673828125,0.2660742998123169,0.23186305165290833,-0.01768498681485653
1789063898963603700,6.106603759765625,0.2942691743373871,0.2602851092815399,-0.01170539204031229
1789063898973640700,6.116640625,0.2749524712562561,0.23194880783557892,0.03526371344923973
1789063898983678500,6.126678466796875,0.24297402799129486,0.2278645932674408,0.036368660628795624
1789063898993715700,6.1367158203125,0.2122611254453659,0.2997339963912964,-0.03507862612605095
1789063899003753700,6.146753662109375,0.21887215971946716,0.2621147036552429,-0.010728810913860798
1789063899013790700,6.156790771484375,0.23613077402114868,0.21758319437503815,-0.042334407567977905
1789063899023828700,6.166828857421875,0.25525200366973877,0.20925389230251312,-0.036909546703100204
1789063899033865700,6.17686572265625,0.2115306258201599,0.2334045022726059,-0.04078631103038788
1789063899043903500,6.186903564453125,0.18082676827907562,0.20459309220314026,-0.08563420921564102
1789063899053940700,6.196940673828125,0.15027952194213867,0.27481451630592346,-0.07834034413099289
1789063899063978800,6.206978759765625,0.1554761379957199,0.23552970588207245,-0.04813876748085022
1789063899074015700,6.217015625,0.15476028621196747,0.25176697969436646,-0.0034107104875147343
1789063899084053800,6.2270537109375,0.13522040843963623,0.157856747508049,0.03586931899189949
1789063899094090800,6.2370908203125,0.1152738630771637,0.23455923795700073,0.04072745516896248
1789063899104128500,6.24712841796875,0.07421111315488815,0.2094629406929016,0.0755687952041626
1789063899114166800,6.257166748046875,0.03809332475066185,0.21234741806983948,0.1530233770608902
1789063899124203800,6.267203857421875,-0.008838232606649399,0.11013822257518768,0.16598844528198242
1789063899134241500,6.277241455078125,-0.0065164887346327305,0.16577965021133423,0.11872851103544235
1789063899144278800,6.28727880859375,-0.013381585478782654,0.10695654153823853,0.07669983804225922
1789063899154316500,6.297316650390625,-0.009369000792503357,0.0912763848900795,0.04764528200030327
1789063899164353500,6.307353515625,-0.07206354290246964,0.131465882062912,0.01991138979792595
1789063899174391800,6.317391845703125,-0.16444993019104004,0.07236634194850922,-0.025111744180321693
1789063899184428800,6.3274287109375,-0.26224175095558167,0.14038613438606262,-0.10794857144355774
1789063899194466600,6.337466552734375,-0.2979469895362854,0.08725447952747345,-0.11329273879528046
1789063899204503800,6.34750390625,-0.29901838302612305,0.04751984775066376,-0.08326532691717148
1789063899214541600,6.35754150390625,-0.2701212167739868,-0.045528337359428406,-0.08490344136953354
1789063899224578600,6.36757861328125,-0.2622816860675812,-0.019597936421632767,-0.08401048183441162
1789063899234616800,6.377616943359375,-0.27575114369392395,-0.0016471651615574956,-0.09741070866584778
1789063899244653800,6.38765380859375,-0.32496771216392517,0.014771223068237305,-0.0046970173716545105
1789063899254691600,6.397691650390625,-0.35440629720687866,0.02791045978665352,0.045103296637535095
1789063899264729900,6.407729736328125,-0.3375977575778961,-0.01503966934978962,0.08830776065587997
1789063899274766600,6.4177666015625,-0.3118761479854584,0.07174742221832275,0.044375453144311905
1789063899284804600,6.4278046875,-0.29330405592918396,-0.03464213386178017,0.05489680543541908
1789063899294841900,6.437841796875,-0.31324899196624756,-0.04111174866557121,0.08033878356218338
1789063899304879600,6.447879638671875,-0.3243658244609833,-0.10591790825128555,0.04045741260051727
1789063899314916600,6.45791650390625,-0.32961544394493103,-0.004081028047949076,-0.03002660907804966
1789063899324954600,6.46795458984375,-0.3351188600063324,-0.06380508095026016,-0.03416809067130089
1789063899334991600,6.47799169921875,-0.3315750062465668,-0.027876637876033783,-0.03729331120848656
1789063899345029600,6.488029541015625,-0.32913875579833984,-0.09663386642932892,-0.07587771862745285
1789063899355067000,6.49806689453125,-0.2912699282169342,-0.0020418455824255943,-0.11213719099760056
1789063899365104600,6.508104736328125,-0.27945080399513245,-0.017736120149493217,-0.08806034922599792
1789063899375141600,6.5181416015625,-0.2627045810222626,-0.07403720915317535,-0.04813983291387558
1789063899385179600,6.5281796875,-0.2711116671562195,-0.036134835332632065,-0.038719698786735535
1789063899395216600,6.538216552734375,-0.28238242864608765,-0.11585922539234161,-0.02244006097316742
1789063899405254700,6.548254638671875,-0.26769137382507324,-0.06328868865966797,0.02442917600274086
1789063899415292700,6.558292724609375,-0.2607690095901489,-0.09215948730707169,0.04851320758461952
1789063899425329700,6.56832958984375,-0.23098981380462646,-0.044795967638492584,0.05529201775789261
1789063899435367700,6.57836767578125,-0.2297639548778534,-0.057144246995449066,0.10932329297065735
1789063899445404700,6.58840478515625,-0.21405529975891113,-0.08538307249546051,0.1408117115497589
1789063899455442700,6.598442626953125,-0.24043923616409302,-0.033487118780612946,0.122255340218544
1789063899465479700,6.608479736328125,-0.2674863040447235,-0.13451546430587769,0.11955036222934723
1789063899475517700,6.618517578125,-0.290312260389328,-0.10039664804935455,0.12241832166910172
1789063899485554700,6.6285546875,-0.31235045194625854,-0.1574263721704483,0.045577872544527054
1789063899495592700,6.6385927734375,-0.3279784023761749,-0.12595713138580322,-0.008888300508260727
1789063899505629700,6.648629638671875,-0.35079050064086914,-0.14551351964473724,-0.08120590448379517
1789063899515667700,6.658667724609375,-0.3443390130996704,-0.105817511677742,-0.1710718870162964
1789063899525704700,6.66870458984375,-0.34714677929878235,-0.16537190973758698,-0.14135712385177612
1789063899535742700,6.67874267578125,-0.33276623487472534,-0.20091313123703003,-0.14367753267288208
1789063899545779700,6.68877978515625,-0.35386592149734497,-0.16500680148601532,-0.13801485300064087
1789063899555817700,6.698817626953125,-0.3696427643299103,-0.20632094144821167,-0.08757033199071884
1789063899565854700,6.708854736328125,-0.373287558555603,-0.17469510436058044,-0.025122396647930145
1789063899575892700,6.718892822265625,-0.36477822065353394,-0.22968779504299164,0.03302692621946335
1789063899585930800,6.7289306640625,-0.3194275200366974,-0.18099215626716614,0.04627322405576706
1789063899595968000,6.738968017578125,-0.3067239820957184,-0.20483490824699402,0.11245863139629364
1789063899606006000,6.749006103515625,-0.29935023188591003,-0.26973268389701843,0.11078324168920517
1789063899616042800,6.759042724609375,-0.29925382137298584,-0.238850399851799,0.11961907893419266
1789063899626081000,6.7690810546875,-0.27729737758636475,-0.2026444524526596,0.06465861946344376
1789063899636118000,6.779117919921875,-0.22421899437904358,-0.1672140210866928,0.03092009946703911
1789063899646155800,6.78915576171875,-0.19170498847961426,-0.19921962916851044,0.03167270869016647
1789063899656193000,6.799193115234375,-0.15104970335960388,-0.20612306892871857,-0.03236592933535576
1789063899666231000,6.80923095703125,-0.1474355310201645,-0.16575594246387482,-0.05034998804330826
1789063899676267800,6.819267822265625,-0.1485479325056076,-0.2429913431406021,-0.0834600031375885
1789063899686306000,6.82930615234375,-0.13595996797084808,-0.15067952871322632,-0.08862946927547455
1789063899696343000,6.839343017578125,-0.12151338160037994,-0.21108108758926392,-0.08287091553211212
1789063899706380800,6.849380859375,-0.07738986611366272,-0.18166939914226532,-0.053999051451683044
1789063899716418000,6.85941796875,-0.04179884493350983,-0.16222992539405823,-0.027306988835334778
1789063899726455800,6.869455810546875,0.012160259298980236,-0.06298482418060303,-0.012545619159936905
1789063899736492800,6.879492919921875,0.03298990800976753,-0.12508441507816315,0.10531683266162872
1789063899746531000,6.889531005859375,0.09680430591106415,-0.08261951059103012,0.08184133470058441
1789063899756568800,6.89956884765625,0.13295698165893555,-0.09728820621967316,0.13335059583187103
1789063899766605800,6.909605712890625,0.13924284279346466,-0.15167288482189178,0.1750389188528061
1789063899776644000,6.91964404296875,0.11046605557203293,-0.09602000564336777,0.14833593368530273
1789063899786680800,6.929680908203125,0.08038831502199173,-0.08668376505374908,0.08195745199918747
1789063899796718800,6.93971875,0.09818462282419205,-0.034761443734169006,0.05727660655975342
1789063899806756000,6.949756103515625,0.13352078199386597,-0.05696208402514458,0.029165076091885567
1789063899816793900,6.9597939453125,0.1671818047761917,-0.11315212398767471,-0.016094280406832695
1789063899826830800,6.969830810546875,0.2044687122106552,-0.03387807309627533,-0.10179933160543442
1789063899836869000,6.979869140625,0.22449302673339844,-0.039987098425626755,-0.14709597826004028
1789063899846905900,6.98990576171875,0.22144663333892822,-0.009978597983717918,-0.11547119915485382
1789063899856943900,6.99994384765625,0.19871309399604797,-0.04434109851717949,-0.06366898864507675
1789063899866981000,7.009981201171875,0.20851938426494598,0.06788770109415054,-0.10674908012151718
1789063899877019000,7.020018798828125,0.20951540768146515,-0.01726767048239708,-0.031321968883275986
1789063899887056000,7.030055908203125,0.24849529564380646,0.04296690970659256,-0.027901139110326767
1789063899897094000,7.040093994140625,0.25840386748313904,-0.061538197100162506,0.04075062647461891
1789063899907131000,7.050130859375,0.25966405868530273,0.021202223375439644,0.02003815583884716
1789063899917169000,7.0601689453125,0.24560922384262085,0.06713935732841492,0.015923839062452316
1789063899927207000,7.07020703125,0.22904223203659058,0.03801023215055466,0.03916524723172188
1789063899937244000,7.080243896484375,0.25496146082878113,0.041240379214286804,0.08242510259151459
1789063899947282000,7.090281982421875,0.27437883615493774,0.03051476553082466,0.07895979285240173
1789063899957319000,7.10031884765625,0.3038499057292938,0.0387633740901947,0.06473558396100998
1789063899967357000,7.11035693359375,0.28775161504745483,0.06348523497581482,0.08196437358856201
1789063899977394000,7.120393798828125,0.27319878339767456,0.04704314097762108,0.031253792345523834
1789063899987432000,7.130431884765625,0.2297050952911377,0.04939790815114975,0.07314345240592957
1789063899997469000,7.140468994140625,0.2124941498041153,0.054361507296562195,0.015144864097237587
1789063900007507000,7.1505068359375,0.21664682030677795,0.09694625437259674,-0.016995228826999664
1789063900017544000,7.1605439453125,0.23578189313411713,0.006658701691776514,-0.0016612798208370805
1789063900027582000,7.17058203125,0.2613881826400757,0.10536210983991623,-0.039319708943367004
1789063900037619000,7.180618896484375,0.22059576213359833,0.07132478058338165,-0.03160932660102844
1789063900047657000,7.190656982421875,0.17894524335861206,0.070718914270401,-0.05777594819664955
1789063900057694000,7.20069384765625,0.13319453597068787,0.06651005148887634,-0.03554361313581467
1789063900067732000,7.21073193359375,0.12347133457660675,0.06623893976211548,-0.0735759511590004
1789063900077769000,7.22076904296875,0.11914343386888504,0.033351831138134,-0.038362037390470505
1789063900087807000,7.230806884765625,0.10751500725746155,0.071625716984272,-0.06166442856192589
1789063900097844000,7.240843994140625,0.11361923813819885,0.06996230781078339,-0.06895456463098526
1789063900107882000,7.250882080078125,0.0794314444065094,0.08337931334972382,0.02196015976369381
1789063900117920000,7.260919921875,0.0730755403637886,0.07325876504182816,0.005394765175879002
1789063900127957000,7.27095703125,0.07012822479009628,0.08910004794597626,0.010100305080413818
1789063900137995000,7.2809951171875,0.07059880346059799,0.05450079217553139,0.03317393362522125
1789063900148032000,7.291031982421875,0.049609098583459854,0.05101631209254265,0.042517099529504776
1789063900158069800,7.30106982421875,0.005254949443042278,-0.01721600443124771,0.055096808820962906
1789063900168107000,7.31110693359375,-0.03347300365567207,0.016695355996489525,0.045090511441230774
1789063900178145000,7.32114501953125,-0.07316689193248749,0.06035681813955307,0.008463259786367416
1789063900188181800,7.331181640625,-0.08249381184577942,0.09059834480285645,-0.036924462765455246
1789063900198220000,7.341219970703125,-0.09508230537176132,0.039267245680093765,-0.020927652716636658
1789063900208257000,7.351257080078125,-0.09263938665390015,-0.01173575222492218,-0.06652363389730453
1789063900218294800,7.361294677734375,-0.10035616159439087,-0.021387048065662384,-0.07031943649053574
1789063900228332000,7.37133203125,-0.12385909259319305,-0.021410217508673668,-0.09246202558279037
1789063900238370000,7.3813701171875,-0.16601426899433136,-0.07649743556976318,-0.044615138322114944
1789063900248406800,7.39140673828125,-0.2183176875114441,-0.03774897754192352,-0.015478026121854782
1789063900258445000,7.401445068359375,-0.2326369732618332,-0.006413690745830536,-0.030718497931957245
1789063900268482000,7.41148193359375,-0.2353358268737793,-0.029528597369790077,0.05065065994858742
1789063900278519800,7.421519775390625,-0.19801774621009827,-0.027629230171442032,0.03573935478925705
1789063900288558000,7.43155810546875,-0.15387079119682312,-0.0999460369348526,0.08476921916007996
1789063900298595000,7.441594970703125,-0.14237073063850403,-0.055454470217227936,0.13952593505382538
1789063900308632800,7.4516328125,-0.1609063297510147,-0.054131679236888885,0.14702114462852478
1789063900318670000,7.461670166015625,-0.2219150811433792,-0.09821657836437225,0.21816562116146088
1789063900328707800,7.471707763671875,-0.23825570940971375,-0.07014766335487366,0.15892547369003296
1789063900338744800,7.481744873046875,-0.22862385213375092,-0.02051699347794056,0.12430623918771744
1789063900348783000,7.491783203125,-0.23001988232135773,-0.09500587731599808,0.0631432831287384
1789063900358819800,7.50181982421875,-0.2129567414522171,-0.07575814425945282,-0.004190217703580856
1789063900368857900,7.51185791015625,-0.22477185726165771,-0.07672780007123947,-0.055261656641960144
1789063900378895000,7.52189501953125,-0.2218242734670639,-0.09072644263505936,-0.14790929853916168
1789063900388932900,7.531932861328125,-0.23771029710769653,-0.09852897375822067,-0.18375252187252045
1789063900398969900,7.541969970703125,-0.24087733030319214,-0.07087017595767975,-0.22685392200946808
1789063900409008000,7.552008056640625,-0.23140259087085724,-0.09380798786878586,-0.1892186552286148
1789063900419044900,7.562044921875,-0.22105169296264648,-0.12825411558151245,-0.12411875277757645
1789063900429083000,7.572082763671875,-0.195181742310524,-0.10719942301511765,-0.08157128840684891
1789063900439120000,7.582119873046875,-0.19077447056770325,-0.1093888059258461,-0.008961270563304424
1789063900449158000,7.592157958984375,-0.16122564673423767,-0.09537738561630249,0.05331435427069664
1789063900459195000,7.60219482421875,-0.1665961742401123,-0.10167815536260605,0.09857158362865448
1789063900469233200,7.612233154296875,-0.15226995944976807,-0.12191631644964218,0.1079389825463295
1789063900479271000,7.62227099609375,-0.13782018423080444,-0.11447491496801376,0.12310968339443207
1789063900489308000,7.632307861328125,-0.10301879048347473,-0.11346930265426636,0.0810471847653389
1789063900499346000,7.642345947265625,-0.05937623977661133,-0.08547814935445786,0.05830565094947815
1789063900509383000,7.6523828125,-0.02394101954996586,-0.034565433859825134,0.040040627121925354
1789063900519421000,7.6624208984375,0.010873153805732727,-0.08584965765476227,-0.0017837852938100696
1789063900529458000,7.6724580078125,0.03622085601091385,-0.005915413144975901,-0.03399018943309784
1789063900539496000,7.682495849609375,0.0653744786977768,-0.059778910130262375,-0.04044276475906372
1789063900549533000,7.692532958984375,0.08584965765476227,-0.024661405012011528,-0.04331125319004059
1789063900559571000,7.702571044921875,0.10965991765260696,-0.01900911144912243,-0.07128296792507172
1789063900569608000,7.71260791015625,0.13637089729309082,-0.012841230258345604,-0.013082512654364109
1789063900579645400,7.7226455078125,0.14721527695655823,0.03254968672990799,0.013201556168496609
1789063900589682700,7.7326826171875,0.18849055469036102,-0.002662894781678915,0.03776735067367554
1789063900599720400,7.742720458984375,0.21207790076732635,0.060993313789367676,0.04203879460692406
1789063900609757400,7.75275732421875,0.2546676993370056,0.0034285534638911486,0.035243742167949677
1789063900619795500,7.76279541015625,0.24499669671058655,0.03786349296569824,0.08269993960857391
1789063900629832400,7.77283251953125,0.18616588413715363,0.05721455439925194,0.04350726306438446
1789063900639870500,7.782870361328125,0.12837208807468414,0.015133678913116455,0.05374365672469139
1789063900649907700,7.79290771484375,0.10840317606925964,0.04836992919445038,0.03845071792602539
1789063900659945500,7.802945556640625,0.13895681500434875,-0.01552036963403225,-0.004739627707749605
1789063900669983700,7.812983642578125,0.18330803513526917,0.0158894844353199,-0.02430374175310135
1789063900680020500,7.8230205078125,0.21404944360256195,-0.0459110327064991,-0.0471307598054409
1789063900690058500,7.83305859375,0.24237188696861267,0.07189390063285828,-0.11420992761850357
1789063900700095500,7.843095458984375,0.22506320476531982,0.06874337792396545,-0.0791424885392189
1789063900710133500,7.853133544921875,0.19616897404193878,0.07182519137859344,-0.06862033903598785
1789063900720170500,7.86317041015625,0.16814586520195007,0.12509320676326752,-0.0964335948228836
1789063900730208500,7.87320849609375,0.19038085639476776,0.05409253016114235,-0.07057749480009079
1789063900740245500,7.88324560546875,0.216324582695961,0.018212558701634407,-0.02401265874505043
1789063900750283500,7.893283447265625,0.23740829527378082,0.04500449076294899,-0.003942809998989105
1789063900760320500,7.903320556640625,0.206817626953125,0.0036077843979001045,0.04670332372188568
1789063900770358500,7.913358642578125,0.18270696699619293,0.04553952068090439,0.02930702269077301
1789063900780395500,7.9233955078125,0.206330806016922,0.1366446614265442,0.03586159273982048
1789063900790433300,7.933433349609375,0.24426832795143127,0.13771525025367737,0.060148824006319046
1789063900800470500,7.943470458984375,0.3067950904369354,0.09583517909049988,0.08631544560194016
1789063900810508500,7.953508544921875,0.33202216029167175,0.14718438684940338,0.11665018647909164
1789063900820545500,7.963545654296875,0.314676970243454,0.061415158212184906,0.07074261456727982
1789063900830583600,7.97358349609375,0.25631168484687805,0.11610157042741776,0.04394375532865524
1789063900840620500,7.98362060546875,0.21123501658439636,0.12212218344211578,0.03254569321870804
1789063900850658300,7.993658203125,0.23664423823356628,0.12797687947750092,0.013609285466372967
1789063900860695600,8.003695556640626,0.29069361090660095,0.18891611695289612,-0.005730323493480682
1789063900870733600,8.013733642578124,0.3543255925178528,0.10747373104095459,-0.03789971023797989
1789063900880770600,8.0237705078125,0.35611870884895325,0.19715115427970886,-0.06731299310922623
1789063900890808600,8.03380859375,0.29866233468055725,0.20253552496433258,-0.1145995482802391
1789063900900846600,8.0438466796875,0.22294093668460846,0.21149520576000214,-0.09586261212825775
1789063900910883300,8.05388330078125,0.1380276381969452,0.12266786396503448,-0.057007092982530594
1789063900920921600,8.063921630859374,0.14158563315868378,0.1545592099428177,-0.08777539432048798
1789063900930958600,8.07395849609375,0.1398646980524063,0.1384204626083374,-0.06715426594018936
1789063900940996400,8.083996337890625,0.17551323771476746,0.09870260953903198,-0.04826313629746437
1789063900951033600,8.09403369140625,0.17093978822231293,0.1443968564271927,0.0363505519926548
1789063900961071600,8.104071533203125,0.13922393321990967,0.13116255402565002,0.05246826633810997
1789063900971108400,8.1141083984375,0.1038086861371994,0.1794360727071762,0.04542047902941704
1789063900981146600,8.124146728515624,0.0398254431784153,0.20117704570293427,0.06984459608793259
1789063900991183600,8.13418359375,0.0012325108982622623,0.1027332991361618,0.07375650852918625
1789063901001221400,8.144221435546875,-0.039808664470911026,0.10779623687267303,0.061157628893852234
1789063901011258600,8.154258544921875,-0.040954623371362686,0.016092417761683464,0.04622901231050491
1789063901021296400,8.16429638671875,-0.060317136347293854,0.025839585810899734,0.043365318328142166
1789063901031333400,8.17433349609375,-0.09393395483493805,0.054003845900297165,-0.031241275370121002
1789063901041371600,8.18437158203125,-0.13832059502601624,0.0639965608716011,-0.039449140429496765
1789063901051408600,8.19440869140625,-0.18952758610248566,0.06887999922037125,-0.02238653227686882
1789063901061446400,8.2044462890625,-0.19307439029216766,0.03960626572370529,-0.03598303347826004
1789063901071483600,8.214483642578125,-0.19682598114013672,0.0057071540504693985,0.025196965783834457
1789063901081521400,8.224521484375,-0.20727142691612244,-0.08153028041124344,0.08476841449737549
1789063901091559400,8.234559326171874,-0.23983442783355713,-0.014682806096971035,0.011898471042513847
1789063901101596700,8.2445966796875,-0.2955613434314728,-0.01624075509607792,0.027224697172641754
1789063901111634400,8.254634521484375,-0.3256012797355652,-0.11607147753238678,0.0880209356546402
1789063901121671400,8.26467138671875,-0.315157413482666,-0.022422218695282936,0.07855739444494247
1789063901131709700,8.274709716796876,-0.2884376645088196,-0.15350699424743652,0.06293661892414093
1789063901141746400,8.284746337890626,-0.26058363914489746,-0.044494230300188065,-0.0001525991247035563
1789063901151784400,8.294784423828125,-0.2770310640335083,-0.11922892183065414,0.014041783288121223
1789063901161821700,8.30482177734375,-0.3195500373840332,-0.12153175473213196,0.04001186415553093
1789063901171859500,8.314859375,-0.34976840019226074,-0.09343434125185013,-0.019750535488128662
1789063901181896400,8.324896484375,-0.3377481997013092,-0.11714819073677063,-0.06560137867927551
1789063901191934500,8.3349345703125,-0.3030592203140259,-0.07735604047775269,-0.04260791465640068
1789063901201971500,8.344971435546874,-0.26880189776420593,-0.15046913921833038,-0.07387076318264008
1789063901212009500,8.355009521484375,-0.23087529838085175,-0.058645203709602356,-0.10115644335746765
1789063901222046700,8.365046630859375,-0.2374650239944458,-0.13192340731620789,-0.057844389230012894
1789063901232084500,8.37508447265625,-0.22410979866981506,-0.061775483191013336,-0.08476362377405167
1789063901242121500,8.38512158203125,-0.2294292002916336,-0.050930559635162354,-0.09518244117498398
1789063901252159500,8.395159423828124,-0.20547166466712952,-0.05153216794133186,-0.08897142112255096
1789063901262196500,8.405196533203124,-0.17976869642734528,-0.07952971011400223,0.007476025726646185
1789063901272234500,8.415234375,-0.13982315361499786,-0.12237944453954697,0.026363430544734
1789063901282271700,8.425271728515625,-0.10692298412322998,-0.08867394179105759,0.024379640817642212
1789063901292309500,8.4353095703125,-0.10286086797714233,-0.032281775027513504,0.026104571297764778
1789063901302346500,8.445346435546876,-0.09267507493495941,-0.01380955521017313,0.00740119069814682
1789063901312384500,8.455384521484374,-0.10916190594434738,-0.06108652427792549,0.03422854468226433
1789063901322422500,8.465422607421875,-0.10158947110176086,-0.006373743526637554,-0.023922642692923546
1789063901332459500,8.47545947265625,-0.09715823829174042,-0.01788179576396942,-0.03640088438987732
1789063901342497500,8.48549755859375,-0.06942994147539139,-0.08530903607606888,-0.028081702068448067
1789063901352534500,8.495534423828126,-0.021852834150195122,0.01248250249773264,-0.058040134608745575
1789063901362572500,8.505572509765624,-0.007695204112678766,-0.05847875773906708,-0.022465893998742104
1789063901372609500,8.515609619140625,-0.0036101811565458775,-0.0469784289598465,0.013979464769363403
1789063901382647600,8.5256474609375,-0.027700603008270264,-0.007835020311176777,0.033847711980342865
1789063901392684500,8.5356845703125,-0.015421300195157528,0.01619787886738777,-0.018204836174845695
1789063901402722600,8.54572265625,0.005555087700486183,0.07987991720438004,0.02015799842774868
1789063901412759600,8.555759521484376,0.02232607826590538,-0.03734550625085831,0.034200847148895264
1789063901422797600,8.565797607421874,0.044504616409540176,0.0008165251929312944,0.029617546126246452
1789063901432834600,8.57583447265625,0.04427691549062729,-0.02810194157063961,0.0561884380877018
1789063901442872600,8.58587255859375,0.06828930974006653,-0.00472418125718832,0.008642223663628101
1789063901452909600,8.59590966796875,0.06457473337650299,0.008134892210364342,0.00708693778142333
1789063901462947600,8.605947509765626,0.06962328404188156,0.008124238811433315,0.006840062793344259
1789063901472984600,8.615984619140624,0.02437165193259716,0.021528728306293488,0.0347776859998703
1789063901483022300,8.626022216796875,-0.04370353743433952,0.034815236926078796,-0.027606593444943428
1789063901493059300,8.636059326171875,-0.08778045326471329,0.06283648312091827,-0.0638093426823616
1789063901503097600,8.64609765625,-0.11621901392936707,-0.08377079665660858,-0.011484615504741669
1789063901513134600,8.656134521484375,-0.10973048955202103,-0.0874723270535469,-0.042519763112068176
1789063901523172600,8.666172607421874,-0.11796791851520538,-0.07246514409780502,-0.09123670309782028
1789063901533210600,8.676210693359375,-0.11097365617752075,-0.038787875324487686,-0.16973496973514557
1789063901543247400,8.686247314453125,-0.14805550873279572,-0.025561286136507988,-0.052510347217321396
1789063901553285600,8.69628564453125,-0.19518519937992096,-0.05525819584727287,-0.045345909893512726
1789063901563322600,8.706322509765625,-0.24266910552978516,0.009472597390413284,-0.07593710720539093
1789063901573360400,8.7163603515625,-0.26182520389556885,-0.0330309197306633,-0.061941664665937424
1789063901583398000,8.72639794921875,-0.24025015532970428,-0.10749530047178268,-0.017679128795862198
1789063901593436000,8.736435791015625,-0.23509427905082703,-0.14964328706264496,0.06909331679344177
1789063901603473000,8.746472900390625,-0.2465360164642334,-0.11298700422048569,0.06053818017244339
1789063901613511000,8.756510986328125,-0.2946694493293762,-0.0810152217745781,0.09165775030851364
1789063901623548000,8.7665478515625,-0.3239072263240814,-0.10035216808319092,0.08783397823572159
1789063901633586000,8.7765859375,-0.312357634305954,-0.062359247356653214,0.07688333094120026
1789063901643623000,8.786622802734374,-0.2849270701408386,-0.13175536692142487,0.124665766954422
1789063901653660700,8.79666064453125,-0.23880138993263245,-0.1315963715314865,0.07558850198984146
1789063901663698000,8.806697998046875,-0.23056183755397797,-0.15193574130535126,0.02749793790280819
1789063901673736000,8.81673583984375,-0.2601117491722107,-0.1706785261631012,0.006356698926538229
1789063901683773000,8.82677294921875,-0.2926294803619385,-0.1296810358762741,0.02172739990055561
1789063901693811000,8.83681103515625,-0.28943687677383423,-0.1553051620721817,-0.015029815956950188
1789063901703848000,8.846847900390625,-0.21504253149032593,-0.06539498269557953,-0.07205022126436234
1789063901713885700,8.8568857421875,-0.13753868639469147,-0.11439768224954605,-0.026202309876680374
1789063901723923000,8.8669228515625,-0.07977898418903351,-0.097123883664608,-0.02534184232354164
1789063901733961000,8.8769609375,-0.09983392059803009,-0.08725927025079727,0.011218033730983734
1789063901743997700,8.886997802734374,-0.1572151929140091,-0.10117588937282562,0.007952199317514896
1789063901754036000,8.897035888671875,-0.1801585853099823,-0.05283178761601448,0.036245089024305344
1789063901764073000,8.907072998046875,-0.17275819182395935,-0.11889816075563431,0.08635086566209793
1789063901774110700,8.91711083984375,-0.1039985716342926,-0.111729197204113,0.014897456392645836
1789063901784149000,8.92714892578125,-0.04291044920682907,-0.07492750138044357,0.025795910507440567
1789063901794186000,8.93718603515625,-0.01864825189113617,-0.11274386197328568,0.04412165284156799
1789063901804223700,8.9472236328125,-0.0276795644313097,-0.05052868649363518,0.024999892339110374
1789063901814261000,8.957260986328125,-0.045750442892313004,-0.02317003346979618,-0.011063570156693459
1789063901824298800,8.967298828125,-0.038371358066797256,-0.01170326117426157,-0.022911440581083298
1789063901834335700,8.977335693359375,-0.02521001547574997,-0.05808380991220474,-0.023093068972229958
1789063901844374000,8.9873740234375,0.02117719128727913,-0.0483291819691658,-0.03021196462213993
1789063901854411000,8.997410888671874,0.03948162868618965,-0.10097641497850418,0.006588927004486322
1789063901864448800,9.00744873046875,0.06959505379199982,-0.043485693633556366,-0.07684178650379181
1789063901874486000,9.017486083984375,0.08090763539075851,0.006895722821354866,-0.0621643029153347
1789063901884523800,9.027523681640625,0.08513939380645752,-0.006825948134064674,-0.06544585525989532
1789063901894560800,9.037560791015625,0.11470580846071243,0.049438923597335815,-0.05222618579864502
1789063901904599000,9.04759912109375,0.133183091878891,0.0018745990237221122,-0.028238829225301743
1789063901914635800,9.0576357421875,0.1655801683664322,-0.03598516434431076,-0.027897944673895836
1789063901924673800,9.067673828125,0.17590445280075073,0.04555550217628479,0.04934970661997795
1789063901934711000,9.0777109375,0.1791638880968094,0.0018455706303939223,0.09114775061607361
1789063901944748800,9.087748779296875,0.18677866458892822,0.0714012160897255,0.08423765003681183
1789063901954785800,9.097785888671876,0.20802722871303558,0.06995058804750443,0.07554269582033157
1789063901964824000,9.107823974609374,0.24532027542591095,0.08455536514520645,0.08296572417020798
1789063901974860800,9.11786083984375,0.23482050001621246,0.007979096844792366,0.1253448724746704
1789063901984898800,9.12789892578125,0.22340965270996094,0.047082025557756424,0.09369293600320816
1789063901994936000,9.13793603515625,0.15634885430335999,-0.03050784207880497,0.1316421777009964
1789063902004973800,9.147973876953126,0.0931890681385994,0.05374259129166603,0.0654868632555008
1789063902015010800,9.1580107421875,0.04440048709511757,0.04445987567305565,0.043346140533685684
1789063902025049000,9.168049072265624,0.04061666876077652,-0.008160990662872791,0.03411855548620224
1789063902035085800,9.1780859375,0.0694805383682251,0.0215939749032259,0.006895722821354866
1789063902045123800,9.188123779296875,0.05748752877116203,-0.021751102060079575,-0.038536474108695984
1789063902055161000,9.1981611328125,0.029341377317905426,0.03886377438902855,-0.104295514523983
1789063902065198800,9.20819873046875,-0.022837406024336815,-0.01335894875228405,-0.08718523383140564
1789063902075236900,9.21823681640625,-0.034089259803295135,-0.012969860807061195,-0.14718225598335266
1789063902085273900,9.22827392578125,-0.030977357178926468,-0.05119368061423302,-0.1477859914302826
1789063902095312000,9.238311767578125,-0.05734318494796753,0.004595284350216389,-0.18368780612945557
1789063902105348900,9.248348876953125,-0.0865013375878334,-0.0705210343003273,-0.11699346452951431
1789063902115387000,9.258386962890626,-0.1335865557193756,-0.05392395332455635,-0.02068956568837166
1789063902125423900,9.268423828125,-0.1234593540430069,-0.05970008298754692,-0.03730529546737671
1789063902135462000,9.2784619140625,-0.10706892609596252,-0.055994026362895966,0.027875838801264763
1789063902145499000,9.288498779296875,-0.06999079883098602,-0.039213716983795166,0.06071208417415619
1789063902155537000,9.298536865234375,-0.05450931563973427,-0.054303716868162155,0.08392925560474396
1789063902165574000,9.308573974609375,-0.09612120687961578,-0.06969652324914932,0.10658769309520721
1789063902175612000,9.31861181640625,-0.10246752202510834,0.008815063163638115,0.054062969982624054
1789063902185649000,9.32864892578125,-0.1333383470773697,-0.06379123032093048,0.06876947730779648
1789063902195687000,9.33868701171875,-0.12410303950309753,-0.10660793632268906,0.011179950088262558
1789063902205724000,9.348723876953125,-0.10899253189563751,-0.04879097640514374,0.009612147696316242
1789063902215762000,9.358761962890625,-0.12526018917560577,-0.15196822583675385,-0.004948419518768787
1789063902225799000,9.368798828125,-0.10858506709337234,-0.08536336570978165,-0.07499754428863525
1789063902235837000,9.3788369140625,-0.11911467462778091,-0.06583254039287567,-0.06320639699697495
1789063902245874000,9.3888740234375,-0.06388524174690247,-0.04254879057407379,-0.083467997610569
1789063902255912000,9.398911865234375,-0.03891837224364281,-0.022011026740074158,-0.036984384059906006
1789063902265948700,9.40894873046875,-0.0030573089607059956,-0.05794505774974823,-0.020176908001303673
1789063902275987000,9.418987060546876,0.013424995355308056,-0.039075497537851334,0.022788137197494507
1789063902286024000,9.42902392578125,0.018445853143930435,-0.024653946980834007,0.0287094097584486
1789063902296062000,9.43906201171875,0.04893318936228752,-0.0626109167933464,0.04206782579421997
1789063902306099000,9.449098876953125,0.05125785991549492,-0.023906398564577103,0.12147023528814316
1789063902316137000,9.459136962890625,0.04555816203355789,-0.0867207795381546,0.12000709772109985
1789063902326173700,9.469173583984375,0.023926638066768646,0.03599155694246292,0.04483857750892639
1789063902336212000,9.4792119140625,-0.008612396195530891,-0.022598786279559135,0.02299000509083271
1789063902346249000,9.4892490234375,0.00654525076970458,-0.050991546362638474,0.003610979998484254
1789063902356287000,9.499286865234374,0.0062554990872740746,-0.0822240337729454,-0.025590049102902412
1789063902366324000,9.509323974609375,0.034981418401002884,-0.03433826565742493,-0.16257213056087494
1789063902376361700,9.51936181640625,0.045879874378442764,0.04002997279167175,-0.17787545919418335
1789063902386400000,9.52939990234375,0.0201026052236557,-0.06395075470209122,-0.11762862652540207
1789063902396437000,9.53943701171875,-0.018683671951293945,-0.02437484823167324,-0.08740654587745667
1789063902406474800,9.549474853515624,-0.06970024853944778,-0.06279733777046204,-0.05398546904325485
1789063902416511700,9.55951171875,-0.06401839852333069,-0.046667903661727905,-0.03663577511906624
1789063902426550000,9.569550048828125,-0.0409274585545063,-0.1003340631723404,0.04571715369820595
1789063902436586800,9.579586669921875,-0.0035175031516700983,-0.1116519644856453,0.07150188088417053
1789063902446625000,9.589625,-0.010588196106255054,-0.10393891483545303,0.1516113579273224
1789063902456662000,9.599662109375,-0.03495132550597191,-0.08729682117700577,0.16516844928264618
1789063902466699800,9.60969970703125,-0.0169086754322052,-0.07472989708185196,0.12871909141540527
1789063902476736800,9.61973681640625,0.01937076821923256,-0.01865784078836441,0.09484981000423431
1789063902486775000,9.629775146484375,0.07519488781690598,-0.06569725275039673,0.06005614623427391
1789063902496811800,9.639811767578125,0.10521616786718369,-0.054907988756895065,0.0783693715929985
1789063902506849800,9.649849853515626,0.09494089335203171,-0.15441220998764038,0.03455371409654617
1789063902516887000,9.659886962890624,0.07136286050081253,-0.059790629893541336,-0.06069237366318703
1789063902526924800,9.6699248046875,0.037213947623968124,-0.020711136981844902,-0.07030399143695831
1789063902536961800,9.6799619140625,0.07187658548355103,-0.07326063513755798,-0.07733660191297531
1789063902546999800,9.689999755859375,0.16276735067367554,-0.013568006455898285,-0.0633118599653244
1789063902557036800,9.700036865234376,0.25774872303009033,-0.05018008127808571,-0.04710785672068596
1789063902567074800,9.71007470703125,0.29087498784065247,-0.007412376347929239,-0.025485387071967125
1789063902577112000,9.720112060546874,0.23403246700763702,0.030100909993052483,-0.010387926362454891
1789063902587150300,9.730150390625,0.1640176922082901,0.012137888930737972,-0.009265403263270855
1789063902597187300,9.740187255859375,0.13030341267585754,0.044201016426086426,0.06564372777938843
1789063902607225300,9.750225341796876,0.16648831963539124,-0.06551988422870636,0.08030921965837479
1789063902617262300,9.760262451171876,0.2324255108833313,0.05709763988852501,-0.016160327941179276
1789063902627300400,9.77030029296875,0.2665480673313141,0.0012801815755665302,0.003632019041106105
1789063902637337000,9.780337158203125,0.25125086307525635,-0.018275409936904907,0.06659767031669617
1789063902647375400,9.790375244140625,0.21282465755939484,0.02822178415954113,0.01816781796514988
1789063902657412400,9.800412353515625,0.20778754353523254,0.09785359352827072,-0.028975192457437515
1789063902667450000,9.8104501953125,0.20235976576805115,0.10775122791528702,-0.025524534285068512
1789063902677487400,9.8204873046875,0.2253710776567459,-0.0012876383261755109,-0.03810584172606468
1789063902687525400,9.830525390625,0.23093681037425995,0.04367450997233391,0.017851168289780617
1789063902697563400,9.8405634765625,0.22524696588516235,-0.01702532172203064,-0.01398638915270567
1789063902707600400,9.850600341796875,0.20896919071674347,0.07175061851739883,-0.07546199858188629
1789063902717638100,9.86063818359375,0.17271025478839874,0.09589483588933945,-0.06796520203351974
1789063902727675100,9.870675048828126,0.15191975235939026,0.038291461765766144,-0.01938701421022415
1789063902737713400,9.88071337890625,0.13756665587425232,0.06151582673192024,0.014937936328351498
1789063902747750400,9.89075048828125,0.168262779712677,0.010586864314973354,-0.0034975295420736074
1789063902757788400,9.900788330078125,0.19430795311927795,0.10055403411388397,-0.03952397406101227
1789063902767825400,9.910825439453125,0.22297929227352142,0.05188130587339401,0.017348097637295723
1789063902777863200,9.92086328125,0.2238602638244629,0.07477597147226334,0.04855049028992653
1789063902787900200,9.930900146484374,0.19067221879959106,0.1802440732717514,0.007388407830148935
1789063902797938400,9.9409384765625,0.13539031147956848,0.03788985684514046,0.040759678930044174
1789063902807975200,9.95097509765625,0.12842215597629547,0.1147414967417717,-0.006551908794790506
1789063902818013200,9.96101318359375,0.1539807766675949,0.07544415444135666,-0.003748665563762188
1789063902828050400,9.971050537109376,0.15818510949611664,-0.031156055629253387,0.09250622987747192
1789063902838088200,9.981088134765624,0.10826309025287628,-0.05137823522090912,0.09952206164598465
1789063902848125200,9.991125244140624,0.07023022323846817,0.09188544750213623,0.002127599436789751
1789063902858163500,10.00116357421875,0.041490718722343445,0.17862407863140106,0.04420660808682442
1789063902868200200,10.0112001953125,0.04939524456858635,0.07182624936103821,0.09290304034948349
1789063902878238200,10.02123828125,0.09124655276536942,0.06712577491998672,0.04343642294406891
1789063902888275500,10.031275390625,0.09921100735664368,0.06168333813548088,-0.003624029690399766
1789063902898313200,10.041313232421874,0.07948364317417145,0.03897003456950188,-0.06521815061569214
1789063902908350200,10.05135009765625,0.01775103434920311,0.04715739190578461,-0.0971641018986702
1789063902918388500,10.061388427734375,-0.02858131006360054,-0.009198025800287724,-0.13818317651748657
1789063902928425200,10.07142529296875,-0.059007659554481506,0.11641662567853928,-0.1582207977771759
1789063902938463200,10.081463134765626,-0.0805816650390625,0.0009949569357559085,-0.09146600216627121
1789063902948500500,10.09150048828125,-0.061954714357852936,-0.03416888788342476,-0.059476643800735474
1789063902958538200,10.101538330078125,-0.02238546684384346,0.06629300117492676,-0.04345985874533653
1789063902968575200,10.1115751953125,-0.011215370148420334,0.013165603391826153,-0.019237609580159187
1789063902978613500,10.121613525390625,-0.031003190204501152,0.05219209939241409,0.023612119257450104
1789063902988650200,10.131650146484375,-0.08724942058324814,0.0027891285717487335,0.020298346877098083
1789063902998688300,10.141688232421876,-0.11777696758508682,0.005474127363413572,-0.019531622529029846
1789063903008725500,10.1517255859375,-0.1319843977689743,0.007632619701325893,0.01617737114429474
1789063903018763300,10.16176318359375,-0.11870347708463669,-0.07777868211269379,0.03092808835208416
1789063903028800300,10.17180029296875,-0.08791361004114151,-0.04856327548623085,-0.02466273494064808
1789063903038838300,10.18183837890625,-0.0839042216539383,-0.019894879311323166,-0.014842595905065536
1789063903048875300,10.191875244140626,-0.07398181408643723,0.04033038020133972,-0.048945438116788864
1789063903058913300,10.201913330078124,-0.06903233379125595,0.046732351183891296,0.011901134625077248
1789063903068950500,10.211950439453124,-0.05500226467847824,0.012047342024743557,-0.015085209161043167
1789063903078988300,10.22198828125,-0.03271107375621796,0.0001549959706608206,-0.039693884551525116
1789063903089025300,10.232025390625,-0.03591086342930794,-0.05753599852323532,0.0261855311691761
1789063903099063300,10.242063232421875,-0.03779345005750656,-0.015507054515182972,-0.0029798108153045177
1789063903109100300,10.252100341796876,-0.06842725723981857,-0.04758482798933983,0.010813765227794647
1789063903119138300,10.26213818359375,-0.06568153947591782,0.02658846788108349,0.00481206551194191
1789063903129175300,10.27217529296875,-0.015156315639615059,-0.004455202259123325,0.0440867654979229
1789063903139213300,10.28221337890625,0.03362640365958214,0.028655080124735832,0.058031611144542694
1789063903149251300,10.292251220703125,0.057319480925798416,0.0361713208258152,0.024403875693678856
1789063903159288300,10.302288330078126,0.05403287336230278,0.0799664705991745,0.018665296956896782
1789063903169326300,10.312326416015624,0.04062971845269203,-0.015172561630606651,0.06071208417415619
1789063903179363300,10.32236328125,0.04790600761771202,0.0564238615334034,0.027425233274698257
1789063903189401300,10.3324013671875,0.05621080845594406,0.03498328477144241,0.02213992364704609
1789063903199438300,10.342438232421875,0.12145426124334335,0.1107422262430191,-0.045167479664087296
1789063903209476400,10.352476318359376,0.1490752398967743,0.09881232678890228,-0.019405921921133995
1789063903219513300,10.362513427734376,0.1253877431154251,0.0292377807199955,-0.013481720350682735
1789063903229551400,10.37255126953125,0.09574756771326065,0.11007430404424667,-0.07128909230232239
1789063903239588400,10.38258837890625,0.05974189192056656,0.124226875603199,-0.09081565588712692
1789063903249626400,10.39262646484375,0.07404759526252747,0.07151812314987183,-0.05040724575519562
1789063903259663400,10.402663330078125,0.09723920375108719,-0.0024546354543417692,0.018548650667071342
1789063903269701000,10.412701171875,0.10391201823949814,0.03590233996510506,0.00797110702842474
1789063903279738000,10.422738037109376,0.0994379073381424,0.11227354407310486,-0.03604109212756157
1789063903289776400,10.4327763671875,0.0699700266122818,0.04433523863554001,0.03603097051382065
1789063903299813400,10.4428134765625,0.06125510111451149,0.09891912341117859,0.03079919144511223
1789063903309851400,10.452851318359375,0.06712577491998672,0.098215252161026,0.04738056659698486
1789063903319888400,10.462888427734375,0.07440898567438126,0.03364211693406105,0.052380915731191635
1789063903329926100,10.472926025390626,0.08440915495157242,0.05817888304591179,0.04615125060081482
1789063903339963100,10.482963134765624,0.050337739288806915,0.013877732679247856,0.047862596809864044
1789063903350001400,10.49300146484375,0.029024194926023483,0.036326050758361816,-0.01636086404323578
1789063903360038400,10.503038330078125,0.02395353652536869,0.03741847723722458,-0.007027283310890198
1789063903370076400,10.513076416015625,0.04627295583486557,0.029879601672291756,-0.007063235621899366
1789063903380113400,10.523113525390626,0.09135148674249649,0.08249647170305252,-0.05301421508193016
1789063903390151200,10.533151123046874,0.06136748567223549,-0.009724265895783901,0.010324010625481606
1789063903400188200,10.543188232421874,0.03616386279463768,0.02528458461165428,-0.0480135977268219
1789063903410226400,10.553226318359375,-0.0034115093294531107,0.022399848327040672,-0.01785942353308201
1789063903420263200,10.56326318359375,-0.010519219562411308,0.030175479128956795,-0.010495517402887344
1789063903430301200,10.57330126953125,0.02394341677427292,0.03331747651100159,-0.0006562029011547565
1789063903440338400,10.58333837890625,0.03566398844122887,0.03136777505278587,0.007673898711800575
1789063903450376200,10.593376220703124,0.0751245766878128,0.017105484381318092,0.03495398908853531
1789063903460413200,10.6034130859375,0.08183867484331131,0.020919661968946457,0.0716310441493988
1789063903470451500,10.613451416015625,0.11490794271230698,0.05138036608695984,0.016026370227336884
1789063903480488200,10.62348828125,0.12030324339866638,0.0685787945985794,0.020139889791607857
1789063903490526200,10.633526123046876,0.10337645560503006,0.055819857865571976,0.028088891878724098
1789063903500563500,10.6435634765625,0.10762766003608704,0.08882308006286621,-0.028326978906989098
1789063903510601200,10.653601318359375,0.09713134169578552,0.014577611349523067,-0.015237542800605297
1789063903520638200,10.66363818359375,0.13915522396564484,0.07299404591321945,-0.12632358074188232
1789063903530676500,10.673676513671875,0.16476817429065704,0.07471205294132233,-0.09249158203601837
1789063903540713200,10.683713134765625,0.15693609416484833,0.03464719280600548,-0.06791140884160995
1789063903550751200,10.693751220703126,0.15516987442970276,0.01841229759156704,-0.09099222719669342
1789063903560788500,10.70378857421875,0.15652808547019958,0.1246069073677063,-0.062367502599954605
1789063903570826200,10.713826171875,0.18564389646053314,0.057081129401922226,-0.005645901430398226
1789063903580863000,10.723863037109375,0.23385536670684814,0.07916299253702164,0.013569071888923645
1789063903590901200,10.7339013671875,0.2675832509994507,0.16378973424434662,0.020380105823278427
1789063903600938000,10.74393798828125,0.26572489738464355,0.11163784563541412,0.06836014986038208
1789063903610976000,10.75397607421875,0.2283942848443985,0.1365106999874115,0.04487719386816025
1789063903621013200,10.76401318359375,0.2062346637248993,0.09823255985975266,0.052453622221946716
1789063903631051000,10.774051025390625,0.21373865008354187,0.056288573890924454,0.0812290757894516
1789063903641088000,10.784087890625,0.21671393513679504,0.04664979502558708,0.07435119897127151
1789063903651126300,10.794126220703125,0.22528398036956787,0.116512231528759,0.005319930613040924
1789063903661163000,10.8041630859375,0.19753411412239075,0.12244495749473572,0.05781163275241852
1789063903671201000,10.814200927734374,0.1995280236005783,0.13586196303367615,0.0765022337436676
1789063903681238000,10.824238037109374,0.20599177479743958,0.12302952259778976,0.0655696913599968
1789063903691276000,10.834276123046875,0.2016841173171997,0.17546848952770233,-0.004593153949826956
1789063903701313000,10.84431298828125,0.19211244583129883,0.11791864782571793,-0.007987885735929012
1789063903711351000,10.85435107421875,0.1612245738506317,0.17317630350589752,-0.038905587047338486
1789063903721388000,10.864387939453126,0.16093562543392181,0.12168142944574356,-0.13104590773582458
1789063903731426000,10.874426025390624,0.15595658123493195,0.08570291846990585,-0.07865726202726364
1789063903741464000,10.884464111328125,0.1490560621023178,0.15595737099647522,-0.12607698142528534
1789063903751501000,10.8945009765625,0.13119344413280487,0.11409834027290344,-0.14776629209518433
1789063903761539000,10.9045390625,0.10640500485897064,0.13769182562828064,-0.06277842819690704
1789063903771576000,10.914576171875,0.10591951012611389,0.16763187944889069,-0.03585413843393326
1789063903781614000,10.924614013671874,0.11384826898574829,0.10603056102991104,0.005970008205622435
1789063903791651000,10.934651123046875,0.1032845750451088,0.17598435282707214,0.06269906461238861
1789063903801689000,10.944689208984375,0.06589379906654358,0.0948394238948822,0.048776328563690186
1789063903811726000,10.95472607421875,0.026455575600266457,0.11840999871492386,0.06391879171133041
1789063903821764000,10.96476416015625,-0.021382519975304604,0.058528557419776917,0.09182446449995041
1789063903831800800,10.97480078125,-0.029405025765299797,0.03321787342429161,0.009170861914753914
1789063903841839000,10.984839111328125,-0.04951215907931328,0.08332045376300812,0.0016655409708619118
1789063903851876000,10.9948759765625,-0.05362674221396446,0.02653147652745247,0.01215733028948307
1789063903861914000,11.0049140625,-0.05866251513361931,0.1257275640964508,-0.04604445770382881
1789063903871951000,11.014951171875,-0.08135717362165451,0.08277370780706406,-0.02322223223745823
1789063903881989000,11.024989013671876,-0.06490123271942139,0.06173953041434288,-0.0021734058391302824
1789063903892025900,11.03502587890625,-0.0734233483672142,0.02004348300397396,0.054550860077142715
1789063903902064000,11.045064208984375,-0.06322610378265381,-0.030041255056858063,0.03254063427448273
1789063903912101000,11.05510107421875,-0.0870416909456253,0.009882990270853043,0.03639768809080124
1789063903922139100,11.06513916015625,-0.10450670123100281,0.03370922803878784,0.0262470506131649
1789063903932176100,11.075176025390626,-0.09959849715232849,-0.0075761605985462666,0.06334514915943146
1789063903942214000,11.0852138671875,-0.10601858049631119,0.025352228432893753,0.0904231071472168
1789063903952251000,11.0952509765625,-0.11456546187400818,-0.010667557828128338,0.052445895969867706
1789063903962289200,11.1052890625,-0.1377972811460495,-0.00384427304379642,0.03936072066426277
1789063903972326100,11.115326171875,-0.14265196025371552,-0.016168583184480667,0.004568652715533972
1789063903982364000,11.125364013671875,-0.13013243675231934,-0.053525540977716446,-0.009036904200911522
1789063903992401200,11.135401123046876,-0.11561927199363708,-0.019043732434511185,-0.014597051776945591
1789063904002439000,11.14543896484375,-0.0650855228304863,0.025251559913158417,-0.11305838078260422
1789063904012476000,11.155475830078124,-0.020967332646250725,0.011422297917306423,-0.1449452042579651
1789063904022514200,11.16551416015625,-0.006943926215171814,0.0016200009267777205,-0.12284016609191895
1789063904032551200,11.17555126953125,-0.02214391715824604,0.020735105499625206,-0.11899669468402863
1789063904042589000,11.1855888671875,-0.04832758381962776,0.06131182610988617,-0.14391162991523743
1789063904052626200,11.195626220703126,-0.058225490152835846,0.027099261060357094,-0.08704275637865067
1789063904062664000,11.205663818359374,-0.02642068825662136,0.050214435905218124,0.002086054068058729
1789063904072701000,11.215700927734375,0.013522200286388397,-0.013967214152216911,0.08302271366119385
1789063904082739200,11.2257392578125,0.05378946289420128,0.040156472474336624,0.09507644921541214
1789063904092776000,11.23577587890625,0.06071687489748001,0.10687211900949478,0.08510184288024902
1789063904102814000,11.24581396484375,0.05807129293680191,0.012089685536921024,0.13788942992687225
1789063904112851200,11.255851318359374,0.048298824578523636,0.056963950395584106,0.1546148806810379
1789063904122889000,11.265888916015625,0.04128139466047287,0.04057219251990318,0.09998545050621033
1789063904132926000,11.275926025390625,0.05247092992067337,0.06796333938837051,0.05770058184862137
1789063904142964200,11.285964111328125,0.05428773909807205,0.11674046516418457,0.02569843828678131
1789063904153001000,11.2960009765625,0.05324884131550789,0.038183070719242096,-0.03142157196998596
1789063904163039000,11.3060390625,0.07116472721099854,0.14216512441635132,-0.045587990432977676
1789063904173076200,11.316076171875,0.0872315764427185,0.05686940625309944,-0.05507390573620796
1789063904183114000,11.326114013671875,0.1033780574798584,0.06154991313815117,-0.1076633483171463
1789063904193151000,11.33615087890625,0.07094448059797287,0.12172270566225052,-0.10915045440196991
1789063904203189200,11.346189208984375,0.01146703865379095,0.03695615381002426,-0.07596027851104736
1789063904213226000,11.35622607421875,-0.04825807735323906,0.10333757102489471,-0.03918548673391342
1789063904223264000,11.366263916015624,-0.0796908363699913,0.07685190439224243,-0.01666552945971489
1789063904233301200,11.37630126953125,-0.061173342168331146,0.05835998058319092,0.02563798613846302
1789063904243339000,11.386339111328125,-0.03972530737519264,0.06913565844297409,0.03217098489403725
1789063904253376000,11.3963759765625,-0.02370106801390648,0.015172028914093971,0.03856949508190155
1789063904263414300,11.406414306640626,-0.05892590060830116,0.01561251562088728,0.12078926712274551
1789063904273451000,11.416450927734376,-0.09102098643779755,0.03230121359229088,0.06485462933778763
1789063904283489000,11.426489013671874,-0.11161547899246216,0.11325358599424362,0.01786048896610737
1789063904293526000,11.436526123046875,-0.13700152933597565,0.09488336741924286,0.014841530472040176
1789063904303564000,11.44656396484375,-0.1377301663160324,0.025730131193995476,-0.016036489978432655
1789063904313601000,11.45660107421875,-0.15834969282150269,0.06497367471456528,-0.025137310847640038
1789063904323639000,11.46663916015625,-0.17556330561637878,-0.05411596596240997,-0.048044756054878235
1789063904333676000,11.476676025390624,-0.18246515095233917,0.033678069710731506,-0.10610459744930267
1789063904343714000,11.486714111328125,-0.20150116086006165,0.004259726032614708,-0.1100255697965622
1789063904353751000,11.4967509765625,-0.23719817399978638,-0.017300959676504135,-0.04069896042346954
1789063904363789000,11.5067890625,-0.2670476734638214,0.012140818871557713,-0.015728630125522614
1789063904373826000,11.516825927734375,-0.27904894948005676,-0.039916522800922394,-0.019031748175621033
1789063904383864000,11.526864013671876,-0.25332388281822205,0.024386299774050713,0.0011787151452153921
1789063904393901000,11.536901123046874,-0.23541465401649475,-0.0049287122674286366,0.05494740605354309
1789063904403939000,11.54693896484375,-0.2512490153312683,-0.08246611058712006,0.07392562180757523
1789063904413976000,11.55697607421875,-0.2880999743938446,-0.0009901633020490408,0.06133313104510307
1789063904424014000,11.56701416015625,-0.3373599350452423,-0.09952579438686371,0.08553087711334229
1789063904434051000,11.577051025390626,-0.34195947647094727,-0.04752437397837639,0.027090206742286682
1789063904444088800,11.5870888671875,-0.33003491163253784,-0.07064540684223175,0.02033296786248684
1789063904454126000,11.5971259765625,-0.3200051784515381,-0.1641271561384201,0.011524563655257225
1789063904464164000,11.6071640625,-0.3084755539894104,-0.06227216124534607,-0.00427357479929924
1789063904474201000,11.617201171875,-0.3276737332344055,-0.1304733157157898,0.01606631837785244
1789063904484239000,11.627239013671876,-0.3212355375289917,-0.12241219729185104,0.02509336918592453
1789063904494276000,11.637276123046876,-0.3328205645084381,-0.08039736747741699,0.03652152419090271
1789063904504313900,11.64731396484375,-0.33449381589889526,-0.1426120102405548,0.015313709154725075
1789063904514351000,11.65735107421875,-0.3196712136268616,-0.07563617080450058,0.005852562841027975
1789063904524389000,11.66738916015625,-0.31106653809547424,-0.15082812309265137,-0.004470914602279663
1789063904534425900,11.67742578125,-0.2749745845794678,-0.15574058890342712,-0.029152825474739075
1789063904544464100,11.687464111328126,-0.25959187746047974,-0.1210758239030838,-0.03972291201353073
1789063904554501000,11.697501220703124,-0.2511264979839325,-0.08319289237260818,-0.08887714147567749
1789063904564539000,11.707538818359374,-0.21835976839065552,-0.07409712672233582,-0.044018588960170746
1789063904574576000,11.717576171875,-0.19717937707901,-0.10081582516431808,-0.011574896983802319
1789063904584614100,11.7276142578125,-0.14369218051433563,-0.09107425063848495,-0.055754609405994415
1789063904594651100,11.737651123046875,-0.11094143241643906,-0.03883181884884834,-0.04471766948699951
1789063904604689200,11.747689208984376,-0.11774207651615143,-0.06466580927371979,-0.03843394294381142
1789063904614726100,11.75772607421875,-0.13818477094173431,-0.07699385285377502,-0.00039015308720991015
1789063904624764200,11.76776416015625,-0.16944655776023865,-0.11967047303915024,0.0733884647488594
1789063904634801200,11.77780126953125,-0.14672739803791046,-0.11889070272445679,0.022252308204770088
1789063904644839200,11.787839111328125,-0.11352097243070602,-0.0717649981379509,0.038415566086769104
1789063904654876200,11.797876220703126,-0.0633680522441864,-0.1226460263133049,0.055089350789785385
1789063904664914200,11.8079140625,-0.027517111971974373,-0.016825851052999496,0.03362374007701874
1789063904674951200,11.817951171875,-0.04165450111031532,-0.038178011775016785,0.0586065873503685
1789063904684989200,11.8279892578125,-0.03809651732444763,-0.030828487128019333,0.04085981473326683
1789063904695026200,11.838026123046875,-0.028688902035355568,-0.042695797979831696,0.01613023318350315
1789063904705064000,11.84806396484375,0.011992746964097023,-0.09530574828386307,-0.02207494154572487
1789063904715101200,11.85810107421875,0.060025520622730255,-0.02377537079155445,-0.026524817571043968
1789063904725139200,11.86813916015625,0.05637512356042862,-0.10469871759414673,0.011050254106521606
1789063904735176200,11.87817626953125,0.06067186966538429,-0.010333864018321037,-0.026618294417858124
1789063904745214200,11.888214111328125,0.06374888867139816,0.00523577444255352,-0.022853650152683258
1789063904755251200,11.898251220703125,0.09636461734771729,0.012751215137541294,-0.009951966814696789
1789063904765289000,11.9082890625,0.11107885092496872,-0.03996099904179573,0.06107214093208313
1789063904775326200,11.918326171875,0.1027332991361618,0.030307305976748466,0.01876969262957573
1789063904785364200,11.9283642578125,0.09773508459329605,-0.02124669961631298,0.019270634278655052
1789063904795401200,11.938401123046875,0.08923427015542984,-0.02773602306842804,0.038716502487659454
1789063904805439200,11.948439208984375,0.10701992362737656,-0.0029856697656214237,-0.026734940707683563
1789063904815476200,11.958476318359375,0.11920361965894699,-0.014700116589665413,-0.0318753756582737
1789063904825514000,11.968513916015626,0.13628754019737244,0.03554947301745415,-0.0901876837015152
1789063904835551000,11.978551025390624,0.11623553186655045,-0.023867515847086906,-0.044315267354249954
1789063904845589200,11.98858935546875,0.06824616342782974,0.024445954710245132,-0.048653021454811096
1789063904855626000,11.9986259765625,0.05473941192030907,-0.01381088700145483,-0.06012751907110214
1789063904865664300,12.008664306640625,0.07137484848499298,0.04362817108631134,-0.015910256654024124
1789063904875701200,12.018701171875,0.10579220950603485,-0.0075194351375103,-0.03488554432988167
1789063904885739000,12.028739013671874,0.14104899764060974,-0.011402057483792305,0.032591499388217926
1789063904895776000,12.03877587890625,0.10886895656585693,-0.028313662856817245,0.059298478066921234
1789063904905814300,12.048814208984375,0.09174297004938126,-0.005960953421890736,-0.0001651159836910665
1789063904915851000,12.05885107421875,0.041305094957351685,0.026275012642145157,0.04435201734304428
1789063904925889000,12.068888916015625,0.021285047754645348,-0.049363020807504654,0.02907133288681507
1789063904935926300,12.07892626953125,0.03382427617907524,-0.012632437981665134,0.0589570589363575
1789063904945964000,12.088964111328124,0.04470914974808693,-0.058883555233478546,0.0927690863609314
1789063904956001000,12.0990009765625,0.07793687283992767,-0.032760877162218094,-0.03422801196575165
1789063904966039300,12.109039306640625,0.08309835195541382,0.05723399296402931,-0.011801266111433506
1789063904976076000,12.119075927734375,0.08836741000413895,-0.01561038475483656,0.004446413833647966
1789063904986114000,12.129114013671876,0.11289752274751663,-0.011416971683502197,-0.009905095212161541
1789063904996151300,12.1391513671875,0.13035747408866882,-0.020728182047605515,0.0004135889175813645
1789063905006189000,12.14918896484375,0.14398540556430817,0.010528274811804295,-0.030130738392472267
1789063905016226000,12.15922607421875,0.09774067252874374,0.006981476675719023,0.023148728534579277
1789063905026264000,12.16926416015625,0.044738177210092545,0.03495611995458603,0.04926528409123421
1789063905036301000,12.179301025390625,0.01822773925960064,0.043174635618925095,0.04003450274467468
1789063905046339000,12.189339111328126,0.020865067839622498,-0.016927851364016533,0.0300188846886158
1789063905056376300,12.199376220703124,0.06398750841617584,-0.02563638798892498,-0.009818541817367077
1789063905066414000,12.2094140625,0.08468665927648544,0.021810490638017654,-0.021949773654341698
1789063905076451000,12.219451171875,0.07417009770870209,-0.01335655152797699,-0.032592564821243286
