time,seconds_elapsed,z,y,x
1790958008731578600,0.05657861328125,0.307554375565052,0.3869675194978714,-0.5124204570066183
1790958008741590500,0.066590576171875,0.6229968740314245,0.5846417166739701,-0.5673499517418443
1790958008751602700,0.076602783203125,0.850515589851141,0.6857353620171547,-0.6055053487434983
1790958008761614600,0.086614501953125,0.8148375427484512,0.6943915466815233,-0.4900320995878428
1790958008771626800,0.096626708984375,0.48501931292712686,0.6375163977712393,-0.39789859029166397
1790958008781638700,0.106638671875,0.1867167498320341,0.6555185029298066,-0.2744018283519894
1790958008791650600,0.116650634765625,0.42241760306358334,0.06406359910964965,0.7432682441838085
1790958008801662700,0.126662841796875,1.2673241208612918,0.05905366199314594,-0.5775296196464449
1790958008811674600,0.136674560546875,1.137655538418889,0.5366296731770038,-0.9884294380694627
1790958008821686500,0.1466865234375,0.7152332591801881,0.5556026691943406,-0.6950277256932109
1790958008831699700,0.15669970703125,0.34823709908723827,0.5334580574035644,-0.30581147742047904
1790958008841711600,0.166711669921875,0.17649755363464353,0.11307049886286258,-0.13717029984202236
1790958008851723800,0.176723876953125,-0.08923428072333335,-0.1978010384261608,0.11630206466261296
1790958008861735700,0.186735595703125,-0.2918821746587753,-0.3408072413474321,0.5698938275383785
1790958008871747600,0.19674755859375,-0.2828203318029642,-0.49015316868424413,0.984046108418703
1790958008881759700,0.206759765625,-0.10506430253982543,-0.6213496913462877,1.1905179445564746
1790958008891771600,0.216771728515625,0.15125906748175622,-0.6679957071870565,0.9506199318960309
1790958008901783800,0.22678369140625,0.23773206679821013,-0.5894558389574289,0.6469584721162915
1790958008911795700,0.236795654296875,0.19382570505440233,-0.11542319946885109,0.13689572068434208
1790958008921807600,0.2468076171875,0.04057575601637363,0.08264262737333775,0.022327585408557206
1790958008931819800,0.25681982421875,0.05540975253283977,0.07627309234142303,0.39278190486505626
1790958008941831700,0.266831787109375,-0.04119242660999298,0.1348071143746376,-0.03522778258454055
1790958008951843600,0.276843505859375,-0.4420914408266544,-0.024308511826395988,0.1935915492386557
1790958008961855700,0.286855712890625,-0.6305752003312111,-0.171414551281929,0.3098447515245527
1790958008971867600,0.29686767578125,-0.5703577552556991,-0.3128554045826196,0.6299568492371589
1790958008981879800,0.3068798828125,-0.3057394350975752,-0.24629765056967734,0.7999060772068798
1790958008991891700,0.3168916015625,0.05146189168989658,0.04882335987985134,0.3477385019153356
1790958009001903600,0.326903564453125,0.3595423369556665,0.22396716081798076,-0.07612566496105864
1790958009011915800,0.336915771484375,0.40049394054710863,0.15574936463832853,-0.013905867087189107
1790958009021927700,0.346927734375,0.22760580958127974,0.06188917768001556,-0.013107894243067129
1790958009031939600,0.356939697265625,-0.11183423506617546,0.09706161334812641,-0.1439087047189474
1790958009041951700,0.36695166015625,-0.5379816723078489,0.2848059526622295,-0.15494688914902507
1790958009051963600,0.376963623046875,-0.6750678375303745,-0.009615385085344314,-0.5740960650011897
1790958009061976600,0.3869765625,-0.5434586424142122,-0.18019640815258026,-0.42397016626782713
1790958009071988500,0.396988525390625,0.10975041452944279,0.001246200668811798,0.04603033162783831
1790958009082000400,0.40700048828125,0.6003086568832398,0.04223930531442165,-0.06177041013855487
1790958009092012500,0.417012451171875,0.4600386009275913,0.04557692530453205,-0.10198252047430724
1790958009102024400,0.4270244140625,0.2864455365628004,0.17385785278081892,-0.02723214418813586
1790958009112036600,0.43703662109375,0.12239245395958423,0.13887889385819435,-0.24224636588487772
1790958009122048500,0.447048583984375,-0.2923053685069084,0.04412848006188869,-0.5120003684310243
1790958009132060400,0.457060302734375,-0.5754243909955025,-0.009536474630236625,-0.6145515556387603
1790958009142072600,0.467072509765625,-0.4015501716017723,-0.047805122748017306,-0.46449170787893235
1790958009152084500,0.47708447265625,-0.12937924410700796,0.043855508339405054,-0.360941974620521
1790958009162096400,0.487096435546875,0.11549801827073096,0.17836276298463344,-0.31680936637278645
1790958009172108500,0.497108642578125,0.25742460926175115,0.18730770146250725,-0.14635733998008071
1790958009182120400,0.507120361328125,0.30788404591083524,0.09906944603919983,-0.0589892549874261
1790958009192132600,0.517132568359375,0.2218833402812481,0.12599369332194327,-0.09018865883871913
1790958009202144500,0.52714453125,0.03674655311703682,0.1627443380922079,-0.04561521148830652
1790958009212156400,0.537156494140625,-0.0019651625931262967,0.19751579174399375,0.022947708334587515
1790958009222168600,0.54716845703125,0.22066753475069997,0.23602234027087687,0.16800125397341326
1790958009232180500,0.557180419921875,0.3864356045782566,0.2599018130302429,0.22860130515834315
1790958009242192400,0.5671923828125,0.3519043894231319,0.3016466128259897,0.10581272802064194
1790958009252204500,0.57720458984375,0.07292612000107765,0.2881628618746996,-0.11698403731109573
1790958009262216400,0.587216552734375,-0.5855611696064472,0.16021978805065154,-0.289514641809836
1790958009272228600,0.597228515625,-1.2739642895281313,0.14556231714487075,-0.41100254814513026
1790958009282241500,0.607241455078125,-1.2760814278125763,0.24115619602799415,-0.45453682517353444
1790958009292253400,0.61725341796875,-0.7324258015215397,0.06715688894987105,-0.21124149822499602
1790958009302265600,0.627265625,0.04531447497606277,-0.24881460182666776,0.07922861767876893
1790958009312277500,0.637277587890625,0.7060311310708522,-0.36256139251589775,-0.0232777440065518
1790958009322289700,0.64728955078125,0.9342857599496841,-0.27368483918905256,-0.22835797965545207
1790958009332301600,0.657301513671875,0.8012105839341879,-0.055441901236772534,-0.10221731561087072
1790958009342313500,0.6673134765625,0.6609054566651582,0.15903846931159496,-0.04787924743015319
1790958009352325600,0.67732568359375,0.5338093550592661,0.22411036868095396,-0.07887973117586225
1790958009362337500,0.687337646484375,0.363704132810235,0.23711188907325267,0.03330470556747168
1790958009372349400,0.697349365234375,0.18232874400615692,0.24550854601860045,0.1305109515506774
1790958009382361600,0.707361572265625,-0.06739420483708382,0.21201602626144886,0.1241528512282297
1790958009392373500,0.71737353515625,-0.3423801897525787,0.15116554397940635,0.09017605508547276
1790958009402385700,0.7273857421875,-0.4831909284561872,0.12296119375824928,0.0814265295818448
1790958009412397600,0.7373974609375,-0.4138584490329027,0.08765665614306926,0.12320486632101237
1790958009422409500,0.747409423828125,-0.11481821931302547,-0.009075871381163596,0.1833332083409652
1790958009432421600,0.757421630859375,0.16974866389632223,-0.09871230316460132,0.09540149811618029
1790958009442433500,0.76743359375,0.3393167105287313,-0.11658055281043052,0.0822217350801453
1790958009452445400,0.777445556640625,0.3718412620365619,-0.09823065712749958,0.19487758872751146
1790958009462457600,0.78745751953125,0.309471607363224,-0.0768278036147356,0.21142463623955846
1790958009472469500,0.797469482421875,0.10198796383440493,-0.05133212783038616,0.17304737664815037
1790958009482482700,0.807482666015625,-0.056952305799722665,-0.06618249095976353,0.19813710198011247
1790958009492494600,0.81749462890625,-0.1459825883835554,-0.06707447136342524,0.2536026398207992
1790958009502506500,0.827506591796875,-0.15711831490397452,-0.04366553872525692,0.24510898877438156
1790958009512518700,0.8375185546875,-0.18418635457158086,-0.01955225721001625,0.20887750904001295
1790958009522530600,0.847530517578125,-0.25107962414920326,-0.029525369691848755,0.18041651717666535
1790958009532542700,0.857542724609375,-0.2822299646943807,-0.05227905329167842,0.15259612477179615
1790958009542554600,0.8675546875,-0.25250761112570763,-0.07544482482373714,0.10130085835307837
1790958009552566500,0.87756640625,-0.11215338401794434,-0.07293138069808483,0.032185967203229665
1790958009562578700,0.88757861328125,0.05014379482865333,-0.06344108329713344,0.0018348872769623993
1790958009572590600,0.897590576171875,0.1446352654278278,-0.08824877681732177,-0.02618891874551773
1790958009582602500,0.9076025390625,0.08514321201741695,-0.09739654439091681,-0.008755261124670505
1790958009592614700,0.91761474609375,-0.048964814177155494,-0.05869125842154026,0.02399425824545324
1790958009602626600,0.92762646484375,-0.13578969567120075,0.020759294912219048,0.0659366264399141
1790958009612638700,0.937638671875,-0.15270049846172332,0.07919920892119407,0.08337167230024933
1790958009622650600,0.947650634765625,-0.18536358165740965,0.06405775389075279,0.08271313532628119
1790958009632662500,0.95766259765625,-0.1727390778839588,0.08367021685540675,0.0980782430447638
1790958009642674400,0.96767431640625,-0.09972118794620037,0.10366787974536418,0.03361110463552177
1790958009652686600,0.9776865234375,0.015670447340607643,0.07659282581508159,-0.03862959038466215
1790958009662698500,0.987698486328125,0.14487491940259933,0.0664794280797243,-0.048479661008715626
1790958009672710700,0.997710693359375,0.18263444895446299,0.09244622850716114,-0.00973133961521089
1790958009682722600,1.00772265625,0.08815291522741317,0.1415694481164217,0.09325564519390463
1790958009692734500,1.017734375,0.012456745991110801,0.16620120054781437,0.16564137470796703
1790958009702747600,1.02774755859375,-0.10193068068921565,0.13084464048445224,0.20983079117685555
1790958009712759600,1.037759521484375,-0.2913543513923883,0.04220715661048889,0.24986038455255327
1790958009722771700,1.047771728515625,-0.4405173233777284,-0.05122457580268383,0.33619653268158434
1790958009732783600,1.05778369140625,-0.593722848752141,-0.11038052912652492,0.40157603669539094
1790958009742795500,1.06779541015625,-0.6300099676638842,-0.11726853507459163,0.37003209372274576
1790958009752807700,1.0778076171875,-0.47039223715960976,-0.13978022661209105,0.37389096110798414
1790958009762819600,1.087819580078125,-0.1667138262450695,-0.1647217756450176,0.6101365887407213
1790958009772831700,1.097831787109375,0.39094752904474733,-0.45147477072179315,0.2966145369429141
1790958009782843600,1.10784375,0.4906377373307943,-0.3330143955141306,-0.556651520660147
1790958009792855600,1.11785546875,0.2537257547438145,0.1753659192562103,-0.48095586288049813
1790958009802867700,1.12786767578125,0.12158347566425799,0.23896599250733852,-0.2913721793100238
1790958009812879600,1.137879638671875,0.05320025978982448,0.14441723876297474,-0.1629414680995047
1790958009822891500,1.1478916015625,-0.03602174597382545,0.15625146894156933,-0.09516586272940039
1790958009832903700,1.157903564453125,-0.015293430721759795,0.22798925594091415,-0.0901722922258079
1790958009842915600,1.16791552734375,0.06409867042303084,0.25915070240199567,-0.15266279679983855
1790958009852927500,1.177927490234375,0.14412906947135926,0.2029687964528799,-0.15027502488046884
1790958009862939600,1.187939697265625,0.2889338462471962,0.1817588351637125,-0.05478168376237154
1790958009872951600,1.19795166015625,0.4223597353965044,0.11256664099395275,0.09885215002670883
1790958009882963700,1.207963623046875,0.43148821374773977,0.20894553277492522,0.01817892303019762
1790958009892976600,1.2179765625,0.2991851911485195,0.3585404664367437,0.10636179500445724
1790958009902988800,1.22798876953125,0.23044600144326685,0.3279197027236223,0.15373334864079952
1790958009913000700,1.238000732421875,0.28026947827637194,0.21033494130671024,0.10639686631783843
1790958009923012600,1.2480126953125,0.1921066261768341,0.15356617538034914,0.08079889920279383
1790958009933024800,1.258024658203125,0.0720475836008787,0.10840835227072239,0.09121741736456751
1790958009943036700,1.26803662109375,-0.023227146330475807,0.0797603499352932,0.11851195926442741
1790958009953048600,1.278048583984375,-0.049559272938966746,0.06744973441660404,0.06603475305214523
1790958009963060700,1.288060791015625,-0.056773442101478576,0.06107376964390278,-0.0133728379227221
1790958009973072600,1.29807275390625,-0.019717092382907867,0.07543196534216404,0.06243789760395884
1790958009983084800,1.308084716796875,0.030964462584257123,0.13817980567812918,0.14243717086166144
1790958009993096700,1.3180966796875,0.08648761236369609,0.08041209184229374,0.055836015120893714
1790958010003108600,1.328108642578125,0.12020575757026672,-0.018691840988397598,-0.06213292330801486
1790958010013120800,1.338120849609375,0.08269698790907859,-0.07080547458529472,-0.06103299924209714
1790958010023132700,1.348132568359375,0.018953706794977185,-0.07629764226078986,0.043849809250980615
1790958010033144600,1.35814453125,-0.2291454402387142,-0.09620528877973555,0.19710808772593735
1790958010043156700,1.36815673828125,-0.3615349720776081,-0.06889993322491646,-0.11113704658225178
1790958010053168600,1.378168701171875,0.33278935458660125,-0.09255728766620158,-0.5942186694450676
1790958010063180500,1.3881806640625,0.5528291128277778,-0.06608136867284774,-0.5285138789996504
1790958010073192700,1.398192626953125,0.20505437055528164,0.11544307321310043,-0.02731551162265241
1790958010083204600,1.40820458984375,0.003771335232257843,0.00421674091219902,0.1395468562476337
1790958010093217500,1.418217529296875,-0.13701017737686633,-0.08487316290438175,0.19610088344477117
1790958010103229400,1.4282294921875,-0.4179436725199222,-0.04095744881033897,0.3013914690211415
1790958010113241600,1.43824169921875,-0.5712631796628237,-0.0183563254237175,0.26407902564965186
1790958010123253500,1.44825341796875,-0.4452297388523817,-0.0783919841915369,0.09114530197642744
1790958010133265400,1.458265380859375,-0.2929863365083933,-0.06132452953457832,-0.022303163353353736
1790958010143277600,1.468277587890625,0.03784837687909603,0.03369417980909347,-0.14789792048558592
1790958010153289500,1.47828955078125,0.22251170131266115,0.06865911020636559,-0.22278657273128627
1790958010163301400,1.48830126953125,0.11359013882279395,0.04560790496468544,-0.1586708781082183
1790958010173313500,1.4983134765625,0.04434241507351398,0.05062076469063759,-0.019297697927057742
1790958010183325400,1.508325439453125,0.16144494593143463,0.06945347545444965,0.08143895067200065
1790958010193337600,1.518337646484375,0.27473522502481934,0.06680559129416942,0.14841646446697412
1790958010203349500,1.528349609375,0.2849415617406368,0.06799743142724037,0.12376242713853716
1790958010213361400,1.538361328125,0.12871288915276527,0.046855274677276605,0.14914280598014593
1790958010223373600,1.54837353515625,-0.07395370948314667,0.061927756124734876,0.2304961241953075
1790958010233385500,1.558385498046875,-0.15868658713400363,0.07320552146434783,0.1978326756734401
1790958010243397400,1.5683974609375,-0.04884498718976974,0.03340834860503673,0.10697620057575404
1790958010253409500,1.578409423828125,0.145442490157485,0.04365677089691162,0.11640402719974517
1790958010263421400,1.58842138671875,0.15222002146840094,0.043913960528373715,0.04440086726248264
1790958010273434600,1.5984345703125,0.04187865530848503,0.004191021949052811,-0.0598169014506042
1790958010283446500,1.608446533203125,0.020488661277294158,-0.034630583876371385,-0.02275638701356947
1790958010293458400,1.61845849609375,0.0497094950646162,-0.016285364368557927,0.0362610346224159
1790958010303470600,1.628470703125,0.08842004173099995,0.046972179055213927,0.08692198519296944
1790958010313482500,1.638482421875,0.05494388858675956,0.14969254881739616,0.13387122176401317
1790958010323494700,1.64849462890625,0.0074801266223192215,0.14177227721214294,0.14243980121016503
1790958010333506600,1.658506591796875,-0.057500587332248686,0.052772389766573904,0.06791282188370823
1790958010343518500,1.6685185546875,-0.04681728075444698,-0.01351297704577446,0.015743439511582254
1790958010353530600,1.678530517578125,0.25280221015810966,-0.02678103941977024,0.07803798312209546
1790958010363542500,1.68854248046875,0.4827577977359295,-0.005824176108837127,0.07267959789410233
1790958010373554400,1.698554443359375,0.3784019357264042,0.018024901512265205,0.07080847025997937
1790958010383566600,1.708566650390625,0.11091828926503658,0.013957213681936264,0.2031464180421084
1790958010393578500,1.71857861328125,0.04335398855805397,-0.04946633395850658,0.2106182882927358
1790958010403590700,1.728590576171875,0.0815291131734848,-0.12808628168702124,0.14507665251977742
1790958010413602600,1.7386025390625,0.12216039876937866,-0.18720541013181208,0.12290149946026503
1790958010423614500,1.748614501953125,0.1668394984513521,-0.24303426485955715,0.17663542773537336
1790958010433627600,1.758627685546875,0.24967384900450704,-0.10406710819602012,0.21846944018453357
1790958010443639600,1.7686396484375,0.20657529651224613,0.038086861810088156,0.21473054591715335
1790958010453651700,1.778651611328125,0.2512058808773756,-0.030233810222148893,0.1811196970099583
1790958010463663600,1.78866357421875,0.5568395175129175,-0.09064239395558833,0.2594086226858198
1790958010473675500,1.798675537109375,0.5021054722845554,-0.06069324589371681,0.3462679544387385
1790958010483687700,1.808687744140625,0.189805363497138,0.019241291564702986,0.31857557232771067
1790958010493699600,1.818699462890625,-0.03801788822710514,0.18411036672592163,0.2044527514003217
1790958010503711500,1.82871142578125,-0.09695406132042407,0.2747428238093853,0.08327577417772263
1790958010513723600,1.8387236328125,-0.15891688875854015,0.2767974182516336,0.029312201865203676
1790958010523735600,1.848735595703125,-0.3226058142244816,0.16683365323245525,-0.18589001668430863
1790958010533747700,1.858747802734375,-0.5182996512383222,0.004661562070250511,-0.4686246064325794
1790958010543759600,1.868759521484375,-0.4022340622127056,-0.019080548045039177,-0.4302450452862307
1790958010553771500,1.878771484375,-0.2075385885864496,-0.005661679023504257,-0.38310898090619594
1790958010563783700,1.88878369140625,-0.1791360854446888,-0.10299392600655555,-0.3895903422821313
1790958010573795600,1.898795654296875,-0.28295769444704055,-0.13316168525516986,-0.2931951569534838
1790958010583807500,1.908807373046875,-0.3525456099361181,-0.11919862635433673,-0.19810294398218392
1790958010593819600,1.918819580078125,-0.3636182080924511,-0.026913141366839408,-0.22650391275398432
1790958010603831600,1.92883154296875,-0.3110053928017616,-0.05589899735450744,-0.3812254687145352
1790958010613844700,1.9388447265625,-0.025420856982469556,-0.11453297263085842,-0.4197070654632523
1790958010623855900,1.94885595703125,0.25074644667208196,-0.11265256571173667,-0.3045872328551486
1790958010633868000,1.958867919921875,0.27332828083634375,0.04785013093352317,-0.23948793402221052
1790958010643880000,1.9688798828125,0.15341069255769252,0.09414952529370785,-0.2267334106609225
1790958010653892000,1.97889208984375,-0.04638999525308609,0.05575462044775486,-0.11023607915453612
1790958010663904000,1.988904052734375,-0.19590251132845876,0.04802899463176727,-0.058511152614280575
1790958010673916000,1.998916015625,-0.10284779553413391,0.13516133463978766,0.022975144330784677
1790958010683928000,2.008927978515625,0.3288818257540464,0.26982933280467986,0.2602554853061214
1790958010693940000,2.01893994140625,0.6264297710895538,0.33798867679536343,0.444721424004063
1790958010703952000,2.028951904296875,0.5289028783172369,0.2780897961497307,0.4306587771862745
1790958010713964000,2.038964111328125,0.19697686256170271,0.20082652372717857,0.3230635679293424
1790958010723976000,2.048975830078125,-0.11700491570234298,0.14376666589975357,0.16661719747018067
1790958010733988000,2.058988037109375,-0.2802244700908661,0.12620645928978919,0.13787395459935067
1790958010744000000,2.069,-0.24892332289814947,0.17668460063934324,0.0903572568712756
1790958010754012000,2.079011962890625,-0.15279577552974224,0.15893500893712043,-0.06202796509619802
1790958010764024000,2.089024169921875,-0.11277999148368835,0.016487608942389487,-0.17697024918030946
1790958010774037000,2.099037109375,-0.15638532445430756,-0.03674187694191933,-0.3769769809572026
1790958010784049200,2.109049072265625,-0.14128478595614433,-0.228562087392807,-0.10260879914648831
1790958010794061000,2.11906103515625,-0.12508417726159096,-0.3293418444812298,0.06422781322803348
1790958010804073000,2.129072998046875,-0.1290811379432678,-0.32875439998209477,0.1811499825503677
1790958010814085000,2.139085205078125,-0.19470073432326315,-0.19686112722754479,0.10068729303199797
1790958010824097000,2.149096923828125,-0.16250117698609828,-0.033731589210033414,0.0513141537822783
1790958010834109000,2.15910888671875,0.07533551923036574,0.1300228027075529,0.17522019064258784
1790958010844121000,2.16912109375,0.400455946624279,0.2767395505845547,0.5294202897874638
1790958010854133000,2.179133056640625,0.8997942922830581,0.11059738674759864,0.7714927604101598
1790958010864145200,2.189145263671875,1.1205372303575276,0.2943272297233343,0.8913289540156721
1790958010874157000,2.199156982421875,0.9921499198973178,0.5221300231814384,0.8433532970063388
1790958010884169000,2.2091689453125,1.1971382394790648,0.40222412534058094,0.7642575484596192
1790958010894181000,2.21918115234375,1.1207687010258436,0.24336042807400224,0.6280738850347697
1790958010904193000,2.229193115234375,0.7797673984110355,0.3936936128824949,1.0217566111970693
1790958010914205000,2.239204833984375,0.1968301475673914,-0.11583528740108012,1.7137117975771425
1790958010924217000,2.249217041015625,-0.5537585026323795,-1.2929828782528638,1.7997798693545162
1790958010934229800,2.259229736328125,-1.6000474244743585,-0.9187696263879537,-0.38500703307986256
1790958010944242000,2.269241943359375,-2.4065350720286367,-0.23504560419321058,-2.129054493818432
1790958010954253800,2.27925390625,-2.7606384328007696,0.1616641416400671,-2.3510922940090295
1790958010964265700,2.289265625,-1.2741221104383469,0.021158523362874982,-0.9848659734342247
1790958010974278000,2.29927783203125,-0.5539613317281007,-0.5466214903593063,-0.8489511170133948
1790958010984289800,2.309289794921875,0.28595979887247086,-0.3270475960642099,-1.3717803745053707
1790958010994302000,2.319302001953125,0.3115291244149208,-0.14935820229649543,-1.2170464705199002
1790958011004313900,2.32931396484375,0.2262836210668087,-0.3805921392470598,-0.5874422341126948
1790958011014325800,2.33932568359375,1.207747896298766,-0.15488134963214398,0.7035879026371985
1790958011024338000,2.349337890625,1.34142396081686,0.001059153664112091,0.6231875012326985
1790958011034349800,2.359349853515625,0.8025245891422033,0.17183189991116524,0.35150917956046757
1790958011044361700,2.36936181640625,0.19764614012539386,-0.02546995682120323,0.8744112100277096
1790958011054374000,2.379373779296875,-0.4953916538596153,-0.5052127906501293,1.758781796272844
1790958011064385800,2.3893857421875,-0.9701941086769104,-0.5569184279680252,2.7259230932503935
1790958011074398000,2.39939794921875,-0.728338824468851,-0.15198445914685726,3.3917280123949047
1790958011084409900,2.409409912109375,0.029420155751705167,0.03218728237748146,3.29540085080117
1790958011094421800,2.419421875,0.1927905167877674,-0.4007435313940048,2.46631207986027
1790958011104435000,2.42943505859375,0.4693547108054161,-1.0295078829109667,1.6172678777359426
1790958011114446800,2.43944677734375,0.11961305237412452,-1.3579384577661753,1.4727248206362127
1790958011124459000,2.449458984375,-2.2758254561007023,-2.1694524090498684,0.7923981857948005
1790958011134471000,2.459470947265625,-2.052704098457098,-1.895588121640682,-2.2896610892295834
1790958011144482800,2.46948291015625,-1.5863620134711265,-1.239662206953764,-5.535739690718055
1790958011154495000,2.479494873046875,-1.9748516279697417,-0.8614753752827644,-6.893768164855241
1790958011164507000,2.4895068359375,-2.858740495112538,-0.9876350728213786,-4.51593574795872
1790958011174518800,2.499518798828125,-2.4898703578412533,-1.6853788525402544,-1.083432365322113
1790958011184531000,2.509531005859375,-1.861522185909748,-1.653814670497179,0.7180801730439067
1790958011194542800,2.51954296875,-1.404869720289111,-1.3707611144602299,1.53008833758533
1790958011204555000,2.529554931640625,-0.6148018771380186,-1.2421171988904476,1.6205851855903863
1790958011214567000,2.53956689453125,-0.039868484529852866,-1.146579434108734,1.2156567697271703
1790958011224578800,2.549578857421875,0.311741305860877,-1.0997300046503544,0.9450172895833849
1790958011234591000,2.559591064453125,0.7684510546267033,-1.224719489365816,0.8641038240902126
1790958011244603000,2.569602783203125,1.2591162644863128,-1.2998428271502256,0.6109340957939624
1790958011254614800,2.57961474609375,1.8136860835015773,-0.9441133264809847,0.1920493430316448
1790958011264627000,2.589626953125,2.0815268728375433,-0.3237970698356628,-0.17148717812672257
1790958011274640000,2.599639892578125,1.8570830344185232,-0.197757783806324,-0.02995645458549261
1790958011284652000,2.609652099609375,1.2980302247703075,-0.4463672184497118,0.6086546065546572
1790958011294664000,2.619663818359375,0.7877671649932861,-0.5908055000007152,0.6658074033625424
1790958011304675800,2.62967578125,0.4008043216705322,-0.5231488448351621,0.06978636067062616
1790958011314688000,2.63968798828125,0.14321283140927552,-0.4557037865936756,-0.455378500162065
1790958011324700000,2.649699951171875,0.00047550855726003643,-0.1346288351982832,-0.6006674071930348
1790958011334712000,2.659712158203125,0.29506022017300126,0.24121172560751436,-0.5424237464085221
1790958011344724000,2.669723876953125,0.8796765101447701,0.49025136836171146,-0.4506044176280498
1790958011354735900,2.67973583984375,1.1664105082601308,0.63762687240839,-0.5412038492247462
1790958011364748000,2.689748046875,1.1726190075114369,0.9088514589637517,-0.43428427420705557
1790958011374760000,2.699760009765625,1.1881570606440306,1.3508265799343586,-0.07847104077711702
1790958011384771800,2.709771728515625,1.266383625140786,1.5401082118183373,0.3922431218132376
1790958011394784000,2.719783935546875,0.9107675217181443,1.3970394650548696,1.0072836300127208
1790958011404796000,2.7297958984375,0.4099465362861752,1.5289198783278464,0.8114690892286598
1790958011414808000,2.73980810546875,0.061797115482389926,1.7985399522960186,-0.04469488177299499
1790958011424820000,2.749820068359375,-0.30819734964370726,1.8268787425518034,-0.526045443059504
1790958011434832000,2.759831787109375,-0.5747732336103916,1.6931705293297767,0.02566153387054801
1790958011444845000,2.769844970703125,-0.36369565724283454,1.7931699496954678,0.8228134900636971
1790958011454857000,2.77985693359375,-0.13592793509811163,1.6462842749923468,1.0364559484831988
1790958011464869000,2.789869140625,0.03728226742893457,1.636675319647789,0.7613698641940951
1790958011474881000,2.799881103515625,0.121622638630867,1.553095119163394,0.4182426554664969
1790958011484893000,2.809892822265625,0.05936755024790764,1.1634352918416262,0.2072090643711388
1790958011494905000,2.819905029296875,-0.14280337382555008,0.6814402951717377,0.03338321416378021
1790958011504917000,2.8299169921875,-0.2196583577081561,0.4238976124882698,-0.23242811517119405
1790958011514929000,2.839928955078125,-0.146958739939332,0.3181955965667963,-0.4575472225032747
1790958011524941000,2.849941162109375,0.07062865671366453,-0.02138824046552181,-0.35233386688157914
1790958011534953000,2.859952880859375,0.3957344710603356,-0.33444822770953175,-0.25982977070733904
1790958011544965000,2.869965087890625,0.5486459819242357,-0.5876198557019233,-0.5190060459420085
1790958011554977000,2.87997705078125,0.36228462140113116,-0.8102572292208671,-0.7680296143442392
1790958011564989000,2.889989013671875,0.07083586972355842,-0.8913321688860655,-0.8635172563739121
1790958011575001000,2.9000009765625,-0.10582681134492158,-0.7547755804955959,-0.936921076889336
1790958011585013000,2.910012939453125,-0.38422786540091036,-0.46570729421377177,-0.8248129933178424
1790958011595025000,2.92002490234375,-0.6601023235887289,-0.09789572608470916,-0.5324516568399965
1790958011605037000,2.930037109375,-0.7226160629078745,0.14097791196405887,-0.28574995551407334
1790958011615049700,2.9400498046875,-0.6177285782396793,0.17439385935366153,-0.1292092943675816
1790958011625062100,2.950062255859375,-0.434406439282,0.06819032365083694,-0.2519106681458652
1790958011635074300,2.96007421875,-0.1904527214899659,-0.010648819786310196,-0.5671576440401375
1790958011645086200,2.970086181640625,0.019976035580039023,0.03917465704679489,-0.6558128097012639
1790958011655098000,2.98009814453125,0.1855123424783349,0.11185060167908668,-0.4205183453135192
1790958011665110300,2.9901103515625,-0.28984862300455566,0.13511048123538494,-0.18178820738866924
1790958011675122200,3.0001220703125,-0.5053671044290066,-0.007024199548363685,-0.14304229714795946
1790958011685134300,3.01013427734375,-0.42318449578285217,-0.1473947932690382,0.016666764901578427
1790958011695146200,3.020146240234375,-0.2635398772716522,-0.42495208997726436,0.03901449804902077
1790958011705158100,3.030158203125,0.14265958144068716,-0.6857435453236103,-0.11374912877678871
1790958011715170300,3.04017041015625,0.5220864763006567,-0.6590349866181612,-0.23950769816860557
1790958011725182200,3.05018212890625,0.9396946332558989,-0.14882570285499094,-0.05476487875804305
1790958011735194000,3.060194091796875,0.9228872908398509,0.03996200803220272,0.14006182003244758
1790958011745206300,3.070206298828125,0.8376660451501607,0.20407704995572565,0.3004062573760748
1790958011755218200,3.08021826171875,0.8455641049236059,0.4342272833228111,0.473111871381849
1790958011765230300,3.090230224609375,0.5538923581451177,0.47601767582595345,0.5763162252686918
1790958011775243300,3.1002431640625,0.3475628530874848,0.4018202207148075,0.5694667977653444
1790958011785255200,3.110255126953125,0.11654372793138026,0.2623942143678665,0.50045112920627
1790958011795267300,3.120267333984375,-0.04776742108613252,0.28656419450640674,0.388768869831413
1790958011805279200,3.130279296875,0.06751666217297315,0.6245166309446096,0.28684608018770813
1790958011815291400,3.14029150390625,0.31421763284653426,0.9974620548307895,0.2939148495301604
1790958011825303300,3.15030322265625,0.5564341515824198,1.1908406006395815,0.6404986284524202
1790958011835315200,3.160315185546875,0.48976855328083035,1.0785919395536183,0.9087987058632075
1790958011845327400,3.170327392578125,0.1480827755331993,0.7396481539905071,0.7087015193238854
1790958011855339300,3.18033935546875,-0.08400222528874873,0.4402601337462663,0.20535423028469085
1790958011865351200,3.19035107421875,-0.22730536532998083,0.23502163879573343,-0.1300531978458166
1790958011875363300,3.20036328125,-0.14238017997741698,0.15470774663090706,-0.1497055544294417
1790958011885375200,3.210375244140625,0.2244426693752408,0.30467852786779404,-0.035409459294378755
1790958011895387400,3.220387451171875,0.473157610219717,0.48587388392984865,-0.19256927525252102
1790958011905399300,3.2303994140625,0.3540869941592216,0.43000235910415646,-0.4014611781440675
1790958011915412500,3.24041259765625,-0.32019173882007596,-0.09080196843147277,-0.4277215546905994
1790958011925424400,3.25042431640625,-0.9675029698967933,-0.8007634246885776,-0.5352803043946623
1790958011935436300,3.260436279296875,-0.9276552358940243,-1.1269529426187277,-0.722148007004708
1790958011945448400,3.270448486328125,-0.6752239048749208,-1.1870347786158322,-0.9250292713046073
1790958011955460400,3.28046044921875,-0.28927111537754535,-1.1596814922660588,-1.1607080588348209
1790958011965472300,3.29047216796875,0.25964286983311174,-0.9077285924136638,-0.9435122918479144
1790958011975484400,3.300484375,0.43002310963124035,-0.34813889940977094,-0.6165928522080183
1790958011985496300,3.310496337890625,0.09111205729395151,0.25529811862707136,-0.539097670725733
1790958011995508200,3.32050830078125,-0.3678153675213456,0.3176987529605627,-0.2552560330510139
1790958012005520400,3.330520263671875,-0.6591162351608276,0.12681319301128385,0.004704816690087319
1790958012015532300,3.3405322265625,-0.7703396448522806,0.10208967064321041,-0.18331614760830997
1790958012025544400,3.35054443359375,-0.46838908064365387,0.05221007970869541,-0.40343335499987004
1790958012035556400,3.360556396484375,-0.038277415946125985,-0.22172435032725332,-0.46040699584856626
1790958012045568300,3.370568359375,0.17897592644691465,-0.4988900173693895,-0.3163872319705784
1790958012055581400,3.38058154296875,0.17953414485156535,-0.8418810324966907,-0.08820259958803653
1790958012065593300,3.39059326171875,-0.12121230426430701,-1.0028665442228317,-0.20018018864765763
1790958012075605500,3.40060546875,-0.49474926430284977,-0.9290589652121066,-0.3428044065140188
1790958012085617400,3.410617431640625,-0.5196379141047597,-0.7722615528255701,-0.2828711852073669
1790958012095629300,3.42062939453125,-0.10318448014259338,-0.5861234796643257,-0.20569003811031578
1790958012105641500,3.430641357421875,0.03471884668171406,0.13644845184087753,-0.045270051312446595
1790958012115653400,3.4406533203125,0.2702124869033694,0.5735422305107116,0.2920569467037916
1790958012125665500,3.45066552734375,0.9015791298732161,-0.17416589581668376,0.7894920890897512
1790958012135677400,3.460677490234375,1.011918742467463,-1.3533558061510325,0.9004400428406893
1790958012145689300,3.470689453125,0.06118161393254995,-2.089923529782891,0.10785144904032348
1790958012155701500,3.480701416015625,-0.8083844210863113,-1.3034715390413998,-0.9510982899975031
1790958012165713400,3.49071337890625,-0.8876087644487619,0.07058686339855194,-0.361400824303925
1790958012175726300,3.500726318359375,-0.353927711944282,1.1842495318114756,0.6650021513942629
1790958012185738200,3.51073828125,0.39802404330223795,1.3205056759506464,0.9201474175471812
1790958012195750100,3.520750244140625,0.9423007241010666,0.8611907131224871,0.8189044268611818
1790958012205762300,3.53076220703125,0.8034801363013684,0.5874567740947008,0.8817634724866599
1790958012215774200,3.540774169921875,0.19123408112600446,0.4649228658378124,1.2732318836003542
1790958012225786000,3.5507861328125,-0.6574766512602568,0.3061865943431854,1.486517783667147
1790958012235798300,3.56079833984375,-1.1521759389415382,0.6206693078666925,0.8886826042253524
1790958012245810200,3.57081005859375,-1.1359862900324165,1.2620581631571053,0.3437586384989321
1790958012255822300,3.580822265625,-0.5143431686975062,1.2007494157135485,0.2939986188234761
1790958012265834200,3.590834228515625,-0.22465061303749678,0.9587526772081851,0.26502668176330624
1790958012275846100,3.60084619140625,-0.18626140727996826,0.7671662755131721,0.20347250819131732
1790958012285858300,3.6108583984375,-0.24081015906929967,0.35339725832939145,-0.035107955597154794
1790958012295871200,3.620871337890625,0.029239538487792014,-0.6386719975471497,-0.21668496792055666
1790958012305883400,3.63088330078125,0.23361980917379258,-1.4339052606374025,-0.3045102951614186
1790958012315895300,3.640895263671875,0.3612771979242563,-1.6327227826297281,-0.46014702973812815
1790958012325907200,3.6509072265625,0.4712883092164993,-1.5854606807172298,-0.4056117584848776
1790958012335919400,3.66091943359375,0.4566127181321382,-0.9132067315638065,-0.4904324970822781
1790958012345931300,3.67093115234375,0.6807121270276606,0.05629822580516338,-0.33554237962178884
1790958012355943200,3.680943115234375,0.6973486429214477,0.6962263608932495,0.2763634290148504
1790958012365955300,3.690955322265625,0.06316796544417738,0.7992232095092534,0.6052891121769324
1790958012375967200,3.70096728515625,-0.425770566753298,0.38483050746917724,0.37471042426470663
1790958012385979400,3.7109794921875,-0.711358536638692,0.2885696891099214,-0.017588217994896693
1790958012395991300,3.7209912109375,-0.7893537035323679,-0.15962649833261966,-0.031012119384575633
1790958012406004500,3.73100439453125,-0.5744796574912965,-0.8480769645273685,0.3883434840261936
1790958012416016400,3.741016357421875,-0.37678755933232605,-1.7409750675559044,0.7022479592703282
1790958012426028300,3.7510283203125,-0.24322788773551582,-2.3171681048363446,0.6204755388602614
1790958012436040400,3.76104052734375,-0.22892156835496424,-2.6133020917207,0.26661468160711227
1790958012446052400,3.77105224609375,-0.20179156936705112,-2.561239311528206,-0.15187544581443072
1790958012456064300,3.781064208984375,-0.05511230395622551,-1.4503829327076672,-0.13774251023940742
1790958012466076400,3.791076416015625,0.017765958315134046,0.19407354233562946,0.012363496483396737
1790958012476088300,3.80108837890625,-0.27959442855902017,1.3432757261633872,0.22714133387468755
1790958012486100200,3.811100341796875,-1.0893354518860578,1.7416665569514036,0.2587948747016489
1790958012496112400,3.8211123046875,-1.2565560586094855,2.3969997664421796,0.1148920152015984
1790958012506124300,3.831124267578125,-0.34052257918715473,2.295145658120513,0.20502273330800233
1790958012516136400,3.841136474609375,0.9615005146116018,2.1212883898615837,-0.2038059779293835
1790958012526149400,3.8511494140625,2.220442591574788,2.337574348527193,-0.3537066896047443
1790958012536161500,3.86116162109375,1.538596053689718,1.6134563566237687,-0.3168000140225515
1790958012546173400,3.87117333984375,-0.39977907027602194,0.505282348755002,-0.1581051339842379
1790958012556185300,3.881185302734375,-1.7143851667940615,-0.02957739214003086,-0.4651727854782715
1790958012566197500,3.891197509765625,-2.154344856289029,-1.053495492219925,-0.4815422844663262
1790958012576209400,3.90120947265625,-0.6794399151347578,-2.3689281026899813,-0.5321002130538225
1790958012586221300,3.91122119140625,1.9462059637218712,-3.018289836555719,-0.17957217530701308
1790958012596233500,3.9212333984375,3.2245413079410787,-2.509583943092823,0.008860438532195985
1790958012606245400,3.931245361328125,2.123304990381002,-0.9236468770354985,-0.5714151188215241
1790958012616257500,3.941257568359375,0.3637835547219962,1.002399511232972,-1.2127834062479437
1790958012626269700,3.951269775390625,-1.4653957929223775,2.1306559376657006,-1.2425076595127582
1790958012636281900,3.96128173828125,-2.55093652870059,2.234676284110546,-1.1328377628736197
1790958012646294800,3.971294677734375,-2.3509213213562963,2.054563462588191,-0.5962886075869203
1790958012656307000,3.981306884765625,-1.678292693671584,1.8716887751370668,-0.21349530503377318
1790958012666318800,3.99131884765625,-0.6991157987244426,2.159984908002615,-0.5960879704482853
1790958012676331000,4.0013310546875,-0.12459025626480578,1.6038649369359015,-0.16207820233367382
1790958012686343000,4.011343017578125,-0.5832173829592764,1.0939701259493828,0.17927439793683586
1790958012696354800,4.021354736328125,-0.846948691149801,1.4857330630302428,0.6218485807791352
1790958012706367000,4.031366943359375,-1.0173847527883946,1.2922791138976812,1.621943322201073
1790958012716379000,4.04137890625,-1.1140532021004705,1.0326187084078788,2.3909295066177845
1790958012726390800,4.051390869140625,-1.3862471451446414,1.4644389305889605,2.6155074928104876
1790958012736403000,4.06140283203125,-1.7493052351363003,2.5576667137384415,2.236270859825611
1790958012746414800,4.071414794921875,-2.241544562444836,3.4711323884993788,1.354759681599587
1790958012756427000,4.081427001953125,-2.391449146577716,3.592413666346669,0.8081037044487893
1790958012766440000,4.09143994140625,-1.2858704158991574,2.6780677016198635,1.1503398095555604
1790958012776451800,4.101451904296875,0.6078634561769664,1.175552430614829,1.3390572316855192
1790958012786464000,4.111464111328125,2.929143234115839,-0.6030909810781478,0.6602510113444179
1790958012796476000,4.121475830078125,4.884988548320532,-1.9712731849610805,-0.4196483575459569
1790958012806488000,4.131488037109375,5.673448371753096,-2.2992647838771343,-0.6204992119967937
1790958012816500000,4.1415,4.892372813352942,-2.292784189686179,0.30063224815167483
1790958012826512000,4.151511962890625,2.8209926559984684,-2.604272397568822,1.0026820545013992
1790958012836524000,4.16152392578125,1.0726296701483429,-3.389502737560868,0.6663318656280637
1790958012846536000,4.171535888671875,-0.1497131532140076,-3.664041563230753,-0.16130685263499617
1790958012856547800,4.1815478515625,-1.0424055045373737,-2.86582431589365,-0.2983662759810686
1790958012866560000,4.19156005859375,-1.5398669504083693,-0.5449047495692968,0.7041330423645675
1790958012876572000,4.201572021484375,-1.7074517142690717,1.0704776066809891,1.8525725712567567
1790958012886585000,4.211585205078125,-1.3613748619556427,0.21397242102622985,2.214547103795409
1790958012896597000,4.221596923828125,-0.4816339082725346,-1.8757979640215634,1.508431509311497
1790958012906609000,4.23160888671875,0.5827295994423329,-2.262334690886736,0.5711232232028618
1790958012916621000,4.24162109375,0.8392325638145208,-0.5861047749638557,0.164688640560396
1790958012926633000,4.251633056640625,0.40637481527924535,0.20560615921914577,-0.7568890655182302
1790958012936645000,4.26164501953125,-0.1383953481249511,-0.06180383748412132,-1.363928491961211
1790958012946657000,4.271656982421875,-0.05410115415230393,-0.5463257222831249,-0.7661054413486271
1790958012956669000,4.2816689453125,0.619180969005078,-1.0436001211494206,-0.21293862099908292
1790958012966681000,4.29168115234375,0.9299899624519049,-1.4861135867804287,-0.5378285641053692
1790958012976693000,4.30169287109375,0.29343174218833445,-2.0699638608157636,-0.733846189713478
1790958012986705000,4.311704833984375,-0.1891929306872189,-2.3186627273082734,-0.7268072309873997
1790958012996717800,4.3217177734375,-0.26115225148275495,-1.1748387293875218,-1.1254106085475533
1790958013006729700,4.331729736328125,-0.42545594784617424,0.870914819279313,-1.1103780937843024
1790958013016742000,4.341741943359375,-0.542397735184431,2.3992998600780964,-0.4090404542919248
1790958013026753800,4.35175390625,-1.5286135888576506,2.305933009594679,0.37973347659111023
1790958013036766000,4.361765869140625,-2.4010294603496787,0.9502899692893028,0.8826083988782017
1790958013046777900,4.37177783203125,-2.1549504209667445,0.4999193604171276,0.8625506032988428
1790958013056789800,4.381789794921875,-1.7440765407025813,0.6610071634739637,0.9961728187378496
1790958013066802000,4.391802001953125,-1.0147007744014263,0.44504795254468915,1.0833560852155089
1790958013076813800,4.401813720703125,-0.6417239324636757,-0.03941664910912514,0.18774740805402396
1790958013086825700,4.41182568359375,-0.07314473118782043,-0.18765841459631918,-0.6601445552952587
1790958013096838000,4.421837890625,1.0834814651608466,-0.46734454002678394,-0.6627100949343293
1790958013106849800,4.431849853515625,1.6875550275355578,-0.6362327877014875,-1.105923452463001
1790958013116863000,4.441863037109375,1.667471293797344,-0.24607144059836863,-1.5296560836479067
1790958013126875000,4.451875,2.3274906152777373,0.032250995263457295,-1.2102028151702136
1790958013136886800,4.46188671875,3.350885714396834,-0.27885142817199227,-1.1234569902617484
1790958013146899000,4.47189892578125,3.9196114845365284,-0.29147593194544313,-1.3346288938492537
1790958013156910800,4.481910888671875,3.515996781620383,0.2966933743327856,-1.2060222415499389
1790958013166923000,4.491923095703125,1.853477557272464,0.540861027136445,-0.9633864744886755
1790958013176935000,4.501934814453125,-0.1392471426486969,0.2335597495496273,-0.779953714763373
1790958013186946800,4.51194677734375,-1.2900626068919896,-0.030423779836297033,0.1854226914335042
1790958013196959000,4.521958984375,-2.4289777899831533,-0.13931611623167992,0.6459631774686276
1790958013206971000,4.531970947265625,-3.3148440946787594,-0.26647534620165825,1.1152965532250703
1790958013216982800,4.541982666015625,-2.822792983418703,-0.006324526846408844,1.8367814201459287
1790958013226995000,4.551994873046875,-1.3128005084007979,0.11230419066548347,2.3550902776040137
1790958013237006800,4.5620068359375,-0.6725135499376803,0.4656412432402372,2.135532749921828
1790958013247020000,4.57202001953125,-1.0246733754266053,0.7297790864050387,1.5666745855741202
1790958013257032000,4.582031982421875,-0.711166886524111,0.18756839822530746,0.49685500441044567
1790958013267043800,4.5920439453125,0.1480477042198181,-0.5008645323127507,-0.14394431488844564
1790958013277056000,4.602055908203125,0.4562297832291573,-1.1885229713469743,-0.7385483760550617
1790958013287068000,4.61206787109375,0.4219475743990391,-1.1334931580424308,-1.2981244789250195
1790958013297080000,4.622080078125,-0.00005669862329959869,-1.052861285969615,-0.8746003028590231
1790958013307092000,4.632092041015625,0.5046511381793767,-1.0264543405592441,-0.9227379454970359
1790958013317103900,4.642103759765625,0.8988006050705909,-1.186936578938365,-1.4854934090554712
1790958013327116000,4.652115966796875,1.1656646583288908,-0.9886971490949392,-2.3585719822399316
1790958013337128000,4.6621279296875,2.0411206281691787,-0.7339940737515688,-1.9753635230146347
1790958013347139800,4.672139892578125,1.0730518410831689,-0.7664443909794092,-1.4294022501297294
1790958013357152000,4.682152099609375,-0.33056700236201286,-0.345333778861165,-0.9460047662507742
1790958013367165000,4.6921650390625,-1.2902788799911737,0.2181353859245777,-0.30292708109058436
1790958013377177000,4.702177001953125,-2.082050019928813,0.9694429980486631,-0.09197082954775541
1790958013387189000,4.71218896484375,-2.3541461286216974,1.6618980237096548,0.2389145545810461
1790958013397201000,4.722200927734375,-2.5145062019258737,2.2631115204781294,1.1504811907876282
1790958013407213000,4.732213134765625,-2.4838509514212608,2.8485908570200205,2.148592137981206
1790958013417225000,4.742224853515625,-1.2596329818367957,2.246916172480583,0.7629087641991674
1790958013427237000,4.752237060546875,1.0187981267176567,0.446374232712388,-0.09921477279402315
1790958013437249000,4.7622490234375,1.8894477191895245,0.5130062210053206,0.6168193544402718
1790958013447261000,4.772260986328125,1.552184434059262,0.6744266170173883,0.22541662897393105
1790958013457273000,4.782273193359375,0.49564592088162895,0.5904828439176082,0.5047443694207817
1790958013467285000,4.792284912109375,-0.7583768198579549,0.6777168907344341,0.7151410508520901
1790958013477298000,4.8022978515625,-1.4628426013082265,1.115592759692669,1.4548438576392828
1790958013487309800,4.812309814453125,-0.7401274619400501,0.9895154797405004,1.8288763461098074
1790958013497321700,4.82232177734375,2.06793732342422,0.3981131828904152,0.7651775859139859
1790958013507334000,4.832333984375,3.303554638901353,0.5574941820293665,0.9300750103868544
1790958013517345800,4.842345703125,2.240728423756361,1.240122810202837,0.7886562227874994
1790958013527357700,4.852357666015625,0.870269507113099,1.5159113436728715,0.38374351595006884
1790958013537369900,4.862369873046875,-0.29072065659873186,1.2860089475870131,0.8229490991421043
1790958013547381800,4.8723818359375,-0.9537884058643132,1.1480354781359434,1.43647452660352
1790958013557394000,4.882393798828125,-1.718809997498989,1.4208236607462168,2.6138720005631444
1790958013567405800,4.89240576171875,-2.7307220179647205,2.038844499930739,3.7373558057665823
1790958013577417700,4.902417724609375,-3.265509862667322,1.7495470810681581,3.529363335932791
1790958013587430000,4.912429931640625,-2.970193621906638,0.07347206344604491,1.420014828581363
1790958013597441800,4.92244189453125,-1.809388824699074,-2.3900375262141225,-1.7904003388516603
1790958013607455000,4.932455078125,-0.35026020241267974,-3.9468122106730936,-2.714102599336207
1790958013617467000,4.942466796875,0.1891214728862047,-4.78776911406219,-3.3633681793510912
1790958013627481300,4.9524814453125,0.43828897980377074,-4.398503254494071,-4.075042577005923
1790958013637493200,4.9624931640625,0.7231418403476476,-2.2341268335342406,-3.841589210440218
1790958013647505400,4.97250537109375,1.0609393054198473,0.23406302289664743,-2.4263009719893334
1790958013657517300,4.982517333984375,1.0999667360156773,0.3234615542709827,-1.2910548327997327
1790958013667529500,4.992529541015625,1.0206382746916263,0.2452577861279249,-0.5513020859235898
1790958013677541400,5.002541259765625,1.0528175929583607,0.18413900829851626,0.1233760125036817
1790958013687553300,5.01255322265625,1.0857920071255416,0.12781038735508918,0.6741586867962032
1790958013697565400,5.0225654296875,0.9717791128460317,0.11830313881933688,1.1232121486552058
1790958013707577300,5.032577392578125,0.8130448141127824,0.037757775986194606,1.424321001342684
1790958013717589500,5.042589599609375,0.6022931086987257,-0.07398761175274848,1.580904040326178
1790958013727602200,5.052602294921875,0.34865196349844335,-0.07738251488804816,1.657258965732157
1790958013737614300,5.0626142578125,0.09813187292814254,0.07375789465010166,1.5792593418590724
1790958013747626200,5.072626220703125,-0.15418123853877186,0.13593641066551207,1.1532340696923433
1790958013757638400,5.082638427734375,-0.39326282024979586,0.10477321063876151,0.12342337704305537
1790958013767650300,5.092650390625,-0.5479430943518877,0.03425590534508228,-0.5453674717102199
1790958013777662200,5.102662109375,-0.6048889704108238,-0.0450824197858572,-0.34481117975916714
1790958013787674400,5.11267431640625,-0.5650608909565955,-0.06237725345790386,0.08832986096320673
1790958013797686300,5.122686279296875,-0.4788713847566396,0.025945173117518424,0.2338048834171146
1790958013807698200,5.1326982421875,-0.3194319334287196,-0.08787468280792236,0.24425867382166905
1790958013817710300,5.14271044921875,-0.10211246699690818,-0.03816284965574741,-0.008711472215293906
1790958013827722200,5.15272216796875,0.10976787712089717,-0.008752630776166915,-0.16476166926398872
1790958013837734400,5.162734375,0.26251404135525225,0.0013929156631231306,-0.060404501213366164
1790958013847747300,5.172747314453125,0.32187165473103524,0.02857961327433586,-0.025942542769014833
1790958013857759200,5.18275927734375,0.32407413321137424,0.026432664373517035,-0.060623906984552736
1790958013867771400,5.192771484375,0.21492051553130148,0.042209494698047634,-0.058088995379186235
1790958013877783300,5.202783203125,0.03260127000585198,0.05392974310815334,-0.09869397292346693
1790958013887795500,5.21279541015625,-0.09038272010609508,0.05919394724667072,-0.14122727448209188
1790958013897807400,5.222807373046875,-0.15588387773819268,0.02945931871831417,-0.15161365307308733
1790958013907819300,5.2328193359375,-0.1533943990100175,0.04655892207920551,-0.17120596829885615
1790958013917831400,5.24283154296875,-0.11135039707198738,0.026362521746754644,-0.1770301809403114
1790958013927843300,5.25284326171875,-0.04115684383995831,0.012484218519926071,-0.18153414129605516
1790958013937855200,5.262855224609375,0.023206541933864355,-0.07029167984426021,-0.09612667971872724
1790958013947867400,5.272867431640625,0.05394662117771804,0.031495792981982226,-0.11464705486404708
1790958013957879300,5.28287939453125,0.12352248090282082,-0.02698971373438835,-0.18577924978621302
1790958013967892500,5.292892578125,0.11631284178495406,-0.003160509857535362,-0.2320044463990256
1790958013977904400,5.302904296875,0.08522847914807498,0.025249592068791387,-0.2527873231162317
1790958013987916500,5.31291650390625,0.060437225306034084,-0.030489830809831617,-0.27650647248104215
1790958013997928400,5.322928466796875,0.1787460632137954,-0.2295195342481136,-0.12049968074923381
1790958014007940400,5.3329404296875,-0.08551774441823363,-1.6381196732372045,1.080087219612673
1790958014017952500,5.342952392578125,-0.7083524866905063,-6.059613927218318,1.863557637260109
1790958014027964400,5.35296435546875,0.4298560825012624,-1.3091565989404916,-0.7765976823337376
1790958014037976300,5.362976318359375,0.6047874097324908,5.125612829428911,-0.40840668643303213
1790958014047988500,5.372988525390625,0.43053478548042473,2.899062568628788,0.5173298928907141
1790958014058000400,5.38300048828125,-1.2759044638104735,1.1066501593023539,0.4345269238565117
1790958014068012300,5.39301220703125,-3.3592204120218754,0.48686347948908804,1.1597636175915598
1790958014078024400,5.4030244140625,-2.810882765394449,0.3001087357342243,1.3424737621307372
1790958014088037400,5.413037353515625,-0.4536054991401732,0.4852081134974956,0.056166872776765374
1790958014098049300,5.42304931640625,1.5323831705242394,0.1884597941070795,-1.1619878695122896
1790958014108061400,5.4330615234375,2.7087060009896753,-0.5576981801688671,-1.7877730590879917
1790958014118073300,5.4430732421875,2.5105448970794675,-1.0434025527507067,-1.5946704076111315
1790958014128085200,5.453085205078125,1.3905116707213223,-1.0060884288787841,-0.8422630175516009
1790958014138097400,5.463097412109375,0.9670826986581087,-0.9569143558651209,-0.16711751167513428
1790958014148109300,5.473109375,1.0495558146834374,-1.1994985388696193,0.1515987842975184
1790958014158121500,5.48312158203125,0.823862560725212,-1.2770026343107224,-0.06133088621012866
1790958014168133400,5.49313330078125,0.6158475867986679,-0.6109165601372718,-0.3700990945443511
1790958014178145500,5.5031455078125,1.0778115297656505,0.6574655453443526,-0.19264361913036554
1790958014188157400,5.513157470703125,1.6444148278586566,1.1988432898312806,-0.26344244477916506
1790958014198169300,5.52316943359375,1.3116383327536285,0.7433738965153693,-0.15763397280853242
1790958014208181500,5.533181396484375,0.07588380076289176,-0.2755547247141599,0.12730101306084543
1790958014218194200,5.543194091796875,-0.7846225102920085,-0.699198070180416,0.23203502420037983
1790958014228206300,5.553206298828125,-0.010841127488017082,-0.25294892515242096,0.1924698334660381
1790958014238218200,5.56321826171875,0.8800994117319584,-0.2503933954507112,-0.04972969760242849
1790958014248230400,5.57323046875,-0.42868776937425135,-0.06644201867878437,0.03477401093505323
1790958014258242300,5.5832421875,-1.2012602878451346,0.04875789342820644,0.1273297276986763
1790958014268254200,5.593254150390625,-0.9241735312581062,-0.10270224958360194,0.6888095087654889
1790958014278266400,5.603266357421875,-1.0151724835664033,-0.4009142117857933,0.4556651350837201
1790958014288278300,5.6132783203125,-0.7765069353103637,-0.4437777864784002,0.16776640403792262
1790958014298290200,5.623290283203125,-0.08044073341488837,-0.15973872653543947,0.07355952253378928
1790958014308302300,5.63330224609375,-0.13901742554605007,0.015253683233261107,0.03795731714628637
1790958014318314200,5.643314208984375,-0.4127952037155628,-0.09483750755786895,0.27377982399612666
1790958014328326400,5.653326416015625,-0.8463426880806684,0.047132922574877736,0.15651947222799062
1790958014338339300,5.66333935546875,-0.4091296669453382,0.4524181890517473,-0.09654716101996601
1790958014348351200,5.673351318359375,0.26696342197954653,0.6538339108437299,-0.5188513668369501
1790958014358363400,5.68336328125,-0.0814899502068758,0.7815355771273375,-0.8577145614445209
1790958014368375300,5.693375244140625,-0.6853980928868055,0.7160176875561476,-0.7021371193069964
1790958014378387500,5.703387451171875,-0.7840045975893736,0.48274084660112854,-0.8169671751882881
1790958014388399400,5.7133994140625,-0.6317588571578264,0.4431593623191118,-0.826267064583674
1790958014398411300,5.723411376953125,-0.6496639316827059,0.03826923263967037,-0.8841950104825198
1790958014408423400,5.73342333984375,-0.9184516464799642,-0.3493757477283478,-0.6566433422412723
1790958014418435300,5.743435302734375,-1.3762731558799743,-0.6298609145820141,-0.6035604252208024
1790958014428447200,5.753447265625,-1.5366390744030474,-0.7523258492559194,-0.6272649798046798
1790958014438459400,5.76345947265625,-1.1875959196299313,-0.5927034425765275,-0.21859628143459559
1790958014448471300,5.77347119140625,-0.5113613764077425,-0.28019758208394047,0.20264577504359185
1790958014458483500,5.7834833984375,-0.26916356237232686,-0.07735621140301227,0.02414374971874058
1790958014468496400,5.793496337890625,-0.22622226453470065,-0.2979395750015974,-0.025086948852986096
1790958014478508300,5.80350830078125,-0.3437532682040706,-0.4903945762246847,-0.11934008065164088
1790958014488520400,5.8135205078125,0.14408519379701465,-0.7451040813088416,0.025932825092598793
1790958014498532400,5.823532470703125,0.7320721657782793,-0.9928075070232152,-0.018302732072956858
1790958014508544500,5.83354443359375,0.98282095053792,-0.8685632877171039,0.2915796115156263
1790958014518556400,5.843556396484375,0.8421171793401241,-0.7212982583075761,0.8546118461888284
1790958014528568300,5.853568359375,0.16743571077883243,-0.6807885532647371,0.8159864205226302
1790958014538580500,5.86358056640625,0.2993289104681462,-0.21801088276207445,1.2030353346936404
1790958014548592400,5.87359228515625,0.38536118027977645,0.45869478510320183,1.0167902940265834
1790958014558604300,5.883604248046875,0.043611105124279854,1.0320575673937797,0.7930966163877398
1790958014568616400,5.893616455078125,-0.40830081490576264,1.0452665930569172,0.8789879433587193
1790958014578628400,5.90362841796875,-0.8341945696473121,0.9441612572759389,1.1474932610180228
1790958014588641300,5.913641357421875,-0.7565384985148906,0.9702467156469822,1.0526552420035005
1790958014598653400,5.9236533203125,-0.37456571856439114,0.5562964966773987,0.6517962675362825
1790958014608665300,5.933665283203125,0.5924982753932476,0.40240474260449405,0.34025519695524126
1790958014618677500,5.943677490234375,1.6965730312496423,0.46937341550588607,0.1609607426110655
1790958014628686300,5.953686279296875,2.0939099690705536,0.5032675018012523,-0.2591458435637876
1790958014638698200,5.9636982421875,1.7335487169474362,0.3659615563482046,-0.4083788851106539
1790958014648710100,5.973710205078125,0.949112742203474,0.031322774502635,-0.1917886462688446
1790958014658722300,5.983722412109375,0.42949484797343607,-0.4858873279333114,-0.3067178151430562
1790958014668734200,5.993734130859375,0.5192400008283555,-0.8773176720589398,-0.34075269814860076
1790958014678746000,6.00374609375,0.8362327974766492,-0.9515712412714957,-0.5570841033911332
1790958014688758300,6.01375830078125,1.2005033319979905,-0.31826573919355866,-0.8124118499714881
1790958014698770200,6.023770263671875,0.654594300756976,0.16976503050923347,-0.9034127750411629
1790958014708782000,6.033781982421875,-0.6947796692162752,0.1353214936375618,-0.6627583910554647
1790958014718795300,6.043795166015625,-1.44370126298666,-0.17094050402939318,-0.21688359576519578
1790958014728807200,6.05380712890625,-1.7553332632541656,-0.6696703624010085,0.22589860380459575
1790958014738819300,6.0638193359375,-2.0979630438536403,-0.7297913613647222,0.4498245923619717
1790958014748831200,6.073831298828125,-1.811864128771424,-0.6499556081056594,0.263674280773662
1790958014758843400,6.083843505859375,-1.1096703839063644,-0.32793080863952634,0.3336625572245568
1790958014768855300,6.093855224609375,-0.9805350315578282,0.6145908647358417,0.4046050656603649
1790958014778867200,6.1038671875,-1.3019846614845096,1.0001029247283935,0.2048455866428092
1790958014788879400,6.11387939453125,-1.5624271572627126,0.6081272216796875,0.46251748519651587
1790958014798891300,6.123891357421875,-1.013953828491643,-0.06834756003916263,0.407259489159286
1790958014808903200,6.133903076171875,0.09960369904637337,-0.7674953613370656,0.14316267212461678
1790958014818915300,6.143915283203125,1.0562233097486198,-1.1937836683541536,0.1004187417563051
1790958014828927200,6.15392724609375,1.904391313560307,-0.36619302701652046,-0.11491886667590588
1790958014838939400,6.163939453125,2.176668185647577,0.5468716657280922,-0.4706915854323655
1790958014848952300,6.173952392578125,1.4950918430060147,1.367785898041725,-0.5230146970614791
1790958014858964200,6.183964111328125,0.7115297284871339,1.114833465757966,-0.6112690999019891
1790958014868976400,6.193976318359375,0.7572732425302267,0.3904617913544178,-0.5847746588712558
1790958014878988300,6.20398828125,1.00141517637074,0.09930267027318478,-0.26596385301556436
1790958014889000400,6.21400048828125,0.6697277916766703,-0.06430091499686241,-0.12680086325267328
1790958014899012400,6.224012451171875,0.22377193050682542,-0.06379179643094539,0.024450897705461827
1790958014909024300,6.234024169921875,0.11140870313048362,0.016043372306227682,0.21885058498922735
1790958014919036400,6.244036376953125,0.18494623302817342,-0.22620354156792163,0.2575182240956463
1790958014929048300,6.25404833984375,0.16703750524148345,-0.6055220076173543,0.30592571491729464
1790958014939060200,6.264060302734375,0.012199994751065969,-0.4398515529453754,0.8704241131529211
1790958014949072400,6.274072265625,-0.5255537140198051,0.2507926239013672,1.1784244058545679
1790958014959084300,6.284084228515625,-1.5039920655593275,0.7718067947953939,0.9894157456930727
1790958014969096400,6.294096435546875,-1.7363029840916395,0.06950549790263176,0.6282213306814431
1790958014979108400,6.3041083984375,-1.8727755474604666,-0.12080255441963672,1.2776223736442625
1790958014989121300,6.314121337890625,-1.5410126133121549,-0.2496194884687662,0.9732685476861893
1790958014999133400,6.324133544921875,-0.8615887725293636,-0.43995325975418087,0.5601956960730254
1790958015009145300,6.334145263671875,0.10231631900593638,-0.3329869229853153,0.37943080385010686
1790958015019157500,6.344157470703125,0.6607154870510101,-0.2810124055981636,0.13650219132211058
1790958015029169400,6.35416943359375,1.1127163274735212,-0.1408633456736803,-0.3339971594737842
1790958015039181300,6.364181396484375,1.0007628499418497,0.32602702084481716,-0.3354030807489529
1790958015049193500,6.374193359375,0.3453881393969059,0.3079600337564945,-0.242772910509631
1790958015059205400,6.384205322265625,-0.1646001950919628,0.1936532710969448,-0.12386654510013759
1790958015069217300,6.39421728515625,0.02234787927791476,0.19646423686444758,-0.2282867410501465
1790958015079229400,6.4042294921875,0.43647871551141143,-0.696309363001585,-0.5798188630947843
1790958015089241300,6.414241455078125,0.9944266326576471,-1.4702578460007905,-0.7479771525271236
1790958015099253500,6.42425341796875,1.7542334853187203,-1.2795792068004608,-0.9636539663184434
1790958015109265400,6.434265380859375,1.9739483955197035,-0.2483820556282997,-0.9839122529059648
1790958015119278000,6.444278076171875,1.404244135736674,1.496057473167777,-0.5784595939729362
1790958015129290200,6.454290283203125,-0.4941643040217459,2.5340584591358897,0.2610953701963648
1790958015139302100,6.46430224609375,-2.73456524938941,2.6744810753047465,1.0424662948139012
1790958015149314300,6.474314208984375,-2.1474417989023027,0.5751303764849901,0.6311166137315333
1790958015159326200,6.484326171875,-0.5390361497968434,-0.5965811607927084,0.28255466660410167
1790958015169338000,6.494338134765625,-0.035828415358811615,-1.1980085925728081,0.03630242607872933
1790958015179350300,6.504350341796875,0.43988297099694607,-1.3014397409528493,-0.5128675066543743
1790958015189362200,6.514362060546875,0.8706590909525752,0.46883682441115376,-0.4417410199537873
1790958015199374000,6.5243740234375,0.20315628184899687,1.4517331782728433,-0.25926336899623276
1790958015209386200,6.53438623046875,-0.6052475745901466,0.5191138902306557,0.4632359356641769
1790958015219398100,6.544398193359375,0.18368132765889167,-0.40290976951718327,0.2603311808908358
1790958015229410300,6.554410400390625,-0.5276952560931444,-0.5400561404943466,0.2998569529302418
1790958015239422200,6.564422119140625,-0.41242827009931204,-0.261617384776473,-0.09270195683389902
1790958015249434000,6.57443408203125,-0.34491073114350435,0.3547299682378769,-0.44837632978241887
1790958015259447300,6.584447265625,-0.0203343474984169,0.2581599377989769,-0.6013330314949155
1790958015269459200,6.594459228515625,0.24558745647370814,0.3411351581275463,-0.45193559316657483
1790958015279471400,6.604471435546875,0.6089093119680881,0.49205987908840176,-0.35469065914079545
1790958015289483300,6.614483154296875,0.23120222663804887,0.6433750606715679,0.04429242018563673
1790958015299495200,6.6244951171875,-0.34455358826890586,0.39646190855205055,0.4352245507318526
1790958015309507300,6.63450732421875,-0.4363106654681265,-0.018871873730421065,0.2855053879021667
1790958015319519200,6.644519287109375,0.1398303493641317,-0.18456980093121528,0.030221279534138737
1790958015329531100,6.65453125,0.3391808091893792,0.1008218426644802,-0.007352499920967966
1790958015339543300,6.664543212890625,-0.09382233916595578,0.5504483551710844,0.05985628361292183
1790958015349555200,6.67455517578125,-0.799096222128719,0.7580179234176874,0.1713804846155457
1790958015359567400,6.6845673828125,-0.862135446626693,0.27862229559123514,0.22869822619417682
1790958015369579300,6.694579345703125,-0.3482477666117251,0.08698913214504718,0.13695846545593812
1790958015379591200,6.704591064453125,-0.22812077336609363,-0.047695817154645916,0.14020055264970288
1790958015389603300,6.714603271484375,-0.18357611371874807,0.023212533283233642,0.07438572595855221
1790958015399616300,6.7246162109375,-0.31143735447824,0.1864379328906536,0.08219873779704794
1790958015409628400,6.73462841796875,-0.8323658929154276,0.5564537330657243,0.22920613918369634
1790958015419640300,6.744640380859375,-1.2514032058909534,0.6847241391479969,0.45087541658915575
1790958015429652200,6.75465234375,-1.0953514973051846,0.24311960505545138,0.11085607421640306
1790958015439664400,6.764664306640625,-0.7022931135863065,0.13127718668282032,-0.25831359399072823
1790958015449676300,6.77467626953125,-0.619625936293602,0.5384381839036941,-0.2679256363415159
1790958015459688400,6.7846884765625,-0.7856035572186112,0.8825929821133613,0.07444326483206823
1790958015469700400,6.794700439453125,0.0801762372598052,0.9469956039190291,0.5140132791560142
1790958015479712300,6.804712158203125,0.8333286004677415,0.689315558591485,0.5359721591163427
1790958015489724400,6.814724365234375,0.6285647372916341,0.28120179069042206,0.6724453070070594
1790958015499736300,6.824736328125,1.03829529273957,-1.310899643215537,-0.1710498096227646
1790958015509748200,6.834748291015625,1.9071882508024571,-1.283946754360199,-0.262660208360292
1790958015519760400,6.844760498046875,1.6775658407017588,-0.5311883589059114,-0.038995263625588264
1790958015529772300,6.854772216796875,1.0189558014973998,-0.04163374063670635,0.017604009219072757
1790958015539784200,6.8647841796875,0.7557350731775164,0.6815718125969171,0.015314089917298405
1790958015549797400,6.87479736328125,0.5990148176804184,1.4019313287496566,-0.06555332621075212
1790958015559809300,6.884809326171875,-0.134219816005975,1.8147025670677421,0.03964813804375007
1790958015569821400,6.894821533203125,-0.6771161483623087,1.6763614333480596,0.22254129273332654
1790958015579833300,6.904833251953125,-0.8564286132872104,0.7875672585070133,0.30134483513412996
1790958015589845500,6.914845458984375,-0.8747358388721942,-0.17073767493367195,0.3892799611587077
1790958015599857400,6.924857421875,-0.8745166431635618,-0.6031219607383013,0.4683673802684992
1790958015609869300,6.934869384765625,-0.6473968635335564,-0.8420821080267429,0.27844246377861126
1790958015619881500,6.944881591796875,-0.4587222576320171,-0.6690449239790439,0.16488116745781153
1790958015629893000,6.95489306640625,-0.3433909742303192,-0.34478783541619773,0.08814001921322197
1790958015639905000,6.964905029296875,-0.21305501392036674,0.038192660272121426,0.001638615786191076
1790958015649917000,6.9749169921875,0.08838584720045328,0.274206232714653,0.730587041787058
1790958015659929000,6.98492919921875,-0.6359412574090063,-0.18238894976079462,-0.09572773439586162
1790958015669941000,6.99494091796875,-0.2914791468158364,-0.6760042415976524,-0.2623772814993746
1790958015679953000,7.004952880859375,-0.13711539131700992,-1.075925350692868,-0.21815765255531294
1790958015689965000,7.014965087890625,0.012778817552328108,-1.015040381619334,-0.45085371621400117
1790958015699978000,7.02497802734375,0.2389389583699405,-0.42036067053377624,-0.43840150026753544
1790958015709990100,7.034990234375,0.22624957266673446,0.051126960647106166,-0.363581456278637
1790958015720002000,7.045001953125,0.07707330280840397,0.38063364030122754,-0.16176789427548646
1790958015730014200,7.05501416015625,0.03870338627323508,0.6542360619038343,0.17948595832828432
1790958015740026000,7.065026123046875,0.08008855897635221,0.5433031595915556,0.1554017385107465
1790958015750038000,7.0750380859375,-0.04517769685387611,0.2517939098984003,-0.11740671970257535
1790958015760050200,7.08505029296875,-0.9784534029781817,-0.2044897224098444,-0.36778270736075935
1790958015770062000,7.09506201171875,-1.257773033183813,-1.05900636459589,-0.8509786773182452
1790958015780074000,7.105073974609375,-0.21364391972422597,-0.6950625778108834,-0.19857474447870627
1790958015790086100,7.115086181640625,-1.8321876626148819,-0.46958267434239387,0.523824259878695
1790958015800098000,7.12509814453125,-0.7541893050402403,-0.2459855158805847,0.21008608111217617
1790958015810110200,7.135110107421875,-0.03668240183964371,-0.14530103586018084,-0.4193643529728055
1790958015820122000,7.1451220703125,-0.11326295269504189,0.06581015051603317,-0.9553519288539886
1790958015830134000,7.155134033203125,-0.5622453220792114,0.41869536767005916,-1.1407579614136367
1790958015840146200,7.165146240234375,-0.24164792506769298,0.28924072023928166,-0.3210744399387389
1790958015850158000,7.175157958984375,0.59711892093122,-0.039170565393567086,0.6006325916079804
1790958015860171000,7.1851708984375,1.00391400744915,-0.15228081174492836,0.7196728490628301
1790958015870183000,7.195182861328125,1.000245548069477,-0.1871604019463062,0.3733339848123491
1790958015880194800,7.20519482421875,0.4555126479357481,-0.17530805158913135,-0.03092415797333233
1790958015890207000,7.21520703125,-0.27886662574112414,-0.07571896559000015,-0.3233099804384634
1790958015900219000,7.225218994140625,-0.49069823534637685,-0.03467676110565662,-0.19364711535079404
1790958015910230800,7.235230712890625,-0.15915785790756343,-0.04933773914277553,0.2180198697861284
1790958015920243000,7.245242919921875,0.11126710270270705,-0.012189034965634345,0.10392497804528102
1790958015930254800,7.2552548828125,0.1410550688534975,0.12904957376122475,-0.051060576313431374
1790958015940267000,7.26526708984375,-0.03523439498841762,0.1268634618937969,0.0341582308240002
1790958015950279000,7.27527880859375,-0.1345411569148302,0.041000703430175776,-0.025203104312252252
1790958015960290800,7.285290771484375,0.0037333413094282147,-0.011632570126652716,-0.028590358430636113
1790958015970303000,7.295302978515625,0.11988310148715972,-0.029922260054945943,-0.06118870582703966
1790958015980315000,7.30531494140625,0.06950257529318332,0.003524666994810104,0.05079331737910397
1790958015990326800,7.315326904296875,-0.040400399449467654,-0.010772153905034065,0.2708151472379453
1790958016000339000,7.3253388671875,-0.04843523734509945,0.02752572030723095,0.04173201794598717
1790958016010350800,7.335350830078125,0.07632832965999842,0.007976970228552817,0.05214540327491704
1790958016020364000,7.345364013671875,0.22856501000225543,0.03723579793870449,0.05993562789286952
1790958016030376000,7.3553759765625,0.13062982868999243,0.04546937327682972,0.07051668423917144
1790958016040387800,7.365387939453125,-0.024089608378708362,0.005081833308935165,0.10295289987642317
1790958016050400000,7.37539990234375,-0.028262217888236043,-0.025513795962929724,0.15256667948160318
1790958016060412000,7.385411865234375,0.014916998624801635,-0.027968203377723693,0.08611135379667394
1790958016070424000,7.395424072265625,0.08864157552719115,0.033545126727223394,-0.38289584961216894
1790958016080436000,7.40543603515625,0.09806056125760078,-0.018827450066804884,-0.6201373929470777
1790958016090448000,7.41544775390625,0.21472923074290154,-0.07124795765578747,-0.5242971015548333
1790958016100460000,7.4254599609375,0.15034955142140388,-0.09611059623360634,-0.02217535855548922
1790958016110472000,7.435471923828125,0.24977175642102956,0.07357727738618851,0.5135610418764874
1790958016120483800,7.44548388671875,0.26069953927919265,-0.011665303352475166,0.5439322512753307
1790958016130496000,7.45549609375,0.24444617748409508,0.030317981374263763,0.2846875139143318
1790958016140508000,7.4655078125,0.16439502790868282,-0.03934650648236274,-0.2584936997979879
1790958016150520000,7.47552001953125,0.011340309181809425,-0.0028857845693826675,-0.07715338230729103
1790958016160532000,7.485531982421875,-0.02340659455060959,-0.025748189240694046,0.11675465813516639
1790958016170543900,7.4955439453125,0.1822673692077398,-0.007932546564936638,0.4442543544815853
1790958016180556000,7.50555615234375,0.24162615162730217,-0.020718962901830673,0.36451464547552165
1790958016190569000,7.51556884765625,0.17928630757033823,-0.0032610476225614546,0.15315580448117105
1790958016200581000,7.5255810546875,0.3751034787029028,-0.023753216031193732,0.019518567286257164
1790958016210593000,7.535593017578125,0.6144657770514488,-0.07956628866791725,0.11912776220836677
1790958016220605000,7.54560498046875,0.16867986562103032,-0.10628419972360134,0.004997812853869982
1790958016230617000,7.5556171875,-0.14878595536649225,-0.001522095000743866,-0.13343177090082317
1790958016240629000,7.56562890625,-0.11869330718070267,0.10884265203475951,-0.2068718865723349
1790958016250641000,7.575640869140625,0.17863164305388926,0.09976911874115467,-0.14934718771213665
1790958016260653000,7.585653076171875,0.2920607460960746,0.09834171628654002,-0.3586045081162825
1790958016270665000,7.5956650390625,0.04374094204902649,0.12909750455617905,-0.22534283308535813
1790958016280677000,7.605677001953125,-0.22836817225590347,-0.01282499478161335,0.19197602206710726
1790958016290689000,7.61568896484375,-0.0015068974316120147,-0.12867314166426658,0.3607463059179485
1790958016300701000,7.625700927734375,0.21065219056233764,-0.09819733937978745,0.1169773335756734
1790958016310713000,7.635713134765625,0.061032268589735025,-0.06541384467482567,-0.2537784895780496
1790958016320725000,7.64572509765625,-0.2136013957567513,-0.12006722588241099,0.16102504001893103
1790958016330737000,7.65573681640625,-0.20285905246809124,-0.038299627777934074,0.03437127306977054
1790958016340749000,7.6657490234375,0.49747488987445826,-0.040462943291664125,0.011283706456632353
1790958016350762000,7.675761962890625,0.6106278063237667,0.018231822261214257,-0.01577228658015374
1790958016360774100,7.685774169921875,0.2903495582640171,0.06359773516356945,0.08077548179458827
1790958016370786000,7.6957861328125,0.014202712875604628,0.049479777961969375,0.09417749101286753
1790958016380798000,7.7057978515625,0.12267010185718535,0.008828618621826172,-0.05119494784940034
1790958016390810000,7.71581005859375,0.2697584595255554,-0.04778992517888546,-0.17661635770872233
1790958016400822000,7.725822021484375,0.13923822868987917,-0.034518940195441244,-0.2076270705875009
1790958016410834200,7.735834228515625,-0.07716010430902243,-0.04879588735103607,-0.03464658059652429
1790958016420846000,7.74584619140625,0.04048617803677916,-0.031002456507086752,0.03831397596369497
1790958016430858000,7.75585791015625,0.12337328169047831,-0.023751462465524672,0.09255107712112366
1790958016440870100,7.7658701171875,-0.024517186141014096,-0.16074059705436228,-0.18225913110235706
1790958016450882000,7.775882080078125,1.0959767895966768,-0.4843599722355604,2.120018662186712
1790958016460894000,7.78589404296875,1.397296070164442,0.010047346761822699,1.4323932486392557
1790958016470906000,7.795906005859375,0.09640680270120501,0.08160802362859249,-2.0659251068189737
1790958016480918000,7.80591796875,0.06973609178811312,-0.06134557232260704,-1.019980029978603
1790958016490930200,7.81593017578125,-0.6882214797444641,0.19904373196363448,-0.06885643200990743
1790958016500942000,7.825942138671875,-0.6012745793059467,0.13364742294549942,0.019588250972004607
1790958016510954000,7.8359541015625,-0.13480769889652727,0.07072071891129017,0.17667278233738615
1790958016520967000,7.845966796875,0.22757760640010236,-0.17568389916419982,-0.01908646176259499
1790958016530978800,7.855978759765625,0.12386954077482223,-0.3072100921720266,-0.09289115012991242
1790958016540991000,7.865990966796875,-0.38563188697993755,-0.2863198643565178,0.13680979596655815
1790958016551003000,7.8760029296875,-0.29992125033810735,-0.21777239783108232,0.09031061385110951
1790958016561014800,7.886014892578125,0.02009118639230728,-0.12805588654875755,-0.10486483444496988
1790958016571027000,7.89602685546875,0.18606909957826137,-0.003793547064065933,-0.2666036670227535
1790958016581038800,7.906038818359375,0.21808453252017496,0.06177168878018856,-0.398861370909214
1790958016591050800,7.91605078125,-0.11212649601101875,0.17062486220896242,-0.22980934750754384
1790958016601063000,7.92606298828125,-0.023351064971089363,0.20927403407692907,-0.2631442655501887
1790958016611074800,7.93607470703125,0.4154185379564762,0.024692542707920075,-0.32284597965590656
1790958016621087000,7.9460869140625,1.0190294512555003,-0.2986275572657585,-0.730300041539222
1790958016631099400,7.956099365234375,1.72198775075227,-0.5144669412076472,-1.0689653754871338
1790958016641111300,7.966111328125,1.4317735093057156,-0.14571137022674083,-0.46022729190010575
1790958016651123200,7.976123291015625,-0.2822562681794166,0.7402841138064861,1.0579551019772886
1790958016661135400,7.98613525390625,-0.9655740476608276,0.24893384429216384,0.5932386819643899
1790958016671147300,7.996147216796875,-0.899126768285036,0.5375216535806655,1.0458597366444766
1790958016681159200,8.0061591796875,-1.1768689200408755,0.165427878087759,0.6891556918546557
1790958016691172400,8.01617236328125,-0.4586433471769094,-0.14100304640531539,0.07256214552689343
1790958016701184300,8.026184326171874,0.0853184224538505,-0.13090484623908996,-0.04770118744950741
1790958016711196400,8.036196533203125,0.1331026485443115,-0.3509650627464056,0.09629968906491994
1790958016721208300,8.046208251953125,0.16273133248016236,-0.31105624620616434,0.3088592841511592
1790958016731220200,8.05622021484375,0.46477089014649386,0.11014730489253997,0.4956772293353453
1790958016741232400,8.066232421875,0.4441564105324447,0.4049900829225778,0.31810349783655256
1790958016751244300,8.076244384765625,0.641806203919649,0.056145665591955184,-0.41751459692027415
1790958016761256400,8.08625634765625,0.5543282653443515,-0.10039338811933994,-0.8344144229430704
1790958016771268400,8.096268310546876,0.011246201157569885,-0.32344986383318897,-0.771528854636848
1790958016781280300,8.1062802734375,0.33868951854109763,-0.19995383254587648,-0.46631753506660456
1790958016791292400,8.11629248046875,0.4162608339995146,0.14980653058588503,0.13666381162460892
1790958016801304300,8.12630419921875,0.11437135232836007,0.21936171284914016,0.2709632687380537
1790958016811316200,8.136316162109376,0.5906751516193152,-0.11371756459474563,0.12617931555453687
1790958016821328400,8.146328369140624,1.1029540812633931,-0.4273790248632431,0.023107428940944374
1790958016831340300,8.15634033203125,1.0788432839661837,-0.2666904502570629,-0.034794250005483626
1790958016841352400,8.1663525390625,0.43353287131786344,0.05164309347569942,-0.10420490923151374
1790958016851364400,8.1763642578125,0.12161679341197013,-0.01765080750286579,-0.39106315478105097
1790958016861377300,8.186377197265625,0.32725437068268654,0.23419278675615787,-0.7373498139202594
1790958016871389400,8.196389404296875,0.4520017172053456,0.18591303223371505,-0.9899273484770208
1790958016881401300,8.2064013671875,0.598337795201689,0.032788170880079265,-0.8085140388153493
1790958016891413500,8.21641357421875,0.3011561989605427,0.13775778087377546,-0.19762071342319248
1790958016901425400,8.22642529296875,-0.014411971712112425,0.29540041191279887,0.11530625855829565
1790958016911437300,8.236437255859375,-0.2288556635119021,0.22472996188402175,0.10360413032677024
1790958016921449500,8.246449462890626,-0.5260534802354871,-0.13861644352972508,-0.1269990344395861
1790958016931461400,8.25646142578125,-0.6043782444097101,-0.29463468823730943,-0.4941371237538755
1790958016941473300,8.266473388671875,-0.20013240398317575,-0.3088485070288181,-0.6826535434190183
1790958016951485400,8.2764853515625,0.34272549605891106,-0.06040215399265289,-0.8004432528235018
1790958016961497300,8.286497314453126,0.47230274695605035,0.19470599502027033,-0.7813261721603572
1790958016971509500,8.296509521484374,0.6499174680523574,0.24573767859935758,-0.7532104500707238
1790958016981521400,8.306521484375,1.061194668420404,0.7453355519771575,-0.4439315522680059
1790958016991533300,8.316533203125,0.5863612339429557,0.41659927217364306,-0.7909371733315289
1790958017001545500,8.32654541015625,-1.063119060611725,0.1379746384948492,0.3133838123708963
1790958017011557400,8.336557373046874,-1.205562368953228,0.1004471641331911,0.6010942543029785
1790958017021570600,8.346570556640625,-0.6550754353374243,0.048834465795755386,0.554990747841075
1790958017031582500,8.35658251953125,-0.3436598542995751,0.130240829372406,0.4236222296129912
1790958017041594400,8.366594482421876,-0.3829717278599739,0.041592239582538604,0.31165684244781733
1790958017051606500,8.3766064453125,-0.3414934700459242,0.2001198367625475,0.3798000390212983
1790958017061618400,8.386618408203125,-0.10393208363950251,0.3149327953785658,0.5036574509669095
1790958017071630300,8.39663037109375,-0.10994111479595303,0.3140852386385202,0.6848351983070373
1790958017081642500,8.406642578125,-0.28026903988495466,0.4231336423784494,0.7235800856344401
1790958017091654400,8.416654296875,-0.1283849723726511,0.5612859755277634,0.6881793941684067
1790958017101666600,8.42666650390625,-0.126475339359045,0.7318085464060307,0.7881503190919756
1790958017111678500,8.436678466796875,-1.3422097043670713,0.48128246448636053,0.8319234098449348
1790958017121690400,8.4466904296875,-2.577768421524763,0.05359773467481136,0.8753579893585294
1790958017131702500,8.45670263671875,-2.635656546869874,0.02997252893745899,0.7244342182457446
1790958017141714400,8.46671435546875,-2.2687295064903794,-0.07511690804362296,0.3646558805771172
1790958017151726300,8.476726318359376,-1.5791206640407442,-0.44373570090234277,0.016494842400774357
1790958017161738500,8.486738525390624,-0.9738993929356337,-0.2351496490895748,-0.06458338520005345
1790958017171750400,8.49675048828125,-0.6600558540984988,-0.07706511950194835,-0.09071070995144545
1790958017181762600,8.506762451171875,-0.7360229492306709,-0.013359832310676573,0.04605937505923211
1790958017191775200,8.516775146484376,-1.1366989683464168,0.20661270591318606,0.09863083542622625
1790958017201787100,8.526787109375,-1.3318600136578083,0.28054771069586276,0.27507176350280643
1790958017211799300,8.53679931640625,-1.37454647821784,0.33565584993362424,0.27409341998994347
1790958017221811200,8.546811279296875,-1.3127785888299346,0.3401204281270504,0.1465901988878846
1790958017231823400,8.5568232421875,-1.191468377149105,0.3279629573434591,-0.021712942375242707
1790958017241835300,8.566835205078124,-1.015465913555026,0.3175052762150764,-0.21978344539254902
1790958017251847200,8.57684716796875,-0.9591226795643567,0.1250906070023775,-0.451905490289256
1790958017261859300,8.586859375,-0.9740263803161681,-0.12778700647950172,-0.6434414769712835
1790958017271871200,8.596871337890626,-0.9983633875846862,-0.3155880444169044,-0.7292224754355847
1790958017281883100,8.606883056640624,-1.0964569743290542,-0.06358546020388603,-0.4281524203885346
1790958017291895300,8.616895263671875,-1.1694219650357962,0.2517278589248657,-0.6717928344476968
1790958017301907200,8.6269072265625,-0.6171271052151918,0.20292378826737403,0.5222857982650398
1790958017311919400,8.63691943359375,-0.19413491713404654,-0.05877776766121387,0.6892504574660211
1790958017321931300,8.64693115234375,0.12575930004417896,0.08168927217125892,-0.13353629072122275
1790958017331943200,8.656943115234375,1.1180921752929687,0.0500578701108694,0.146163351777941
1790958017341955300,8.666955322265625,1.6739298222869634,-0.09869827463924884,0.32513058346174656
1790958017351967200,8.67696728515625,0.11014935071915387,-0.01348725808262825,-0.08431845163106917
1790958017361979100,8.686979248046875,-1.024034566066414,-0.011546645408868789,0.05160670698806643
1790958017371992300,8.696992431640625,-0.755664930550754,-0.028225977531075475,0.5419138241250068
1790958017382004200,8.707004150390626,0.010045447065681218,0.03663023326098919,-0.06258052094504236
1790958017392016400,8.717016357421874,0.2662313083127141,0.1732365060120821,-0.34958602947816253
1790958017402028300,8.7270283203125,-0.005386076952517032,0.20968612200915812,-0.40758784433081746
1790958017412040200,8.737040283203125,-0.37262422910779713,0.20625497851669788,-0.4858278528310358
1790958017422052400,8.74705224609375,-0.18437237866297362,0.09232815508544444,-0.306704919128865
1790958017432064300,8.757064208984374,0.17549509859383106,0.036468320697546006,-0.3169663470327854
1790958017442076400,8.767076416015625,0.14373846271857618,-0.007085574346780777,-0.21171755477152762
1790958017452088300,8.77708837890625,-0.13313903503194452,-0.0524848049968481,-0.29734913482777775
1790958017462100200,8.787100341796876,-0.17227511363402007,-0.005838789156079292,-0.3922016207590699
1790958017472112400,8.7971123046875,0.11668269801065326,0.09336451239585876,-0.5437286184620111
1790958017482124300,8.807124267578125,0.18768457195088267,0.2331061605632305,-0.5533758599903434
1790958017492136200,8.81713623046875,-0.15048589115217328,0.34164661478102204,-0.5286312948342412
1790958017502148400,8.8271484375,-0.38217619356811044,0.2785761183619499,-0.5765672774203121
1790958017512160300,8.83716015625,-0.480235293520987,0.147712188655138,-0.6270708454720676
1790958017522172400,8.84717236328125,-0.5384191869422793,-0.038918636459112164,-0.6048796180605888
1790958017532184300,8.857184326171875,-0.4597495548531413,-0.061823711228370666,-0.38201493859179314
1790958017542197500,8.867197509765624,-0.25988515415638686,0.15970248617827892,-0.11346600098647176
1790958017552209400,8.87720947265625,-0.17741379169672727,0.42496027328372,-0.16381920078210532
1790958017562221300,8.88722119140625,-0.22270488579720257,0.39027415982782837,-0.1158445666860789
1790958017572233500,8.8972333984375,-0.2755477104514837,0.2357370935887098,-0.1592730087198317
1790958017582245400,8.907245361328124,-0.25329642341583963,0.009692541974782943,-0.08137742974311113
1790958017592257300,8.91725732421875,-0.19778233372569082,-0.2187193232923746,-0.0008218377768993377
1790958017602269400,8.92726953125,-0.2404638298496604,-0.3818365863502025,0.21701281163543462
1790958017612281300,8.93728125,-0.3934834772631526,-0.5379238046407699,0.82507412847206
1790958017622293200,8.947293212890624,-0.44696109268963335,-0.33077041597962376,1.110286469978094
1790958017632305200,8.95730517578125,-0.17746639866679906,0.24123919813632963,0.7881577717460692
1790958017642317300,8.9673173828125,0.039682022047042846,0.5511345838695764,0.354803837191686
1790958017652329200,8.9773291015625,-0.257624515748024,0.4572533541232347,0.47758419449031353
1790958017662341000,8.987341064453124,-0.38811099044457076,0.25064064821004867,0.531728530197218
1790958017672353300,8.997353271484375,-0.238087602237612,-0.01372866562306881,0.6105607324369251
1790958017682365200,9.007365234375,-0.459921696549654,-0.276837750262022,0.6006395693380385
1790958017692377000,9.017377197265626,-0.5468862787753344,-0.26621348039507864,0.4242750674985349
1790958017702389200,9.02738916015625,-0.15595117082074283,0.09543605797290801,0.11766959015615283
1790958017712401200,9.037401123046875,-0.13404986626654863,0.32430034318268297,0.06564144288562238
1790958017722414300,9.047414306640626,-0.3437317504920065,0.39325755955278874,0.02480688980259001
1790958017732426200,9.05742626953125,-0.17505349230617284,0.4591939667969942,-0.031917671655863525
1790958017742438100,9.067438232421875,-0.33009427028372884,0.40422611281275744,-0.09267623787075281
1790958017752450300,9.0774501953125,-0.6054308222025633,0.24431027614474296,-0.1846637628249824
1790958017762462200,9.087462158203126,-0.623716566608101,0.11304419537782669,-0.316674743675068
1790958017772474400,9.097474365234374,-0.6009978081911802,-0.11628653829991817,-0.40098011662885547
1790958017782486300,9.107486328125,-0.4610891328938305,-0.2982482025593519,-0.37915932996496554
1790958017792498200,9.117498291015625,-0.5346376225769519,-0.26014029796123506,-0.24903723160140215
1790958017802510300,9.12751025390625,-0.6587684446364641,-0.1524532457023859,-0.171681750850752
1790958017812522200,9.137522216796874,-0.4057216120675206,0.02332709957361221,-0.16136742371581494
1790958017822534100,9.1475341796875,-0.32306407938599585,0.10357260267734526,-0.15580803602300583
1790958017832546300,9.15754638671875,-0.33557869304418564,0.19916998869180677,-0.0661162207905203
1790958017842558200,9.16755810546875,-0.12491875756680965,0.2936076832771301,0.03915631767250597
1790958017852570400,9.1775703125,-0.23275661647319792,0.30672143187224865,0.08713913507498801
1790958017862582300,9.187582275390625,-0.44852600391879677,0.18514146333932877,0.12339417834803461
1790958017872594200,9.19759423828125,-0.21607611530721185,0.08403203590512275,0.03738514328151941
1790958017882606300,9.2076064453125,-0.001623217287659645,0.016420973446965217,0.08983589987829327
1790958017892618200,9.2176181640625,-0.31248072605133054,-0.13425532571077345,0.1722853427670896
1790958017902630100,9.227630126953125,-0.16700842527747153,-0.1559644686937332,0.24452377276495096
1790958017912643000,9.23764306640625,0.2407102058261633,-0.1507189692556858,0.40680619243383404
1790958017922655200,9.2476552734375,0.050649260132759805,-0.2619534848630428,0.500224480843544
1790958017932667100,9.257667236328125,0.021168460234999655,-0.2462988196134567,0.5002499075457454
1790958017942679000,9.267678955078125,0.4494213453233242,-0.15950199517011643,0.3865006326384842
1790958017952691200,9.277691162109376,0.5586980048611759,-0.03750643157362938,0.177713139969483
1790958017962703000,9.287703125,0.4646427337221801,-0.00429039067029953,0.10069405156634748
1790958017972715300,9.29771533203125,0.6086946463041008,0.06412731199562549,0.1740918807324022
1790958017982727200,9.30772705078125,0.7588312856271863,0.31175708795189855,0.43296705412864683
1790958017992739300,9.3177392578125,0.723754711548984,0.15981354533731937,0.6199090640839189
1790958018002751200,9.327751220703124,0.5530193747028708,-0.0830973854035139,0.6089493517175316
1790958018012763100,9.33776318359375,0.6927630686968564,-0.2833580919414759,0.40302725841701026
1790958018022775300,9.347775390625,0.932640915352106,-0.3272878345608711,-0.0013777180939912796
1790958018032787200,9.357787109375,0.8535214936688542,-0.31092648234665393,-0.26065759983360764
1790958018042799400,9.36779931640625,0.7089771213948727,-0.2772223656654358,-0.339785862410441
1790958018052811300,9.377811279296875,0.8243103044927119,-0.05005202489197254,-0.4080127186793834
1790958018062823200,9.3878232421875,1.1253028373241425,0.005146715238690376,-0.40198330232203006
1790958018072835300,9.39783544921875,1.1842715975128113,0.019583821392059324,-0.5784980262871832
1790958018082847200,9.40784716796875,1.0848705814316868,-0.04479308145046234,-0.6704470458619296
1790958018092860200,9.417860107421875,1.1321060875982045,-0.07624620433449744,-0.7033285941138863
1790958018102872000,9.4278720703125,1.0951871005237102,-0.15840192497372627,-0.600538520116359
1790958018112884200,9.43788427734375,0.7623455773584544,-0.21566344285309313,-0.5333689908806234
1790958018122896100,9.447896240234375,0.6138032214894891,-0.2536889298647642,-0.5994459025740623
1790958018132908000,9.457907958984375,0.7668108862042426,-0.21314473803043366,-0.6389744145598262
1790958018142920200,9.467920166015626,0.7125093871742486,-0.08518705115914345,-0.570550062957406
1790958018152932000,9.47793212890625,0.5303798190020025,0.04331307202577591,-0.44461905960813164
1790958018162944000,9.487944091796875,0.6086150051966309,0.10040507855713367,-0.33512904958054424
1790958018172956200,9.4979560546875,0.6265595349490642,0.008358663022518158,-0.33081001733765003
1790958018182968000,9.507968017578126,0.4462162656717002,-0.09893383696079254,-0.46276817202195525
1790958018192980200,9.517980224609374,0.49863721165210007,-0.1698410183548927,-0.5920439557544886
1790958018202992000,9.5279921875,0.502680641824007,-0.1981499979943037,-0.6435546550221741
1790958018213004000,9.538004150390625,0.47133711679428814,-0.21620237203538417,-0.5155488912254571
1790958018223016200,9.54801611328125,0.5794412254214286,-0.18226503112018108,-0.34113486586660147
1790958018233028000,9.558028076171874,0.626085341566056,-0.07333820793330668,-0.09477584049850701
1790958018243040000,9.5680400390625,0.5008852828398347,-0.017691139513254163,0.020053776991367338
1790958018253052200,9.57805224609375,0.4863318568304181,-0.022917349728941917,0.017472089935094116
1790958018263064000,9.58806396484375,0.6731101275913417,-0.12135025143027305,-0.0767332571990788
1790958018273076200,9.598076171875,0.735079969292134,-0.21402093634307384,-0.19656696658656
1790958018283088100,9.608088134765625,0.6474123533636331,-0.3199859871149063,-0.14244550029858946
1790958018293101000,9.61810107421875,0.6705120739221573,-0.31633214078247546,-0.13674275861233473
1790958018303113200,9.62811328125,0.7256465166449546,-0.3313432474315166,-0.10029153518006205
1790958018313125000,9.638125,0.7776197188578545,-0.1799625993967056,0.21315949720814822
1790958018323137300,9.64813720703125,0.8349477261021733,-0.02992109101116657,0.5817629463672638
1790958018333149200,9.658149169921876,0.8332521742306649,0.003996960681676864,0.9601593291357159
1790958018343161000,9.6681611328125,0.762740860286355,-0.013351649004220962,0.8102364786937832
1790958018353173200,9.67817333984375,0.5854978951118887,-0.014886603486537933,0.3719862234652042
1790958018363185200,9.68818505859375,0.5213578697651624,-0.13188275136053562,0.44425490247085686
1790958018373197000,9.698197021484376,0.4707075867190957,-0.1972737996816635,0.45611777422204614
1790958018383209200,9.708209228515624,0.3011792875751853,-0.23304595480859278,0.5265129144407809
1790958018393221000,9.71822119140625,0.20508008951842785,-0.18323767554461956,0.5307445606611668
1790958018403233300,9.7282333984375,0.3217487590037286,-0.05413315672576427,0.6183586928367615
1790958018413245200,9.7382451171875,0.3026050825946033,0.10233633888065814,0.577896334066987
1790958018423257000,9.748257080078124,0.15309475847631693,0.20445289753079413,0.6011212884403765
1790958018433269200,9.758269287109375,0.05396598346531391,0.1800590455085039,0.4661239121906459
1790958018443281200,9.76828125,-0.015543606090545654,0.0987175638616085,0.2643973708838224
1790958018453293000,9.77829296875,-0.13635142120718954,0.1318967798858881,0.23333792349249124
1790958018463305200,9.78830517578125,-0.3839695067256689,0.04697451714277267,0.5539106244541704
1790958018473317000,9.798317138671875,-0.43941564574614167,-0.23329671469926833,0.44830373947024343
1790958018483330300,9.808330322265626,-0.3063376932516694,-0.1196750116944313,-0.13983283358216284
1790958018493342200,9.81834228515625,-0.31235330027937885,0.07204115386009216,0.25007775363028045
1790958018503354000,9.82835400390625,-0.43919425808042284,0.15173545282185077,0.4526829774677753
1790958018513366300,9.8383662109375,-0.503836826121807,0.21496143206357954,0.6438162285678088
1790958018523378200,9.848378173828126,-0.40218744659200306,0.06921323695778846,0.6059001932799816
1790958018533390300,9.858390380859374,-0.3708230249047279,0.10918635090589522,-0.017814765892922878
1790958018543402200,9.86840234375,-0.4469857887394726,0.3232669084817171,-0.3470261158622801
1790958018553414100,9.8784140625,-0.4780620411351323,0.40857437115013595,0.05736863151565194
1790958018563426300,9.88842626953125,-0.4632838664591312,0.25752280893921853,0.5911019987292587
1790958018573438200,9.898438232421874,-0.3267057968892157,-0.03106266226172447,0.5688057035081088
1790958018583450000,9.9084501953125,-0.26150340300798414,-0.14828385106325148,0.2364505025550723
1790958018593462300,9.918462158203125,-0.4129612079322338,-0.15720014796853066,-0.3049358636297285
1790958018603474200,9.92847412109375,-0.3919727804392576,0.004446458014845848,-0.5164662983313203
1790958018613486300,9.938486328125,0.00028539281263947484,0.1858458122164011,-0.24881197147816417
1790958018623498200,9.948498291015625,-0.10042802104130387,0.2957961332321167,-0.01119081770852208
1790958018633510700,9.9585107421875,-0.39404900219142436,0.3335410497367382,0.10363310069292783
1790958018643522600,9.9685224609375,-0.29111206706911325,0.2955184853345156,0.1555830681607127
1790958018653534500,9.978534423828124,-0.45576282330453394,0.11541969233751297,0.00027647885382175443
1790958018663546600,9.988546630859375,-0.5530740274995565,-0.11310732374191283,-0.01603665030449629
1790958018673559600,9.9985595703125,-0.2877154103681445,-0.11194821683466434,-0.010615648169070482
1790958018683571500,10.008571533203124,-0.41860944295227526,-0.020550620597600936,0.15547756195962428
1790958018693583600,10.01858349609375,-0.6122201900817453,0.010937573599815368,0.2659440158039331
1790958018703595500,10.028595458984375,-0.15455299446061252,0.14265724335312843,0.3459723690256476
1790958018713607400,10.038607421875,-0.17954466624557971,0.17647943345606326,0.5026189747646451
1790958018723619600,10.04861962890625,-0.24332068058550357,0.2582166364222765,0.2555778123512864
1790958018733631500,10.058631591796875,-0.27308453520834447,0.3476011392712593,0.09509016714468597
1790958018743643600,10.0686435546875,-0.5804536173343658,0.1155447800219059,0.26235461300984025
1790958018753655600,10.078655517578126,-0.3291923530079424,0.05095043503642082,0.25767843789234757
1790958018763667500,10.08866748046875,-0.5624176099061966,0.06688274818360805,0.42327158954441546
1790958018773679600,10.0986796875,-0.8679726283475756,0.04859539634287357,0.28741058220267296
1790958018783691500,10.10869140625,-0.6523750903375446,0.11278759026825427,0.7646974011816083
1790958018793703700,10.11870361328125,-0.5927719777680933,0.2166805109411478,0.43493323963508007
1790958018803715600,10.128715576171874,-0.7642014343582093,0.21267887408435343,0.19323869894668458
1790958018813727500,10.1387275390625,-0.71239964318946,0.19155249942541122,0.44068888055235145
1790958018823739600,10.14873974609375,-0.6981320483841001,0.2276069786250591,0.34925884335041046
1790958018833751600,10.15875146484375,-0.7405028711237013,0.1746872893422842,0.36442075664699075
1790958018843763700,10.168763671875,-0.6717325556278229,0.08785188645422458,0.19597981434836984
1790958018853775600,10.178775634765625,-0.8295838609814643,0.0995452468574047,0.22160364655703305
1790958018863787500,10.18878759765625,-0.7760261660560965,0.16331775406599044,0.019398235692083834
1790958018873799700,10.198799560546876,-0.6752849874123931,0.27427871342897414,0.07142024548277258
1790958018883812400,10.208812255859375,-0.9373357951700687,0.2792646851480007,-0.06661883655041456
1790958018893824500,10.218824462890625,-0.9725644910700618,0.2740963425993919,-0.3033510786563158
1790958018903836400,10.22883642578125,-0.895976779821515,0.24934125604927537,-0.38654140304028983
1790958018913848300,10.238848388671874,-1.130630169826746,0.20215748006999493,-0.3640241585448384
1790958018923860500,10.248860595703125,-1.1170691158555448,0.08881634757220745,-0.4377370450094342
1790958018933872400,10.258872314453125,-0.9723030636548995,0.09715046067535876,-0.398348452951014
1790958018943884300,10.26888427734375,-1.0323585961669683,0.1221148060619831,-0.432399775634706
1790958018953896400,10.278896484375,-1.0283921767540276,0.2543710669100284,-0.5462279609970748
1790958018963908400,10.288908447265625,-0.8244786467969417,0.35171208172142504,-0.5134850905634463
1790958018973920500,10.29892041015625,-0.9584089783370494,0.37872634537518024,-0.5992737608775496
1790958018983932400,10.308932373046876,-0.7531585006877779,0.5295616344869136,-0.5566700061649084
1790958018993944300,10.3189443359375,-0.5648967133708298,0.6188783327966928,-0.5214275740005075
1790958019003956500,10.32895654296875,-1.0734139523938298,0.41551147693693635,-0.38145109416395423
1790958019013968400,10.338968505859375,-1.114790503399074,0.0723445207208395,-0.4525796632237732
1790958019023980300,10.348980224609376,-0.7608676137603819,0.005605564922094345,-0.4458171833515167
1790958019033992400,10.358992431640624,-0.9510773202747106,-0.05277765046358108,-0.30342034450024363
1790958019044004400,10.36900439453125,-1.110872453172505,-0.029772622451186177,-0.1789072451248765
1790958019054016500,10.3790166015625,-0.8186698143877088,0.15204992559850214,-0.045935091092437506
1790958019064028400,10.3890283203125,-0.4401141494043171,0.2562894677519798,0.01017068088054657
1790958019074041300,10.399041259765625,-0.5916624090909958,0.2778442969560623,0.017078560572862625
1790958019084053500,10.409053466796875,-0.8040233032673597,0.4101631016463041,-0.09354556805118917
1790958019094065400,10.4190654296875,-0.3090881610035896,0.4908867436558008,-0.163146050760895
1790958019104077600,10.42907763671875,-0.2931903346478939,0.38042145885527134,-0.200003224645555
1790958019114089500,10.43908935546875,-1.0413134715169667,0.03753448862433433,-0.06559153932929039
1790958019124101400,10.449101318359375,-1.1867181138820946,-0.22825053722560404,-0.09092398737594484
1790958019134113500,10.459113525390626,-0.6576689589619636,-0.22313947782218455,0.06334259135872125
1790958019144125400,10.46912548828125,-0.6767717188388109,-0.1379752230167389,0.2799418537572026
1790958019154137300,10.479137451171875,-0.7845213149398564,0.11098200215101242,-0.1833873131483793
1790958019164149500,10.4891494140625,-0.3437451944954693,0.5028899006605148,0.03394289387315511
1790958019174161400,10.499161376953126,-0.10095701335147023,0.7900748574137687,0.2555838037006557
1790958019184173600,10.509173583984374,-0.02271861228644848,1.1386696838974952,0.4389015587441623
1790958019194185500,10.519185546875,-0.18150456814169882,0.9602209961950778,0.6225083598621189
1790958019204197400,10.529197265625,-0.7844917965844274,0.4113514346480369,0.5211686308033764
1790958019214209500,10.53920947265625,-0.740880910655856,-0.2786012528032064,0.36506270781233907
1790958019224221400,10.549221435546874,-0.621357436261326,-0.4917956751942634,0.16027502536922691
1790958019234233300,10.5592333984375,-1.1784937447637318,-0.7104308273345231,0.44398573014065623
1790958019244245500,10.56924560546875,-1.394694363233447,-0.707795802655816,1.123598956015706
1790958019254257400,10.57925732421875,-0.6173030463039875,0.18703297617435455,1.280024320219457
1790958019264269600,10.58926953125,0.06496770834252238,1.0422954682916403,0.5575935507506132
1790958019274281500,10.599281494140625,0.08838643172234296,1.3105804942637682,0.8004955675326287
1790958019284294400,10.60929443359375,-0.20668372532278298,1.3192320027530193,1.0048052572004496
1790958019294306600,10.619306640625,-0.9136109284505247,0.7968202400207519,0.9906855464331805
1790958019304318500,10.629318359375,-0.9114467361539602,0.16061550936996935,1.1594459299445152
1790958019314330600,10.63933056640625,-0.5083797302484512,-0.1821767683148384,0.8319860998176037
1790958019324342500,10.649342529296876,-1.3774363544404506,-0.44694355703294275,0.31987580473870036
1790958019334354400,10.6593544921875,-2.027479056307673,-0.8065905234068632,0.48708501328527926
1790958019344366600,10.66936669921875,-1.9812842913657425,-0.6867015767008066,0.9484658226020634
1790958019354378500,10.67937841796875,-1.4712025795049966,-0.17747838136553765,2.090946589220315
1790958019364390400,10.689390380859376,-0.9025114422872662,0.5245201331883669,2.019536572870612
1790958019374402600,10.699402587890624,-0.9482375668041407,1.0969827517688273,1.1453601214468478
1790958019384414500,10.70941455078125,-1.758181200031191,0.7683166145920753,1.4549346046626568
1790958019394426600,10.719426513671875,-2.265519750663638,0.17365151655375957,1.1385212153375148
1790958019404438500,10.7294384765625,-1.8614701634615658,-0.3328741102606058,1.0143060759954154
1790958019414450400,10.739450439453124,-1.3129602290071547,-0.28032208524644375,1.2823887112632393
1790958019424462600,10.749462646484375,-1.323093062095344,-0.11899696630239485,1.0883753746822475
1790958019434474500,10.759474609375,-1.5918229092255234,0.11659750394523143,0.7310733639992774
1790958019444486400,10.769486328125,-1.1659025587379932,0.4635498239189386,0.7076268758296966
1790958019454498600,10.77949853515625,-1.334814771810174,0.2958914103001356,0.3545863219834864
1790958019464510500,10.789510498046875,-1.3765643939115106,0.06605097353458404,0.2804972956828773
1790958019474522600,10.799522705078125,-1.1534037271708248,0.2064969705790281,0.03234071937352419
1790958019484534500,10.809534423828126,-1.0014199986763297,0.37135435530245303,0.13146781388409434
1790958019494547500,10.81954736328125,-0.6591514526046812,0.5698544819086789,-0.18526837765462695
1790958019504559600,10.8295595703125,-0.21838556129336356,1.0727075576901435,-0.025623613012954592
1790958019514571500,10.839571533203125,-0.002329319730401039,0.8464619305461645,-0.23590061358734965
1790958019524583700,10.849583740234374,-0.4774865793347358,0.2879460042536259,-0.17958361001648007
1790958019534595600,10.859595703125,-1.5383962933339177,-0.24368425320088863,0.20449600602015852
1790958019544607500,10.869607421875,-1.787475829707086,-0.7639239325910806,-0.18433380021825432
1790958019554619600,10.87961962890625,-0.7069622744411229,-0.48283729271292686,-0.043151378658041355
1790958019564631600,10.889631591796874,0.022612667693942785,0.16545944226980208,0.08586677705161273
1790958019574643500,10.8996435546875,-0.705606475917995,0.6579565437316894,-0.4324937375284731
1790958019584655600,10.909655517578125,-0.9161417621023953,0.7210644495517015,-0.2202146033514291
1790958019594667500,10.91966748046875,-0.5787862686440348,0.6402858624845743,-0.10685462002269923
1790958019604679700,10.9296796875,0.10428951877504587,1.3818050710439682,0.1026256041508168
1790958019614691600,10.939691650390625,0.9696782681092619,1.071717962130904,0.6017795331533998
1790958019624703500,10.949703369140625,-0.563460250826925,0.4424813169270754,0.484879685260728
1790958019634715400,10.95971533203125,-1.7486077543914318,-0.8461521339446306,0.5066045372694731
1790958019644727600,10.9697275390625,-0.6328697410091757,-1.117328789705038,0.11718545990101992
1790958019654739500,10.979739501953125,1.1322481264173985,-0.05432897155880928,0.42348333259895443
1790958019664751400,10.98975146484375,1.2853577902019022,1.2149071204036475,0.48776868470050394
1790958019674763500,10.999763427734376,1.179894259211421,2.256888700440526,1.1149878526020796
1790958019684775400,11.009775390625,0.8660837458610534,1.1864426579415797,1.0240274056732654
1790958019694787300,11.019787353515625,-0.28799656539708374,-0.24754735836982725,0.5853974304120987
1790958019704800300,11.02980029296875,-0.9299943463660776,-1.6416121915280817,0.7586262645743787
1790958019714812200,11.039812255859376,-0.7860074618443846,-2.0757453668266534,0.8590424490474164
1790958019724824300,11.04982421875,-0.3213356481581926,-2.639740016791224,1.7462847182713448
1790958019734836200,11.059836181640625,-0.1664661350943148,-2.5239339554846287,2.030084854891896
1790958019744848100,11.06984814453125,-0.20861849277764558,0.013792378509044646,1.5452281851805745
1790958019754860300,11.0798603515625,0.5581333567157387,1.4479863929599524,1.7070656375609337
1790958019764872200,11.0898720703125,1.2062275548636912,1.630932392081618,1.9774720396012067
1790958019774884400,11.09988427734375,0.984262381517887,1.469729438212514,2.1300281611561775
1790958019784896300,11.109896240234375,0.6222783504985272,0.37659985474050045,2.5850667618393897
1790958019794908200,11.119908203125,0.44349721597135067,-0.9973428123652934,2.332496022349596
1790958019804920300,11.12992041015625,0.43762598585039375,-2.0582459504932165,2.391749736959487
1790958019814932200,11.13993212890625,0.4427224322065711,-2.3336247341185805,2.2506045056045054
1790958019824944400,11.1499443359375,1.1546370683580636,-1.278860829398036,2.8680832007363435
1790958019834956300,11.159956298828124,1.7230869441658256,0.5138362420886755,3.0428067304357884
1790958019844968200,11.16996826171875,1.8864485373735427,1.7576976542979479,3.1649367340669032
1790958019854980400,11.17998046875,1.1887597027122974,1.300325057709217,2.2860867378741503
1790958019864992300,11.1899921875,0.1736833729967475,0.5854542021006346,1.9005344920016825
1790958019875004400,11.20000439453125,0.31221812959238887,-0.5489771135747432,2.178509575730562
1790958019885016300,11.210016357421875,-0.15889467692673206,-1.2582137626886367,1.903380090691149
1790958019895028500,11.220028564453125,-1.0639182481653988,-1.6885323481351135,2.6303736380308864
1790958019905040400,11.230040283203126,-1.3901453216269613,-2.1642712070196866,3.750834880542755
1790958019915053300,11.24005322265625,-0.8940141014464199,-1.5005845952033996,4.5669341137900945
1790958019925065200,11.250065185546875,0.6086275724172592,0.04206979396641254,2.7108430130183696
1790958019935077400,11.260077392578125,1.2474432162187994,0.4182195668518543,1.8707307437598704
1790958019945089300,11.27008935546875,-0.03043152475133538,0.09607143326699732,2.2365908855602146
1790958019955101200,11.28010107421875,-0.9792701261885464,-0.42135494226813314,1.0922300773490219
1790958019965113300,11.29011328125,0.7282295188754797,0.020259528696537018,0.4678048510149121
1790958019975125200,11.300125244140625,1.9405869547963142,-0.15259996069669723,0.04671400304306298
1790958019985137400,11.310137451171874,1.1895584518745541,-0.10737199496030807,0.5275590259602293
1790958019995149300,11.3201494140625,-0.3452086911767721,-0.5329740732789039,0.39793775325827296
1790958020005161200,11.3301611328125,-0.14086451471745967,-0.3324789734631777,0.5553247290357947
1790958020015173400,11.34017333984375,1.2585321809880434,-0.33765549931824207,0.803975226341933
1790958020025185300,11.350185302734374,1.7447972561925649,0.08266367016136646,0.5253498254781589
1790958020035197200,11.360197265625,0.7911836954385042,0.3452484386652708,0.8725647053781896
1790958020045209300,11.370209228515625,0.6890132146440446,0.22335575092136858,0.4092542431730777
1790958020055221200,11.38022119140625,0.9820305308125913,-0.29576982974708077,-1.2836504017621277
1790958020065233400,11.3902333984375,0.8358819382123649,-0.4892261169672012,-1.8143083070531487
1790958020075245300,11.400245361328125,1.115458027397096,-0.9575748656004667,-1.805784516596794
1790958020085257200,11.41025732421875,1.5829174259752035,-0.7975397864669561,-1.1956167290002107
1790958020095269400,11.420269287109376,0.7579499727480113,-0.06613631373047828,-0.8247076332472264
1790958020105281300,11.43028125,-0.017702829951047896,-0.17244506337344645,-1.682562479945272
1790958020115293200,11.440293212890625,0.4958123634897172,0.6146159991770982,-1.5589200259245932
1790958020125305300,11.450305419921875,0.9922563028812408,1.2327379606485367,-2.0893834315568207
1790958020135318300,11.460318359375,0.23951427403986453,0.08523439743220805,-1.9435610021710394
1790958020145330400,11.470330322265625,-1.000460067602992,-0.8804255749464035,-1.2573729279503225
1790958020155342300,11.48034228515625,-1.1490291653484106,-1.0132570053339003,-0.08240976846553384
1790958020165354200,11.490354248046875,0.17622019799798727,0.3134633073478937,1.4483378367461264
1790958020175366400,11.500366455078124,1.505102949410677,0.9333680605828761,0.5878728075496852
1790958020185378300,11.51037841796875,0.10264555096030235,-0.012660744130611419,-0.050538712430372834
1790958020195390500,11.520390380859375,-1.1959886310525238,-1.2053712302953004,0.4276732585694641
1790958020205402400,11.53040234375,0.3483487427681684,-1.2738327721029519,-0.37933285990096627
1790958020215414300,11.540414306640624,1.7600702286481855,-0.379288070911169,0.0092331808347255
1790958020225426400,11.550426513671875,1.0580874961853026,-0.4249363078862428,0.7492924729093908
1790958020235438300,11.560438232421875,0.4926771342039108,0.09905132586061954,0.9210926625080406
1790958020245450200,11.5704501953125,0.6797226775988936,1.1645552357822655,1.0819443917866796
1790958020255462400,11.58046240234375,0.9331547100931405,0.5672820010721683,1.067338651068136
1790958020265474300,11.590474365234375,-0.21036942809820175,-0.6360206062555313,0.5905210570361464
1790958020275486500,11.600486572265625,-0.8540548698931932,-0.9724211370766163,0.6098191933546215
1790958020285498400,11.610498291015626,-0.5182552275747061,-0.52852410813272,1.219749226672575
1790958020295510300,11.62051025390625,-0.7914633891627192,-1.2027958268493413,1.5097192110344766
1790958020305522400,11.6305224609375,-1.7379396453827618,-1.1971873393177985,1.1818120755314827
1790958020315534300,11.640534423828125,-0.92328067407161,1.3041647820025681,0.8569472303338348
1790958020325546200,11.650546142578126,1.144395660328865,2.4822686506658793,1.270683514291793
1790958020335558400,11.660558349609374,0.33921967989504337,2.5177017830967903,0.6574300356395543
1790958020345570300,11.6705703125,-1.1380138503372668,1.262474927264452,0.28185397098883985
1790958020355582200,11.680582275390625,-0.9330442354559898,-0.41948038056790826,-0.31688290653303264
1790958020365595400,11.690595458984374,0.6141793613255023,-0.738922762325406,-0.76609323945418
1790958020375607300,11.700607177734375,1.3321411686867475,-0.9079249917685985,-1.3381746036320925
1790958020385619500,11.710619384765625,0.6636041942298412,0.41050153982043264,-1.5550968143746255
1790958020395631400,11.72063134765625,0.7938222272485495,1.0564321301937103,-1.4763793976210058
1790958020405643500,11.7306435546875,0.4306315969184041,0.12231178993880748,-1.7451495767615735
1790958020415655400,11.740655517578125,0.11209288600236177,-0.25186580609083176,-1.238576457543671
1790958020425667300,11.750667236328125,0.44320787763595576,-0.396904976144433,-1.8434126748539506
1790958020435679500,11.760679443359376,0.503033108523488,0.2267185053527355,-1.8100981420122086
1790958020445691400,11.77069140625,-0.48546501086801286,0.39261867712736126,-1.7349354951307177
1790958020455703300,11.780703369140625,-1.2718969817347823,0.3202098589986562,-1.82054427883327
1790958020465715500,11.790715576171875,-1.5069085375279188,-0.11251169593632221,-2.221078843651712
1790958020475727400,11.800727294921876,-1.5454472347587347,-0.6967039152771234,-3.0191981835722923
1790958020485739500,11.810739501953124,-1.0425678554922342,-0.9050403762429952,-3.8601322906076905
1790958020495751400,11.82075146484375,-0.6618326545126736,-0.24652386054098605,-2.3009682267941534
1790958020505763300,11.830763427734375,-0.4992065359726548,0.7201654548853635,-0.7019153663150965
1790958020515775500,11.840775390625,0.47453182118237014,1.453290929108858,-0.8777953725732862
1790958020525787400,11.850787353515624,0.7675240029096603,1.148356965175271,-0.5711787162497639
1790958020535799300,11.86079931640625,-0.6209833422519266,0.38370997900664805,-0.934815629042685
1790958020545811500,11.8708115234375,-0.02944718988910317,0.44387949328720566,-1.274709993328899
1790958020555823400,11.8808232421875,2.1022502196535466,0.3635468964219093,-0.8994599457621574
1790958020565835300,11.890835205078124,1.1583584269687532,0.405053211286664,-1.1838501572303473
1790958020575847400,11.900847412109375,-0.20636603767573833,0.6601011545449494,-0.6773419199422002
1790958020585860400,11.9108603515625,-0.409215883924067,-0.001799158376455307,-0.7848436787620187
1790958020595872500,11.92087255859375,-1.1653894946493208,-0.2598188109219074,-0.7137178861811757
1790958020605884400,11.930884521484375,-2.0975340047866107,-0.36611177847385407,-0.4427615951731801
1790958020615896600,11.940896484375,-2.1635453769631683,-0.8981506167292594,-1.1235517558731138
1790958020625908500,11.950908447265626,-1.875356942255795,-1.3166291267782448,-2.5647271536439655
1790958020635923500,11.96092333984375,-1.8315207231387496,-0.3074976769417524,-3.1573557774186134
1790958020645935400,11.970935302734375,-1.6110704844005406,0.3070160309046507,-2.0744374990984795
1790958020655947500,11.980947509765626,-1.363691468334943,-0.2798299178153276,-1.359338241561502
1790958020665959400,11.99095947265625,-1.1526587540224194,-0.5211825131982565,-2.256364822696894
1790958020675971300,12.000971435546875,-0.14933029137626289,0.43144145199656486,-1.7070991014391184
1790958020685983500,12.0109833984375,1.0930727387182413,1.6626666699945927,-1.1031490923788398
1790958020695995400,12.020995361328126,0.969433645698428,1.4975024112790822,-1.3929073336862028
1790958020706007300,12.03100732421875,-0.1489665726304054,0.8521826462805271,-2.315022324979305
1790958020716019500,12.04101953125,0.5052615982279182,0.37746085548400876,-2.250456037044525
1790958020726031400,12.05103125,1.7412250967942178,1.7205132942855357,-2.818139604654908
1790958020736043500,12.06104345703125,1.3177214520595968,0.4973778592407703,-2.2938412975236773
1790958020746055400,12.071055419921874,-0.8507483756937086,-0.5286497803390026,-1.8666423054024577
1790958020756067300,12.0810673828125,-1.9219108958989382,-1.326724404335022,-1.3429972014829517
1790958020766079500,12.09107958984375,-1.5368373734541236,-1.446116507434845,-2.058149796642363
1790958020776091400,12.10109130859375,-0.42635333507731554,-1.4098591991394758,-3.714135381437838
1790958020786103300,12.111103271484374,-0.5570232035167515,-0.7776812397867441,-4.442474205906689
1790958020796115500,12.121115478515625,-1.2357079163700342,-0.15064824210703373,-5.130526320433616
1790958020806128400,12.13112841796875,-1.0918037416957318,-0.2782411873191595,-5.854917868581414
1790958020816140300,12.141140380859374,-0.22674860823005435,-0.19436112710535525,-4.28832029376626
1790958020826152400,12.15115234375,0.7517094709232449,0.514342438045144,-3.494011452044546
1790958020836164400,12.161164306640625,1.7117402052432298,0.6763210524618625,-3.1365964825063943
1790958020846176500,12.171176513671876,2.1164251677393913,0.9289765476256608,-2.7867764981418848
1790958020856188400,12.1811884765625,1.0298644412636757,0.20727438469231127,-3.0689488874301314
1790958020866200300,12.191200439453125,0.6722814216822386,-1.1455489220172166,-3.836315653951466
1790958020876212500,12.20121240234375,2.082891146928072,0.35732758351564403,-4.569285060830414
1790958020886224400,12.211224365234376,2.543245389676094,-0.3125046914488077,-2.9876091593489047
1790958020896236500,12.221236572265624,-0.08783975762501359,-1.9044447973132133,-2.346137009689212
1790958020906248400,12.23124853515625,-2.1545935703530907,-2.456011927381158,-1.9608678185418247
1790958020916260400,12.24126025390625,-1.9894350107260048,-2.8494670553326604,-1.3104922314584255
1790958020926272500,12.2512724609375,0.2048287451058626,-2.0815636977165934,-2.10379160387665
1790958020936284400,12.261284423828124,2.02360601426661,-0.5999199498265981,-2.725336525534093
1790958020946296600,12.271296630859375,1.4967846183985472,0.3014081278949976,-1.9857152595505116
1790958020956308500,12.28130859375,-0.6400529305115342,0.1059457615494728,-0.07097122764021624
1790958020966320400,12.2913203125,-1.1206693323045969,-0.9695902975648641,-0.19203021820606664
1790958020976332500,12.30133251953125,0.3733206869393587,-0.9204349292516708,-1.480505391509831
1790958020986344400,12.311344482421875,2.333577387845516,0.10779401976466178,-0.6307626126620918
1790958020996356400,12.3213564453125,1.6281347241871058,0.12203531108498572,-0.36326756802387533
1790958021006368500,12.331368408203126,-0.6867794642426073,-0.6506213785380125,0.139143207350187
1790958021016380400,12.34138037109375,-1.2773732211887836,-1.7929449087679385,0.8594089442722499
1790958021026392600,12.351392578125,-0.698255382502824,-2.3143472021967173,0.7857065792016684
1790958021036405200,12.3614052734375,-0.33597967506051063,-1.6052952619999645,0.1530675416758284
1790958021046417200,12.371417236328124,1.4402027533464132,0.24904548797309398,0.4855826824309304
1790958021056429300,12.38142919921875,2.584648244166374,1.539237858724594,1.5741400991491972
1790958021066441200,12.391441162109375,1.5431861579589545,1.9170359833389519,2.914381133791804
1790958021076453400,12.401453369140626,-0.186320590121299,-0.24374796608686447,2.162375602531433
1790958021086465300,12.41146533203125,0.46947380714043974,0.15956278544664382,-0.23431889735385775
1790958021096477200,12.421477294921875,3.048829059465229,2.119211583587527,0.3342008288197219
1790958021106489300,12.4314892578125,2.633599029818177,-0.45065176390111444,0.4127583057712763
1790958021116501200,12.441501220703126,-1.2181631995901465,-1.7263620203137398,-0.9147169899962841
1790958021126513200,12.45151318359375,-2.718839272469282,-3.2601784385114905,-0.3949233738731593
