time,seconds_elapsed,z,y,x
1790958008717811700,0.042811767578125,7.317578099060058,6.459406441497802,-1.3935750038146972
1790958008727823600,0.05282373046875,7.761552869415283,6.68431175994873,-1.4879963317871092
1790958008737835500,0.06283544921875,8.103175518798828,6.8572928298950195,-1.5007155281066893
1790958008747847700,0.07284765625,8.352621404266356,6.93989278717041,-1.4854524925231933
1790958008757859600,0.082859619140625,8.335263442230223,6.935104383850097,-1.3067851936340331
1790958008767871700,0.092871826171875,8.021174111938477,6.8679170997619625,-1.1454758567810057
1790958008777883600,0.102883544921875,7.737311577606201,6.877194631195068,-0.9449614677429199
1790958008787895600,0.1128955078125,7.984812174224853,6.280589505004882,0.16415245132446288
1790958008797907700,0.12290771484375,8.82996536026001,6.282834069061279,-1.0688614036560058
1790958008807919600,0.132919677734375,8.690802388763426,6.777984899902344,-1.3956699302673339
1790958008817931800,0.142931884765625,8.25505768661499,6.81823741531372,-1.012597664642334
1790958008827944400,0.1529443359375,7.8739307098388664,6.817339589691161,-0.5229834251403809
1790958008837956600,0.16295654296875,7.68703334274292,6.4178071876525875,-0.24914661026000975
1790958008847968500,0.172968505859375,7.4055650100708,6.126612410736084,0.10354922180175781
1790958008857980400,0.18298046875,7.187692658996582,6.0012160987854,0.6411971321105957
1790958008867992600,0.19299267578125,7.181856792449951,5.868337906646728,1.120336739349365
1790958008878004500,0.20300439453125,7.344213592529297,5.754014777374267,1.373224289703369
1790958008888016600,0.2130166015625,7.584232308959961,5.725433995056152,1.1635820068359375
1790958008898028500,0.223028564453125,7.653664157104492,5.823147350311279,0.8768763580322265
1790958008908040400,0.23304052734375,7.592462377166748,6.316801805114745,0.3757400230407715
1790958008918052600,0.243052490234375,7.422773334503173,6.533477055358886,0.2678513107299805
1790958008928064500,0.253064453125,7.422174784088134,6.544400600433349,0.646733723449707
1790958008938076400,0.263076416015625,7.312640058135986,6.617274113464355,0.22774843292236327
1790958008948088600,0.273088623046875,6.903381211853027,6.467636509704589,0.4563946914672851
1790958008958100500,0.2831005859375,6.710947253417968,6.3256304237365715,0.5565022483825683
1790958008968112600,0.293112548828125,6.769006643676757,6.187814190673827,0.8430582595825195
1790958008978124500,0.30312451171875,7.029525711822509,6.260388428497314,0.9651625442504882
1790958008988136400,0.313136474609375,7.378480603790282,6.565948415374756,0.4584896179199218
1790958008998148600,0.323148681640625,7.67416450881958,6.7556888969421385,-0.018704700469970702
1790958009008160500,0.333160400390625,7.700351089477539,6.704213561248779,-0.004339490509033203
1790958009018172400,0.34317236328125,7.512555896759033,6.62685092010498,-0.047285482788085934
1790958009028184600,0.3531845703125,7.160907527923584,6.675183866119385,-0.22086510314941404
1790958009038196500,0.363196533203125,6.7280059402465815,6.8697127510070795,-0.27667992935180663
1790958009048208600,0.373208740234375,6.589890431976318,6.575375584411621,-0.7433996154785156
1790958009058220500,0.383220458984375,6.724115362548828,6.400598863220215,-0.6382043800354004
1790958009068233500,0.3932333984375,7.379528067016601,6.578218698883056,-0.2072480812072754
1790958009078245600,0.40324560546875,7.868843031311035,6.619219402313232,-0.34835634155273437
1790958009088257500,0.413257568359375,7.724293106079101,6.625953094482422,-0.4176385520935058
1790958009098269700,0.423269775390625,7.544428706359863,6.759878749847411,-0.36840778045654293
1790958009108281600,0.433281494140625,7.372944012451171,6.731896517944335,-0.6055833824157715
1790958009118293500,0.44329345703125,6.95231270828247,6.6425628684997555,-0.8948328704833984
1790958009128305700,0.4533056640625,6.666804160308837,6.590638619995117,-1.0122983894348143
1790958009138317600,0.463317626953125,6.840982331085205,6.551583205413818,-0.8696937530517578
1790958009148329500,0.47332958984375,7.114819145965575,6.641515405273437,-0.7644985176086425
1790958009158341600,0.483341552734375,7.362020467376708,6.774094322204589,-0.7100304298400878
1790958009168353500,0.493353515625,7.506121479797363,6.781576202392578,-0.5237316131591797
1790958009178365700,0.50336572265625,7.557596815490722,6.693290016174316,-0.4171896392822265
1790958009188377600,0.513377685546875,7.471704830932617,6.721272248077392,-0.42601825790405273
1790958009198389500,0.523389404296875,7.286902390289306,6.758831286621094,-0.3574842353820801
1790958009208401700,0.533401611328125,7.249792264556884,6.79294866027832,-0.2645592834472656
1790958009218413600,0.54341357421875,7.474547945404052,6.830058786010742,-0.09711480484008789
1790958009228425500,0.553425537109375,7.64154351119995,6.853252614593505,-0.01945288848876953
1790958009238437600,0.563437744140625,7.607126862335204,6.89515114364624,-0.13467384338378904
1790958009248449500,0.573449462890625,7.327603818511962,6.881983034515381,-0.3651157531738281
1790958009258461700,0.583461669921875,6.669796912384033,6.752097594451904,-0.567575431060791
1790958009268473600,0.5934736328125,5.986102700805664,6.730100866699218,-0.736067372894287
1790958009278486500,0.603486572265625,5.993883856201172,6.81210227355957,-0.8295908752441405
1790958009288498700,0.613498779296875,6.551134292602539,6.62056614074707,-0.6271311973571777
1790958009298510600,0.623510498046875,7.343016491699219,6.287173559570312,-0.36212300109863277
1790958009308522800,0.633522705078125,8.014739694976805,6.16043050918579,-0.4746504791259765
1790958009318534700,0.64353466796875,8.249221820068358,6.242431916046142,-0.6781576202392577
1790958009328546600,0.653546630859375,8.117690366363524,6.459556079101562,-0.5430348640441894
1790958009338558700,0.663558837890625,7.974487179565429,6.67802698059082,-0.47764323120117186
1790958009348570600,0.673570556640625,7.840561524200439,6.751349406433105,-0.49949032135009763
1790958009358582500,0.68358251953125,7.66099639968872,6.775291423034668,-0.3815758895874023
1790958009368594700,0.6935947265625,7.468712078857421,6.795941412353515,-0.282815071105957
1790958009378606600,0.703606689453125,7.208193010711669,6.7742439598083495,-0.29224224014282224
1790958009388618800,0.71361865234375,6.9241808387756345,6.72291826171875,-0.33354221878051754
1790958009398630700,0.723630615234375,6.777236711883544,6.700771896362304,-0.3532943824768066
1790958009408642600,0.733642578125,6.843226895141601,6.668300536346435,-0.3242646873474121
1790958009418654700,0.74365478515625,7.140257538604736,6.572981382751465,-0.27578210372924805
1790958009428666600,0.75366650390625,7.4226236968994135,6.485144109344482,-0.3725976333618164
1790958009438678500,0.763678466796875,7.589020712280273,6.470329986572265,-0.3919008842468262
1790958009448690700,0.773690673828125,7.6170029441833496,6.493374177551269,-0.2834136215209961
1790958009458702600,0.78370263671875,7.548768196868896,6.5209074966430665,-0.2711433380126953
1790958009468714800,0.79371484375,7.334786423492432,6.553079581451415,-0.3155857063293457
1790958009478726700,0.8037265625,7.16958650894165,6.544400600433349,-0.2995744827270508
1790958009488739600,0.813739501953125,7.074566630554199,6.549039366149902,-0.25737667846679685
1790958009498751700,0.823751708984375,7.0573583061218255,6.577620148468017,-0.28431144714355466
1790958009508763600,0.833763671875,7.024288395690918,6.606350568389892,-0.34401685104370117
1790958009518775800,0.84377587890625,6.95231270828247,6.599616876220702,-0.39923312683105466
1790958009528787700,0.85378759765625,6.918045697021484,6.5777697860717765,-0.4547486778259277
1790958009538799600,0.863799560546875,6.946925754547118,6.553079581451415,-0.5321113189697265
1790958009548811800,0.873811767578125,7.087884377288818,6.552780306243896,-0.6233902572631835
1790958009558823700,0.88382373046875,7.250839727783203,6.559813273620605,-0.6711246528625487
1790958009568835600,0.893835693359375,7.344961780548095,6.534075605773926,-0.7121253562927246
1790958009578847700,0.90384765625,7.28435855102539,6.525097349548339,-0.7046434761047363
1790958009588859600,0.913859619140625,7.149086157226562,6.564152764129639,-0.680551821899414
1790958009598871800,0.923871826171875,7.061548159027099,6.643460694122314,-0.6471826362609863
1790958009608883700,0.9338837890625,7.044788747406005,6.700771896362304,-0.6386532928466796
1790958009618895600,0.9438955078125,7.013813763427734,6.682815383911133,-0.6482300994873047
1790958009628907500,0.953907470703125,7.029675349426269,6.697928781890869,-0.6416460449218749
1790958009638919700,0.963919677734375,7.106888352966308,6.712443629455566,-0.7142202827453613
1790958009648931600,0.973931640625,7.226598435974121,6.679972269439697,-0.7924807495117187
1790958009658943700,0.98394384765625,7.359177352905273,6.665756697082519,-0.8059481338500976
1790958009668955600,0.99395556640625,7.398980955505371,6.689249800872802,-0.769286920928955
1790958009678967600,1.003967529296875,7.305906365966797,6.7365352836608885,-0.6688800888061524
1790958009688979700,1.013979736328125,7.231087564086914,6.759429837036133,-0.6031891807556152
1790958009698992400,1.023992431640625,7.117362985229492,6.721721160888672,-0.5728127471923827
1790958009709004500,1.034004638671875,6.929118879699707,6.629095484161376,-0.5551555099487304
1790958009719016400,1.044016357421875,6.782025115203857,6.529287202453613,-0.5017348854064941
1790958009729028400,1.0540283203125,6.6325371490478515,6.460154629516601,-0.481384171295166
1790958009739040500,1.06404052734375,6.602310353088378,6.439205364990234,-0.5662286926269531
1790958009749052400,1.074052490234375,6.769904469299316,6.399551399993896,-0.6189011291503906
1790958009759064600,1.084064697265625,7.081749235534668,6.356904682922363,-0.43798926620483397
1790958009769076500,1.094076416015625,7.644386625671387,6.056133099365234,-0.8029553817749023
1790958009779088400,1.10408837890625,7.746140196228027,6.164919637298584,-1.6989853530883787
1790958009789100500,1.1141005859375,7.511209158325195,6.665756697082519,-1.6531962463378904
1790958009799112400,1.124112548828125,7.381922268676758,6.72261898651123,-1.483058290863037
1790958009809124400,1.134124267578125,7.31653063583374,6.621912879180908,-1.3697826248168945
1790958009819136500,1.144136474609375,7.230489013671875,6.627599108123779,-1.3157634498596191
1790958009829148400,1.1541484375,7.254879943084716,6.693140378570556,-1.3217489540100096
1790958009839160300,1.164160400390625,7.3389762763977044,6.717680945587158,-1.3911808021545409
1790958009849172500,1.17417236328125,7.424568985748291,6.654683514404296,-1.3916297149658203
1790958009859184400,1.184184326171875,7.574805139923095,6.627449470520019,-1.2955623733520507
1790958009869196500,1.194196533203125,7.711723547363281,6.554575957489013,-1.1405378158569335
1790958009879208400,1.20420849609375,7.721449991607666,6.650194386291504,-1.2216413970947264
1790958009889220400,1.214220458984375,7.587524336242676,6.801328366088867,-1.1350012245178223
1790958009899233500,1.224233642578125,7.516147199249267,6.7736454093933105,-1.087865379333496
1790958009909245400,1.234245361328125,7.562684494018554,6.660070468139648,-1.1336544860839843
1790958009919257600,1.244257568359375,7.470807005310058,6.60769730682373,-1.1581950531005858
1790958009929269500,1.25426953125,7.346757431793212,6.5668462409973145,-1.1487678840637205
1790958009939281400,1.264281494140625,7.247547700500488,6.542156036376952,-1.1239280418395996
1790958009949293600,1.27429345703125,7.217620179748534,6.533477055358886,-1.178545767211914
1790958009959305500,1.284305419921875,7.2069959098815914,6.5306339408874505,-1.2594997108459471
1790958009969317600,1.294317626953125,7.240814008331299,6.5482911781311035,-1.1854290969848633
1790958009979329500,1.30432958984375,7.287800215911865,6.614730274200439,-1.107767180633545
1790958009989341400,1.314341552734375,7.339125914001464,6.561309649658202,-1.1962030044555663
1790958009999353600,1.324353515625,7.368903797149658,6.4667386840820305,-1.3135188858032225
1790958010009365500,1.334365478515625,7.327903093719482,6.4190042884826655,-1.3099275833129882
1790958010019377400,1.34437744140625,7.260416534423828,6.4178071876525875,-1.2044330726623536
1790958010029389600,1.3543896484375,7.006481520843505,6.402693789672851,-1.0600327850341795
1790958010039401500,1.3644013671875,6.868814925384521,6.434416961669921,-1.3757681289672852
1790958010049413400,1.374413330078125,7.55894355392456,6.416909362030029,-1.8511667961120604
1790958010059425500,1.384425537109375,7.774421703338622,6.452223836517334,-1.7657237243652342
1790958010069437400,1.3944375,7.423072609710693,6.642413230895996,-1.2394482719421387
1790958010079449600,1.40444970703125,7.219116555786132,6.538864009094238,-1.0468646759033202
1790958010089462500,1.414462646484375,7.0747162681579585,6.457161877441406,-0.9714473236083984
1790958010099474700,1.424474609375,6.789806270599365,6.506691924285889,-0.8592191207885742
1790958010109486600,1.434486572265625,6.633883887481689,6.531980679321289,-0.8975263473510742
1790958010119498500,1.44449853515625,6.760178025054931,6.471676725006103,-1.0703577796936035
1790958010129510700,1.4545107421875,6.9162500457763665,6.486041934967041,-1.1752537399291991
1790958010139522600,1.4645224609375,7.2535332046508785,6.577620148468017,-1.2798504249572753
1790958010149534500,1.474534423828125,7.445368612670898,6.609792233276367,-1.324741706085205
1790958010159546600,1.484546630859375,7.343315766906738,6.584653115844726,-1.2274772636413573
1790958010169558500,1.49455859375,7.279719785308838,6.58839405593872,-1.0571896705627442
1790958010179570700,1.50457080078125,7.400028418731689,6.607846944427489,-0.9298480697631836
1790958010189582600,1.51458251953125,7.513752997589111,6.608295857238769,-0.8394669570922851
1790958010199594500,1.524594482421875,7.521983065795898,6.614730274200439,-0.8436568099975585
1790958010209606700,1.534606689453125,7.362469380187988,6.599766513824463,-0.8008604553222656
1790958010219618600,1.54461865234375,7.156568037414551,6.62041650314331,-0.7055413017272949
1790958010229630500,1.55463037109375,7.069628589630127,6.635829176330566,-0.7261912910461426
1790958010239642600,1.564642578125,7.178564765167236,6.599018325805663,-0.8028057441711425
1790958010249654500,1.574654541015625,7.372944012451171,6.611587884521484,-0.7757213378906249
1790958010259666400,1.58466650390625,7.3802762550354,6.61383244857788,-0.8283937744140625
1790958010269679600,1.5946796875,7.2702926162719725,6.576123772430419,-0.9142857589721679
1790958010279691500,1.60469140625,7.248445526123047,6.539911472320556,-0.8608651344299316
1790958010289703700,1.61470361328125,7.276278120422363,6.561608924865722,-0.7873930709838867
1790958010299715600,1.624715576171875,7.312939333343506,6.628796208953857,-0.7231985389709472
1790958010309727700,1.634727783203125,7.277175946044921,6.73563745803833,-0.6630442222595214
1790958010319739600,1.64473974609375,7.227496261596679,6.731597242736816,-0.6423942329406738
1790958010329751600,1.65475146484375,7.160608252716064,6.64585489578247,-0.7070376777648926
1790958010339763700,1.664763671875,7.16973614654541,6.582558189392089,-0.7481880187988281
1790958010349775600,1.674775634765625,7.466617152404785,6.574028845977783,-0.6706757400512695
1790958010359787500,1.68478759765625,7.690774282836913,6.603208178710937,-0.6591536445617675
1790958010369799700,1.694799560546875,7.577648254394531,6.638223377990722,-0.6462848106384277
1790958010379811600,1.7048115234375,7.300369774627685,6.64600453338623,-0.5026327110290527
1790958010389823700,1.71482373046875,7.223007133483886,6.594229922485352,-0.4852747489929199
1790958010399835600,1.724835693359375,7.251887191009521,6.526743363189697,-0.5401917495727538
1790958010409847600,1.73484765625,7.283311087799071,6.478859329986572,-0.5493196434020996
1790958010419859700,1.744859619140625,7.318326287078857,6.4351651496887206,-0.4777928688049316
1790958010429871600,1.75487158203125,7.389703424072265,6.58854369354248,-0.4134486991882324
1790958010439884500,1.764884521484375,7.333888597869873,6.746411365509033,-0.39369653549194333
1790958010449896400,1.774896484375,7.363367205810547,6.695983493041992,-0.40671500701904295
1790958010459908600,1.78490869140625,7.649025391387939,6.657676266479492,-0.3163338943481445
1790958010469920500,1.79492041015625,7.570016736602783,6.713191817474365,-0.22774843292236327
1790958010479932700,1.8049326171875,7.232583940124512,6.818835965728759,-0.2603694305419922
1790958010489944600,1.814944580078125,6.982090591430664,7.006631158447266,-0.3800795135498047
1790958010499956500,1.82495654296875,6.903979762268066,7.116614797210693,-0.505026912689209
1790958010509968600,1.83496875,6.826317845916748,7.134421672058105,-0.5621884773254394
1790958010519980500,1.84498046875,6.650643299102783,7.036259403991699,-0.7818564796447753
1790958010529992700,1.85499267578125,6.4466872451782224,6.88213267211914,-1.0684124908447266
1790958010540004600,1.865004638671875,6.556970159149169,6.864325797271728,-1.0290578010559082
1790958010550016800,1.875016845703125,6.747009915924072,6.883030497741699,-0.9751882637023925
1790958010560028700,1.885028564453125,6.771550482940674,6.790554458618164,-0.97039986038208
1790958010570040600,1.89504052734375,6.66530778427124,6.764068602752685,-0.8590694831848144
1790958010580052700,1.905052734375,6.59497811050415,6.78007982635498,-0.7478887435913085
1790958010590064600,1.915064697265625,6.584653115844726,6.872855140686035,-0.7604583023071289
1790958010600076800,1.925076904296875,6.639270841217041,6.843226895141601,-0.8970774345397948
1790958010610089500,1.93508935546875,6.926425402832031,6.784568954467773,-0.9142857589721679
1790958010620101400,1.945101318359375,7.202057868957519,6.788609169769287,-0.7760206130981445
1790958010630112800,1.95511279296875,7.222558220672607,6.9527616210937495,-0.687584789276123
1790958010640125000,1.965125,7.100902848815918,7.002291667938232,-0.6513724891662598
1790958010650136800,1.97513671875,6.90128628540039,6.965031904602051,-0.5128080680847168
1790958010660148700,1.985148681640625,6.75479107131958,6.955305460357666,-0.4429273071289062
1790958010670161000,1.995160888671875,6.851905876159668,7.038952880859375,-0.3504512680053711
1790958010680172800,2.0051728515625,7.284957101440429,7.172429623413086,-0.1105821891784668
1790958010690184700,2.015184814453125,7.578994992828369,7.243956398010253,0.07077858657836913
1790958010700196900,2.02519677734375,7.473949394989013,7.191283961486816,0.05057751007080078
1790958010710208800,2.035208740234375,7.133224571228027,7.1224506637573235,-0.06419453201293945
1790958010720221000,2.045220947265625,6.8119526359558105,7.072322066497803,-0.2271498825073242
1790958010730232800,2.05523291015625,6.643909606933593,7.059153957366943,-0.26336218261718747
1790958010740245000,2.065244873046875,6.672041476440429,7.11227530670166,-0.31977555923461914
1790958010750257000,2.0752568359375,6.765564978790283,7.096563358306884,-0.4815338088989258
1790958010760268800,2.085268798828125,6.802974379730224,6.956203285980224,-0.6048351943969726
1790958010770282000,2.095281982421875,6.757185272979736,6.904877587890625,-0.8092401611328125
1790958010780294000,2.1052939453125,6.770802294921874,6.714538555908203,-0.5348047958374023
1790958010790305800,2.115305908203125,6.78681351852417,6.61428136138916,-0.3625719139099121
1790958010800318000,2.12531787109375,6.7842696792602535,6.6139820861816405,-0.23642741394042968
1790958010810329900,2.135329833984375,6.721870798492431,6.743418613433837,-0.3042132484436035
1790958010820341800,2.145341796875,6.758532011413574,6.903081936645507,-0.3363853332519531
1790958010830354000,2.15535400390625,7.000944929504394,7.0634934478759765,-0.18989011917114257
1790958010840365800,2.16536572265625,7.329848382568359,7.20774409790039,0.19018939437866209
1790958010850378000,2.1753779296875,7.826046676635742,7.0461354858398435,0.46208092041015625
1790958010860390000,2.185389892578125,8.035090409088134,7.242609659576416,0.6072293960571289
1790958010870401800,2.19540185546875,7.883357878875732,7.494000833892822,0.570119270324707
1790958010880414000,2.2054140625,8.05080235748291,7.410652688598632,0.4821323593139648
1790958010890425900,2.21542578125,7.926004595947266,7.29737702255249,0.31184476623535157
1790958010900437800,2.225437744140625,7.529764221191406,7.497592136383056,0.6441898841857909
1790958010910450000,2.235449951171875,6.8876692634582515,7.037755780029296,1.2349591438293457
1790958010920461800,2.2454619140625,6.074987437438964,5.907243683624268,1.1777975791931152
1790958010930474000,2.255473876953125,4.970063371276855,6.319495281982421,-1.167023671722412
1790958010940487000,2.26548681640625,4.119672869110107,7.026832234954834,-3.047818713378906
1790958010950498800,2.275498779296875,3.746925598144531,7.429058113861084,-3.3545758010864257
1790958010960511000,2.285510986328125,5.237465769195556,7.2803183357238765,-2.021304751586914
1790958010970523000,2.29552294921875,5.975328793334961,6.698676969909668,-1.8709189598083495
1790958010980535000,2.30553515625,6.835146464538574,6.906373963928222,-2.34960965423584
1790958010990547000,2.315546875,6.8764464431762695,7.077110469818114,-2.139219183349609
1790958011000558800,2.325558837890625,6.796689600372314,6.845022546386718,-1.476623873901367
1790958011010571000,2.335571044921875,7.766041997528076,7.080402497100829,-0.19632453613281248
1790958011020583000,2.3455830078125,7.871087595367431,7.257423782348632,-0.31438860549926756
1790958011030594800,2.3555947265625,7.295132458496093,7.454047593688965,-0.6413467697143554
1790958011040607000,2.36560693359375,6.647201634216308,7.282862174987793,-0.20350714111328125
1790958011050619000,2.375618896484375,5.903951656341552,6.825868933105468,0.5446808776855468
1790958011060631000,2.385631103515625,5.371840337371826,6.790404821014404,1.3238438804626464
1790958011070643000,2.395642822265625,5.552752200317382,7.203853520202636,1.7761983566284179
1790958011080654800,2.40565478515625,6.26338118057251,7.384466107940673,1.492036547088623
1790958011090667000,2.4156669921875,6.404639078521728,6.936151847076416,0.5289689292907714
1790958011100680000,2.425679931640625,6.666355247497558,6.291812325286865,-0.42377369384765623
1790958011110692000,2.435692138671875,6.304082608795166,5.946149460601807,-0.6657376991271973
1790958011120704000,2.4457041015625,3.8859389320373534,5.11356583328247,-1.479317350769043
1790958011130716000,2.4557158203125,4.084358394622803,5.36899722290039,-4.683956272888183
1790958011140728000,2.46572802734375,4.527435339355469,6.021117900085449,-8.00007520980835
1790958011150740000,2.475739990234375,4.120570694732666,6.4190042884826655,-9.345466905212401
1790958011160751900,2.485751953125,3.2173581184387205,6.32697716217041,-6.913406931304931
1790958011170764000,2.495763916015625,3.5509003372192383,5.679046337890624,-3.416825044250488
1790958011180776000,2.50577587890625,4.122665621185303,5.774365491485596,-1.5583260055541992
1790958011190788000,2.5157880859375,4.499453107452393,6.136039579772949,-0.6964134078979491
1790958011200800000,2.525800048828125,5.183745869445801,6.363488737487793,-0.5478232673645019
1790958011210812000,2.53581201171875,5.625775350952148,6.578517974090576,-0.8804676605224608
1790958011220824000,2.545823974609375,5.820154598236083,6.758831286621094,-1.0726023437499999
1790958011230836000,2.5558359375,6.100126554870605,6.771849758148193,-1.0848726272583007
1790958011240848000,2.565847900390625,6.397606111145019,6.833201175689696,-1.291671795654297
1790958011250860000,2.575860107421875,6.744316439056396,7.321917589569091,-1.687313619995117
1790958011260872000,2.585871826171875,6.7933975730895995,8.06920778274536,-2.0492869834899903
1790958011270884900,2.595884765625,6.350470265960693,8.309675411987305,-1.9282301620483397
1790958011280897000,2.60589697265625,5.589413413238525,8.155698317718505,-1.3301286598205566
1790958011290909000,2.615908935546875,4.9072155776977535,8.083124079895018,-1.3250409812927246
1790958011300921000,2.625921142578125,4.384232152557373,8.201637062072754,-1.9749170944213865
1790958011310933000,2.63593310546875,4.025101903533935,8.303091357421874,-2.5493758552551267
1790958011320945200,2.645945068359375,3.806930277252197,8.647706758880615,-2.7341782958984373
1790958011330957000,2.65595703125,4.04096348953247,9.044545684051513,-2.6964696197509763
1790958011340969000,2.665968994140625,4.568735317993164,9.319429962158203,-2.596960613250732
1790958011350981000,2.675981201171875,4.793490998840332,9.500341825103758,-2.654720728302002
1790958011360993000,2.685992919921875,4.727051902770996,9.811588040924072,-2.50253928527832
1790958011371005000,2.6960048828125,4.655375490570068,10.29776061553955,-2.103605433654785
1790958011381017000,2.70601708984375,4.6341269508361815,10.531793827819824,-1.6023194610595701
1790958011391029000,2.716029052734375,4.177582621765136,10.429890619659423,-0.9690531219482421
1790958011401041200,2.726041259765625,3.5851673484802244,10.59793364868164,-1.148468608856201
1790958011411053000,2.736052978515625,3.159448365783691,10.899453420257569,-1.9807529609680175
1790958011421065000,2.74606494140625,2.7296891677856445,10.953771870422363,-2.4343045379638673
1790958011431077000,2.7560771484375,2.4256255569458007,10.837054539489746,-1.8604443275451659
1790958011441089000,2.766089111328125,2.620154441833496,10.944643976593017,-1.0527005424499511
1790958011451102000,2.77610205078125,2.844910122680664,10.797550212097168,-0.8448539108276367
1790958011461113900,2.78611376953125,3.0180408302307127,10.783334639739989,-1.1423334671020506
1790958011471125800,2.796125732421875,3.0966005722045895,10.694599540710449,-1.5189713157653808
1790958011481138000,2.806137939453125,3.0201357566833495,10.301202280426025,-1.7690157516479492
1790958011491149800,2.81614990234375,2.7952304382324216,9.817573545074461,-1.9838953506469725
1790958011501162000,2.826161865234375,2.6861446250915524,9.561543605041503,-2.2891560623168945
1790958011511174000,2.836173828125,2.7160721458435058,9.460687860107422,-2.552368607330322
1790958011521185800,2.846185791015625,2.8823195236206054,9.127893829345702,-2.486677699279785
1790958011531198000,2.856197998046875,3.15376213684082,8.822034567260742,-2.4329577995300293
1790958011541209900,2.8662099609375,3.2577602714538574,8.575880709075927,-2.7238533012390134
1790958011551221800,2.8762216796875,3.031957127380371,8.360701834869385,-2.9899089607238767
1790958011561234000,2.88623388671875,2.7115830177307125,8.288726147460936,-3.0823849998474118
1790958011571245800,2.896245849609375,2.5143606559753415,8.436119187164307,-3.1352070739746094
1790958011581257700,2.9062578125,2.220921315002441,8.735992945098877,-2.995595189666748
1790958011591270000,2.916269775390625,1.933168202972412,9.112780431365966,-2.6792612953186032
1790958011601281800,2.92628173828125,1.8619407035827635,9.357587551116943,-2.417545126342773
1790958011611294000,2.9362939453125,1.9648913749694823,9.393201300811768,-2.25384158782959
1790958011621307000,2.946306884765625,2.1556793197631836,9.286210414123534,-2.3708581939697266
1790958011631319300,2.9563193359375,2.4144027366638183,9.205705383300781,-2.6752210800170895
1790958011641331200,2.966331298828125,2.6408044311523438,9.254936154937743,-2.7465982170104977
1790958011651343400,2.97634326171875,2.81543151473999,9.329904594421386,-2.4896704513549803
1790958011661355300,2.986355224609375,2.339284659576416,9.358485376739502,-2.2281039199829102
1790958011671367400,2.996367431640625,2.1197662948608396,9.222015882110595,-2.168847428894043
1790958011681379300,3.00637939453125,2.2008698760986327,9.086743488311766,-1.9871873779296874
1790958011691391200,3.01639111328125,2.3651719650268554,8.813205948638915,-1.9400515327453611
1790958011701403400,3.0264033203125,2.7829601547241207,8.55493144454956,-2.065447844696045
1790958011711415300,3.036415283203125,3.1859342216491697,8.579920924377442,-2.1672014152526855
1790958011721427200,3.04642724609375,3.640383624267578,9.083451461029052,-1.9630957237243651
1790958011731439400,3.056439453125,3.6649241912841797,9.26346549835205,-1.7516577896118164
1790958011741451300,3.066451171875,3.611054653930664,9.421183532714844,-1.5767314308166502
1790958011751463400,3.07646337890625,3.630208267211914,9.650577979278564,-1.3910311645507811
1790958011761475300,3.086475341796875,3.3297359588623046,9.69741454925537,-1.2759598472595215
1790958011771487200,3.0964873046875,3.1010897003173827,9.632621466827391,-1.2692261550903319
1790958011781500400,3.10650048828125,2.8458079483032224,9.503783489990234,-1.3211504035949706
1790958011791512300,3.11651220703125,2.6659435485839844,9.536703762817382,-1.411531516265869
1790958011801524500,3.1265244140625,2.7756279121398926,9.880870251464843,-1.4897919830322264
1790958011811536400,3.136536376953125,3.018938655853271,10.258256288146972,-1.464652865600586
1790958011821548300,3.14654833984375,3.2529718681335447,10.455179374694824,-1.1119570335388183
1790958011831560400,3.156560546875,3.1741128509521483,10.345195735931396,-0.8503905021667479
1790958011841572400,3.166572265625,2.82186593170166,10.006715476226805,-1.0640730003356933
1790958011851584300,3.176584228515625,2.5858874305725097,9.705943892669676,-1.5804723709106445
1790958011861596400,3.186596435546875,2.4461259086608886,9.497498710632323,-1.9271826988220213
1790958011871608300,3.1966083984375,2.5362077461242674,9.413402377319336,-1.9586065956115721
1790958011881620500,3.206620361328125,2.899827123260498,9.561693242645264,-1.8576012130737303
1790958011891632400,3.21663232421875,3.1298201202392577,9.745597857666015,-2.028337718963623
1790958011901644300,3.226644287109375,2.983324906158447,9.695469260406494,-2.2477064460754392
1790958011911656400,3.236656494140625,2.2928970024108883,9.178471339416504,-2.277783604431152
1790958011921669000,3.246669189453125,1.652896971130371,8.467543083953856,-2.379836450195312
1790958011931681300,3.256681396484375,1.7217302688598632,8.136544704437256,-2.5493758552551267
1790958011941693200,3.266693115234375,2.016665985870361,8.070404883575439,-2.7205612739562985
1790958011951705300,3.276705322265625,2.4465748214721676,8.093299436950684,-2.9122470443725583
1790958011961717200,3.28671728515625,3.030760026550293,8.343792785644531,-2.6466402976989745
1790958011971729200,3.296729248046875,3.2261867370605466,8.904035974121093,-2.2746412147521973
1790958011981741300,3.3067412109375,2.9050644393920897,9.508422255706787,-2.1613655487060544
1790958011991753200,3.316753173828125,2.4622867698669433,9.57022258605957,-1.852663172149658
1790958012001765400,3.326765380859375,2.1900959686279298,9.376292251586914,-1.576282518005371
1790958012011777300,3.33677734375,2.1013608695983885,9.346664006042479,-1.7522563400268554
1790958012021789400,3.34678955078125,2.424129180908203,9.292644831085205,-1.9584569580078124
1790958012031801300,3.35680126953125,2.868253588867187,9.017311640167236,-1.9975123725891113
1790958012041813200,3.366813232421875,3.0927099945068357,8.741080623626708,-1.8341081092834473
1790958012051826200,3.376826171875,3.0992940490722654,8.399607611846923,-1.5849614990234373
1790958012061838300,3.38683837890625,2.8088474601745603,8.239645013427733,-1.6702549331665038
1790958012071850200,3.396850341796875,2.447622284698486,8.315511278533934,-1.77485161819458
1790958012081862100,3.406862060546875,2.4232313552856444,8.480411917877197,-1.660528488922119
1790958012091874300,3.416874267578125,2.817526441192627,8.68332050857544,-1.5161282012939452
1790958012101886200,3.42688623046875,2.9131448699951172,9.428366137695312,-1.2883797683715819
1790958012111898400,3.4368984375,3.0883705039978024,9.891344883728026,-0.8940846824645996
1790958012121910300,3.44691015625,3.6399347114562985,9.172785110473633,-0.3534440200805664
1790958012131922200,3.456922119140625,3.661482526397705,8.023717951202393,-0.20440496673583983
1790958012141934300,3.466934326171875,2.635267839813232,7.313986796569824,-0.946158568572998
1790958012151946200,3.4769462890625,1.7124527374267577,8.122329132080077,-1.9360113174438476
1790958012161958100,3.486958251953125,1.5946879432678223,9.514108484649658,-1.2716203567504882
1790958012171971300,3.496971435546875,2.089389861297607,10.644022030639649,-0.17956512451171874
1790958012181983200,3.506983154296875,2.7910405853271483,10.797849487304687,0.13033435287475587
1790958012191995400,3.516995361328125,3.2728736694335936,10.357765294647216,0.07466916427612304
1790958012202007300,3.52700732421875,3.064877400207519,10.103381368255615,0.17208324432373046
1790958012212019200,3.537019287109375,2.384475215911865,9.998635045623779,0.5888239707946777
1790958012222031400,3.54703125,1.473481484222412,9.855581496429442,0.8243535591125488
1790958012232043300,3.557043212890625,0.9231143775939941,10.184036036682128,0.2518400871276855
1790958012242055400,3.567055419921875,0.8864531646728515,10.838700553131103,-0.2629132698059082
1790958012252067300,3.5770673828125,1.456273159790039,10.790068331909179,-0.28221652069091796
1790958012262079200,3.587079345703125,1.698835715484619,10.55917750930786,-0.28490999755859375
1790958012272091400,3.59709130859375,1.6958429634094236,10.376918907928466,-0.3263596138000488
1790958012282103300,3.607103271484375,1.598578520965576,9.97244846496582,-0.5458779785156249
1790958012292116500,3.617116455078125,1.8154034088134765,8.991723609924316,-0.7019499992370605
1790958012302128400,3.62712841796875,1.954865655517578,8.2100167678833,-0.7544727981567383
1790958012312140300,3.637140380859375,2.01127903213501,8.02566324005127,-0.8644564369201659
1790958012322152400,3.64715234375,2.051232272338867,8.086715382385254,-0.7565677246093749
1790958012332164400,3.657164306640625,1.9711761543273925,8.771307419586181,-0.7848492317199707
1790958012342176300,3.66717626953125,2.13233585357666,9.751882637023925,-0.5780500633239746
1790958012352188400,3.6771884765625,2.0877438476562498,10.401758750152588,0.07676409072875977
1790958012362200300,3.687200439453125,1.3925275405883788,10.513986952972411,0.4423287567138672
1790958012372212500,3.69721240234375,0.8379705810546875,10.108917959594725,0.25034371109008785
1790958012382224400,3.707224365234375,0.48946460189819335,10.021080686187744,-0.09906009368896483
1790958012392236300,3.717236328125,0.35883097381591794,9.579500117492675,-0.06943184814453125
1790958012402248400,3.72724853515625,0.5319616813659668,8.895955543518065,0.38681320571899414
1790958012412261000,3.73726123046875,0.6929717430114746,8.007108177185058,0.7318775199890136
1790958012422273300,3.747273193359375,0.7867945205688476,7.435043618011474,0.6821978355407714
1790958012432285200,3.75728515625,0.7588122886657714,7.142951015472412,0.36810850524902344
1790958012442297300,3.76729736328125,0.7505822204589844,7.1978680160522455,0.0004489128112792969
1790958012452309200,3.777309326171875,0.87463179397583,8.309974687194824,0.06569090805053711
1790958012462321400,3.7873212890625,0.9304466201782225,9.955090502929687,0.2572270408630371
1790958012472333300,3.797333251953125,0.621145693206787,11.104606575012207,0.5018845230102539
1790958012482345200,3.80734521484375,-0.1867477294921875,11.502193688201904,0.5551555099487304
1790958012492357400,3.817357421875,-0.3419219245910644,12.15596037902832,0.4255693450927734
1790958012502369300,3.827369384765625,0.5861304939270019,12.052560794830322,0.5283703788757323
1790958012512381400,3.83738134765625,1.891120036315918,11.877933711242676,0.13392565536499024
1790958012522393300,3.847393310546875,3.1387983764648437,12.094758599090575,-0.0010474632263183592
1790958012532406300,3.85740625,2.4398411293029785,11.371709697723388,0.050128597259521485
1790958012542418200,3.867418212890625,0.4908113403320312,10.263942517089843,0.2237082176208496
1790958012552430300,3.877430419921875,-0.8189666053771972,9.727940620422363,-0.06584054565429687
1790958012562442200,3.887442138671875,-1.2407950103759764,8.701426658630371,-0.06045359191894531
1790958012572454100,3.8974541015625,0.2527379127502441,7.382969731903076,-0.08274959487915039
1790958012582466300,3.90746630859375,2.880673509979248,6.731896517944335,0.3010708587646484
1790958012592478200,3.917478271484375,4.1386768447875975,7.240814008331299,0.5231330627441406
1790958012602490400,3.927490478515625,3.0056209091186523,8.827571158599852,-0.018555062866210937
1790958012612502300,3.937502197265625,1.2159551681518554,10.753556756591797,-0.613514175415039
1790958012622514200,3.94751416015625,-0.6280290229797363,11.879579724884033,-0.5885246955871581
1790958012632526800,3.95752685546875,-1.7073650588989258,11.978490180969237,-0.4138976119995117
1790958012642540000,3.9675400390625,-1.4829086532592772,11.790694988250731,0.194079972076416
1790958012652552000,3.977552001953125,-0.7749731498718261,11.598111392211914,0.6531681404113769
1790958012662564000,3.987564208984375,0.24121581726074218,11.87538987197876,0.3510498184204101
1790958012672576000,3.997575927734375,0.8553285430908203,11.307365528106688,0.8637082489013671
1790958012682588000,4.007587890625,0.4418798439025879,10.784531740570067,1.2804489753723143
1790958012692600000,4.01760009765625,0.23044190979003906,11.162665965270996,1.7908628417968748
1790958012702612000,4.027612060546875,0.1197100830078125,10.95541788406372,2.8471546867370603
1790958012712623900,4.037623779296875,0.09127893829345703,10.682329257202149,3.656095572662353
1790958012722636000,4.047635986328125,-0.10250175857543944,11.101015272521972,3.903446531677246
1790958012732648000,4.05764794921875,-0.3737947341918945,12.180500946044921,3.5321956367492673
1790958012742660000,4.06766015625,-0.7580641006469726,13.078176930999755,2.6487352241516113
1790958012752672000,4.077672119140625,-0.7873930709838867,13.181426877593994,2.0919337005615235
1790958012762685000,4.087684814453125,0.4408323806762695,12.249334243774413,2.4072201316833493
1790958012772697000,4.097697021484375,2.443282794189453,10.733654955291748,2.54084651184082
1790958012782709000,4.107708984375,4.839878656005859,8.950273993682861,1.7794903839111327
1790958012792721200,4.11772119140625,6.8296098731994626,7.586476873016357,0.5992986030578613
1790958012802733000,4.127733154296875,7.6114663528442374,7.27193862991333,0.2775777549743652
1790958012812745000,4.137744873046875,6.7930982978820795,7.298274848175049,1.0550947441101073
1790958012822757000,4.147757080078125,4.668992512512207,7.0078282592773435,1.605012937927246
1790958012832769000,4.15776904296875,2.861968809509277,6.240935540008545,1.138891802215576
1790958012842781000,4.167781005859375,1.577629256439209,5.981463935089111,0.2271498825073242
1790958012852793000,4.17779296875,0.6223427940368652,6.7924997474670405,0.04189852905273437
1790958012862805000,4.187804931640625,0.07197568740844726,9.124003251647949,0.9949404273986816
1790958012872817200,4.197817138671875,-0.13168109130859373,10.747271977233886,2.0693384223937987
1790958012882829800,4.207829833984375,0.19422960968017577,9.89568437423706,2.3367408203125
1790958012892842000,4.217842041015625,1.0601824226379395,7.808838352203368,1.5402198554992674
1790958012902854000,4.22785400390625,2.104952172088623,7.425317173767089,0.5198410354614258
1790958012912865800,4.23786572265625,2.3329998802185057,9.105148913574219,0.028131869506835935
1790958012922878000,4.2478779296875,1.8668787445068358,9.900472777557372,-0.9733926124572754
1790958012932889900,4.257889892578125,1.291671795654297,9.635763856506347,-1.6511013198852538
1790958012942901800,4.26790185546875,1.347785897064209,9.153182584381103,-1.119139638519287
1790958012952914000,4.277913818359375,1.989431941986084,8.657882115936278,-0.630123949432373
1790958012962925800,4.28792578125,2.2631191192626954,8.217797923278809,-1.014542953491211
1790958012972937700,4.297937744140625,1.585260774230957,7.637054383087158,-1.2586018852233887
1790958012982950000,4.307949951171875,1.0592845970153808,7.392396900939941,-1.2808978881835937
1790958012992961800,4.3179619140625,0.9445125549316405,8.541015147399902,-1.6901567344665527
1790958013002975000,4.32797509765625,0.7408557762145995,10.59134959411621,-1.6789339141845703
1790958013012987000,4.33798681640625,0.5921159980773926,12.123040106201172,-0.9853636207580566
1790958013022999000,4.3479990234375,-0.4086602958679199,12.030414429473876,-0.2123357597351074
1790958013033011000,4.358010986328125,-1.2753612968444823,10.672902088165282,0.27099370040893556
1790958013043022800,4.36802294921875,-1.0046668716430665,10.218153410339355,0.2275987953186035
1790958013053035000,4.378034912109375,-0.5550058723449707,10.372579417419432,0.33144729232788084
1790958013063047000,4.388046875,0.22026655273437498,10.148422286987303,0.38352117843627925
1790958013073058800,4.398058837890625,0.6414964073181152,9.655366382598876,-0.5436334144592285
1790958013083071000,4.408071044921875,1.2548609451293944,9.499443999481201,-1.4130278923034667
1790958013093083000,4.418082763671875,2.443432431793213,9.214683639526367,-1.4238017997741699
1790958013103095000,4.428094970703125,3.0630817489624023,9.044096771240234,-1.8605939651489256
1790958013113107000,4.43810693359375,3.042880672454834,9.4358480178833,-2.263867307281494
1790958013123119900,4.448119873046875,3.6825814285278318,9.719411277008057,-1.9123685760498046
1790958013133132000,4.458132080078125,4.656572591400146,9.418190780639648,-1.7814356727600096
1790958013143144000,4.46814404296875,5.1422962532043455,9.419986431884766,-1.9370587806701658
1790958013153156000,4.478156005859375,4.630685285949707,10.024821626281737,-1.7458219230651855
1790958013163168000,4.48816796875,2.8508956268310546,10.285191056823729,-1.4362217208862305
1790958013173180000,4.498179931640625,0.7457938171386719,9.991901353454589,-1.1822867073059082
1790958013183192000,4.508192138671875,-0.503081623840332,9.738864165496826,-0.14933832855224607
1790958013193204000,4.518203857421875,-1.7176900535583495,9.637709145355224,0.373495458984375
1790958013203216000,4.5282158203125,-2.652027251434326,9.515305585479735,0.8966285217285156
1790958013213228000,4.53822802734375,-2.1868039413452145,9.778069217681884,1.659181750488281
1790958013223240000,4.548239990234375,-0.6914753669738769,9.898078575897216,2.2035633529663086
1790958013233252000,4.558252197265625,-0.05716156463623046,10.251971508789062,1.9960159965515136
1790958013243265000,4.56826513671875,-0.4080617454528808,10.516081879425048,1.4308347671508788
1790958013253277000,4.57827685546875,-0.08828618621826172,9.973495928192138,0.3625719139099121
1790958013263289000,4.5882890625,0.7773673515319823,9.284714038085937,-0.27353753967285155
1790958013273301000,4.598301025390625,1.087266828918457,8.597129248809814,-0.8533832542419433
1790958013283313200,4.608313232421875,1.054047280883789,8.652345524597168,-1.388636962890625
1790958013293325000,4.618324951171875,0.6331167015075683,8.733149830627442,-0.9334393722534179
1790958013303337000,4.6283369140625,1.134402674102783,8.75993496170044,-0.9421183532714843
1790958013313349000,4.63834912109375,1.5150807380676268,8.600271638488769,-1.4516343940734862
1790958013323361000,4.648361083984375,1.7570447433471679,8.799588926696776,-2.258031440734863
1790958013333373000,4.658373046875,2.5972598884582516,9.055319591522217,-1.8008885612487793
1790958013343385000,4.668385009765625,1.5904980903625487,9.023297144317626,-1.177199028778076
1790958013353397000,4.67839697265625,0.15337854385375976,9.443778810882568,-0.6151601890563965
1790958013363410000,4.688409912109375,-0.8267477607727051,10.005368737792969,0.1039981346130371
1790958013373421800,4.698421875,-1.6211737991333006,10.753556756591797,0.38666356811523434
1790958013383433700,4.708433837890625,-1.876305913543701,11.441889733886718,0.7809586540222168
1790958013393446000,4.71844580078125,-1.9978116477966308,12.038345222473144,1.7405846069335937
1790958013403457800,4.728457763671875,-1.9129671264648436,12.618939125061035,2.768894219970703
1790958013413470000,4.738469970703125,-0.634014527130127,12.012457917022704,1.405695649719238
1790958013423481900,4.74848193359375,1.689258908843994,10.20782841567993,0.5602431884765625
1790958013433493800,4.75849365234375,2.589478733062744,10.27172367248535,1.2859855667114257
1790958013443506000,4.768505859375,2.2698528114318846,10.43153663330078,0.8993219985961913
1790958013453517800,4.778517822265625,1.228375089263916,10.346542474365235,1.1776479415893555
1790958013463529700,4.78852978515625,-0.0020949264526367185,10.4325840965271,1.3792097938537597
1790958013473542000,4.7985419921875,-0.6720224784851074,10.869226624298095,2.0964228286743163
1790958013483554800,4.808554931640625,0.08349778289794921,10.742633211517333,2.436100189208984
1790958013493567000,4.81856689453125,2.9044658889770507,10.152612139892577,1.3311761230468748
1790958013503579000,4.828578857421875,4.127304386901855,10.315717127990721,1.448641641998291
1790958013513591000,4.838591064453125,3.0336031410217283,11.003451554870605,1.2568062339782715
1790958013523603000,4.84860302734375,1.622221262359619,11.284770249938964,0.8013093681335449
1790958013533614800,4.85861474609375,0.41883565292358393,11.060164206695555,1.1873743858337402
1790958013543627000,4.868626953125,-0.28221652069091796,10.926986739349365,1.7389385932922363
1790958013553639000,4.878638916015625,-1.0726023437499999,11.203666668701171,2.834734765625
1790958013563650800,4.88865087890625,-2.0877438476562498,11.82376489868164,3.8482302558898924
1790958013573663000,4.8986630859375,-2.596511700439453,11.533318309783935,3.503764492034912
1790958013583675000,4.9086748046875,-2.2477064460754392,9.851990193939208,1.2497732666015624
1790958013593686800,4.918686767578125,-1.0178349807739258,7.3802762550354,-2.0816087059020996
1790958013603700000,4.928699951171875,0.5149029945373534,5.814318731689453,-3.0912136184692383
1790958013613712000,4.9387119140625,1.128117894744873,4.9646764175415035,-3.7858313751220702
1790958013623724000,4.94872412109375,1.4437036010742186,5.3472997703552245,-4.497956731414795
1790958013633738200,4.95873828125,1.7853262504577636,7.507019305419921,-4.2317514343261715
1790958013643750400,4.96875048828125,2.169296341705322,9.971999552154541,-2.7647043670654297
1790958013653762300,4.97876220703125,2.2439655059814454,10.059238275146484,-1.567304261779785
1790958013663774200,4.988774169921875,2.190544881439209,9.979631069946288,-0.7603086647033691
1790958013673786400,4.998786376953125,2.238279277038574,9.917830739593505,-0.01915361328125
1790958013683798300,5.00879833984375,2.276436865997314,9.861567000579834,0.5921159980773926
1790958013693810400,5.018810546875,2.1580735214233395,9.852888019561767,1.092354507446289
1790958013703822300,5.028822265625,1.9870377403259276,9.773879364776612,1.4330793312072754
1790958013713834200,5.038834228515625,1.7585411193847655,9.664195001220703,1.6168343086242676
1790958013723847400,5.048847412109375,1.484405029296875,9.663147537994384,1.7075146965026855
1790958013733859300,5.058859375,1.2131120536804199,9.816675719451904,1.631798069000244
1790958013743871500,5.06887158203125,0.9419687156677246,9.881019889068602,1.2000935821533203
1790958013753883400,5.07888330078125,0.6880337020874023,9.851541281127929,0.16460136413574217
1790958013763895300,5.088895263671875,0.5235819755554199,9.782109432983399,-0.505625463104248
1790958013773907500,5.098907470703125,0.462230558013916,9.703250415802001,-0.3042132484436035
1790958013783919400,5.10891943359375,0.5026327110290527,9.685892453765868,0.12898761444091797
1790958013793931300,5.11893115234375,0.5933130989074706,9.773729727172851,0.27249007644653317
1790958013803943400,5.128943359375,0.7601590270996094,9.65910732269287,0.2790741310119629
1790958013813955300,5.138955322265625,0.9859621711730956,9.707889181518555,0.022146365356445312
1790958013823967500,5.148967529296875,1.205330898284912,9.736469963836669,-0.1370680450439453
1790958013833979400,5.1589794921875,1.3631985702514648,9.746046770477294,-0.035763387298583985
1790958013843992300,5.168992431640625,1.424849263000488,9.772981539154053,-0.004489128112792969
1790958013854004500,5.17900439453125,1.4266449142456055,9.770886612701416,-0.04219780426025391
1790958013864016400,5.189016357421875,1.3154641746520996,9.78689783630371,-0.04279635467529297
1790958013874028500,5.199028564453125,1.1309610092163085,9.798868844604492,-0.08634089736938476
1790958013884040400,5.20904052734375,1.0069114356994628,9.804255798339844,-0.131531453704834
1790958013894052400,5.21905224609375,0.9418190780639648,9.77447791519165,-0.14425065002441406
1790958013904064500,5.229064453125,0.9460089309692382,9.791386964416503,-0.16564882736206055
1790958013914076400,5.239076416015625,0.9907505744934082,9.770886612701416,-0.17298106994628906
1790958013924088300,5.24908837890625,1.0639233627319336,9.756671040344237,-0.17866729888916014
1790958013934100500,5.2591005859375,1.132008472442627,9.673472532653808,-0.0948702407836914
1790958013944112400,5.2691123046875,1.1656769332885741,9.77492682800293,-0.11522095489501953
1790958013954124500,5.27912451171875,1.2367547950744628,9.7162688873291,-0.1879448303222656
1790958013964137200,5.28913720703125,1.2298714653015137,9.740061266326904,-0.2353799507141113
1790958013974149400,5.2991494140625,1.1985972061157226,9.76849241104126,-0.2570774032592773
1790958013984161300,5.309161376953125,1.1731588134765625,9.712827222442627,-0.2811690574645996
1790958013994173200,5.319173095703125,1.2900257820129393,9.513958847045897,-0.12913725204467771
1790958014004185300,5.329185302734375,1.0287585258483887,8.104971170043944,1.0492588775634766
1790958014014197200,5.339197265625,0.40761283264160153,3.6831799789428707,1.8089689918518066
1790958014024209200,5.349209228515625,1.543062969970703,8.43387462310791,-0.8436568099975585
1790958014034221300,5.35922119140625,1.7140987510681152,14.86889013519287,-0.4997895965576172
1790958014044233200,5.369233154296875,1.5349825393676757,12.642581866455078,0.3972878379821777
1790958014054245000,5.3792451171875,-0.16026187362670896,10.848426997375487,0.2811690574645996
1790958014064257300,5.38925732421875,-2.205209366607666,10.223390726470946,0.9630676177978515
1790958014074269200,5.399269287109375,-1.599925259399414,10.028562566375731,1.0951976219177246
1790958014084281300,5.40928125,0.814627114868164,10.204985301208495,-0.24031799163818357
1790958014094294300,5.419294189453125,2.8426655586242675,9.901370603179931,-1.4980220512390137
1790958014104306400,5.429306396484375,4.037970737457275,9.151686208343506,-2.150142728424072
1790958014114318300,5.439318359375,3.8379052612304685,8.665663271331786,-1.972223617553711
1790958014124330200,5.449330322265625,2.703203311920166,8.704569048309326,-1.2300211029052734
1790958014134342400,5.45934228515625,2.255188326263428,8.756642934417725,-0.5645826789855957
1790958014144354300,5.469354248046875,2.3039701850891112,8.517970956420898,-0.25782559127807614
1790958014154366200,5.4793662109375,2.0364181495666505,8.445247080993651,-0.4831798225402832
1790958014164378400,5.48937841796875,1.7788918334960937,9.11697028427124,-0.8013093681335449
1790958014174390300,5.499390380859375,2.1794716987609863,10.392032305908202,-0.6341641647338867
1790958014184402400,5.50940234375,2.671180864715576,10.941052674102783,-0.7167641220092773
1790958014194414300,5.519414306640625,2.254889051055908,10.493336963653563,-0.6254851837158203
1790958014204426200,5.52942626953125,0.9361328491210937,9.48118821182251,-0.35883097381591794
1790958014214439400,5.539439453125,-0.004189852905273437,9.063250384521483,-0.2738368148803711
1790958014224451300,5.549451416015625,0.6863876884460449,9.514707035064697,-0.33399113159179683
1790958014234463500,5.55946337890625,1.4917372718811035,9.521740002441407,-0.5989993278503417
1790958014244475400,5.569475341796875,0.10295067138671875,9.708936644744872,-0.539443561553955
1790958014254487300,5.5794873046875,-0.74055650100708,9.82610288848877,-0.4740519287109375
1790958014264499500,5.58949951171875,-0.5255272644042969,9.675268183898925,0.05416881256103515
1790958014274511400,5.599511474609375,-0.6682815383911133,9.376591526794433,-0.2154781494140625
1790958014284523300,5.609523193359375,-0.4748001167297363,9.332598071289063,-0.5406406623840332
1790958014294535400,5.619535400390625,0.17836802368164062,9.6151138671875,-0.6718728408813476
1790958014304547300,5.62954736328125,0.07990648040771484,9.788094937133788,-0.745644179534912
1790958014314559500,5.6395595703125,-0.22834698333740233,9.675417821502686,-0.5499181938171387
1790958014324571400,5.6495712890625,-0.6896797157287597,9.814431155395507,-0.7070376777648926
1790958014334584300,5.659584228515625,-0.2786252182006836,10.216806671905516,-0.996586441040039
1790958014344596500,5.669596435546875,0.36960488128662106,10.415824684906005,-1.4480430915832518
1790958014354608400,5.6796083984375,-0.005536591339111328,10.541819547271729,-1.8071733406066894
1790958014364620500,5.68962060546875,-0.6308721374511719,10.475380451202392,-1.662473777770996
1790958014374632400,5.699632568359375,-0.7448959915161132,10.242095426940917,-1.7781436454772948
1790958014384644400,5.709644287109375,-0.6024409927368164,10.203488925170898,-1.7778443702697753
1790958014394656500,5.719656494140625,-0.6233902572631835,9.80051485824585,-1.8160019592285155
1790958014404668400,5.72966845703125,-0.8852560638427733,9.415497303771971,-1.560271294403076
1790958014414680300,5.739680419921875,-1.322197866821289,9.138218824005126,-1.4707880073547361
1790958014424692500,5.7496923828125,-1.4474445411682129,9.019256929016112,-1.4510358436584472
1790958014434704400,5.759704345703125,-1.0534487304687499,9.182212279510498,-0.9953893402099608
1790958014444716500,5.769716552734375,-0.32785598983764647,9.497648348236083,-0.5256769020080566
1790958014454728400,5.779728515625,-0.03336918563842773,9.702951140594482,-0.654365241241455
1790958014464741400,5.789741455078125,0.06494272003173827,9.484330601501464,-0.651821401977539
1790958014474753300,5.799753173828125,0.0056862289428710935,9.293243381500243,-0.6926724678039551
1790958014484765200,5.80976513671875,0.5517138450622558,9.039308367919922,-0.49320554199218747
1790958014494777300,5.81977734375,1.1935095275878906,8.791957408905029,-0.48288054733276364
1790958014504789200,5.829789306640625,1.4917372718811035,8.916156620025633,-0.12150573425292968
1790958014514801200,5.83980126953125,1.3955202926635741,9.062801471710204,0.486471849822998
1790958014524813300,5.849813232421875,0.7655459808349608,9.102006523895263,0.48497547378540035
1790958014534825200,5.8598251953125,0.9412205276489257,9.562890343475342,0.8991723609924316
1790958014544837000,5.869837158203125,1.069310316467285,10.237307023620605,0.7315782447814941
1790958014554849300,5.879849365234375,0.7703343841552734,10.807875206756592,0.5180453842163085
1790958014564861200,5.889861083984375,0.3642179275512695,10.817601651000976,0.6049848320007324
1790958014574873300,5.899873291015625,-0.011073182678222656,10.71210714035034,0.8644564369201659
1790958014584885200,5.90988525390625,0.12135609664916991,10.732906767272949,0.7523778717041015
1790958014594898400,5.9198984375,0.557998624420166,10.313173288726807,0.32920272827148434
1790958014604910300,5.929910400390625,1.5707459266662598,10.153958878326415,-0.007032967376708984
1790958014614922200,5.939922119140625,2.703203311920166,10.217105947113037,-0.21158757171630857
1790958014624934400,5.949934326171875,3.109918318939209,10.249128394317626,-0.6545148788452148
1790958014634943200,5.959943115234375,2.743455827331543,10.111611436462402,-0.8240542839050292
1790958014644955400,5.969955322265625,1.9448399360656736,9.777620304870604,-0.6260837341308594
1790958014654967300,5.97996728515625,1.4065934753417968,9.261520209503173,-0.7580641006469726
1790958014664979200,5.989979248046875,1.4745289474487304,8.871564614105225,-0.8066963218688964
1790958014674991400,5.999991455078125,1.7628806098937988,8.799588926696776,-1.0330980163574217
1790958014685003300,6.010003173828125,2.0886416732788087,9.43629693069458,-1.2921207084655761
1790958014695015200,6.02001513671875,1.4995184272766113,9.92830537185669,-1.380257257080078
1790958014705027300,6.03002734375,0.11327566604614257,9.897330387878418,-1.1324573852539062
1790958014715039200,6.040039306640625,-0.6596025573730468,9.593416414642334,-0.6783072578430175
1790958014725052400,6.050052490234375,-0.97683427734375,9.095422469329833,-0.22939444656372068
1790958014735064300,6.060064208984375,-1.3040917167663573,9.03422068939209,-0.0020949264526367185
1790958014745076500,6.070076416015625,-0.985064345550537,9.111433692932128,-0.1858499038696289
1790958014755088400,6.08008837890625,-0.23777415237426758,9.42956323852539,-0.11522095489501953
1790958014765100300,6.090100341796875,-0.05401917495727539,10.367042826080322,-0.04444236831665039
1790958014775112400,6.100112548828125,-0.3098994773864746,10.746074876403808,-0.24480711975097655
1790958014785124400,6.110124267578125,-0.49245735397338863,10.345794286346434,0.011522095489501952
1790958014795136300,6.12013623046875,0.14125789794921875,9.65955623550415,-0.04414309310913086
1790958014805148400,6.1301484375,1.340004741668701,8.94997471847534,-0.30690672531127927
1790958014815160300,6.140160400390625,2.372953120422363,8.513781103515624,-0.34656069030761716
1790958014825172500,6.15017236328125,3.2791584487915038,9.33364553451538,-0.5548562347412109
1790958014835184400,6.160184326171875,3.587411912536621,10.242095426940917,-0.898274535369873
1790958014845197300,6.170197265625,2.9243676902770996,11.061062032318114,-0.9328408218383788
1790958014855209500,6.18020947265625,2.148945627593994,10.807875206756592,-0.9974842666625976
1790958014865221400,6.190221435546875,2.1939865463256836,10.084676667785644,-0.9431658164978027
1790958014875233500,6.200233642578125,2.429216859436035,9.795876092529296,-0.594959112548828
1790958014885245400,6.210245361328125,2.0834043571472165,9.635314943695068,-0.4257189826965332
1790958014895257300,6.22025732421875,1.6210241615295409,9.639055883789062,-0.2454056701660156
1790958014905269500,6.23026953125,1.490091258239746,9.722254391479492,-0.02424129180908203
1790958014915281400,6.240281494140625,1.5433622451782225,9.483432775878907,0.0383072265625
1790958014925293300,6.250293212890625,1.5059528442382812,9.107243840026856,0.10624269866943359
1790958014935305500,6.260305419921875,1.3332710494995117,9.275586144256591,0.6821978355407714
1790958014945317400,6.2703173828125,0.7852981445312499,9.967660061645507,0.9925462257385254
1790958014955329500,6.28032958984375,-0.18944120635986328,10.488099647521972,0.7996633544921875
1790958014965341400,6.290341552734375,-0.3995324020385742,9.782558345794676,0.42811318435668944
1790958014975353300,6.300353271484375,-0.4948515556335449,9.586084172058104,1.0583867713928221
1790958014985366300,6.3103662109375,-0.10714052429199218,9.44856721420288,0.7291840431213379
1790958014995378200,6.320378173828125,0.6359598159790039,9.247903187561034,0.28969840087890625
1790958015005390300,6.330390380859375,1.6621745025634764,9.344269804382323,0.08289923248291015
1790958015015402200,6.34040234375,2.2756886779785157,9.386467608642578,-0.18300678939819334
1790958015025414100,6.3504140625,2.7723358848571777,9.518447975158692,-0.6712742904663086
1790958015035426300,6.36042626953125,2.6957214317321774,9.97873324432373,-0.6857891380310058
1790958015045438200,6.370438232421875,2.073079362487793,9.954491952514648,-0.6031891807556152
1790958015055450000,6.3804501953125,1.5955857688903807,9.834033681488037,-0.49155952835083006
1790958015065462300,6.390462158203125,1.8140566703796386,9.830891291809081,-0.5997475158691405
1790958015075474200,6.40047412109375,2.255637239074707,8.933065669250487,-0.9488520454406738
1790958015085486300,6.410486328125,2.832639839172363,8.155847955322265,-1.107767180633545
1790958015095498200,6.420498291015625,3.5960908935546874,8.346486262512206,-1.3054384552001952
1790958015105510100,6.43051025390625,3.8007951354980465,9.381379930114745,-1.301248602294922
1790958015115523300,6.4405234375,3.2040403717041013,11.131690981292724,-0.8711901290893554
1790958015125535200,6.45053515625,1.2831424522399901,12.17436580429077,-0.014664485168457031
1790958015135547400,6.46054736328125,-0.9587281272888183,12.31517478942871,0.7707832969665527
1790958015145559300,6.470559326171875,-0.35583822174072266,10.212766456604003,0.35449148330688474
1790958015155571200,6.4805712890625,1.276259122467041,9.036315615844726,-0.004489128112792969
1790958015165583400,6.490583251953125,1.8059762397766113,8.429535132598877,-0.26126725616455077
1790958015175595300,6.50059521484375,2.305316923522949,8.321347145080566,-0.8170213165283202
1790958015185607200,6.510607177734375,2.749890244293213,10.088866520690917,-0.7481880187988281
1790958015195619300,6.520619384765625,2.095375365447998,11.069142462921143,-0.5680243438720702
1790958015205631200,6.53063134765625,1.3024457031249999,10.133308889007568,0.14963760375976562
1790958015215643400,6.540643310546875,2.110039850616455,9.207351396942139,-0.05970540390014648
1790958015225655300,6.5506552734375,1.4244003501892089,9.064746760559082,-0.02798223190307617
1790958015235667200,6.560667236328125,1.5707459266662598,9.336638286590576,-0.4257189826965332
1790958015245679400,6.570679443359375,1.6704045707702635,9.94626188430786,-0.7821557548522948
1790958015255691300,6.580691162109375,2.025195329284668,9.843460850524902,-0.9302969825744628
1790958015265704400,6.590704345703125,2.3165397438049316,9.92127240447998,-0.7721300354003906
1790958015275716400,6.60071630859375,2.6976667205810547,10.068665444183349,-0.6646902359008788
1790958015285728300,6.610728271484375,2.334795531463623,10.216956309509277,-0.2587234169006348
1790958015295740400,6.620740478515625,1.7755998062133789,9.966462960815429,0.1345242057800293
1790958015305752300,6.63075244140625,1.7022773803710936,9.547028757476806,-0.015113397979736327
1790958015315764500,6.640764404296875,2.2942437408447263,9.377788627624511,-0.2700958747863769
1790958015325776400,6.6507763671875,2.505083124542236,9.660603698730467,-0.30705636291503907
1790958015335788300,6.660788330078125,2.082506531524658,10.107870496368408,-0.23956980361938476
1790958015345800400,6.670800537109375,1.392976453399658,10.311826550292968,-0.12853870162963865
1790958015355812400,6.680812255859375,1.350928286743164,9.827599264526366,-0.07092822418212891
1790958015365824300,6.69082421875,1.8870798210144042,9.630825815582275,-0.16115969924926757
1790958015375836400,6.70083642578125,2.0278888061523435,9.491363568878173,-0.15502455749511718
1790958015385848300,6.710848388671875,2.0905869621276856,9.558101940155028,-0.21622633743286132
1790958015395860200,6.720860107421875,1.9809025985717772,9.71716671295166,-0.20201076507568358
1790958015405873400,6.730873291015625,1.4835072036743162,10.081683915710448,-0.04848258361816406
1790958015415885300,6.74088525390625,1.0969932731628418,10.20214218673706,0.1785176612854004
1790958015425897500,6.7508974609375,1.2927192588806151,9.750835173797606,-0.15532383270263672
1790958015435909400,6.760909423828125,1.7289128738403319,9.628281976318359,-0.5162497329711914
1790958015445921500,6.770921630859375,1.857152300262451,10.02392380065918,-0.5159504577636719
1790958015455933400,6.780933349609375,1.7374422172546387,10.356119281005858,-0.16415245132446288
1790958015465945300,6.7909453125,2.643647545623779,10.409839180755615,0.2825157958984375
1790958015475957500,6.80095751953125,3.42834713973999,10.143633883666991,0.3076549133300781
1790958015485969400,6.810969482421875,3.2466870887756345,9.72913772125244,0.44367549514770505
1790958015495981300,6.820981201171875,3.665822016906738,8.134449777984619,-0.3987842140197754
1790958015505993500,6.830993408203125,4.525789325714111,8.163928385925292,-0.488417138671875
1790958015516005400,6.84100537109375,4.271255761718749,8.923638500213622,-0.26126725616455077
1790958015526017500,6.851017578125,3.576638005065918,9.42312882156372,-0.19901801300048827
1790958015536029400,6.861029541015625,3.26883345413208,10.158448006439208,-0.19333178405761717
1790958015546041300,6.871041259765625,3.0621839233398433,10.892121177673339,-0.2642600082397461
1790958015556054300,6.88105419921875,2.27927998046875,11.317840160369872,-0.14948796615600585
1790958015566066200,6.891066162109375,1.6913538352966309,11.190947472381591,0.03980360260009765
1790958015576078300,6.901078369140625,1.474229672241211,10.31152727508545,0.12075754623413085
1790958015586090200,6.91109033203125,1.4260463638305663,9.360430665588378,0.2059013427734375
1790958015596102100,6.92110205078125,1.4041992736816404,8.933215306854247,0.27832594299316404
1790958015606114300,6.9311142578125,1.6142904693603515,8.698134631347656,0.07990648040771484
1790958015616126200,6.941126220703125,1.7890671905517577,8.8742580909729,-0.042945992279052735
1790958015626138000,6.95113818359375,1.8920178619384764,9.201216255187989,-0.12898761444091797
1790958015636149800,6.961149658203125,2.009333743286133,9.586981997680663,-0.22640169448852537
1790958015646162000,6.971161865234375,2.2978350433349606,9.82565397567749,0.4885667762756347
1790958015656173800,6.981173828125,1.56416187210083,9.370905297851563,-0.34970307998657224
1790958015666186000,6.99118603515625,1.901295393371582,8.878747219085692,-0.524779076385498
1790958015676198000,7.001197998046875,2.0495862586975098,8.480112642669678,-0.4843769233703613
1790958015686209800,7.011209716796875,2.191741982269287,8.54281079864502,-0.7154173835754394
1790958015696222000,7.021221923828125,2.407519406890869,9.140014475250243,-0.6970119583129882
1790958015706235000,7.03123486328125,2.381931376647949,9.61466495437622,-0.612915625
1790958015716247000,7.0412470703125,2.217928562927246,9.947758260345458,-0.4010287780761719
1790958015726259000,7.051259033203125,2.1633108375549317,10.225186377716064,-0.051475335693359374
1790958015736270800,7.061270751953125,2.1869535789489745,10.11834512863159,-0.06838438491821289
1790958015746283000,7.071282958984375,2.0446482177734375,9.830741654205323,-0.33369185638427734
1790958015756295000,7.081294921875,1.1053729789733886,9.375992976379393,-0.5737105728149414
1790958015766306800,7.091306884765625,0.8262988479614257,8.521711896514892,-1.0429740982055664
1790958015776319000,7.101319091796875,1.878400839996338,8.884134172821044,-0.3794809631347656
1790958015786331000,7.111330810546875,0.2793734062194824,9.105448188781738,0.34925416717529295
1790958015796343000,7.121343017578125,1.3808558074951172,9.323919090270996,0.040102877807617184
1790958015806355000,7.13135498046875,2.121561946105957,9.419537519073486,-0.5813420906066894
1790958015816366800,7.141366943359375,2.0690391471862792,9.625438861846924,-1.1017816764831543
1790958015826379000,7.15137890625,1.6476596549987792,9.97229882736206,-1.264737026977539
1790958015836391000,7.161390869140625,1.9949685333251952,9.836876795959473,-0.423923331451416
1790958015846402800,7.17140283203125,2.8535891036987304,9.503933127593994,0.5117606048583984
1790958015856415000,7.1814150390625,3.2701801925659177,9.388562535095215,0.6376058296203613
1790958015866428000,7.191427978515625,3.2671874404907224,9.35354733581543,0.2941875289916992
1790958015876440000,7.201440185546875,2.71951381072998,9.366116894531249,-0.10773907470703124
1790958015886452000,7.211451904296875,1.9843442634582518,9.465925176239013,-0.3960907371520996
1790958015896464000,7.2214638671875,1.7747019805908202,9.50647696685791,-0.2624643569946289
1790958015906476000,7.23147607421875,2.1088427497863766,9.491213931274414,0.1514332550048828
1790958015916488000,7.241488037109375,2.380734275817871,9.528024781799315,0.03890577697753906
1790958015926500000,7.2515,2.4111107093811035,9.669133042144775,-0.11462240447998046
1790958015936512000,7.261511962890625,2.235735437774658,9.66673884048462,-0.02798223190307617
1790958015946524000,7.27152392578125,2.1384709953308105,9.580397943115234,-0.08604162216186523
1790958015956536000,7.2815361328125,2.2788310676574706,9.527276593780517,-0.08798691101074219
1790958015966548000,7.2915478515625,2.396146949005127,9.508721530914306,-0.11851298217773437
1790958015976559900,7.301559814453125,2.346766539764404,9.541941078948975,-0.004638765716552734
1790958015986572000,7.311572021484375,2.2384289146423337,9.527276593780517,0.21652561264038084
1790958015996584000,7.321583984375,2.2328923233032225,9.564985269927979,-0.011222820281982421
1790958016006596000,7.33159619140625,2.3597850112915038,9.544933831024169,0.0005985504150390625
1790958016016608000,7.34160791015625,2.5130139175415036,9.573963526153564,0.00987608184814453
1790958016026621000,7.351620849609375,2.4157494750976563,9.582043956756591,0.021996727752685546
1790958016036633000,7.361633056640625,2.2623709312438964,9.541342528533935,0.05581482620239257
1790958016046645000,7.37164501953125,2.2604256423950195,9.510217906951905,0.10654197387695312
1790958016056657200,7.3816572265625,2.307112574768066,9.506925879669188,0.04115034103393554
1790958016066669000,7.3916689453125,2.384026303100586,9.567678746795654,-0.4263175331115722
1790958016076681000,7.401680908203125,2.3971944122314452,9.514407759857177,-0.6625953094482422
1790958016086693000,7.411693115234375,2.516156307220459,9.46143604812622,-0.5662286926269531
1790958016096705000,7.421705078125,2.4548048896789547,9.4358480178833,-0.0626981559753418
1790958016106717000,7.431717041015625,2.5561095474243163,9.605088147735595,0.47494975433349607
1790958016116729000,7.44172900390625,2.5685294685363766,9.51949543838501,0.508169302368164
1790958016126741000,7.451740966796875,2.5526678825378415,9.561393967437743,0.2516904495239258
1790958016136753200,7.461753173828125,2.4723124893188477,9.491812481689452,-0.28865093765258787
1790958016146765000,7.47176513671875,2.3196821334838864,9.528174419403076,-0.10594342346191406
1790958016156777000,7.48177685546875,2.2863129478454587,9.504980590820312,0.08858546142578125
1790958016166789000,7.4917890625,2.4932617538452146,9.522488190460205,0.41629181365966794
1790958016176801000,7.501801025390625,2.552967157745361,9.509619356536865,0.3372831588745117
1790958016186814000,7.51181396484375,2.4898200889587403,9.527276593780517,0.12719196319580078
1790958016196825900,7.521825927734375,2.68135622177124,9.507823705291747,-0.005536591339111328
1790958016206838000,7.531838134765625,2.9132945075988768,9.453804530334471,0.09427169036865234
1790958016216850000,7.541849853515625,2.4603414810180664,9.428815050506591,-0.01840542526245117
1790958016226862000,7.551862060546875,2.13862063293457,9.534608836364745,-0.15248071823120116
1790958016236874000,7.5618740234375,2.1666028648376465,9.645490300750732,-0.21921908950805663
1790958016246886000,7.571885986328125,2.4616882194519043,9.636960957336425,-0.15307926864624022
1790958016256898000,7.58189794921875,2.572270408630371,9.636212769317627,-0.35149873123168945
1790958016266910000,7.591909912109375,2.3229741607666012,9.667187753295899,-0.2075473564147949
1790958016276922000,7.601922119140625,2.053027923583984,9.5247327545166,0.2166752502441406
1790958016286934000,7.61193408203125,2.2828712829589843,9.408165061187743,0.38756139373779297
1790958016296946200,7.6219462890625,2.4973019691467284,9.438092581939697,0.14514847564697264
1790958016306958000,7.6319580078125,2.3502082046508788,9.470264666748045,-0.2237082176208496
1790958016316970000,7.641969970703125,2.0810101554870606,9.414300202941893,0.1924339584350586
1790958016326982100,7.651982177734375,2.0982184799194337,9.494505958557129,0.06673837127685546
1790958016336994000,7.661994140625,2.801964130401611,9.491513206481933,0.04504091873168945
1790958016347006200,7.672006103515625,2.9152397964477537,9.550171147155762,0.020051438903808592
1790958016357019000,7.682018798828125,2.5944167739868162,9.59566097869873,0.1188122573852539
1790958016367030800,7.69203076171875,2.3186346702575684,9.581445406341553,0.13437456817626953
1790958016377043000,7.70204296875,2.427271570587158,9.540743978118895,-0.008828618621826172
1790958016387054800,7.712054931640625,2.573467509460449,9.484330601501464,-0.13198036651611328
1790958016397067000,7.72206689453125,2.442085693359375,9.497797985839844,-0.1605611488342285
1790958016407079000,7.732078857421875,2.2260089935302734,9.483432775878907,0.014514847564697266
1790958016417090800,7.7420908203125,2.3454198013305665,9.500790737915038,0.08918401184082031
1790958016427103000,7.75210302734375,2.430413960266113,9.507524430084228,0.14484920043945312
1790958016437115000,7.762114990234375,2.2834698333740233,9.370306747436523,-0.13003507766723632
1790958016447126800,7.772126708984375,3.3927333900451657,9.049483724975586,2.1535843933105467
1790958016457139000,7.782138916015625,3.6755484611511227,9.548375495910644,1.4481927291870116
1790958016467150800,7.79215087890625,2.355295883178711,9.624541036224365,-2.0504840843200682
1790958016477163000,7.8021630859375,2.3130980789184568,9.485228427124023,-0.994641152191162
1790958016487175000,7.8121748046875,1.5474024604797363,9.747393508911133,-0.031573534393310544
1790958016497186800,7.822186767578125,1.6328455322265625,9.682301151275635,0.06763619689941405
1790958016507199000,7.832198974609375,2.1000141311645506,9.619154082489013,0.23478140029907224
1790958016517212000,7.8422119140625,2.4622867698669433,9.372700949096679,0.05027823486328125
1790958016527224000,7.85222412109375,2.3594857360839843,9.240870220184325,-0.011821370697021483
1790958016537236000,7.862236083984375,1.8544588233947752,9.260622383880614,0.22774843292236327
1790958016547247900,7.872247802734375,1.9475334129333495,9.32736075515747,0.18914193115234373
1790958016557260000,7.882260009765625,2.276436865997314,9.414898753356933,0.001496376037597656
1790958016567272000,7.89227197265625,2.4516625,9.536853400421142,-0.15023615417480468
1790958016577283800,7.902283935546875,2.493710666656494,9.599850831604003,-0.2685994987487793
1790958016587296000,7.9122958984375,2.175880396270752,9.705494979858399,-0.08259995727539061
1790958016597308000,7.922307861328125,2.277185054016113,9.740809454345703,-0.09651625442504883
1790958016607320000,7.932320068359375,2.724451851654053,9.553762449645996,-0.13422493057250975
1790958016617332000,7.94233203125,3.3264439315795897,9.230245950317382,-0.5140051689147949
1790958016627344000,7.95234375,4.013130895233154,9.017461277770996,-0.8171709541320801
1790958016637356300,7.962356201171875,3.697694826507568,9.39125601196289,-0.17342998275756835
1790958016647368400,7.972368408203125,1.9630957237243651,10.281300479125976,1.370680450439453
1790958016657380400,7.98238037109375,1.266682315826416,9.792434427642823,0.9234136528015137
1790958016667392300,7.992392333984375,1.331026485443115,10.08123500289917,1.3839981971740722
1790958016677404400,8.002404296875,1.0613795234680174,9.707140993499756,1.0302549018859863
1790958016687417300,8.012417236328124,1.7913117546081543,9.39784006652832,0.41689036407470703
1790958016697429500,8.022429443359375,2.346916177368164,9.405022671508789,0.3010708587646484
1790958016707441400,8.03244140625,2.407369769287109,9.181763366699219,0.45010991210937495
1790958016717453300,8.042453369140626,2.449717211151123,9.218424579620361,0.6681319007873535
1790958016727465500,8.052465576171874,2.7608137893676754,9.637260232543944,0.859967308807373
1790958016737477400,8.062477294921875,2.7454011161804197,9.930699573516845,0.6862380508422851
1790958016747489500,8.072489501953125,2.943670941162109,9.581595043945311,-0.046537294769287106
1790958016757501400,8.08250146484375,2.855085479736328,9.425223748016357,-0.4608838195800781
1790958016767513300,8.092513427734374,2.3108535148620604,9.202263718414306,-0.3933972602844238
1790958016777525500,8.102525390625,2.635267839813232,9.326163654327392,-0.08005611801147461
1790958016787537400,8.112537353515625,2.707991715240478,9.676764559936522,0.5309142181396485
1790958016797549300,8.12254931640625,2.3994389762878416,9.747692784118652,0.6706757400512695
1790958016807561500,8.1325615234375,2.866009024810791,9.41684404220581,0.5282207412719726
1790958016817573400,8.142573486328125,3.3635540573120117,9.106645289611816,0.4261678955078125
1790958016827585500,8.15258544921875,3.320458427429199,9.271695566558837,0.3711012573242187
1790958016837597400,8.162597412109376,2.656516379547119,9.594164602661133,0.30690672531127927
1790958016847609300,8.172609375,2.327612926483154,9.528473694610595,0.027832594299316404
1790958016857622300,8.182622314453125,2.5172037704467773,9.783605809020996,-0.3093009269714355
1790958016867634200,8.19263427734375,2.6255413955688476,9.738564890289306,-0.5506663818359374
1790958016877646300,8.202646240234374,2.756025386047363,9.588478373718262,-0.3573345977783203
1790958016887658200,8.212658203125,2.446425183868408,9.695768535614013,0.26351182022094727
1790958016897670100,8.222670166015625,2.123656872558594,9.854683670806883,0.5834370170593262
1790958016907682300,8.232682373046876,1.9099743743896482,9.783605809020996,0.5765536872863769
1790958016917694200,8.242694091796874,1.6226701751708983,9.417741867828369,0.35194764404296874
1790958016927706400,8.252706298828125,1.5614683952331543,9.2573303565979,-0.0047884033203125
1790958016937718300,8.26271826171875,1.984194625854492,9.23802710571289,-0.17642273483276366
1790958016947730200,8.272730224609376,2.542193250274658,9.48178676223755,-0.27189152603149414
1790958016957742300,8.282742431640624,2.680757671356201,9.733477211761475,-0.22909517135620117
1790958016967754200,8.292754150390625,2.8583775070190427,9.783306533813477,-0.1806125877380371
1790958016977766400,8.302766357421875,3.259256647491455,10.284293231201172,0.1452981132507324
1790958016987778300,8.3127783203125,2.7679963943481445,9.958382530212402,-0.18659809188842771
1790958016997790500,8.32279052734375,1.1058218917846678,9.682001876068115,0.9279027809143066
1790958017007802400,8.33280224609375,0.953790086364746,9.64623848876953,1.2219406723022461
1790958017017814300,8.342814208984375,1.4938321983337401,9.596708441925049,1.1800421432495116
1790958017027827200,8.3528271484375,1.792658493041992,9.680655137634277,1.0529998176574706
1790958017037839400,8.36283935546875,1.7392378684997558,9.59476315307617,0.9469067565917968
1790958017047851300,8.372851318359375,1.7637784355163573,9.756521402740479,1.022773021697998
1790958017057863200,8.38286328125,1.9792565849304198,9.875632935333252,1.1546037506103515
1790958017067875300,8.392875244140624,1.9454384864807128,9.880421338653564,1.341351480102539
1790958017077887200,8.40288720703125,1.7414824325561522,9.996540119171142,1.3814543579101561
1790958017087899400,8.4128994140625,1.8516157089233398,10.143633883666991,1.3428478561401367
1790958017097911300,8.422911376953126,1.8062755149841307,10.32424647140503,1.4362217208862305
1790958017107923200,8.432923095703124,0.5494692810058593,10.082432103729248,1.472134745788574
1790958017117935400,8.442935302734375,-0.7128735443115234,9.660454061126709,1.5084966835021971
1790958017127947300,8.452947265625,-0.783352855682373,9.639504796600342,1.3539210388183593
1790958017137959200,8.462959228515626,-0.41883565292358393,9.534758473968505,0.9959878906249999
1790958017147971300,8.472971435546874,0.27189152603149414,9.165452867889403,0.6549637916564941
1790958017157983200,8.482983154296875,0.8774749084472656,9.373299499511718,0.5838859298706054
1790958017167995400,8.492995361328125,1.1888707618713379,9.531167171478272,0.5678747062683105
1790958017178007300,8.50300732421875,1.108964281463623,9.595062428283692,0.7128735443115234
1790958017188019200,8.513019287109374,0.7059902145385741,9.815029705810547,0.771830760192871
1790958017198032400,8.523032470703125,0.512658430480957,9.888352131652832,0.9519944351196289
1790958017208044300,8.533044189453125,0.476895043182373,9.941922393798828,0.9539397239685058
1790958017218056400,8.543056396484374,0.5493196434020996,9.944166957855224,0.828693049621582
1790958017228068400,8.553068359375,0.6830956611633301,9.929502472686767,0.6615478462219238
1790958017238080300,8.563080322265625,0.8716390419006347,9.916633638763427,0.462829108428955
1790958017248092400,8.573092529296876,0.9404723396301269,9.721805478668212,0.22999299697875975
1790958017258104300,8.583104248046874,0.939125601196289,9.466074813842773,0.040701428222656245
1790958017268116200,8.5931162109375,0.9307458953857422,9.274538681030274,-0.03755903854370117
1790958017278128400,8.60312841796875,0.8532336166381835,9.521440727233886,0.2763806541442871
1790958017288140300,8.613140380859376,0.8054992210388183,9.830292741394043,0.050128597259521485
1790958017298152400,8.62315234375,1.3844471099853515,9.77507646560669,1.255758770751953
1790958017308164400,8.633164306640625,1.8327613708496093,9.507524430084228,1.4294880287170408
1790958017318176300,8.64317626953125,2.1728876441955567,9.643245736694336,0.6123170745849609
1790958017328188400,8.6531884765625,3.1712697364807125,9.610026188659667,0.895730696105957
1790958017338200300,8.663200439453124,3.719541916656494,9.462633148956298,1.0779892974853515
1790958017348212200,8.673212158203125,2.147000338745117,9.549273321533203,0.6741174049377441
1790958017358224400,8.683224365234375,1.0103531005859374,9.55121861038208,0.816572403717041
1790958017368237300,8.6932373046875,1.2795511497497558,9.534010285949707,1.3112743217468261
1790958017378249500,8.70324951171875,2.044348942565918,9.598653730773925,0.7118260810852051
1790958017388261400,8.713261474609375,2.2972364929199216,9.735572138214112,0.4296095603942871
1790958017398273500,8.7232734375,2.0228011276245117,9.772233351135254,0.3763385734558105
1790958017408285400,8.733285400390624,1.6552911727905273,9.76849241104126,0.30256723480224607
1790958017418297300,8.74329736328125,1.8441338287353515,9.654019644165038,0.48677112503051756
1790958017428309500,8.7533095703125,2.2028151649475096,9.597905542755127,0.4825812721252441
1790958017438321400,8.7633212890625,2.168248878479004,9.554361000061034,0.5948094749450683
1790958017448333300,8.773333251953124,1.8887258346557616,9.508871168518066,0.5168482833862305
1790958017458345500,8.783345458984375,1.8474258560180663,9.555258825683593,0.43035774841308594
1790958017468357400,8.793357421875,2.1326351287841794,9.654468556976317,0.28790274963378903
1790958017478369300,8.803369384765626,2.198176399230957,9.794529354095458,0.2877531120300293
1790958017488381400,8.81338134765625,1.854758098602295,9.903315892028807,0.3221697608947754
1790958017498393300,8.823393310546875,1.618480322265625,9.840318460845946,0.2841618095397949
1790958017508405500,8.833405517578125,1.517026026916504,9.709235919952391,0.24390929412841794
1790958017518417400,8.84341748046875,1.4571709854125976,9.522039277648926,0.27608137893676754
1790958017528429300,8.85342919921875,1.5352818145751952,9.498396536254882,0.508169302368164
1790958017538441500,8.86344140625,1.7350480155944823,9.719112001800536,0.7855974197387695
1790958017548454400,8.873454345703125,1.8173486976623534,9.983521647644043,0.7445967163085937
1790958017558466600,8.883466552734374,1.7721581413269043,9.947907897949218,0.8020575561523438
1790958017568478500,8.893478515625,1.719934617614746,9.792284790039062,0.7685387329101562
1790958017578490400,8.903490478515625,1.7428291709899901,9.565134907531737,0.8563760063171386
1790958017588502500,8.91350244140625,1.7983447219848632,9.335590823364257,0.9484031326293945
1790958017598514400,8.923514404296874,1.7546505416870115,9.171438372039795,1.1786954048156737
1790958017608526600,8.933526611328125,1.6008230850219725,9.0144685256958,1.797147621154785
1790958017618538500,8.94353857421875,1.5474024604797363,9.220968418884278,2.0886416732788087
1790958017628550400,8.95355029296875,1.8164508720397947,9.792584065246581,1.7712603157043456
1790958017638562300,8.963562255859374,2.032078659057617,10.102333905029296,1.3423989433288575
1790958017648574200,8.97357421875,1.7344494651794433,10.008062214660644,1.4695909065246582
1790958017658586400,8.98358642578125,1.6038158370971678,9.800963771057129,1.5286977600097655
1790958017668598300,8.993598388671876,1.7519570648193359,9.536404487609863,1.6130933685302733
1790958017678610200,9.003610107421874,1.5277999343872068,9.273191942596435,1.60875387802124
1790958017688622300,9.013622314453125,1.4387655601501463,9.283666574859618,1.4378677345275879
1790958017698634200,9.02363427734375,1.8260276786804197,9.645490300750732,1.1367968757629394
1790958017708646400,9.033646484375,1.8441338287353515,9.874585472106933,1.0899603057861327
1790958017718659000,9.0436591796875,1.6310498809814453,9.943718045043944,1.054047280883789
1790958017728671000,9.0536708984375,1.7953519699096678,10.01000750350952,1.0024223075866698
1790958017738683100,9.06368310546875,1.6356886466979979,9.955389778137206,0.9472060317993164
1790958017748695000,9.073695068359376,1.356614515686035,9.795576817321777,0.8613140472412109
1790958017758707200,9.083707275390625,1.335515613555908,9.664195001220703,0.7356184600830078
1790958017768719000,9.093718994140625,1.356015965270996,9.434650917053222,0.6573579933166503
1790958017778731000,9.10373095703125,1.493383285522461,9.252541953277587,0.6851905876159667
1790958017788743200,9.1137431640625,1.4176666580200195,9.290400267028808,0.8215104446411132
1790958017798755000,9.123755126953125,1.2924199836730956,9.3975407913208,0.9057564155578612
1790958017808767000,9.13376708984375,1.5441104331970215,9.572766425323486,0.9234136528015137
1790958017818779100,9.143779052734375,1.6258125648498534,9.65237363052368,0.9362824867248535
1790958017828791000,9.153791015625,1.6129437309265136,9.747243871307372,1.032948378753662
1790958017838803200,9.16380322265625,1.8222867385864256,9.841216286468505,1.1445780311584473
1790958017848815000,9.173815185546875,1.7132009254455565,9.853935482788085,1.1981482933044434
1790958017858827000,9.183826904296875,1.4980220512390137,9.731681560516357,1.239148996734619
1790958017868839200,9.193839111328124,1.7311574378967285,9.629927989959716,1.157446865081787
1790958017878851000,9.20385107421875,1.9457377616882323,9.561842880249023,1.2137106040954588
1790958017888863000,9.213863037109375,1.6373346603393553,9.41025998764038,1.2996025886535645
1790958017898875100,9.223875244140626,1.7857751632690428,9.387515071868895,1.3754688537597655
1790958017908887000,9.233886962890624,2.194884371948242,9.392004199981688,1.541716231536865
1790958017918900200,9.243900146484375,2.007089179229736,9.279775997161865,1.6395792243957519
1790958017928912100,9.253912109375,1.9812018737792967,9.294141207122802,1.6442179901123046
1790958017938924000,9.263924072265626,2.411858897399902,9.379883554077148,1.5351321769714354
1790958017948936200,9.273936279296874,2.523039636993408,9.500940375518798,1.3308768478393553
1790958017958948000,9.283947998046875,2.4316110610961914,9.533112460327148,1.2580033348083495
1790958017968960300,9.293960205078125,2.5781062751770016,9.600599019622802,1.334917063140869
1790958017978972200,9.30397216796875,2.7295395301818846,9.847650703430174,1.5963339569091797
1790958017988984000,9.313984130859374,2.695571794128418,9.695319622802733,1.7845780624389647
1790958017998996200,9.323996337890625,2.5273791275024413,9.451859241485595,1.7738041549682617
1790958018009008000,9.334008056640625,2.6701334014892577,9.25104557723999,1.567304261779785
1790958018019020000,9.34402001953125,2.9117981315612793,9.206752846527099,1.1628338188171385
1790958018029032200,9.3540322265625,2.8336873023986815,9.222764070129394,0.9047089523315429
1790958018039044000,9.364044189453125,2.6910826660156246,9.255684342956542,0.828693049621582
1790958018049056300,9.37405615234375,2.808548184967041,9.48178676223755,0.7655459808349608
1790958018059068200,9.384068115234374,3.1100679565429687,9.536105212402344,0.7778162643432617
1790958018069080000,9.394080078125,3.168276984405517,9.549871871948241,0.6079775840759277
1790958018079092200,9.40409228515625,3.0678701522827145,9.484929151916504,0.522235237121582
1790958018089104100,9.414104248046876,3.112911071014404,9.453205979919433,0.4951508308410644
1790958018099117300,9.424117431640624,3.0725089179992673,9.371054935455321,0.6036380935668945
1790958018109129200,9.434129150390625,2.7364228599548337,9.31374373321533,0.6765116065979003
1790958018119141000,9.44414111328125,2.5851392425537107,9.27543650665283,0.6171054779052734
1790958018129153300,9.4541533203125,2.7346272087097168,9.315689022064209,0.5855319435119628
1790958018139165200,9.464165283203124,2.6767174560546874,9.443180260467528,0.663343497467041
1790958018149177000,9.474177001953125,2.4919150154113767,9.570821136474608,0.8001122673034667
1790958018159189200,9.484189208984375,2.5673323677062987,9.62693523788452,0.9214683639526366
1790958018169201200,9.494201171875,2.582445765686035,9.533860648345946,0.9379285003662109
1790958018179213300,9.50421337890625,2.4000375267028806,9.425373385620116,0.8180687797546387
1790958018189225200,9.51422509765625,2.4506150367736814,9.35324806060791,0.7006032608032227
1790958018199237000,9.524237060546875,2.4533085136413573,9.323619815063475,0.6607996582031249
1790958018209249300,9.534249267578126,2.421734979248047,9.304017288970947,0.8004115425109862
1790958018219261200,9.54426123046875,2.5297733291625977,9.336339011383057,0.9865607215881347
1790958018229273000,9.554273193359375,2.5764602615356442,9.443629173278808,1.2445359504699707
1790958018239285200,9.56428515625,2.452859600830078,9.497349073028564,1.370680450439453
1790958018249297200,9.574297119140626,2.4417864181518554,9.489867192840576,1.3789105186462403
1790958018259309300,9.584309326171875,2.6331729133605957,9.389011447906494,1.2949638229370117
1790958018269321200,9.5943212890625,2.70065947265625,9.293841931915283,1.1845312713623046
1790958018279333000,9.6043330078125,2.619555891418457,9.185354669189453,1.2466308769226073
1790958018289346300,9.61434619140625,2.6499323249816893,9.18640213241577,1.2597989860534666
1790958018299358200,9.624358154296875,2.712630480957031,9.168744895172118,1.3034931663513183
1790958018309370400,9.634370361328125,2.7718869720458983,9.317484673309325,1.6244658264160154
1790958018319382300,9.64438232421875,2.835931866455078,9.465027350616454,2.000355487060547
1790958018329394200,9.654394287109374,2.8399720817565917,9.496900160217285,2.3843255783081054
1790958018339406300,9.66440625,2.7742811737060546,9.477746546936034,2.239626015472412
1790958018349418200,9.674418212890625,2.6018986541748044,9.47430488204956,1.8071733406066894
1790958018359430100,9.68443017578125,2.542193250274658,9.355342987060546,1.8861819953918455
1790958018369442300,9.6944423828125,2.4947581298828125,9.288155702972412,1.9053356086730955
1790958018379454200,9.7044541015625,2.3280618392944334,9.250596664428711,1.9834464378356933
1790958018389466400,9.71446630859375,2.23468797454834,9.298630335235595,1.9954174461364744
1790958018399478300,9.724478271484376,2.353051319122314,9.426271211242675,2.090138049316406
1790958018409490200,9.734490234375,2.334645893859863,9.581595043945311,2.0560206756591795
1790958018419502300,9.74450244140625,2.1856068405151365,9.682750064086914,2.0847510955810544
1790958018429514200,9.75451416015625,2.0866963844299313,9.657461309051513,1.9551649307250976
1790958018439526100,9.764526123046876,2.016815623474121,9.575160626983642,1.7600374954223632
1790958018449538300,9.774538330078125,1.8950106140136718,9.607332711791992,1.7366940292358397
1790958018459550200,9.78455029296875,1.6475100173950195,9.521440727233886,2.0632032806396485
1790958018469562400,9.794562255859375,1.5931915672302246,9.240122032165527,1.962646810913086
1790958018479574300,9.80457421875,1.726967584991455,9.35264951019287,1.3804068946838377
1790958018489587000,9.8145869140625,1.7209820808410643,9.543437454986572,1.776048719024658
1790958018499599000,9.82459912109375,1.594089392852783,9.622296472167967,1.9838953506469725
1790958018509611000,9.834611083984376,1.5300444984436035,9.68484499053955,2.178424235534668
1790958018519623200,9.844623046875,1.6322469818115233,9.538798689270019,2.1416133850097654
1790958018529635000,9.854635009765625,1.664419066619873,9.578303016662597,1.5197195037841795
1790958018539647000,9.86464697265625,1.58960026473999,9.791386964416503,1.1948562660217283
1790958018549659100,9.8746591796875,1.5607202072143553,9.875184022521973,1.605611488342285
1790958018559671000,9.884671142578124,1.5783774444580077,9.72240402908325,2.1461025131225586
1790958018569683200,9.89468310546875,1.71739077835083,9.432406352996825,2.129193463897705
1790958018579695000,9.904695068359375,1.784428424835205,9.31434228363037,1.7995418228149413
1790958018589707300,9.914707275390626,1.6356886466979979,9.304615839385987,1.2594997108459471
1790958018599719200,9.92471923828125,1.6597803009033203,9.465476263427734,1.0486603271484374
1790958018609731000,9.93473095703125,2.0528782859802246,9.64638812637329,1.3181576515197753
1790958018619743200,9.9447431640625,1.9520225410461425,9.755773214721678,1.5593734687805174
1790958018629755100,9.954755126953126,1.6587328376770019,9.792584065246581,1.6793828269958495
1790958018639767300,9.964767333984375,1.7613842338562011,9.753678288269043,1.7369933044433592
1790958018649779500,9.974779541015625,1.5978303329467773,9.572467150115965,1.5869067878723144
1790958018659791400,9.984791259765625,1.5031097297668456,9.342773428344726,1.5741875915527344
1790958018669803300,9.99480322265625,1.770362490081787,9.343072703552245,1.5822680221557617
1790958018679816400,10.00481640625,1.6418237884521483,9.433603453826903,1.7504606887817382
1790958018689828400,10.014828369140625,1.4514847564697264,9.463979887390137,1.8632874420166015
1790958018699840500,10.024840576171876,1.9104232872009277,9.595062428283692,1.9454384864807128
1790958018709852400,10.034852294921874,1.8867805458068847,9.628281976318359,2.1039047088623044
1790958018719864300,10.0448642578125,1.8234838394165038,9.709535195159912,1.859097589111328
1790958018729876500,10.05487646484375,1.7938555938720702,9.798419931793212,1.701379554748535
1790958018739888400,10.064888427734376,1.4872481437683105,9.565733457946777,1.8713678726196288
1790958018749900500,10.074900634765624,1.737292579650879,9.500940375518798,1.8694225837707519
1790958018759912400,10.084912353515625,1.5028104545593262,9.516652323913574,2.037914525604248
1790958018769924400,10.09492431640625,1.1974001052856444,9.497797985839844,1.9051859710693357
1790958018779936500,10.1049365234375,1.4136264427185057,9.561842880249023,2.382529927062988
1790958018789948400,10.114948486328124,1.4739303970336912,9.6656913772583,2.0521300979614256
1790958018799960300,10.124960205078125,1.304390991973877,9.661501524353026,1.8091186294555663
1790958018809972500,10.134972412109375,1.3581108917236326,9.64025298461914,2.0548235748291015
1790958018819984400,10.144984375,1.3744213905334473,9.676166009521484,1.9615993476867675
1790958018829996500,10.15499658203125,1.333719962310791,9.623194297790526,1.9749170944213865
1790958018840008400,10.165008544921875,1.4031518104553222,9.536554125213623,1.8044798637390136
1790958018850020400,10.175020263671875,1.2464812393188476,9.548375495910644,1.827823329925537
1790958018860032500,10.185032470703124,1.300500414276123,9.612420390319823,1.6234183631896972
1790958018870044400,10.19504443359375,1.4004583335876464,9.72390040512085,1.6733973228454588
1790958018880057600,10.2050576171875,1.1381436141967773,9.729287358856201,1.5333365257263183
1790958018890069500,10.215069580078126,1.1031284149169922,9.724349317932129,1.2949638229370117
1790958018900081400,10.225081298828124,1.1794435928344726,9.699958388519287,1.2099696640014648
1790958018910093600,10.235093505859375,0.9460089309692382,9.65282254333496,1.2306196533203124
1790958018920105500,10.24510546875,0.9617208793640136,9.539397239685059,1.1546037506103515
1790958018930117400,10.255117431640626,1.1088146438598632,9.547627307891846,1.1915642387390135
1790958018940129500,10.265129638671874,1.0516530792236327,9.572317512512207,1.1553519386291504
1790958018950141400,10.275141357421875,1.0588356842041016,9.70414824142456,1.0398317085266113
1790958018960153600,10.285153564453125,1.265335577392578,9.801113408660887,1.071405242919922
1790958018970165500,10.29516552734375,1.1350012245178223,9.827449626922608,0.9849147079467773
1790958018980177400,10.305177490234374,1.3431471313476562,9.977685781097412,1.027262149810791
1790958018990189600,10.315189453125,1.5327379753112793,10.066720155334473,1.0624269866943359
1790958019000201500,10.325201416015625,1.0277110626220702,9.862614463806151,1.202188508605957
1790958019010213400,10.33521337890625,0.9904512992858886,9.51859761276245,1.130661734008789
1790958019020225500,10.3452255859375,1.34718734664917,9.451260691070557,1.1372457885742187
1790958019030237400,10.355237548828125,1.1602899795532227,9.392153837585449,1.2795511497497558
1790958019040249600,10.36524951171875,1.005564697265625,9.414000927734374,1.4041992736816404
1790958019050261500,10.375261474609376,1.3028946159362793,9.594613515472412,1.5375263786315918
1790958019060273400,10.3852734375,1.6846201431274412,9.69801309967041,1.5943886680603025
1790958019070286600,10.39528662109375,1.5363292778015136,9.718663088989258,1.6023194610595701
1790958019080298500,10.405298583984376,1.328632283782959,9.849745629882811,1.4927847351074217
1790958019090310700,10.415310546875,1.8257284034729002,9.929801747894286,1.424250712585449
1790958019100322600,10.425322509765625,1.8414403518676756,9.819219558715819,1.3883376876831053
1790958019110334500,10.43533447265625,1.0957961723327636,9.475651620483397,1.5234604438781738
1790958019120346600,10.4453466796875,0.9552864624023437,9.208548497772217,1.4993687896728514
1790958019130358500,10.455358642578124,1.4885948822021484,9.21258871307373,1.6542437095642089
1790958019140370400,10.465370361328125,1.4746785850524902,9.296685046386719,1.8701707717895506
1790958019150382600,10.475382568359375,1.373822840118408,9.54418564300537,1.4061445625305176
1790958019160394500,10.48539453125,1.8203414497375487,9.935039064025878,1.6219219871520996
1790958019170406700,10.49540673828125,2.0670938583374023,10.22159507522583,1.8418892646789549
1790958019180418600,10.50541845703125,2.1471499763488766,10.570101054382324,2.0232500404357907
1790958019190430500,10.515430419921875,1.989431941986084,10.391733030700683,2.2049100914001465
1790958019200442600,10.525442626953126,1.3896844261169432,9.842563024902343,2.100911956787109
1790958019210454500,10.53545458984375,1.435772808074951,9.152434396362304,1.9424457344055175
1790958019220466400,10.545466552734375,1.5544354278564452,8.939649723815917,1.7363947540283202
1790958019230478600,10.555478515625,0.9985317298889159,8.72087954711914,2.0192098251342774
1790958019240490500,10.565490478515626,0.7887398094177246,8.722974473571776,2.6931775924682615
1790958019250502700,10.575502685546875,1.5726912155151367,9.617657706451416,2.8413188201904296
1790958019260514600,10.5855146484375,2.2581810783386227,10.473435162353516,2.111236951446533
1790958019270526500,10.5955263671875,2.2813749069213864,10.743082124328613,2.346167989349365
1790958019280539400,10.605539306640624,1.9837457130432128,10.753706394195556,2.542043612670898
1790958019290551600,10.615551513671875,1.2759598472595215,10.232967533111571,2.5188497840881348
1790958019300563500,10.6255634765625,1.275510934448242,9.599102643585205,2.6768670936584473
1790958019310575400,10.635575439453126,1.6689081947326658,9.260023833465576,2.3401824851989743
1790958019320587500,10.64558740234375,0.7879916213989258,8.998906214904785,1.8222867385864256
1790958019330599400,10.655599365234375,0.13093290328979493,8.641421979522704,1.9859902770996092
1790958019340611600,10.665611572265625,0.17612345962524412,8.762329163360596,2.4423849685668944
1790958019350623500,10.67562353515625,0.6862380508422851,9.273640855407715,3.5715503265380857
1790958019360635400,10.685635498046874,1.25126964263916,9.97903251953125,3.4837130531311034
1790958019370647600,10.6956474609375,1.1982979309082031,10.555586206817626,2.5936685859680173
1790958019380659500,10.705659423828125,0.3833715408325195,10.230573331451415,2.8866590141296387
1790958019390671600,10.715671630859376,-0.12375029830932617,9.638457333374022,2.552967157745361
1790958019400683500,10.72568359375,0.28206688308715816,9.134328246307373,2.409913608551025
1790958019410695700,10.73569580078125,0.8292916000366211,9.190442347717285,2.6556185539245605
1790958019420707600,10.74570751953125,0.8174702293395996,9.355492624664306,2.4383447532653806
1790958019430719500,10.755719482421876,0.5488707305908203,9.594463877868652,2.0569185012817384
1790958019440731600,10.765731689453125,0.9735422500610351,9.945064783477783,2.009184105682373
1790958019450743600,10.77574365234375,0.8046013954162597,9.78076269454956,1.6314987937927246
1790958019460755700,10.785755615234375,0.7636006919860839,9.554061724853515,1.5325883377075193
1790958019470767600,10.795767578125,0.9888052856445312,9.697264911651612,1.2597989860534666
1790958019480779500,10.805779541015625,1.1450269439697265,9.86441011505127,1.3335703247070312
1790958019490791700,10.815791748046875,1.4915876342773438,10.065223779296874,0.9906009368896483
1790958019500804400,10.825804443359376,1.9333178405761717,10.571298155212402,1.1221323905944824
1790958019510816500,10.83581640625,2.144456499481201,10.349535226440429,0.8836100502014159
1790958019520828400,10.845828369140625,1.6615759521484375,9.796175367736815,0.9105448188781737
1790958019530840300,10.85584033203125,0.5969044013977051,9.268852452087401,1.2639888389587401
1790958019540852500,10.8658525390625,0.3495534423828125,8.751405618286132,0.8462006492614745
1790958019550864400,10.875864501953124,1.4297873039245605,9.035567427825928,0.9591770401000976
1790958019560876300,10.885876220703125,2.1547814941406247,9.687538467407226,1.0627262619018554
1790958019570888400,10.895888427734375,1.4244003501892089,10.18283893585205,0.5214870491027832
1790958019580900400,10.905900390625,1.213560966491699,10.248230568695067,0.7113771682739257
1790958019590912500,10.91591259765625,1.5536872398376464,10.168922638702393,0.8031050193786621
1790958019600924400,10.92592431640625,2.237082176208496,10.912471891784667,0.9903016616821289
1790958019610936300,10.935936279296875,3.0916625312805173,10.606911904907227,1.466448516845703
1790958019620948500,10.945948486328126,1.5505448501586914,9.981426721191406,1.3274351829528808
1790958019630960400,10.95596044921875,0.3687070556640625,8.694094416046141,1.3257891693115234
1790958019640972300,10.96597216796875,1.490689808654785,8.423399990844725,0.9142857589721679
1790958019650984200,10.975984130859375,3.255216432189941,9.488221179199218,1.2000935821533203
1790958019660996400,10.985996337890626,3.4024598342895507,10.760140811157227,1.2472294273376463
1790958019671008300,10.99600830078125,3.286640328979492,11.805808386230469,1.8567033874511718
1790958019681020200,11.006020263671875,2.959233251953125,10.739640459442137,1.7489643127441405
1790958019691032300,11.0160322265625,1.7937059562683104,9.309404242706298,1.2936170845031738
1790958019701045200,11.026045166015624,1.143380930328369,7.9183730781555175,1.4501380180358885
1790958019711057400,11.036057373046875,1.2795511497497558,7.487267141723632,1.5318401496887206
1790958019721069300,11.0460693359375,1.7357962036132812,6.92672467803955,2.395398760986328
1790958019731081200,11.056081298828126,1.8833388809204101,7.045985848236084,2.6508301506042478
1790958019741093400,11.06609326171875,1.83859723739624,9.586084172058104,2.137273894500732
1790958019751105300,11.076105224609375,2.605190681457519,11.022156255340576,2.2685060729980466
1790958019761117400,11.086117431640625,3.2537200561523436,11.206809058380125,2.507327688598633
1790958019771129300,11.09612939453125,3.0334535034179684,11.046996097564696,2.627187409210205
1790958019781141200,11.106141357421874,2.6753707176208494,9.954791227722167,3.047070525360107
1790958019791153400,11.1161533203125,2.5011925468444822,8.581566938018799,2.7576713996887205
1790958019801165300,11.126165283203125,2.5002947212219238,7.521234877777099,2.7781717514038085
1790958019811177200,11.13617724609375,2.511367903900146,7.24605132446289,2.59830735168457
1790958019821189400,11.146189453125,3.227084562683105,8.301295706176758,3.177853791046142
1790958019831201300,11.156201171875,3.7951089065551757,10.095151300048828,3.3176153129577637
1790958019841213400,11.16621337890625,3.95207875289917,11.341333264160156,3.404704398345947
1790958019851225300,11.176225341796876,3.2486323776245114,10.885986035919188,2.4920646530151367
1790958019861237200,11.1862373046875,2.2297499336242677,10.172663578796387,2.0690391471862792
1790958019871249400,11.19624951171875,2.3605331993103027,9.04050546875,2.307411849975586
1790958019881261300,11.20626123046875,1.8789993904113769,8.333916703796387,1.995118170928955
1790958019891273200,11.216273193359376,0.968454571533203,7.905055331420898,2.684498611450195
1790958019901285400,11.226285400390625,0.6483797370910644,7.428160288238525,3.758896606445312
1790958019911297300,11.23629736328125,1.1595417915344237,8.08851103363037,4.516511794281006
1790958019921310500,11.246310546875,2.6734254287719725,9.628281976318359,2.6033950302124023
1790958019931322400,11.256322265625,3.315520386505127,10.002974536132811,1.709759260559082
1790958019941334300,11.266334228515625,2.044199304962158,9.67841057357788,2.024297503662109
1790958019951346400,11.276346435546875,1.1127052215576172,9.156025698852538,0.831835439300537
1790958019961358300,11.2863583984375,2.835333316040039,9.592967501831055,0.16160861206054686
1790958019971370500,11.29637060546875,4.051438121795654,9.417741867828369,-0.3043628860473633
1790958019981382400,11.30638232421875,3.3002573509216306,9.461136772918701,0.1288379768371582
1790958019991394300,11.316394287109375,1.772906329345703,9.031676850128173,-0.05087678527832031
1790958020001406500,11.326406494140626,1.992424694061279,9.226205735015869,0.05431845016479492
1790958020011418400,11.33641845703125,3.407846788024902,9.214534001922607,0.25034371109008785
1790958020021430300,11.34643017578125,3.905990370941162,9.629030164337157,-0.08005611801147461
1790958020031442400,11.3564423828125,2.968061870574951,9.884611191558838,0.21517887420654297
1790958020041454300,11.366454345703126,2.8850130004882812,9.75472575149536,-0.2985270195007324
1790958020051466500,11.376466552734374,3.1974563171386716,9.227702111053466,-2.035819599151611
1790958020061478400,11.386478515625,3.0693665283203124,9.026888446807861,-2.605190681457519
1790958020071490300,11.396490234375,3.360112392425537,8.553285430908202,-2.627636322021484
1790958020081502500,11.40650244140625,3.828178816986084,8.711003465270995,-2.042254016113281
1790958020091514400,11.416514404296874,3.003077069854736,9.440786058807372,-1.6897078216552734
1790958020101526300,11.4265263671875,2.231395947265625,9.332149158477783,-2.562693601989746
1790958020111538400,11.436538330078125,2.747795317840576,10.116998390197754,-2.455403440093994
1790958020121550300,11.44655029296875,3.2405519470214843,10.734253505706786,-3.0041245330810544
1790958020131562500,11.4565625,2.482787121582031,9.585934534454346,-2.8788778587341306
1790958020141575400,11.466575439453125,1.2451345008850097,8.617629600524902,-2.2137387100219725
1790958020151587300,11.47658740234375,1.1091139190673827,8.479364454650879,-1.0628758995056151
1790958020161599500,11.486599609375,2.447023734283447,9.80021558303833,0.44068274307250976
1790958020171611400,11.496611328125,3.778798407745361,10.417021785736083,-0.4421791191101074
1790958020181623600,11.50662353515625,2.3829788398742675,9.467271914672851,-1.0999860252380371
1790958020191635500,11.516635498046876,1.1010334884643553,8.268225795745849,-0.6423942329406738
1790958020201647400,11.5266474609375,2.658461668395996,8.194604094696045,-1.4667477920532226
1790958020211659500,11.536659423828125,4.074332675170898,9.086444213104247,-1.0928034202575683
1790958020221671400,11.54667138671875,3.374776877593994,9.038560179901122,-0.3667617668151855
1790958020231683300,11.556683349609376,2.814234413909912,9.559897591400146,-0.2072480812072754
1790958020241695500,11.566695556640624,3.005770546722412,10.622773490905761,-0.05910685348510742
1790958020251707400,11.576707275390625,3.2600048355102538,10.023624525451659,-0.08753799819946288
1790958020261719600,11.586719482421875,2.1187188316345216,8.818143989562987,-0.5776011505126952
1790958020271731500,11.5967314453125,1.4778209747314452,8.479364454650879,-0.5719149215698242
1790958020281743400,11.606743408203124,1.8121113815307617,8.921693211364746,0.02259527816772461
1790958020291755500,11.616755615234375,1.5391723922729492,8.245181604766845,0.29553426742553707
1790958020301767400,11.626767333984375,0.6037877311706542,8.246079430389404,-0.047584757995605464
1790958020311779300,11.636779296875,1.4327800559997559,10.741885023498535,-0.38756139373779297
1790958020321791500,11.64679150390625,3.506906881713867,11.915792024993896,0.006733692169189453
1790958020331803400,11.656803466796875,2.7105355545043945,11.945719545745849,-0.6308721374511719
1790958020341815300,11.666815185546875,1.2514192802429198,10.68188034439087,-1.0356418556213378
1790958020351827500,11.676827392578126,1.479915901184082,8.98932940826416,-1.6668132682800292
1790958020361840000,11.686840087890625,3.0449755989074707,8.660575592803955,-2.1484967147827145
1790958020371852300,11.696852294921875,3.7729625411987304,8.48475140838623,-2.748992418670654
1790958020381864200,11.7068642578125,3.1138088966369626,9.797372468566895,-2.9881133094787597
1790958020391876400,11.71687646484375,3.2493805656433103,10.439467426300048,-2.925265515899658
1790958020401888300,11.72688818359375,2.890848867034912,9.502436751556395,-3.20493819732666
1790958020411900200,11.736900146484375,2.5740660598754883,9.126247815704344,-2.7082909904479977
1790958020421912300,11.746912353515626,2.900425673675537,8.981398615264892,-3.31985987701416
1790958020431924200,11.75692431640625,2.9480104316711424,9.607332711791992,-3.2921769203186035
1790958020441936100,11.76693603515625,1.9455881240844726,9.775824653625488,-3.2234932601928707
1790958020451948300,11.7769482421875,1.1471218704223631,9.705195704650878,-3.3174656753540037
1790958020461960200,11.786960205078126,0.9062053283691406,9.272743029785156,-3.725826696014404
1790958020471972400,11.796972412109374,0.8690952026367187,8.687959274291991,-4.525340412902832
1790958020481984300,11.806984375,1.3748703033447265,8.480262280273436,-5.3576247650146485
1790958020491996400,11.816996337890625,1.7592893074035643,9.139266287231445,-3.7894226776123046
1790958020502008300,11.82700830078125,1.9291279876708982,10.105177019500731,-2.1835119140624997
1790958020512020200,11.837020263671874,2.90476516418457,10.838550915527343,-2.3546973327636715
1790958020522032400,11.847032470703125,3.1943139274597168,10.535235492706299,-2.043451116943359
1790958020532044300,11.857044189453125,1.811213555908203,9.769988787078857,-2.4019828155517575
1790958020542056400,11.867056396484376,2.408716507720947,9.829694190979003,-2.7349264839172363
1790958020552068400,11.877068359375,4.528482802581787,9.753827925872802,-2.3508067550659177
1790958020562080300,11.887080322265625,3.563769171142578,9.802909059906005,-2.620752992248535
1790958020572092400,11.897092529296875,2.174384020233154,10.066420880126952,-2.099864493560791
1790958020582105300,11.907105224609374,1.9402011703491209,9.414898753356933,-2.1906945190429687
1790958020592117200,11.9171171875,1.1508628105163574,9.16754779434204,-2.103006883239746
1790958020602129400,11.92712939453125,0.1892915687561035,9.070283351898192,-1.81944362411499
1790958020612141300,11.937141357421876,0.10220248336791991,8.544905725097657,-2.489371176147461
1790958020622153200,11.9471533203125,0.3769371238708496,8.131905938720703,-3.914818989562988
1790958020632165400,11.957165283203125,0.41539398803710936,9.145401428985595,-4.4856864479064935
1790958020642180400,11.967180419921876,0.6353612655639648,9.762806182098387,-3.3828573081970212
1790958020652192300,11.977192138671874,0.8866028022766113,9.177573513793945,-2.6493337745666503
1790958020662204200,11.9872041015625,1.1061211669921875,8.937105884552002,-3.5248633941650387
1790958020672216300,11.99721630859375,2.1172224555969237,9.891195246124267,-2.9505542709350583
1790958020682228200,12.007228271484376,3.3553239891052242,11.126603302764892,-2.3223756103515623
1790958020692240100,12.017240234375,3.2231939849853513,10.966939979553223,-2.5848399673461913
1790958020702252300,12.027252197265625,2.10031340637207,10.326042122650145,-3.479972113037109
1790958020712264200,12.03726416015625,2.7468974922180176,9.856180046844482,-3.3903391883850094
1790958020722276400,12.0472763671875,3.961505921936035,11.207257971191405,-3.93277550201416
1790958020732288300,12.057288330078125,3.5058594184875487,9.994594830322265,-3.3825580329895018
1790958020742300200,12.067300048828125,1.30873048248291,8.978106587982177,-2.9290064559936524
1790958020752312300,12.077312255859376,0.21862053909301757,8.186822939300537,-2.382679564666748
1790958020762324200,12.08732421875,0.5886743331909179,8.073098360443115,-3.076549133300781
1790958020772336000,12.097336181640625,1.6780360885620116,8.116493265533446,-4.709394665527343
1790958020782348300,12.107348388671875,1.526602833557129,8.756044384002685,-5.410446839141845
1790958020792360200,12.117360107421876,0.8366238426208495,9.389161085510253,-6.062118603515625
1790958020802372400,12.127372314453124,0.9777321029663085,9.266757525634764,-6.738330934906005
1790958020812385300,12.13738525390625,1.8447323791503905,9.354744436645507,-5.1213469886779786
1790958020822397400,12.1473974609375,2.8274025230407713,10.066869792938231,-4.275744889831543
1790958020832409300,12.157409423828126,3.7835868110656734,10.23371572113037,-3.8673838691711424
1790958020842421200,12.167421142578124,4.17563733291626,10.493037688446044,-3.464110527038574
1790958020852433400,12.177433349609375,3.0802900733947753,9.776872116851806,-3.692607147979736
1790958020862445300,12.1874453125,2.7174188842773437,8.428637306976318,-4.404433229064941
1790958020872457200,12.197457275390626,4.108599686431885,9.938929641723632,-5.078999546813964
1790958020882469400,12.207469482421875,4.529230990600586,9.280374547576903,-3.438073583984375
1790958020892481300,12.217481201171875,1.8595465019226074,7.699153988647461,-2.7320833694458004
1790958020902493200,12.2274931640625,-0.2255038688659668,7.153724922943115,-2.2801778060913085
1790958020912505300,12.23750537109375,-0.05521627578735351,6.76107585067749,-1.568651000213623
1790958020922517200,12.247517333984375,2.1478981643676756,7.528567120361328,-2.3044190979003907
1790958020932529400,12.257529296875,3.961505921936035,9.012373599243164,-2.8622680847167965
1790958020942541300,12.267541259765625,3.4214638099670407,9.917082551574707,-2.054973212432861
1790958020952553200,12.27755322265625,1.281945351409912,9.72240402908325,-0.07691372833251953
1790958020962565400,12.2875654296875,0.8128314636230468,8.6444147315979,-0.1384147834777832
1790958020972577300,12.297577392578125,2.318036119842529,8.690802388763426,-1.3682862487792968
1790958020982589200,12.307589111328125,4.272303224945068,9.719411277008057,-0.4617816452026367
1790958020992601300,12.317601318359374,3.550451424407959,9.73572177581787,-0.1349731185913086
1790958021002613200,12.32761328125,1.227626901245117,8.962993190002441,0.42871173477172847
1790958021012625400,12.33762548828125,0.6373065544128418,7.818714434051513,1.2063783615112305
1790958021022637300,12.34763720703125,1.2223895851135254,7.294084995269775,1.1851298217773436
1790958021032650500,12.357650390625,1.6006734474182127,7.997681008148193,0.6031891807556152
1790958021042662400,12.367662353515625,3.3928830276489257,9.846154327392577,0.9885060104370117
1790958021052674300,12.37767431640625,4.542399099731445,11.132439169311523,2.129193463897705
1790958021062686500,12.3876865234375,3.503165941619873,11.507131729125977,3.5134909362792968
1790958021072698400,12.397698486328125,1.78757081451416,9.341127414703369,2.798223190307617
1790958021082710300,12.407710205078125,2.461987494659424,9.738115977478026,0.4376899909973144
1790958021092722400,12.417722412109375,5.036203192138672,11.696722573089598,1.0356418556213378
1790958021102734300,12.427734375,4.587440018463134,9.131335494232177,1.1465233200073242
1790958021112746200,12.437746337890625,0.7074865905761718,7.857919486236572,-0.13766659545898435
1790958021122758400,12.44775830078125,-0.7966706024169922,6.320692382812499,0.4312555740356445
1790958021132770300,12.457770263671875,-0.3101987525939941,4.873247841644287,1.6807295654296874
1790958021142782500,12.467782470703124,1.7720085037231443,6.826916396331787,2.96881005859375
1790958021152794400,12.47779443359375,4.790947159576416,10.832116498565673,2.029684457397461
1790958021162806300,12.48780615234375,5.555445677185058,12.281805603790282,1.1945569908142089
1790958021172818400,12.497818359375,2.165405764007568,11.989563363647461,1.704073031616211
1790958021182830300,12.507830322265624,-0.3220201232910156,9.303867651367186,1.9158102409362792
1790958021192842200,12.51784228515625,0.9401730644226074,9.600150106811522,-0.395192911529541
1790958021202854400,12.5278544921875,4.248510845947266,10.398616360473632,0.3302501914978027
1790958021212866300,12.5378662109375,4.552275181579589,8.58066911239624,-0.09756371765136718
1790958021222878500,12.54787841796875,1.3262380821228026,7.889343383026122,0.8530839790344238
1790958021232890400,12.557890380859375,0.8201637062072753,9.620351183319091,1.5254057327270507
1790958021242902300,12.56790234375,3.6360441337585447,10.91082587814331,0.6057330200195312
1790958021252914400,12.57791455078125,4.18162283706665,11.244517734527587,0.45055882492065424
1790958021262927400,12.58792724609375,1.8085200790405271,10.120440055084227,0.3547907585144043
1790958021272939500,12.597939453125,1.0428244606018067,9.649081603240965,1.2268787132263184
1790958021282951400,12.607951416015625,2.7103859169006346,10.772710369873046,0.5572504364013672
1790958021292963300,12.61796337890625,3.4386721343994138,10.650456447601318,0.6444891593933105
1790958021302975500,12.6279755859375,1.0633248123168946,8.921842848968506,0.9147346717834473
1790958021312987400,12.6379873046875,-0.8002619049072265,7.635258731842041,0.054767362976074214
1790958021322999300,12.647999267578125,-0.9653121818542479,6.459705716705322,0.11552023010253906
1790958021333011500,12.658011474609374,0.48332946014404293,7.363666481018066,-0.6227917068481444
1790958021343023400,12.6680234375,2.00439570236206,9.175628224945068,-0.5431845016479492
1790958021353035500,12.678035400390625,1.9194015434265135,10.161440758514404,-0.22789807052612304
1790958021363047400,12.68804736328125,2.3382371963500974,11.015871475982665,-0.015412673187255858
1790958021373059300,12.698059326171874,2.9282582679748534,11.653327667999267,0.5225345123291015
1790958021383071500,12.708071533203125,3.2620997619628906,11.435754592132568,0.5026327110290527
1790958021393083400,12.71808349609375,3.1247324417114255,9.808296013641357,-0.1767220100402832
1790958021403095300,12.72809521484375,3.752761464691162,10.676942303466797,-0.16998831787109375
1790958021413107500,12.738107421875,4.449324510192871,9.069984076690673,0.010773907470703125
1790958021423119400,12.748119384765625,1.7429788085937499,7.850736881256103,-0.5976525894165039
1790958021433131500,12.758131591796875,-0.5015852478027344,7.563283044433593,-0.16160861206054686
1790958021443143400,12.768143310546876,1.4140753555297851,8.361001110076904,0.37499183502197264
1790958021453155300,12.7781552734375,3.554790914916992,9.813982242584228,-0.1683423042297363
1790958021463167500,12.78816748046875,1.9587562332153319,9.120411949157715,0.8316858016967773
1790958021473179400,12.798179443359375,1.0217255584716796,10.573243444061278,0.9000701866149902
1790958021483191300,12.80819140625,3.4296938781738278,11.939434766387938,1.262791738128662
1790958021493204500,12.81820458984375,5.303605590057373,11.954697801971435,1.4788684379577637
1790958021503216400,12.82821630859375,4.697274019622802,9.683947164916992,0.9766846397399902
1790958021513228500,12.838228515625,2.196979298400879,9.656713121032714,0.36092590026855464
1790958021523240400,12.848240478515624,3.2410008598327633,9.02658917160034,1.2138602416992186
1790958021533252400,12.85825244140625,3.2071827613830566,8.604760766601562,-0.1505354293823242
1790958021543264500,12.868264404296875,1.8486229568481445,8.577975635528563,0.3510498184204101
