time,seconds_elapsed,z,y,x
1790958008731578600,0.05657861328125,7.45399849385023,6.297344240450859,-0.9755758747804909
1790958008741590500,0.066590576171875,7.480178060245514,6.27265052869916,-0.9333657224953174
1790958008751602700,0.076602783203125,7.502105814415216,6.254157425153255,-0.8799470707144588
1790958008761614600,0.086614501953125,7.520425899481773,6.240712837168574,-0.8167530209809541
1790958008771626800,0.096626708984375,7.53615421448946,6.230400117468833,-0.7475771203588694
1790958008781638700,0.106638671875,7.550594827774167,6.221676128265261,-0.6705596393909304
1790958008791650600,0.116650634765625,7.56239457116127,6.2165259058952325,-0.5791156832614913
1790958008801662700,0.126662841796875,7.5626406548768275,6.223780407068133,-0.4913317109443247
1790958008811674600,0.136674560546875,7.553146850344538,6.241355226725339,-0.4072404556652531
1790958008821686500,0.1466865234375,7.539823842912912,6.26263416159749,-0.317569938949123
1790958008831699700,0.15669970703125,7.525693026229739,6.283880947765708,-0.21717196598621083
1790958008841711600,0.166711669921875,7.510535204586386,6.304736688789725,-0.11197629215167834
1790958008851723800,0.176723876953125,7.494799290794134,6.324413449162244,-0.012752980999817372
1790958008861735700,0.186735595703125,7.479574833655357,6.342023340132832,0.07130331827194895
1790958008871747600,0.19674755859375,7.464677124252915,6.3584910753309725,0.1362906126643531
1790958008881759700,0.206759765625,7.449277310547232,6.3753638841986655,0.18270627208165824
1790958008891771600,0.216771728515625,7.432973241478204,6.393429702243209,0.21296205667359752
1790958008901783800,0.22678369140625,7.415931505784392,6.412603189268708,0.22991783111700786
1790958008911795700,0.236795654296875,7.398636672112345,6.432224420061707,0.2388443754216656
1790958008921807600,0.2468076171875,7.3821975784867995,6.450834427985549,0.24552365225618702
1790958008931819800,0.25681982421875,7.366765031555294,6.468127508091926,0.2539518733835779
1790958008941831700,0.266831787109375,7.353832484745979,6.482466999089717,0.2629761059090495
1790958008951843600,0.276843505859375,7.345472652679681,6.491945021530985,0.26280325182648373
1790958008961855700,0.286855712890625,7.341522453749179,6.497044975018501,0.24665751512432468
1790958008971867600,0.29686767578125,7.339364398932457,6.5006690107345575,0.21310128248119725
1790958008981879800,0.3068798828125,7.335265146920085,6.506686079066991,0.1652565035762265
1790958008991891700,0.3168916015625,7.3270187121003865,6.517125055494904,0.11075096987411379
1790958009001903600,0.326903564453125,7.314622171863913,6.531721736124157,0.057420845760079095
1790958009011915800,0.336915771484375,7.29985714893043,6.548464196610451,0.009566482180255116
1790958009021927700,0.346927734375,7.284950671699643,6.564961157903075,-0.03417763421079144
1790958009031939600,0.356939697265625,7.27274117846787,6.578122252771258,-0.07695638929731212
1790958009041951700,0.36695166015625,7.26598761255443,6.58490679834485,-0.12173301280331797
1790958009051963600,0.376963623046875,7.264957684984803,6.584991554018854,-0.16930340434685348
1790958009061976600,0.3869765625,7.2675740049630395,6.580795271372795,-0.21423428683280943
1790958009071988500,0.396988525390625,7.269777652487158,6.576972498214245,-0.25327839456880463
1790958009082000400,0.40700048828125,7.268534374427795,6.576980096998811,-0.2865858035500161
1790958009092012500,0.417012451171875,7.26425450515151,6.58037616917789,-0.3156560316191986
1790958009102024400,0.4270244140625,7.257983169797062,6.586020897066593,-0.3411755266705528
1790958009112036600,0.43703662109375,7.250551558491587,6.593017624086142,-0.36333705306351183
1790958009122048500,0.447048583984375,7.244618076789378,6.598434388437867,-0.38283261165022847
1790958009132060400,0.457060302734375,7.242229135826229,6.600175094625353,-0.397746797263436
1790958009142072600,0.467072509765625,7.242532502686977,6.599388328161835,-0.40520204517282543
1790958009152084500,0.47708447265625,7.2441989745944735,6.597659896934032,-0.40355643339026714
1790958009162096400,0.487096435546875,7.246521864584088,6.595731559219956,-0.3932209904020652
1790958009172108500,0.497108642578125,7.248696286013722,6.59426850093007,-0.37737423664648084
1790958009182120400,0.507120361328125,7.249712185057997,6.594220570135116,-0.35820031122956425
1790958009192132600,0.517132568359375,7.249820906129479,6.5952779702335596,-0.3358296721305698
1790958009202144500,0.52714453125,7.25015525265038,6.596086948528885,-0.31186891429591923
1790958009212156400,0.537156494140625,7.2517580116719005,6.595432868534326,-0.28750695524923503
1790958009222168600,0.54716845703125,7.253880410653352,6.594036445739865,-0.2651161866776645
1790958009232180500,0.557180419921875,7.255107906621694,6.593350801563263,-0.24805412058187648
1790958009242192400,0.5671923828125,7.255221888390183,6.59350453082025,-0.24048646180657668
1790958009252204500,0.57720458984375,7.254677698510885,6.593820172640681,-0.24813171586273236
1790958009262216400,0.587216552734375,7.25535749746859,6.591877806401253,-0.2780608988488093
1790958009272228600,0.597228515625,7.2600669903337955,6.584538549554348,-0.3250646786186844
1790958009282241500,0.607241455078125,7.269965284013748,6.570946077531576,-0.37505408660322426
1790958009292253400,0.61725341796875,7.283560094124078,6.5534092517971985,-0.41588951646909117
1790958009302265600,0.627265625,7.297701432201266,6.53598816139698,-0.44135172837525605
1790958009312277500,0.637277587890625,7.308708563905954,6.522991901701689,-0.4513726620541885
1790958009322289700,0.64728955078125,7.314935475596785,6.516116755235195,-0.4497996771164238
1790958009332301600,0.657301513671875,7.3164797824293375,6.514997395816445,-0.4408174753680825
1790958009342313500,0.6673134765625,7.313581722900271,6.518988511279225,-0.42976398377101865
1790958009352325600,0.67732568359375,7.3067521691411725,6.527238453230262,-0.42061059017423535
1790958009362337500,0.687337646484375,7.297291682356596,6.5381789494395255,-0.4148806316874921
1790958009372349400,0.697349365234375,7.286383334851265,6.550432866334915,-0.41332591305878014
1790958009382361600,0.707361572265625,7.275586631026863,6.5622279335469,-0.41639520096890625
1790958009392373500,0.71737353515625,7.266561028528213,6.5717527177393436,-0.423718164268136
1790958009402385700,0.7273857421875,7.260427640339731,6.577810702604055,-0.43472083899341524
1790958009412397600,0.7373974609375,7.2570847596526145,6.5806438802033655,-0.4474696267336607
1790958009422409500,0.747409423828125,7.255075757917761,6.582057254132628,-0.45911516593974083
1790958009432421600,0.757421630859375,7.252874448481202,6.583856412509084,-0.4679991680106148
1790958009442433500,0.76743359375,7.249703417229652,6.586910539382695,-0.4741225827943533
1790958009452445400,0.777445556640625,7.2451616821467875,6.591604834678769,-0.47829128331374376
1790958009462457600,0.78745751953125,7.239296004983783,6.597735300257802,-0.48256779158916324
1790958009472469500,0.797469482421875,7.232797875136137,6.604411124759912,-0.48863322910796847
1790958009482482700,0.807482666015625,7.226538814741373,6.610583091393113,-0.49771165777239945
1790958009492494600,0.81749462890625,7.220549218937754,6.6161138375133275,-0.5109794278854504
1790958009502506500,0.827506591796875,7.2144766210258,6.621285687193274,-0.5294203628527
1790958009512518700,0.8375185546875,7.208474750262498,6.625902825599908,-0.5528943966163322
1790958009522530600,0.847530517578125,7.203392332431673,6.6291422459125515,-0.579649607475102
1790958009532542700,0.857542724609375,7.200275661715865,6.630049423885345,-0.6073447295324876
1790958009542554600,0.8675546875,7.199433365672826,6.628524406275153,-0.6334120311923325
1790958009552566500,0.87756640625,7.2000377613067625,6.6257116869419805,-0.6555762244664132
1790958009562578700,0.88757861328125,7.200695348432659,6.623254356917738,-0.6729593940090388
1790958009572590600,0.897590576171875,7.200325930598377,6.6223243825912474,-0.6859364375472068
1790958009582602500,0.9076025390625,7.199215339007973,6.622493893939256,-0.695888288045302
1790958009592614700,0.91761474609375,7.198050971403718,6.622844022551178,-0.704546007079631
1790958009602626600,0.92762646484375,7.1973378546983,6.622701399210095,-0.7131192627009004
1790958009612638700,0.937638671875,7.197488661345839,6.62157268744111,-0.7220250382121652
1790958009622650600,0.947650634765625,7.199177929607034,6.618757630020379,-0.7309432348135858
1790958009632662500,0.95766259765625,7.202415011832118,6.614258565035462,-0.7397242149014025
1790958009642674400,0.96767431640625,7.206609540912509,6.608775749710202,-0.7478314604461193
1790958009652686600,0.9776865234375,7.210927988633513,6.603378859102725,-0.7538511591270566
1790958009662698500,0.987698486328125,7.214302433502674,6.599277269002795,-0.7574686189718544
1790958009672710700,0.997710693359375,7.216345922029018,6.596802987843751,-0.7595554351832717
1790958009682722600,1.00772265625,7.217752866217493,6.594965835544467,-0.7621356609348208
1790958009692734500,1.017734375,7.218630233573913,6.593228051966428,-0.7688304093331099
1790958009702747600,1.02774755859375,7.219293665918707,6.590876520404219,-0.7826436844997108
1790958009712759600,1.037759521484375,7.220473231092095,6.586888327550888,-0.8050158945012837
1790958009722771700,1.047771728515625,7.222542438581585,6.580511778256296,-0.8379314911533147
1790958009732783600,1.05778369140625,7.226259997799992,6.570535158643126,-0.8829600618600845
1790958009742795500,1.06779541015625,7.232320320752263,6.556473900064826,-0.9362606402192264
1790958009752807700,1.0778076171875,7.240296706458926,6.539331626605987,-0.9927920902583748
1790958009762819600,1.087819580078125,7.248462477257847,6.521626458567381,-1.0481257818803191
1790958009772831700,1.097831787109375,7.253438512104749,6.507607285565138,-1.0995699917830526
1790958009782843600,1.10784375,7.255502458897233,6.497933448290825,-1.142333905493468
1790958009792855600,1.11785546875,7.25748340358138,6.490391362348198,-1.1722403834573925
1790958009802867700,1.12786767578125,7.26033820849061,6.483652409482002,-1.191686038487777
1790958009812879600,1.137879638671875,7.263330376043915,6.477495640417933,-1.2068410836521535
1790958009822891500,1.1478916015625,7.2665107596457,6.47134763918221,-1.2205975871302186
1790958009832903700,1.157903564453125,7.270173373806476,6.465151122629642,-1.2315766617842019
1790958009842915600,1.16791552734375,7.274877605974674,6.458530243185162,-1.2385181514851749
1790958009852927500,1.177927490234375,7.280439916276931,6.4517147179514165,-1.241354543954879
1790958009862939600,1.187939697265625,7.285871293675899,6.445690635356307,-1.2407806895896791
1790958009872951600,1.19795166015625,7.289363811966776,6.442008147451281,-1.2393898197531699
1790958009882963700,1.207963623046875,7.289961777859926,6.441249438038468,-1.2398204662553964
1790958009892976600,1.2179765625,7.288339145094156,6.4427878996521235,-1.241363165652752
1790958009902988800,1.22798876953125,7.2857011978060005,6.445725706669688,-1.2415988741047679
1790958009913000700,1.238000732421875,7.282415015742182,6.449735526832938,-1.2400513524018226
1790958009923012600,1.2480126953125,7.2786997946113345,6.454131131443381,-1.238994098433852
1790958009933024800,1.258024658203125,7.274709848192334,6.458437888726592,-1.2399851552978158
1790958009943036700,1.26803662109375,7.270774846830964,6.46239568644166,-1.2424401472344995
1790958009953048600,1.278048583984375,7.267179452687501,6.466027320942282,-1.2445805202640592
1790958009963060700,1.288060791015625,7.26376935198307,6.469560171243548,-1.246126872923225
1790958009973072600,1.29807275390625,7.260531100714206,6.472859212788939,-1.247866994588822
1790958009983084800,1.308084716796875,7.256835753327608,6.47655046852231,-1.2502042053647338
1790958009993096700,1.3180966796875,7.252637717115879,6.480897557815909,-1.2520387273155151
1790958010003108600,1.328108642578125,7.248697455057501,6.4854299405485385,-1.2513859624952077
1790958010013120800,1.338120849609375,7.245206105810404,6.48980976306796,-1.2488945840708912
1790958010023132700,1.348132568359375,7.24146282762885,6.494104829913377,-1.248282881913334
1790958010033144600,1.35814453125,7.23562696108222,6.498899078452586,-1.2571407266296446
1790958010043156700,1.36815673828125,7.2303504819840185,6.503316894894838,-1.264630936254561
1790958010053168600,1.378168701171875,7.226154199337959,6.509466649696231,-1.2569479805365205
1790958010063180500,1.3881806640625,7.221592590510845,6.5183046206682915,-1.2372099914960561
1790958010073192700,1.398192626953125,7.218017654633521,6.526969573161006,-1.2121327603194862
1790958010083204600,1.40820458984375,7.215345220553875,6.534647268182039,-1.1864114590857178
1790958010093217500,1.418217529296875,7.211726445534825,6.542034455823898,-1.1675480609226971
1790958010103229400,1.4282294921875,7.207749943119287,6.5476493730962275,-1.1606105167444796
1790958010113241600,1.43824169921875,7.205147067144512,6.550337004745006,-1.1616052999354898
1790958010123253500,1.44825341796875,7.205407763907313,6.55006870919764,-1.161503154735267
1790958010133265400,1.458265380859375,7.20923638228476,6.547366464501619,-1.152950430445373
1790958010143277600,1.468277587890625,7.215684827771782,6.5439259686589235,-1.1319525044716894
1790958010153289500,1.47828955078125,7.222856911358237,6.541133123070002,-1.1019549872234462
1790958010163301400,1.48830126953125,7.229725628083944,6.53904521088004,-1.0688064585983752
1790958010173313500,1.4983134765625,7.235377370235324,6.537773291248083,-1.03789189957045
1790958010183325400,1.508325439453125,7.238583472800254,6.53839405349493,-1.0112868743047119
1790958010193337600,1.518337646484375,7.239017772564291,6.5414902659446,-0.9878834946244954
1790958010203349500,1.528349609375,7.237041504055261,6.546733427295089,-0.9674192371360957
1790958010213361400,1.538361328125,7.233757075557112,6.5529112391471855,-0.9500031882371753
1790958010223373600,1.54837353515625,7.230521746897697,6.5584887470185755,-0.9360374989878386
1790958010233385500,1.558385498046875,7.22831517676413,6.5626236548662185,-0.9240238936543465
1790958010243397400,1.5683974609375,7.227409752357006,6.565609392678737,-0.9097818716816604
1790958010253409500,1.578409423828125,7.227501522293687,6.567930529102683,-0.8921253650903701
1790958010263421400,1.58842138671875,7.2280556490451096,6.569918488049507,-0.8727944224808365
1790958010273434600,1.5984345703125,7.228413960963487,6.571932750481367,-0.8544687844563275
1790958010283446500,1.608446533203125,7.227956864845752,6.574542056196927,-0.8381086012858897
1790958010293458400,1.61845849609375,7.226568040835857,6.57789370471239,-0.8236541056063026
1790958010303470600,1.628470703125,7.224519291612506,6.581824029898643,-0.8101204510986805
1790958010313482500,1.638482421875,7.222232057458162,6.585944909220934,-0.796915590154007
1790958010323494700,1.64849462890625,7.22001613497436,6.589824381002783,-0.784834107216075
1790958010333506600,1.658506591796875,7.218109424570202,6.593082506015897,-0.7749506457790732
1790958010343518500,1.6685185546875,7.216553427299857,6.596071166437864,-0.7639312391147017
1790958010353530600,1.678530517578125,7.213814942246675,6.600809885397553,-0.7487135770428925
1790958010363542500,1.68854248046875,7.2080159005790945,6.6090323548197745,-0.7318332424558699
1790958010373554400,1.698554443359375,7.199245734146237,6.620198476478457,-0.7170931347679347
1790958010383566600,1.708566650390625,7.189451485362649,6.632047319704294,-0.7057792021363973
1790958010393578500,1.71857861328125,7.179653144925832,6.643695671921968,-0.6958931834161282
1790958010403590700,1.728590576171875,7.1703580778360365,6.654829644876718,-0.6852682559620589
1790958010413602600,1.7386025390625,7.161150689029693,6.666064740118384,-0.6722212159276009
1790958010423614500,1.748614501953125,7.151486788627505,6.678199414548278,-0.654428296540305
1790958010433627600,1.758627685546875,7.140029575067758,6.6926108017385,-0.6319182855032384
1790958010443639600,1.7686396484375,7.127312716835736,6.708323919177055,-0.6084271544743329
1790958010453651700,1.778651611328125,7.1121613249331705,6.726217303264141,-0.5878345213659107
1790958010463663600,1.78866357421875,7.092185873875022,6.74831866043508,-0.5757423709034919
1790958010473675500,1.798675537109375,7.067911264318227,6.773885063368081,-0.5740165334915742
1790958010483687700,1.808687744140625,7.042777992105483,6.7995940896421665,-0.5789449663370847
1790958010493699600,1.818699462890625,7.0201078951358795,6.822520207199454,-0.5845322649501263
1790958010503711500,1.82871142578125,7.00093382358849,6.841871973401307,-0.5883027599321677
1790958010513723600,1.8387236328125,6.985234734675288,6.857624253806471,-0.5915006791906431
1790958010523735600,1.848735595703125,6.973249113327264,6.869425750759244,-0.5959663898952305
1790958010533747700,1.858747802734375,6.964986311894655,6.877470525527,-0.5997879940100014
1790958010543759600,1.868759521484375,6.959204221361875,6.883406345316767,-0.5988127923022956
1790958010553771500,1.878771484375,6.954548504510521,6.888692176765203,-0.5920793923940509
1790958010563783700,1.88878369140625,6.950686568385362,6.89354838462472,-0.5808096276978031
1790958010573795600,1.898795654296875,6.94826547871828,6.897230288007855,-0.5658743992965668
1790958010583807500,1.908807373046875,6.947523720440268,6.899278452709317,-0.5497858726743609
1790958010593819600,1.918819580078125,6.948271323937178,6.899768282052874,-0.5339544260857626
1790958010603831600,1.92883154296875,6.950276818540692,6.899125892496109,-0.5158520388904959
1790958010613844700,1.9388447265625,6.9518462598145,6.899101927098632,-0.4945787300415337
1790958010623855900,1.94885595703125,6.951311422285437,6.901261150959134,-0.4714334533082321
1790958010633868000,1.958867919921875,6.949229939836263,6.904911490160226,-0.44809681872129437
1790958010643880000,1.9688798828125,6.9474921562582255,6.908141558122635,-0.42463896890748287
1790958010653892000,1.97889208984375,6.947676280653476,6.909277284154295,-0.40257187933232635
1790958010663904000,1.988904052734375,6.9506935826480385,6.907276465725898,-0.3844161910472437
1790958010673916000,1.998916015625,6.954753671693801,6.903791546219587,-0.37342644886877385
1790958010683928000,2.008927978515625,6.956074691164493,6.902599706086516,-0.37083752835411576
1790958010693940000,2.01893994140625,6.952565806260704,6.905967136693,-0.37394287395831194
1790958010703952000,2.028951904296875,6.945046516671776,6.913193580815196,-0.38008134018070994
1790958010713964000,2.038964111328125,6.936247124144434,6.921624724552035,-0.3872581364748999
1790958010723976000,2.048975830078125,6.928958136180043,6.928555400598049,-0.39376715304274107
1790958010733988000,2.058988037109375,6.924134077024459,6.932947498077154,-0.40123613721653817
1790958010744000000,2.069,6.920964799338579,6.9355907060623165,-0.4101328161058947
1790958010754012000,2.079011962890625,6.918360754320025,6.937628349369764,-0.41950595340058205
1790958010764024000,2.089024169921875,6.915754371213913,6.939715677037834,-0.42786483561880884
1790958010774037000,2.099037109375,6.913570597434044,6.941619464832544,-0.43226310711037363
1790958010784049200,2.109049072265625,6.912086496356129,6.94310064330101,-0.4321961428213864
1790958010794061000,2.11906103515625,6.91189769578576,6.94362320587039,-0.426799544474855
1790958010804073000,2.129072998046875,6.913350817203521,6.942736486163735,-0.41757732342556114
1790958010814085000,2.139085205078125,6.916571532815694,6.940279740661382,-0.4049006876060739
1790958010824097000,2.149096923828125,6.921033188399672,6.936813525855541,-0.3876995600994676
1790958010834109000,2.15910888671875,6.925609410274029,6.933470645168423,-0.36511041941158473
1790958010844121000,2.16912109375,6.9293930204659695,6.931004547315836,-0.3392308223435655
1790958010854133000,2.179133056640625,6.926251799830794,6.935537514570355,-0.3094119130652398
1790958010864145200,2.189145263671875,6.914552594208717,6.948281845331191,-0.2840996310237795
1790958010874157000,2.199156982421875,6.8912079589784145,6.971870810711383,-0.27323406321424987
1790958010884169000,2.2091689453125,6.853664118003845,7.008428563258051,-0.28212517087934535
1790958010894181000,2.21918115234375,6.805235894921422,7.054016594478488,-0.3162289726689458
1790958010904193000,2.229193115234375,6.74999682278037,7.103897938978672,-0.37756683660913254
1790958010914205000,2.239204833984375,6.690837946847081,7.153590482908487,-0.4787526902804151
1790958010924217000,2.249217041015625,6.628745355549454,7.200225977355242,-0.6219822170961647
1790958010934229800,2.259229736328125,6.570110795751214,7.238264908370375,-0.7820165655773132
1790958010944242000,2.269241943359375,6.526208525660634,7.2618778391480445,-0.918764219560474
1790958010954253800,2.27925390625,6.507564030945301,7.267393972221017,-1.0034832878816873
1790958010964265700,2.289265625,6.511587879633903,7.259159812361002,-1.0364387781526894
1790958010974278000,2.29927783203125,6.529289540541171,7.2452978757470845,-1.0219678427949548
1790958010984289800,2.309289794921875,6.549186665666103,7.233421559992432,-0.9778293527957052
1790958010994302000,2.319302001953125,6.564916734239459,7.22646867211461,-0.922172712829709
1790958011004313900,2.32931396484375,6.570405979305505,7.225614685633778,-0.8891817859191447
1790958011014325800,2.33932568359375,6.55829351670742,7.235283262211084,-0.8999123657047748
1790958011024338000,2.349337890625,6.529663634550571,7.25636462868452,-0.9375761067319661
1790958011034349800,2.359349853515625,6.49260786935389,7.2822156937777995,-0.992855949274823
1790958011044361700,2.36936181640625,6.449555494090914,7.308331547287106,-1.0779183511409909
1790958011054374000,2.379373779296875,6.399342725679278,7.331081723755598,-1.2141009916525334
1790958011064385800,2.3893857421875,6.342034446048737,7.347322664460539,-1.4020790666572749
1790958011074398000,2.39939794921875,6.2810910247862335,7.355837979349493,-1.6155298018969595
1790958011084409900,2.409409912109375,6.233961024820804,7.352278825563192,-1.8033641575820742
1790958011094421800,2.419421875,6.2118485617339605,7.3368953784704205,-1.9373431505694985
1790958011104435000,2.42943505859375,6.196999952170253,7.321319623675942,-2.0410414254531264
1790958011114446800,2.43944677734375,6.184469556421041,7.304088502889871,-2.1384623736329376
1790958011124459000,2.449458984375,6.161764972659945,7.283017657810449,-2.2717155365638435
1790958011134471000,2.459470947265625,6.137062493079901,7.264585344541072,-2.3942951836585995
1790958011144482800,2.46948291015625,6.1137973528265945,7.260780107039213,-2.464335519090295
1790958011154495000,2.479494873046875,6.095421738180518,7.28047966376543,-2.4516987403571604
1790958011164507000,2.4895068359375,6.076098029029369,7.314611650469899,-2.397471183346212
1790958011174518800,2.499518798828125,6.040770110538602,7.364425190430879,-2.3333928250588474
1790958011184531000,2.509531005859375,5.98418839161694,7.428180161982774,-2.276406178598106
1790958011194542800,2.51954296875,5.904322827741503,7.506800694233179,-2.226501745483279
1790958011204555000,2.529554931640625,5.798547162061929,7.605605351856351,-2.168408306824416
1790958011214567000,2.53956689453125,5.665643835482001,7.72509682367742,-2.096124430249631
1790958011224578800,2.549578857421875,5.508412707853317,7.858560122227669,-2.0176194872029125
1790958011234591000,2.559591064453125,5.331675500243902,7.996569247514009,-1.9489763052180409
1790958011244603000,2.569602783203125,5.138490431180596,8.133044002839922,-1.902605745317787
1790958011254614800,2.57961474609375,4.930630355554819,8.266030916050076,-1.8793629630267619
1790958011264627000,2.589626953125,4.711870700252056,8.393004852581024,-1.87779995149374
1790958011274640000,2.599639892578125,4.493386939281225,8.507432611271739,-1.8982734152019023
1790958011284652000,2.609652099609375,4.291382896207272,8.602065536168217,-1.9387832663752138
1790958011294664000,2.619663818359375,4.119448412704467,8.673929579895734,-1.990848384655267
1790958011304675800,2.62967578125,3.983427246364951,8.724784737864136,-2.0447033089615405
1790958011314688000,2.63968798828125,3.881888779863715,8.75879455949366,-2.0939972089625893
1790958011324700000,2.649699951171875,3.8064544764339923,8.782335009557007,-2.1335107425749302
1790958011334712000,2.659712158203125,3.745903269359469,8.803333958443998,-2.1540458733424543
1790958011344724000,2.669723876953125,3.689058223326504,8.829178009274601,-2.1463559033617376
1790958011354735900,2.67973583984375,3.627080198319256,8.862714952695368,-2.1135168790772556
1790958011364748000,2.689748046875,3.5544328952595587,8.90273599743843,-2.0682548649407924
1790958011374760000,2.699760009765625,3.467218429926038,8.946934035605192,-2.025134392877668
1790958011384771800,2.709771728515625,3.3677433256953955,8.991685616001487,-1.9945624367423354
1790958011394784000,2.719783935546875,3.2668151000469923,9.032851154604554,-1.976336751960963
1790958011404796000,2.7297958984375,3.1752205199331045,9.069012601310014,-1.959937405823916
1790958011414808000,2.73980810546875,3.0976506657794114,9.10091288343966,-1.9360580791950224
1790958011424820000,2.749820068359375,3.0378865174293517,9.12689312787056,-1.908259094904363
1790958011434832000,2.759831787109375,3.000398790556192,9.143884010159969,-1.8861057152852414
1790958011444845000,2.769844970703125,2.983849806815386,9.151473442375659,-1.8755138863831757
1790958011454857000,2.77985693359375,2.9808377655178306,9.15126535258293,-1.881309713180363
1790958011464869000,2.789869140625,2.9807585628017783,9.14665873557031,-1.9037033312961458
1790958011474881000,2.799881103515625,2.9749782258346675,9.141504421547054,-1.9372139712318777
1790958011484893000,2.809892822265625,2.960767914174497,9.1377669885844,-1.9762248160190878
1790958011494905000,2.819905029296875,2.938033812057972,9.136132665380835,-2.017278564810753
1790958011504917000,2.8299169921875,2.905802690538764,9.137645408031345,-2.056727801015228
1790958011514929000,2.839928955078125,2.8630308857828375,9.142492263540625,-2.0948213848270476
1790958011524941000,2.849941162109375,2.8116911591678857,9.149282654333113,-2.1343439785286784
1790958011534953000,2.859952880859375,2.7580279580414295,9.156483964014052,-2.1731281749531624
1790958011544965000,2.869965087890625,2.7091142895296216,9.163499980255962,-2.204847255297005
1790958011554977000,2.87997705078125,2.6696725059792397,9.170958479568363,-2.221879200249165
1790958011564989000,2.889989013671875,2.640747440268099,9.180058316347003,-2.2188675973430274
1790958011575001000,2.9000009765625,2.620187175059318,9.190894183138012,-2.1982859970852733
1790958011585013000,2.910012939453125,2.605148888142407,9.201700239312649,-2.1707821963489056
1790958011595025000,2.92002490234375,2.593270234300196,9.210675572928785,-2.1468094923481345
1790958011605037000,2.930037109375,2.5845564742296934,9.216609054630995,-2.1317951708287
1790958011615049700,2.9400498046875,2.5826199532091616,9.218807441458106,-2.124632293462008
1790958011625062100,2.950062255859375,2.5900857590451833,9.218021259516478,-2.118947818084806
1790958011635074300,2.96007421875,2.6048548736318944,9.216353034043312,-2.1080631437160076
1790958011645086200,2.970086181640625,2.6208283955723046,9.215761497890949,-2.0907852611787616
1790958011655098000,2.98009814453125,2.6299188800007105,9.21805340822041,-2.0691522521719334
1790958011665110300,2.9901103515625,2.6291332825809715,9.223374895504117,-2.046315712594241
1790958011675122200,3.0001220703125,2.6251336915507912,9.229040081658958,-2.0258051317460835
1790958011685134300,3.01013427734375,2.62405407962054,9.234137697058916,-2.0038539967007933
1790958011695146200,3.020146240234375,2.628712134559452,9.238158038616179,-1.979066030794382
1790958011705158100,3.030158203125,2.640300573283434,9.24067498987317,-1.9516985697887836
1790958011715170300,3.04017041015625,2.6638477453485128,9.238955326473713,-1.9276932786926626
1790958011725182200,3.05018212890625,2.7006884064897894,9.232276579362154,-1.9083305527053773
1790958011735194000,3.060194091796875,2.742036608183384,9.223503490319848,-1.8917196096442639
1790958011745206300,3.070206298828125,2.773388901041448,9.217106482759117,-1.8771375420622527
1790958011755218200,3.08021826171875,2.784644454549253,9.216350695955752,-1.8641431820631027
1790958011765230300,3.090230224609375,2.7758438929781315,9.221396873429416,-1.8522760725282132
1790958011775243300,3.1002431640625,2.753526554968953,9.230800661590695,-1.838692806725204
1790958011785255200,3.110255126953125,2.729264512632787,9.241389275622367,-1.821601386670768
1790958011795267300,3.120267333984375,2.713710969670117,9.250138983789086,-1.8003002399668095
1790958011805279200,3.130279296875,2.7081109577059745,9.256353035998345,-1.7766379170894622
1790958011815291400,3.14029150390625,2.704721023006737,9.260793064272404,-1.7585677151307462
1790958011825303300,3.15030322265625,2.696537716551125,9.264337605011463,-1.752455515860766
1790958011835315200,3.160315185546875,2.684344005410373,9.266603796377778,-1.759189354160428
1790958011845327400,3.170327392578125,2.6737831561684606,9.267067322236299,-1.7727743735291064
1790958011855339300,3.18033935546875,2.6698893636003134,9.26568375892341,-1.7858264550648628
1790958011865351200,3.19035107421875,2.673431566251814,9.26247707183659,-1.7971293548457323
1790958011875363300,3.20036328125,2.6785879261016845,9.258694630688428,-1.8089010411821305
1790958011885375200,3.210375244140625,2.6753841616243124,9.257014130255579,-1.8221914615184067
1790958011895387400,3.220387451171875,2.6566625100195407,9.259723973736167,-1.8357682975806295
1790958011905399300,3.2303994140625,2.6292379119992253,9.265466901302338,-1.8462451218008995
1790958011915412500,3.24041259765625,2.6130890334919092,9.269273307847977,-1.8500620497405529
1790958011925424400,3.25042431640625,2.620399941027164,9.268305924120545,-1.8445562919311225
1790958011935436300,3.260436279296875,2.6493855047538877,9.263497062534093,-1.8272277021199463
1790958011945448400,3.270448486328125,2.691889890745282,9.25743966219127,-1.7955318565212188
1790958011955460400,3.28046044921875,2.7358459368497132,9.252980929216742,-1.751538839407265
1790958011965472300,3.29047216796875,2.771117156717181,9.251521378058195,-1.70312800585106
1790958011975484400,3.300484375,2.7961636274293062,9.252174289008975,-1.6580482164137065
1790958011985496300,3.310496337890625,2.8139520898371932,9.253123552557826,-1.6222678779803215
1790958011995508200,3.32050830078125,2.830101845127344,9.252522664055228,-1.5974071390986442
1790958012005520400,3.330520263671875,2.849212496049702,9.249479058575629,-1.580987188564986
1790958012015532300,3.3405322265625,2.8717005144506693,9.24457433539927,-1.5689401924185453
1790958012025544400,3.35054443359375,2.892518261551857,9.24043475137651,-1.5550237491384147
1790958012035556400,3.360556396484375,2.9065310048133135,9.23903599049449,-1.5371052306100725
1790958012045568300,3.370568359375,2.913734068059921,9.239971225517987,-1.5177207311823964
1790958012055581400,3.38058154296875,2.9197596119597553,9.241488644343614,-1.496758607174456
1790958012065593300,3.39059326171875,2.9300597644388673,9.242511557650566,-1.4700745983883738
1790958012075605500,3.40060546875,2.942371549001336,9.244570828267932,-1.4320472116805611
1790958012085617400,3.410617431640625,2.942869269390404,9.252672886180877,-1.3776573037147521
1790958012095629300,3.42062939453125,2.9207103368133307,9.269442819195985,-1.310438017053157
1790958012105641500,3.430641357421875,2.878426023313403,9.291917685854434,-1.2431097170591354
1790958012115653400,3.4406533203125,2.818157724833488,9.317802068695425,-1.1861414830379187
1790958012125665500,3.45066552734375,2.7383552893221377,9.346950421768426,-1.1429361822355537
1790958012135677400,3.460677490234375,2.6495637839302417,9.377074341875314,-1.1048450095765292
1790958012145689300,3.470689453125,2.5740859336197373,9.403909157308936,-1.054009871482849
1790958012155701500,3.480701416015625,2.520837158513069,9.425800671121477,-0.9849129543811083
1790958012165713400,3.49071337890625,2.482296415455639,9.443521621251106,-0.9102196055117994
1790958012175726300,3.500726318359375,2.4433169887199995,9.459771329784394,-0.844567056710273
1790958012185738200,3.51073828125,2.3930168342858553,9.47734498039782,-0.7898132108028978
1790958012195750100,3.520750244140625,2.3305730914629996,9.49657458152473,-0.7442354087155312
1790958012205762300,3.53076220703125,2.2613971177756786,9.515924009639024,-0.7096802281629294
1790958012215774200,3.540774169921875,2.193240842524916,9.533711010742186,-0.684407766675204
1790958012225786000,3.5507861328125,2.1309581354826688,9.549394902086258,-0.6621643706850707
1790958012235798300,3.56079833984375,2.0752907549269497,9.563367897859216,-0.6368424440324306
1790958012245810200,3.57081005859375,2.022439308574796,9.576641805452107,-0.6066719448374583
1790958012255822300,3.580822265625,1.9706161823570727,9.589318331673741,-0.5762152491122484
1790958012265834200,3.590834228515625,1.923486036261171,9.600423663055896,-0.5499367523871362
1790958012275846100,3.60084619140625,1.8821045168198645,9.609753216937184,-0.529832085458748
1790958012285858300,3.6108583984375,1.8393886800348758,9.619051206636428,-0.510769949853234
1790958012295871200,3.620871337890625,1.7861638703256844,9.630395607471465,-0.4852651409143582
1790958012305883400,3.63088330078125,1.7212454079523682,9.643920859476923,-0.44996250299531965
1790958012315895300,3.640895263671875,1.6500019803412258,9.658386022680997,-0.40430944371465594
1790958012325907200,3.6509072265625,1.5799441092528401,9.672176063102484,-0.3509559661244973
1790958012335919400,3.66091943359375,1.514562997803837,9.684514151149987,-0.2944168077029288
1790958012345931300,3.67093115234375,1.4516241649404167,9.695585580262541,-0.2425077385011129
1790958012355943200,3.680943115234375,1.3903949124738573,9.705532389259337,-0.19959926522085442
1790958012365955300,3.690955322265625,1.3293595751442013,9.714762574419378,-0.16296030066413805
1790958012375967200,3.70096728515625,1.2637412939384578,9.72408686760366,-0.12436669490830972
1790958012385979400,3.7109794921875,1.2008232116021216,9.732510412555932,-0.08147180262883193
1790958012395991300,3.7209912109375,1.1481844581525773,9.739125446781516,-0.03841970136049203
1790958012406004500,3.73100439453125,1.1064411927267908,9.744034261611104,-0.0015301677104063854
1790958012416016400,3.741016357421875,1.0697591562133282,9.748082660219072,0.029629480803583283
1790958012426028300,3.7510283203125,1.0300223352391271,9.752210553804039,0.061722278414200984
1790958012436040400,3.76104052734375,0.9877334916945546,9.756253107193112,0.10149399717184715
1790958012446052400,3.77105224609375,0.952373643695563,9.759107327580452,0.15232433122624642
1790958012456064300,3.781064208984375,0.9297440979320556,9.7603570353806,0.20343343655625357
1790958012466076400,3.791076416015625,0.9126805157326161,9.761016960594057,0.2448636357111856
1790958012476088300,3.80108837890625,0.9007401948310434,9.76133026432693,0.27474307953771204
1790958012486100200,3.811100341796875,0.9025877223938703,9.7605271312505,0.2963603612524457
1790958012496112400,3.8211123046875,0.9146338417574763,9.75896178162992,0.3106773664237931
1790958012506124300,3.831124267578125,0.9266530000489205,9.757415136709808,0.3233474629046395
1790958012516136400,3.841136474609375,0.9296197409000247,9.756645321381091,0.33773188902270046
1790958012526149400,3.8511494140625,0.918355931020528,9.757183081519603,0.3526591533131897
1790958012536161500,3.86116162109375,0.9012451486784965,9.75825217205584,0.3669287208799273
1790958012546173400,3.87117333984375,0.8905903375428169,9.758660168334842,0.38181324200723316
1790958012556185300,3.881185302734375,0.8954183422211557,9.757518012562393,0.3993325686175376
1790958012566197500,3.891197509765625,0.9135499920435249,9.754922150850295,0.42108854641690846
1790958012576209400,3.90120947265625,0.9321776817545294,9.751899003636836,0.4493509469682351
1790958012586221300,3.91122119140625,0.9344674731921404,9.750186354500055,0.480643216734752
1790958012596233500,3.9212333984375,0.9141358291074633,9.75039736690223,0.5142725146140903
1790958012606245400,3.931245361328125,0.8823156995419412,9.751218035635352,0.552860019422695
1790958012616257500,3.941257568359375,0.8521718326255678,9.751156660836935,0.5992693404307589
1790958012626269700,3.951269775390625,0.8373664046164602,9.748923202696442,0.6539828908603638
1790958012636281900,3.96128173828125,0.8435715428669005,9.743813896858692,0.7189402970045805
1790958012646294800,3.971294677734375,0.8680128142274915,9.736131525662541,0.7903686527285725
1790958012656307000,3.981306884765625,0.9033197629954666,9.726422032552957,0.8666632993146777
1790958012666318800,3.99131884765625,0.9403316159851849,9.715404379454254,0.9471374966077506
1790958012676331000,4.0013310546875,0.9799187993556261,9.703500591170787,1.0257863051045686
1790958012686343000,4.011343017578125,1.025097080731392,9.690561030098795,1.1011745043702423
1790958012696354800,4.021354736328125,1.0773903086788952,9.676934071284531,1.169014699409157
1790958012706367000,4.031366943359375,1.137095128057152,9.663139939209819,1.2252113645359872
1790958012716379000,4.04137890625,1.2053322865244,9.64970937975049,1.2651657737836242
1790958012726390800,4.051390869140625,1.2837452404387295,9.636574588367342,1.2879391849972306
1790958012736403000,4.06140283203125,1.375510208683461,9.62283364778459,1.2959249230541288
1790958012746414800,4.071414794921875,1.4834806079283356,9.607043957978487,1.2939753964215517
1790958012756427000,4.081427001953125,1.6040556372024117,9.589013211247325,1.2838302883736787
1790958012766440000,4.09143994140625,1.7267023581840097,9.57126654215455,1.2568801759973167
1790958012776451800,4.101451904296875,1.8354190457515418,9.55810135563314,1.2017891340248286
1790958012786464000,4.111464111328125,1.9107355680204927,9.553364974761008,1.1192395917624234
1790958012796476000,4.121475830078125,1.9446208864875136,9.557749473455548,1.0189471797995269
1790958012806488000,4.131488037109375,1.9380179810911415,9.571202829268573,0.8980770400363951
1790958012816500000,4.1415,1.9007259229205549,9.591058453339338,0.7544626420889049
1790958012826512000,4.151511962890625,1.8479997103832662,9.612100072324276,0.6023305180996656
1790958012836524000,4.16152392578125,1.7893391393609344,9.630437693047522,0.47256022884845733
1790958012846536000,4.171535888671875,1.7273421173922716,9.645504913797973,0.3884567716749385
1790958012856547800,4.1815478515625,1.6647484447047114,9.65832289431691,0.34026473196856677
1790958012866560000,4.19156005859375,1.6118427839472889,9.668906832173466,0.2908075494308956
1790958012876572000,4.201572021484375,1.5757707690909504,9.676793786031007,0.21676588766966015
1790958012886585000,4.211585205078125,1.5556047638967632,9.68171195321083,0.12219367085131816
1790958012896597000,4.221596923828125,1.541816330910474,9.684635731703043,0.03178835532092489
1790958012906609000,4.23160888671875,1.5222222803853451,9.687651280131936,-0.051282233407208694
1790958012916621000,4.24162109375,1.4937676086649299,9.691253688538074,-0.13655670712147838
1790958012926633000,4.251633056640625,1.4605039292275905,9.694866618338226,-0.21650340080857275
1790958012936645000,4.26164501953125,1.4300671437792478,9.697568863034247,-0.28717270005987955
1790958012946657000,4.271656982421875,1.401887051216513,9.699507722142338,-0.35303427023589606
1790958012956669000,4.2816689453125,1.3702509729810057,9.70148165256381,-0.4171852188354358
1790958012966681000,4.29168115234375,1.3331291568107901,9.703910925537347,-0.4767142432553693
1790958012976693000,4.30169287109375,1.2918293243035672,9.70701824390292,-0.5247557320425287
1790958012986705000,4.311704833984375,1.2484770893111825,9.711059043726324,-0.5540906206635758
1790958012996717800,4.3217177734375,1.2056645872186869,9.715852707743645,-0.5647461989842355
1790958013006729700,4.331729736328125,1.1663117240607739,9.720434774836898,-0.5685557473350316
1790958013016742000,4.341741943359375,1.1345133679356425,9.723740246123075,-0.576323276063986
1790958013026753800,4.35175390625,1.119953366054967,9.724481419879197,-0.5920691267283633
1790958013036766000,4.361765869140625,1.1256682365704327,9.72261153435409,-0.611614588871412
1790958013046777900,4.37177783203125,1.1502837685193865,9.718234049922227,-0.6349518810454756
1790958013056789800,4.381789794921875,1.1890705222271383,9.71157225394547,-0.6647255264099687
1790958013066802000,4.391802001953125,1.2349677655272184,9.703374334442614,-0.6998348337139934
1790958013076813800,4.401813720703125,1.2832201936513186,9.694782447186112,-0.73138067638278
1790958013086825700,4.41182568359375,1.3280059685781598,9.68710241407752,-0.752883337008208
1790958013096838000,4.421837890625,1.3599511127628385,9.68202817955315,-0.7610917048398405
1790958013106849800,4.431849853515625,1.3755270136877893,9.680329558941722,-0.7546704396206885
1790958013116863000,4.441863037109375,1.3754092325270175,9.681918873959779,-0.7342112236335873
1790958013126875000,4.451875,1.3550906671196221,9.687159112700819,-0.7021656147491186
1790958013136886800,4.46188671875,1.3056870231337845,9.697041624289751,-0.6579786824982613
1790958013146899000,4.47189892578125,1.2226849147982894,9.711461779308319,-0.6024298502882942
1790958013156910800,4.481910888671875,1.1146885773945598,9.728128251948952,-0.5397996815152466
1790958013166923000,4.491923095703125,0.9974183618195355,9.744331198731064,-0.47283531946279106
1790958013176935000,4.501934814453125,0.8850409597873687,9.758341603904961,-0.40233284641206263
1790958013186946800,4.51194677734375,0.7869809099864215,9.769287945333122,-0.3347610199857503
1790958013196959000,4.521958984375,0.7112876633595675,9.777025261586903,-0.2724676271527074
1790958013206971000,4.531970947265625,0.6628169893749057,9.781782100725174,-0.2186681045617908
1790958013216982800,4.541982666015625,0.6359885306168347,9.784394913572072,-0.1775995965924114
1790958013226995000,4.551994873046875,0.6213249222312123,9.785773800709842,-0.15152681503985077
1790958013237006800,4.5620068359375,0.615351693040505,9.786329096505046,-0.1395168538350146
1790958013247020000,4.57202001953125,0.6166113377127797,9.78630220849812,-0.13583990975478663
1790958013257032000,4.582031982421875,0.6228804811101406,9.785925776401161,-0.1342832000983879
1790958013267043800,4.5920439453125,0.629319208920747,9.785579154920578,-0.12959314258601515
1790958013277056000,4.602055908203125,0.6310366072978824,9.785651051113009,-0.11483479598849079
1790958013287068000,4.61206787109375,0.6320995603542775,9.785837513595819,-0.09051241090036928
1790958013297080000,4.622080078125,0.6331734731961042,9.786011116597056,-0.05883914245963096
1790958013307092000,4.632092041015625,0.6297518281843513,9.786390471303463,-0.01938038722485071
1790958013317103900,4.642103759765625,0.6162796215403825,9.787207632905245,0.033859051514603195
1790958013327116000,4.652115966796875,0.5913804868770763,9.788285491269827,0.10054038624144158
1790958013337128000,4.6621279296875,0.556139260289073,9.789314249795675,0.17447479736907406
1790958013347139800,4.672139892578125,0.5174461396815255,9.789741535297036,0.2522034770799801
1790958013357152000,4.682152099609375,0.4839455827483907,9.789112589743732,0.3308444675965234
1790958013367165000,4.6921650390625,0.4635311192184686,9.7872327673465,0.4069253253014758
1790958013377177000,4.702177001953125,0.46087662265431134,9.784114927586913,0.4786345072608441
1790958013387189000,4.71218896484375,0.4778399593496695,9.779992879220842,0.542044209039025
1790958013397201000,4.722200927734375,0.5166944810640066,9.775233701995015,0.5901035988090559
1790958013407213000,4.732213134765625,0.5708838249564171,9.770347683519125,0.6203022281199694
1790958013417225000,4.742224853515625,0.6256186739023775,9.765541744542121,0.6427868124548345
1790958013427237000,4.752237060546875,0.670460709061101,9.761452429401874,0.6594575959444046
1790958013437249000,4.7622490234375,0.7000307946775108,9.758717451480031,0.6691659930754452
1790958013447261000,4.772260986328125,0.7176680851116776,9.757110016283391,0.6739052234917878
1790958013457273000,4.782273193359375,0.7327296067737042,9.756059630447625,0.6729033529728651
1790958013467285000,4.792284912109375,0.7562821126010268,9.754867205792666,0.6640689621973782
1790958013477298000,4.8022978515625,0.790820415084064,9.753632695561647,0.6415789710350335
1790958013487309800,4.812309814453125,0.8236253909684718,9.753118316298723,0.6072237335013225
1790958013497321700,4.82232177734375,0.8365287116833031,9.754497787958384,0.5659983544697985
1790958013507334000,4.832333984375,0.8237499671962112,9.758221776917576,0.5185667046766728
1790958013517345800,4.842345703125,0.7928742788739502,9.763328744667769,0.46815001119077204
1790958013527357700,4.852357666015625,0.7519519013769924,9.768859490787982,0.4175659252487123
1790958013537369900,4.862369873046875,0.7095568940442055,9.774156428152322,0.36442557895258065
1790958013547381800,4.8723818359375,0.6715719582386315,9.778950676691531,0.30246408495502547
1790958013557394000,4.882393798828125,0.6462074345532804,9.782844176998735,0.22086258239876477
1790958013567405800,4.89240576171875,0.642977951112762,9.784919229707121,0.11087441359069197
1790958013577417700,4.902417724609375,0.6689982352931052,9.783770059671998,-0.025598907829960806
1790958013587430000,4.912429931640625,0.7224870297007262,9.778517545971274,-0.17024176290920004
1790958013597441800,4.92244189453125,0.791553770859912,9.770312612205743,-0.2912084766482934
1790958013607455000,4.932455078125,0.8651628316238522,9.761129773318768,-0.37711112873088565
1790958013617467000,4.942466796875,0.9389965679891407,9.752445531603694,-0.42246304964050646
1790958013627481300,4.9524814453125,1.0054148404661565,9.745801271283627,-0.4229140813436359
1790958013637493200,4.9624931640625,1.0621843370448798,9.741146138954162,-0.39016204122286285
1790958013647505400,4.97250537109375,1.1083568901550025,9.737935944736003,-0.33840317588038743
1790958013657517300,4.982517333984375,1.1439986238352953,9.735776720875501,-0.27624931938219816
1790958013667529500,4.992529541015625,1.1699065336823462,9.734373283818364,-0.20900650571454316
1790958013677541400,5.002541259765625,1.1854616840802132,9.733692900338768,-0.14252969885016792
1790958013687553300,5.01255322265625,1.1906451511327176,9.733756028702855,-0.0820426978519652
1790958013697565400,5.0225654296875,1.186294408577308,9.73458312717676,-0.030857691441266797
1790958013707577300,5.032577392578125,1.1739926339522004,9.736121588790416,0.008758324156369781
1790958013717589500,5.042589599609375,1.1562480106860398,9.738182612973452,0.03593027286466677
1790958013727602200,5.052602294921875,1.1357531388636677,9.740528883838653,0.05025567597160115
1790958013737614300,5.0626142578125,1.1149800346218048,9.742917824801802,0.05253868604197632
1790958013747626200,5.072626220703125,1.096150173402205,9.745081724837421,0.04685957639305852
1790958013757638400,5.082638427734375,1.081296449271962,9.746768070489168,0.04117793686033692
1790958013767650300,5.092650390625,1.0715247776463628,9.747853527638316,0.0397419629401993
1790958013777662200,5.102662109375,1.067119601489976,9.748332835587858,0.04059803634684067
1790958013787674400,5.11267431640625,1.0676937481161206,9.748269122701883,0.040657762610865754
1790958013797686300,5.122686279296875,1.072184410598874,9.747784554055333,0.03868501949948258
1790958013807698200,5.1326982421875,1.0795911066588013,9.746982005500794,0.034815386408346236
1790958013817710300,5.14271044921875,1.08807471123524,9.746051446652412,0.030857864971202797
1790958013827722200,5.15272216796875,1.09556272890307,9.745222010090947,0.02769369956856826
1790958013837734400,5.162734375,1.100684309700504,9.744653854814171,0.02464112761451397
1790958013847747300,5.172747314453125,1.102977973595634,9.744401925879716,0.021453396389912813
1790958013857759200,5.18275927734375,1.1025707079689948,9.744453948327898,0.018426154098293044
1790958013867771400,5.192771484375,1.100543586055562,9.744688341605663,0.015292725185572634
1790958013877783300,5.202783203125,1.098359520014748,9.744940270540118,0.01235304016310838
1790958013887795500,5.21279541015625,1.0972945941969752,9.745063020136952,0.00969593037511222
1790958013897807400,5.222807373046875,1.0977026635412126,9.745018011951446,0.007362986494830693
1790958013907819300,5.2328193359375,1.0994036222402006,9.744827457815408,0.005557264234381728
1790958013917831400,5.24283154296875,1.1021013368915766,9.744522921910882,0.004048997400412918
1790958013927843300,5.25284326171875,1.1050799873761832,9.744186237302422,0.0028668033055771957
1790958013937855200,5.262855224609375,1.1088016382478176,9.743763627976179,0.0012563217737879312
1790958013947867400,5.272867431640625,1.1117305313065649,9.743430450499057,-0.0005738664238178899
1790958013957879300,5.28287939453125,1.1132323872368781,9.743259770107269,-0.002165662306326703
1790958013967892500,5.292892578125,1.1135589157775043,9.74322177618444,-0.0033754643575346563
1790958013977904400,5.302904296875,1.113368215510994,9.743242234450578,-0.004290250533459766
1790958013987916500,5.31291650390625,1.1127217343010007,9.743317053252458,-0.004662687731545884
1790958013997928400,5.322928466796875,1.1112796457339078,9.743477796772122,-0.00863774025880266
1790958014007940400,5.3329404296875,1.1142767086580394,9.74309201232493,-0.030828241584496572
1790958014017952500,5.342952392578125,1.1159651732016354,9.74279215259552,-0.054588549510180016
1790958014027964400,5.35296435546875,1.1132068874694407,9.74303063752651,-0.06705906829831655
1790958014037976300,5.362976318359375,1.1093114144008607,9.743278474807738,-0.0913828644588124
1790958014047988500,5.372988525390625,1.1044473154958336,9.7435187133044,-0.12004218277269973
1790958014058000400,5.38300048828125,1.1156424440532922,9.741775669029355,-0.15335775679405778
1790958014068012300,5.39301220703125,1.1540108992837368,9.736527246981858,-0.19669601806001735
1790958014078024400,5.4030244140625,1.210957432929799,9.728454999685287,-0.24727619501193984
1790958014088037400,5.413037353515625,1.2682324678778647,9.71977660318911,-0.2964849374801852
1790958014098049300,5.42304931640625,1.3102822419695555,9.712910809072852,-0.3360341451941058
1790958014108061400,5.4330615234375,1.3292645903371274,9.709384388512373,-0.36236981546655295
1790958014118073300,5.4430732421875,1.3273605102814734,9.709065824082494,-0.3775533560730517
1790958014128085200,5.453085205078125,1.312691787329316,9.71065864623189,-0.3877581584189087
1790958014138097400,5.463097412109375,1.2881051892139017,9.713557290282845,-0.39746505771260704
1790958014148109300,5.473109375,1.2544146626666188,9.717469495290517,-0.40942419291250404
1790958014158121500,5.48312158203125,1.2125558080371468,9.722249715304374,-0.4218488997975364
1790958014168133400,5.49313330078125,1.1630442466974258,9.727886844408511,-0.4312100909261033
1790958014178145500,5.5031455078125,1.1016600959300995,9.73456617604196,-0.4415203994730487
1790958014188157400,5.513157470703125,1.0267657445959746,9.742208215227723,-0.4533215676322579
1790958014198169300,5.52316943359375,0.9432506452370435,9.749961898094416,-0.4678512109072879
1790958014208181500,5.533181396484375,0.8602495598148554,9.75674293653667,-0.4861320234093815
1790958014218194200,5.543194091796875,0.7804325843214989,9.76244787018001,-0.5058719486786052
1790958014228206300,5.553206298828125,0.6972283044774085,9.767655960217118,-0.5264608189273625
1790958014238218200,5.56321826171875,0.6116380428122357,9.772132813370227,-0.5492694841174408
1790958014248230400,5.57323046875,0.5316382215652614,9.775378663423657,-0.5742176455542445
1790958014258242300,5.5832421875,0.4607041886968538,9.777344995060563,-0.6013815468117595
1790958014268254200,5.593254150390625,0.3986459015276283,9.777969848960637,-0.634640477008745
1790958014278266400,5.603266357421875,0.34689061638172713,9.777506323102116,-0.6711432844977826
1790958014288278300,5.6132783203125,0.3017065628523007,9.776375857767462,-0.708407139487192
1790958014298290200,5.623290283203125,0.2588083552377298,9.77485200920105,-0.7454322903499007
1790958014308302300,5.63330224609375,0.21892385115483776,9.772841253900527,-0.7836014236159622
1790958014318314200,5.643314208984375,0.18444783678567037,9.770256498104333,-0.8236980178132652
1790958014328326400,5.653326416015625,0.15666302715083583,9.76729764829874,-0.8635570038624107
1790958014338339300,5.66333935546875,0.13050413821740076,9.76438731380999,-0.9000391338896006
1790958014348351200,5.673351318359375,0.10264134057606569,9.761990774062275,-0.9291917247463017
1790958014358363400,5.68336328125,0.07595382009206805,9.7602833856225,-0.9494587060969323
1790958014368375300,5.693375244140625,0.054525717973615974,9.759361594602465,-0.9603365123335271
1790958014378387500,5.703387451171875,0.03910824074707925,9.759353995817898,-0.961176543354243
1790958014388399400,5.7133994140625,0.02931782788839191,9.760327809286117,-0.9515771595556288
1790958014398411300,5.723411376953125,0.026274135643825865,9.7622444565624,-0.9318070218112319
1790958014408423400,5.73342333984375,0.03319592056390829,9.76487246697843,-0.9036278060313314
1790958014418435300,5.743435302734375,0.05407550368781667,9.768077985021472,-0.8672273629382252
1790958014428447200,5.753447265625,0.08919424097388982,9.771582778272032,-0.8237710099842399
1790958014438459400,5.76345947265625,0.13414708869648165,9.774917475652694,-0.7767932049058377
1790958014448471300,5.77347119140625,0.18350498471129684,9.777845930320025,-0.728322530921176
1790958014458483500,5.7834833984375,0.2357946507285349,9.780307351997495,-0.6785089909601956
1790958014468496400,5.793496337890625,0.2911648019033484,9.782269591981173,-0.6267343069940805
1790958014478508300,5.80350830078125,0.34943978940788656,9.783637373203039,-0.5733324967501685
1790958014488520400,5.8135205078125,0.40762843206953253,9.784411864706874,-0.5191383305521682
1790958014498532400,5.823532470703125,0.4614373252769932,9.784764915928244,-0.4645779613902792
1790958014508544500,5.83354443359375,0.5089160656148567,9.784719323220848,-0.4130854188337922
1790958014518556400,5.843556396484375,0.5534032959865406,9.78409914549589,-0.36813985023535784
1790958014528568300,5.853568359375,0.5981105257844552,9.78279507716,-0.3310108371393755
1790958014538580500,5.86358056640625,0.6418916902460158,9.780900641715526,-0.30386308329906314
1790958014548592400,5.87359228515625,0.6839489169918,9.778611653995513,-0.2852121040440164
1790958014558604300,5.883604248046875,0.7267236443571746,9.775817054840921,-0.2750512687040493
1790958014568616400,5.893616455078125,0.7725189616527408,9.772335057944058,-0.2740030748253688
1790958014578628400,5.90362841796875,0.8231211677733808,9.767945883074402,-0.28303680583154783
1790958014588641300,5.913641357421875,0.8778944490335882,9.762660051625966,-0.3002773520330898
1790958014598653400,5.9236533203125,0.9325641968540846,9.756876792049407,-0.3225933931343257
1790958014608665300,5.933665283203125,0.9782478704687207,9.751554135721921,-0.3472880182014778
1790958014618677500,5.943677490234375,1.006630426800996,9.74773253160715,-0.37254831432737406
1790958014628686300,5.953686279296875,1.0160083498686552,9.745860892516374,-0.3953690718140453
1790958014638698200,5.9636982421875,1.0099069642536342,9.745649880114197,-0.4156754353269934
1790958014648710100,5.973710205078125,0.9957270477317273,9.74629753036797,-0.43429508786201476
1790958014658722300,5.983722412109375,0.9770983351074158,9.747406368392705,-0.4513463220365345
1790958014668734200,5.993734130859375,0.9552890927508473,9.748881117120385,-0.4659435141224414
1790958014678746000,6.00374609375,0.9266477393519132,9.751160167968273,-0.4760137668358162
1790958014688758300,6.01375830078125,0.8881385604765266,9.754562669888138,-0.47970893155932426
1790958014698770200,6.023770263671875,0.8449239073239266,9.758539756825567,-0.4768444089736789
1790958014708782000,6.033781982421875,0.8080551891319453,9.762008894240855,-0.46969892113320527
1790958014718795300,6.043795166015625,0.7840987786788493,9.764356334149836,-0.46142355247996747
1790958014728807200,6.05380712890625,0.7784989128451794,9.765092247208953,-0.4552928677052259
1790958014738819300,6.0638193359375,0.7938716193482279,9.764012050756811,-0.45191959187984465
1790958014748831200,6.073831298828125,0.8267998562861233,9.761389301037788,-0.4495242577085271
1790958014758843400,6.083843505859375,0.8718961584668606,9.757494047164917,-0.44888358518481253
1790958014768855300,6.093855224609375,0.9265155643396079,9.752450792300701,-0.4490474339770153
1790958014778867200,6.1038671875,0.9920851110327988,9.745970782631636,-0.44965270639378574
1790958014788879400,6.11387939453125,1.0699699494197965,9.737665895622968,-0.4509952435765415
1790958014798891300,6.123891357421875,1.1552115072451532,9.727903211021422,-0.45140254573579874
1790958014808903200,6.133903076171875,1.2404008964918554,9.717470079812406,-0.4500693243706599
1790958014818915300,6.143915283203125,1.3167295184127985,9.707564187347888,-0.44697950512915846
1790958014828927200,6.15392724609375,1.3747666968397796,9.699836807966232,-0.4399371854022145
1790958014838939400,6.163939453125,1.4107434346280991,9.695222592169046,-0.42758291340488935
1790958014848952300,6.173952392578125,1.4292761395320295,9.69327613427639,-0.4098261247768998
1790958014858964200,6.183964111328125,1.4374156068459152,9.693041740998625,-0.3862152032932266
1790958014868976400,6.193976318359375,1.4367131576649843,9.694214876431227,-0.3583911576265469
1790958014878988300,6.20398828125,1.4278018291957675,9.696573422256112,-0.32899536913111804
1790958014889000400,6.21400048828125,1.413676711601019,9.699617027735709,-0.2989182290417142
1790958014899012400,6.224012451171875,1.3972520848922432,9.702847680220007,-0.26985664093671363
1790958014909024300,6.234024169921875,1.37868240897879,9.706211019173264,-0.24309185853200033
1790958014919036400,6.244036376953125,1.3584158660195766,9.709636317446828,-0.2192111071310006
1790958014929048300,6.25404833984375,1.3389150467358528,9.71276467860043,-0.19968299798155204
1790958014939060200,6.264060302734375,1.321071200878918,9.715437112680076,-0.18822631414476781
1790958014949072400,6.274072265625,1.3108517124205827,9.71686685322225,-0.18587827144758776
1790958014959084300,6.284084228515625,1.3145505669385193,9.716291099160909,-0.18975255559766663
1790958014969096400,6.294096435546875,1.33677087431401,9.713052847892046,-0.20010816459106281
1790958014979108400,6.3041083984375,1.377924137957394,9.706885557433962,-0.2192355839851312
1790958014989121300,6.314121337890625,1.4338719428896902,9.698186118149756,-0.24408463242901487
1790958014999133400,6.324133544921875,1.4975485885083675,9.687856447315216,-0.2704973317267373
1790958015009145300,6.334145263671875,1.5598578912965952,9.67725614284575,-0.29653148003565144
1790958015019157500,6.344157470703125,1.614973044797033,9.667480014240741,-0.319509017252922
1790958015029169400,6.35416943359375,1.6596195573836563,9.659311320832371,-0.3372772040577605
1790958015039181300,6.364181396484375,1.6949587279208003,9.652706223478912,-0.3503861303472891
1790958015049193500,6.374193359375,1.727691223090887,9.646531918758154,-0.36041627024598416
1790958015059205400,6.384205322265625,1.7601859639823436,9.640380410391092,-0.3676930563159287
1790958015069217300,6.39421728515625,1.7917083527103066,9.634426470422744,-0.3714607748189941
1790958015079229400,6.4042294921875,1.8191585235632954,9.629373863208293,-0.3690331823458895
1790958015089241300,6.414241455078125,1.8382133526451885,9.626105801323055,-0.35979006463903934
1790958015099253500,6.42425341796875,1.841857115975022,9.626064300268888,-0.3417845619469881
1790958015109265400,6.434265380859375,1.8268468861088156,9.629761401221156,-0.3173362397911027
1790958015119278000,6.444278076171875,1.7997956514455378,9.635632339081168,-0.2927304437848739
1790958015129290200,6.454290283203125,1.7773066101312636,9.640306176111102,-0.27575981883220374
1790958015139302100,6.46430224609375,1.775837268231064,9.640693129602074,-0.2716829430484213
1790958015149314300,6.474314208984375,1.7916035771615801,9.637635495597124,-0.2766251304246485
1790958015159326200,6.484326171875,1.815295126133412,9.632896776637434,-0.28704377645058554
1790958015169338000,6.494338134765625,1.8418048012658952,9.627543140649795,-0.2975697918411344
1790958015179350300,6.504350341796875,1.865433952526003,9.622786301511525,-0.3041539194718003
1790958015189362200,6.514362060546875,1.8792305688187478,9.620028527235984,-0.3064469075134955
1790958015199374000,6.5243740234375,1.8922189374685285,9.61740870012641,-0.30876082874536515
1790958015209386200,6.53438623046875,1.9076929854542015,9.614193829733132,-0.3135982953717932
1790958015219398100,6.544398193359375,1.9263586690880357,9.610261166459322,-0.32003647519312795
1790958015229410300,6.554410400390625,1.9520956062823533,9.604802901053429,-0.3278391483006999
1790958015239422200,6.564422119140625,1.9831740506350992,9.598255086845159,-0.33301709892787035
1790958015249434000,6.57443408203125,2.0153151557832953,9.591531331548094,-0.3337795712003484
1790958015259447300,6.584447265625,2.045529676783085,9.585300912725925,-0.32896376841645686
1790958015269459200,6.594459228515625,2.0709521412007508,9.580136661830544,-0.32019447876643387
1790958015279471400,6.604471435546875,2.0887571163520215,9.576605565094948,-0.30999972289055583
1790958015289483300,6.614483154296875,2.103593304825574,9.57358066431582,-0.30301574575472623
1790958015299495200,6.6244951171875,2.120153248351812,9.570000467741488,-0.30070045454967764
1790958015309507300,6.63450732421875,2.1385880458392204,9.565900046685337,-0.3006188224145211
1790958015319519200,6.644519287109375,2.1544132453501224,9.562357844033837,-0.30031702645635233
1790958015329531100,6.65453125,2.165902023091912,9.559780687022208,-0.29970399085823446
1790958015339543300,6.664543212890625,2.1763287245601415,9.557421556675434,-0.29942612376492467
1790958015349555200,6.67455517578125,2.1920720910064877,9.553806873309611,-0.2999190766473301
1790958015359567400,6.6845673828125,2.2130635872393847,9.548976384413242,-0.2996264138436876
1790958015369579300,6.694579345703125,2.2353272953651846,9.543836098915339,-0.2981180733736604
1790958015379591200,6.704591064453125,2.256009433387965,9.53905938603282,-0.29522503707958386
1790958015389603300,6.714603271484375,2.274162929715961,9.534889406871795,-0.2906119537935592
1790958015399616300,6.7246162109375,2.2923399530500173,9.530728780061006,-0.2842095394053496
1790958015409628400,6.73462841796875,2.315873096589744,9.525229013600946,-0.27768859493769704
1790958015419640300,6.744640380859375,2.3483961867928502,9.517416878545284,-0.2723577187711373
1790958015429652200,6.75465234375,2.388070463924855,9.507714984220266,-0.2661800347832031
1790958015439664400,6.764664306640625,2.431205841296166,9.497004789635538,-0.25793606591522694
1790958015449676300,6.77467626953125,2.476778236556053,9.485485616755485,-0.24802473009061066
1790958015459688400,6.7846884765625,2.52304518995136,9.473525714370608,-0.2385956430912949
1790958015469700400,6.794700439453125,2.5634713083639737,9.462842407792806,-0.23149759285543112
1790958015479712300,6.804712158203125,2.595018247011304,9.454317156031728,-0.22831730058519167
1790958015489724400,6.814724365234375,2.6181217669621106,9.447934761518239,-0.22876973879411816
1790958015499736300,6.824736328125,2.6275264319062233,9.445348836678265,-0.22773434959808364
1790958015509748200,6.834748291015625,2.618600782650709,9.447874555763601,-0.2257568389800377
1790958015519760400,6.844760498046875,2.593689921016991,9.454826274597645,-0.2222719560063444
1790958015529772300,6.854772216796875,2.557681911307573,9.464761393156648,-0.21662209528479723
1790958015539784200,6.8647841796875,2.5130983809545633,9.476877362886071,-0.2086459835727699
1790958015549797400,6.87479736328125,2.463169105659425,9.490188679879903,-0.19870664549637584
1790958015559809300,6.884809326171875,2.4134993580833077,9.503137008780241,-0.1891360676671378
1790958015569821400,6.894821533203125,2.368470129789412,9.514585454511641,-0.18273769013322888
1790958015579833300,6.904833251953125,2.3306585777893662,9.523960016578435,-0.18058719756845384
1790958015589845500,6.914845458984375,2.300782056572288,9.53116834052205,-0.18337867318419737
1790958015599857400,6.924857421875,2.2787159168452025,9.536337267592549,-0.19004138247640803
1790958015609869300,6.934869384765625,2.2616876251548526,9.540217908418178,-0.19853601990351452
1790958015619881500,6.944881591796875,2.247789594314247,9.543303014951944,-0.20782703187270088
1790958015629893000,6.95489306640625,2.2354088361687956,9.546003506082295,-0.21712774325199424
1790958015639905000,6.964905029296875,2.222388611076027,9.548788168364762,-0.2280404016062617
1790958015649917000,6.9749169921875,2.20944875774309,9.551446573919057,-0.24202019244618714
1790958015659929000,6.98492919921875,2.2001032756403087,9.553293663090466,-0.2539754003896378
1790958015669941000,6.99494091796875,2.1927743940569457,9.554750291639566,-0.26240186795135956
1790958015679953000,7.004952880859375,2.1867013577535745,9.556037993362546,-0.26621936214659364
1790958015689965000,7.014965087890625,2.178962872456014,9.557850595742464,-0.264563576029893
1790958015699978000,7.02497802734375,2.1685801562599836,9.56037456126213,-0.2586104032465257
1790958015709990100,7.034990234375,2.1556816578507423,9.563537409207225,-0.24933427831921726
1790958015720002000,7.045001953125,2.140855260118842,9.56712462004423,-0.2392608472680673
1790958015730014200,7.05501416015625,2.124607305151224,9.570949731290339,-0.23096122095640748
1790958015740026000,7.065026123046875,2.1068647277116774,9.575040799996255,-0.22378601383110508
1790958015750038000,7.0750380859375,2.089825768496841,9.578947744306921,-0.21628524627955628
1790958015760050200,7.08505029296875,2.0838263819515705,9.580482698789238,-0.20592797505203633
1790958015770062000,7.09506201171875,2.084071881145239,9.580718261110782,-0.19199540262101217
1790958015780074000,7.105073974609375,2.092044905851036,9.579196750631928,-0.18090612732451408
1790958015790086100,7.115086181640625,2.111561653356254,9.575032032167911,-0.1745701109697111
1790958015800098000,7.12509814453125,2.13504525866583,9.56990460615158,-0.16998313023932277
1790958015810110200,7.135110107421875,2.158244201815128,9.564837970411777,-0.1619778289654292
1790958015820122000,7.1451220703125,2.182302099881321,9.559628126809,-0.14642973849601112
1790958015830134000,7.155134033203125,2.209905123208463,9.55360287517011,-0.12397900163182057
1790958015840146200,7.165146240234375,2.2366161661319435,9.547635491198301,-0.10284891891214065
1790958015850158000,7.175157958984375,2.2564698905065654,9.543103692987561,-0.08887202328220009
1790958015860171000,7.1851708984375,2.26626633124724,9.540843346840143,-0.08206712904032319
1790958015870183000,7.195182861328125,2.266941746290773,9.540707737761736,-0.07914632795648649
1790958015880194800,7.20519482421875,2.2640008705332875,9.541424946120381,-0.07681491673369892
1790958015890207000,7.21520703125,2.2632110353298485,9.541644141829014,-0.07278084347860421
1790958015900219000,7.225218994140625,2.2653997775457797,9.541153143441676,-0.06881715487886686
1790958015910230800,7.235230712890625,2.2680004615634677,9.540551085895299,-0.06658651888312306
1790958015920243000,7.245242919921875,2.2694670269846915,9.54021323224306,-0.06501920106774195
1790958015930254800,7.2552548828125,2.2700557866580784,9.54008346838355,-0.06356182359997183
1790958015940267000,7.26526708984375,2.270969832763076,9.539875378590821,-0.06214033029633574
1790958015950279000,7.27527880859375,2.2730121522456406,9.539397239685059,-0.060838586348271925
1790958015960290800,7.285290771484375,2.2750977263480423,9.538909163907169,-0.05939650691433344
1790958015970303000,7.295302978515625,2.276264139778912,9.538643790969251,-0.057324230684922074
1790958015980315000,7.30531494140625,2.2772638183407485,9.538416411954165,-0.05543207852907944
1790958015990326800,7.315326904296875,2.2788296063527462,9.53804874768555,-0.054289406733401116
1790958016000339000,7.3253388671875,2.2813272683873773,9.537459549620747,-0.05295494325924664
1790958016010350800,7.335350830078125,2.283456681631505,9.536958029839395,-0.051546688463096506
1790958016020364000,7.345364013671875,2.2844489075392485,9.53672772821486,-0.05005965107600204
1790958016030376000,7.3553759765625,2.285120084799081,9.536575752523541,-0.048520029551722105
1790958016040387800,7.365387939453125,2.2864601012311874,9.53626011070311,-0.04713805997429881
1790958016050400000,7.37539990234375,2.2886878602832557,9.535731702914834,-0.04602468277176376
1790958016060412000,7.385411865234375,2.2921958684042094,9.534894083046913,-0.04496104016220197
1790958016070424000,7.395424072265625,2.295384581442922,9.534133620068431,-0.043421724598598666
1790958016080436000,7.40543603515625,2.2991339971043168,9.533235209923982,-0.04245785256908275
1790958016090448000,7.41544775390625,2.301427076477557,9.532683421260119,-0.04193170523655135
1790958016100460000,7.4254599609375,2.3044553382575512,9.531958614116906,-0.04052274718750268
1790958016110472000,7.435471923828125,2.306338229394704,9.531512039393187,-0.038611324075609445
1790958016120483800,7.44548388671875,2.307829929257184,9.531160157215595,-0.0357628895416623
1790958016130496000,7.45549609375,2.308221120531857,9.53107540154159,-0.03299719225456938
1790958016140508000,7.4655078125,2.3079174614101645,9.531158403649926,-0.030157205888559108
1790958016150520000,7.47552001953125,2.308342116563022,9.531060203972459,-0.02879013933603419
1790958016160532000,7.485531982421875,2.309719396265596,9.530728780061006,-0.02816929945737356
1790958016170543900,7.4955439453125,2.3109942385070026,9.53042073702514,-0.02796245177366072
1790958016180556000,7.50555615234375,2.3113411522485316,9.530338319438695,-0.027231575649266596
1790958016190569000,7.51556884765625,2.3105333429969845,9.530537641403079,-0.02596388923443155
1790958016200581000,7.5255810546875,2.3062525969378647,9.53157692132294,-0.025055217990872913
1790958016210593000,7.535593017578125,2.298828730547428,9.53337081900239,-0.024856019324075895
1790958016220605000,7.54560498046875,2.2916620537884533,9.535100419273972,-0.02340326551578473
1790958016230617000,7.5556171875,2.287406880562007,9.53613093136549,-0.019048965596687048
1790958016240629000,7.56562890625,2.285296464279294,9.536648817759751,-0.012347101329377618
1790958016250641000,7.575640869140625,2.2830564302675427,9.537191838595271,-0.003732070659304736
1790958016260653000,7.585653076171875,2.2802093702733517,9.537869883987307,0.007105645024674595
1790958016270665000,7.5956650390625,2.27923292645663,9.538090248739719,0.017795546310866484
1790958016280677000,7.605677001953125,2.2813959497094154,9.537557164776326,0.024699171094817573
1790958016290689000,7.61568896484375,2.2843778881296513,9.53683820285201,0.026815062703669536
1790958016300701000,7.625700927734375,2.2866496324539183,9.536289336797594,0.0281712105699582
1790958016310713000,7.635713134765625,2.2891757899306713,9.535678511422873,0.030070329039415807
1790958016320725000,7.64572509765625,2.2946115512438117,9.534366844302415,0.03140894353230251
1790958016330737000,7.65573681640625,2.3010773862570524,9.532805001813173,0.032366963493055664
1790958016340749000,7.6657490234375,2.3044890943966805,9.531976149773596,0.0337572556575411
1790958016350762000,7.675761962890625,2.3046118439935146,9.531939324894546,0.03582382366537349
1790958016360774100,7.685774169921875,2.304067215722799,9.53206324353516,0.03803692857100395
1790958016370786000,7.6957861328125,2.3044319573819636,9.531965043857694,0.040197113696020095
1790958016380798000,7.7057978515625,2.3046014687299725,9.53191535949707,0.04236633836072869
1790958016390810000,7.71581005859375,2.303708757673949,9.53211994215846,0.044636014025495385
1790958016400822000,7.725822021484375,2.3028474646694956,9.532316341513395,0.04706591262011788
1790958016410834200,7.735834228515625,2.303168951708823,9.532227494186163,0.04916140532833524
1790958016420846000,7.74584619140625,2.3049334771633148,9.531792609900236,0.05086995824531186
1790958016430858000,7.75585791015625,2.3070403863146898,9.531275892549752,0.052298278581956396
1790958016440870100,7.7658701171875,2.3079868733845648,9.531047344490885,0.05222402146907989
1790958016450882000,7.775882080078125,2.296756454318017,9.533843697211147,0.03356582473866874
1790958016460894000,7.78589404296875,2.2782522448562084,9.538328149148821,0.01579956046285806
1790958016470906000,7.795906005859375,2.258889226607978,9.542932428073883,0.015440915184339973
1790958016480918000,7.80591796875,2.2433618409998712,9.54657283040285,0.02533877275616396
1790958016490930200,7.81593017578125,2.2356236479632554,9.548349776947498,0.0372828839168651
1790958016500942000,7.825942138671875,2.2341198192715646,9.548652559286355,0.04804795962714124
1790958016510954000,7.8359541015625,2.234821830061078,9.548433363577724,0.058108604261954314
1790958016520967000,7.845966796875,2.2347087250754236,9.548384263738988,0.06936461899406277
1790958016530978800,7.855978759765625,2.2356160491786894,9.548080312356353,0.08106968810134567
1790958016540991000,7.865990966796875,2.2400910026356575,9.546942248237132,0.09093850909164175
1790958016551003000,7.8760029296875,2.247454371010512,9.545132568466663,0.0988313812333159
1790958016561014800,7.886014892578125,2.256345679605007,9.542954639905691,0.1063613657461945
1790958016571027000,7.89602685546875,2.2655934004217384,9.540646947485207,0.11636743064955808
1790958016581038800,7.906038818359375,2.2756259880058467,9.538079142823815,0.13026181736150755
1790958016591050800,7.91605078125,2.2880067461512983,9.534870117649435,0.14720946329738943
1790958016601063000,7.92606298828125,2.3005359728567303,9.531535420268774,0.1666281937882304
1790958016611074800,7.93607470703125,2.309033167567104,9.529069906938075,0.18862117694756014
1790958016621087000,7.9460869140625,2.3074147725850342,9.52887467662692,0.21629490915704516
1790958016631099400,7.956099365234375,2.2911428522199393,9.531927634456753,0.25179440308874473
1790958016641111300,7.966111328125,2.265921463332325,9.536967382189632,0.2867973822077736
1790958016651123200,7.976123291015625,2.2453519919037817,9.54101636531949,0.3127253119295463
1790958016661135400,7.98613525390625,2.2322560712262987,9.543500583350658,0.33017500736974176
1790958016671147300,7.996147216796875,2.230153545989096,9.543713349318503,0.3381385701274499
1790958016681159200,8.0061591796875,2.2382482973784206,9.541712530890107,0.341099356161803
1790958016691172400,8.01617236328125,2.2499551017850634,9.538843112933636,0.3443281820151955
1790958016701184300,8.026184326171874,2.2615977549143134,9.535926933225989,0.3487719366163015
1790958016711196400,8.036196533203125,2.2742671207427976,9.532728429445624,0.3538100769139826
1790958016721208300,8.046208251953125,2.286985440279543,9.529480241304636,0.3592723974404856
1790958016731220200,8.05622021484375,2.296042606960237,9.527112927651405,0.36429015253726393
1790958016741232400,8.066232421875,2.30124441338703,9.525708906072378,0.36813444340787826
1790958016751244300,8.076244384765625,2.3018648833729327,9.525449378353358,0.37097726561836897
1790958016761256400,8.08625634765625,2.3007572143919766,9.525616551613806,0.37353067642822857
1790958016771268400,8.096268310546876,2.299607459834963,9.525713582247494,0.37813177701551465
1790958016781280300,8.1062802734375,2.2965783212721345,9.526117486873268,0.3862614535877481
1790958016791292400,8.11629248046875,2.2917308812409636,9.526958029350638,0.3942504795802757
1790958016801304300,8.12630419921875,2.285067477829009,9.528329902225732,0.39971243478059765
1790958016811316200,8.136316162109376,2.275333873191476,9.530561606800555,0.402041498782672
1790958016821328400,8.146328369140624,2.2605996837876736,9.53402372995317,0.40306032043639567
1790958016831340300,8.15634033203125,2.2416148512020704,9.5383860168159,0.40589550732970237
1790958016841352400,8.1663525390625,2.2229835082292557,9.542521509185432,0.4111115980101749
1790958016851364400,8.1763642578125,2.205996133071184,9.54612450211346,0.41889574908036736
1790958016861377300,8.186377197265625,2.1899489613726733,9.549412437742948,0.4280488869488239
1790958016871389400,8.196389404296875,2.173539386102557,9.552650689011811,0.43926089357584713
1790958016881401300,8.2064013671875,2.1576870063237843,9.555688449272512,0.451179441037029
1790958016891413500,8.21641357421875,2.1452692771688104,9.558010754740238,0.4611324605789035
1790958016901425400,8.22642529296875,2.1380689904011785,9.559283258894085,0.46813086809888477
1790958016911437300,8.236437255859375,2.1388297456406056,9.558875262615084,0.4729493742965162
1790958016921449500,8.246449462890626,2.1487239476673303,9.556357726836204,0.4789466054173186
1790958016931461400,8.25646142578125,2.1658462012514472,9.55196446031332,0.489348720433563
1790958016941473300,8.266473388671875,2.184327029837668,9.546874443697929,0.5062307355210185
1790958016951485400,8.2764853515625,2.1994673158243296,9.542188331708312,0.5285516171941533
1790958016961497300,8.286497314453126,2.208454778269678,9.538770047697424,0.552231000804156
1790958016971509500,8.296509521484374,2.2084597467057407,9.537568270692228,0.5725977527348324
1790958016981521400,8.306521484375,2.198061979071051,9.538957094702123,0.589229592453502
1790958016991533300,8.316533203125,2.1816353065356613,9.541782673516868,0.6043388987800106
1790958017001545500,8.32654541015625,2.1689406601354477,9.544027237573266,0.6145190416086465
1790958017011557400,8.336557373046874,2.159352747578919,9.54579132463634,0.6208462718687952
1790958017021570600,8.346570556640625,2.148907195279747,9.547873391607403,0.6250514684736729
1790958017031582500,8.35658251953125,2.136318639602512,9.55041372373998,0.629377441914007
1790958017041594400,8.366594482421876,2.1222091579683124,9.553170913493632,0.6352498410787433
1790958017051606500,8.3766064453125,2.105271759431809,9.55640156597793,0.6429728365462273
1790958017061618400,8.386618408203125,2.083188814700395,9.560700139954685,0.6509461535129696
1790958017071630300,8.39663037109375,2.0553791628852487,9.566336100015043,0.656516062599793
1790958017081642500,8.406642578125,2.0217513263106346,9.573405892270802,0.6578740530800073
1790958017091654400,8.416654296875,1.9800008274264633,9.582347908139228,0.6546686811674386
1790958017101666600,8.42666650390625,1.9327507082127033,9.592437924998999,0.6480712556637823
1790958017111678500,8.436678466796875,1.8916788392424582,9.601148470199108,0.6402113359436392
1790958017121690400,8.4466904296875,1.864895023343712,9.606856326451897,0.6331388402741402
1790958017131702500,8.45670263671875,1.8523032527960837,9.609531683140993,0.6294865283116697
1790958017141714400,8.46671435546875,1.8498939996972679,9.609874797490239,0.6313322292435913
1790958017151726300,8.476726318359376,1.8510118978112935,9.609186815226078,0.6384688761904835
1790958017161738500,8.486738525390624,1.8513741552524268,9.608449148601293,0.6484696073316037
1790958017171750400,8.49675048828125,1.8489264698393642,9.60823112193644,0.6585855623502284
1790958017181762600,8.506762451171875,1.8449873768247662,9.608422260594367,0.6668144615132361
1790958017191775200,8.516775146484376,1.842689182884991,9.608418168941139,0.6731998517014086
1790958017201787100,8.526787109375,1.844519028660655,9.607804420956969,0.6769227446820586
1790958017211799300,8.53679931640625,1.8514413752697407,9.606265959343313,0.6798464501090348
1790958017221811200,8.546811279296875,1.8620976477101445,9.604045360684394,0.6821028507336974
1790958017231823400,8.5568232421875,1.8745637460514901,9.601539515343308,0.6832607885971665
1790958017241835300,8.566835205078124,1.887104663194716,9.59912836254835,0.6826123346257954
1790958017251847200,8.57684716796875,1.8995947269335387,9.596714287143945,0.6818981950070708
1790958017261859300,8.586859375,1.9131513969905674,9.593860651278495,0.6841425398677587
1790958017271871200,8.596871337890626,1.929108844579011,9.590126725447178,0.6916636560875922
1790958017281883100,8.606883056640624,1.949690298706293,9.585025018393992,0.7045327092066407
1790958017291895300,8.616895263671875,1.974921039944142,9.578565466991066,0.7219215778376906
1790958017301907200,8.6269072265625,2.0015746535919607,9.572152677339314,0.7334731916826218
1790958017311919400,8.63691943359375,2.026896287983656,9.566301613223553,0.7402378635119646
1790958017321931300,8.64693115234375,2.0471281980209053,9.561556464523077,0.7458534383714198
1790958017331943200,8.656943115234375,2.0531772689267993,9.559968318548798,0.7495674173932522
1790958017341955300,8.666955322265625,2.045612240500003,9.561331423595547,0.7528585678931325
1790958017351967200,8.67696728515625,2.036850988025963,9.56276116413772,0.7584357104383409
1790958017361979100,8.686979248046875,2.034387520521879,9.56276467126906,0.7649654775332659
1790958017371992300,8.696992431640625,2.035215788039565,9.562235094437003,0.7693606437522917
1790958017382004200,8.707004150390626,2.034303495500237,9.562023497512936,0.774406455899775
1790958017392016400,8.717016357421874,2.031005038476735,9.56233446315825,0.7791952245462686
1790958017402028300,8.7270283203125,2.028187058446556,9.562546644604206,0.7839264908518642
1790958017412040200,8.737040283203125,2.0279148173764345,9.562236263480782,0.7883950145680457
1790958017422052400,8.74705224609375,2.02850591513738,9.561690904557704,0.7934756788332015
1790958017432064300,8.757064208984374,2.0273203586146233,9.561437222057581,0.7995476922232657
1790958017442076400,8.767076416015625,2.024510269629955,9.561445989885925,0.8065266643904149
1790958017452088300,8.77708837890625,2.0218645774267614,9.561355388993023,0.8141972720835358
1790958017462100200,8.787100341796876,2.0197009696520865,9.561097030317782,0.8225593691721558
1790958017472112400,8.7971123046875,2.0159525769039988,9.56110346005857,0.8316311489000916
1790958017482124300,8.807124267578125,2.0104916811496016,9.561422609010338,0.8411288989551365
1790958017492136200,8.81713623046875,2.0052438436239957,9.561668692725897,0.8508009826637803
1790958017502148400,8.8271484375,2.000656369703263,9.561742342483997,0.8607292330905795
1790958017512160300,8.83716015625,1.9972608820460735,9.561522562253474,0.8709799934700131
1790958017522172400,8.84717236328125,1.995589880093932,9.560956745064258,0.8809607778016477
1790958017532184300,8.857184326171875,1.9950309310369192,9.560219078439474,0.8901838756337761
1790958017542197500,8.867197509765624,1.9949328774899242,9.559408346578477,0.8990630553990602
1790958017552209400,8.87720947265625,1.9947620509676633,9.558560789838433,0.9084159901559352
1790958017562221300,8.88722119140625,1.9948631732545792,9.55763256907761,0.9179020497731863
1790958017572233500,8.8972333984375,1.9954826203271745,9.556547696450352,0.9278120338909327
1790958017582245400,8.907245361328124,1.996126032797247,9.555443534600734,0.9377536552559583
1790958017592257300,8.91725732421875,1.9961274941019713,9.554310146656633,0.9492251896020024
1790958017602269400,8.92726953125,1.995114371536672,9.553276127433776,0.9616828123759478
1790958017612281300,8.93728125,1.9943064161546527,9.552393499380349,0.9720740041393786
1790958017622293200,8.947293212890624,1.9943631147779524,9.551738834863901,0.9783552763659507
1790958017632305200,8.95730517578125,1.993916978445649,9.551343698066473,0.9831021055668592
1790958017642317300,8.9673173828125,1.9923963447496293,9.55119932115972,0.9875950330719351
1790958017652329200,8.9773291015625,1.9920736886665225,9.550808860537408,0.992006492838636
1790958017662341000,8.987341064453124,1.9919263891503214,9.55032253832519,0.9969693759430199
1790958017672353300,8.997353271484375,1.990044374796003,9.550132568711042,1.0025327091585845
1790958017682365200,9.007365234375,1.9877214848063884,9.550029692858457,1.0081146009441464
1790958017692377000,9.017377197265626,1.9856518389254807,9.549880055254697,1.0135929592899977
1790958017702389200,9.02738916015625,1.9819788495011625,9.550053658255933,1.0191272125415503
1790958017712401200,9.037401123046875,1.9781835488714277,9.55028395988047,1.0243186437048017
1790958017722414300,9.047414306640626,1.9747811930820345,9.550459900969265,1.0292406102769076
1790958017732426200,9.05742626953125,1.970405608346313,9.550812367668748,1.0343396869815886
1790958017742438100,9.067438232421875,1.9657829169817267,9.55116308080256,1.0398823427353054
1790958017752450300,9.0774501953125,1.9620451917581259,9.551266541177034,1.0459776639357208
1790958017762462200,9.087462158203126,1.9592321801640091,9.551150221320986,1.052293276823312
1790958017772474400,9.097474365234374,1.9570134812012314,9.55093745535314,1.0583384022064506
1790958017782486300,9.107486328125,1.954472272285819,9.55078957131505,1.0643500637114047
1790958017792498200,9.117498291015625,1.952304134466499,9.550540564990044,1.0705473839815705
1790958017802510300,9.12751025390625,1.9511884283095597,9.549994037023186,1.077438385604322
1790958017812522200,9.137522216796874,1.9498321913950145,9.549440494793654,1.0847810034520924
1790958017822534100,9.1475341796875,1.9488764981053768,9.548801027846336,1.0920906688783316
1790958017832546300,9.15754638671875,1.9485221317097543,9.548073298093676,1.0990646726094186
1790958017842558200,9.16755810546875,1.9472056422837078,9.547608603191374,1.1054217134859412
1790958017852570400,9.1775703125,1.945957395788282,9.547214050915837,1.1110090120989828
1790958017862582300,9.187582275390625,1.946547616766393,9.546539512655139,1.1157545261256396
1790958017872594200,9.19759423828125,1.9472338454648852,9.545895954054593,1.1200617948655038
1790958017882606300,9.2076064453125,1.9473608328454195,9.545422491323947,1.1238749234128742
1790958017892618200,9.2176181640625,1.9498156786516307,9.544515313351154,1.1273171728212386
1790958017902630100,9.227630126953125,1.9527832962855696,9.543479540562629,1.1309447887338697
1790958017912643000,9.23764306640625,1.9541744583830236,9.542723169237375,1.1349101852335035
1790958017922655200,9.2476552734375,1.956439772966504,9.541729482024907,1.1393546704869717
1790958017932667100,9.257667236328125,1.9600331212833522,9.54044002673626,1.143968374827504
1790958017942679000,9.267678955078125,1.9624372598156332,9.539385549247264,1.1486313251372426
1790958017952691200,9.277691162109376,1.9643414860017596,9.538445638048648,1.1531636348046361
1790958017962703000,9.287703125,1.9669684735044837,9.537402266475558,1.157308917915821
1790958017972715300,9.29771533203125,1.969411628872901,9.536471123105287,1.1608249632127583
1790958017982727200,9.30772705078125,1.9707085368156432,9.535894784522055,1.1633672681067138
1790958017992739300,9.3177392578125,1.9718170825794339,9.535504323899746,1.1646689252898097
1790958018002751200,9.327751220703124,1.9743600450605152,9.534957795932888,1.164855168576911
1790958018012763100,9.33776318359375,1.9773703327924013,9.534404253703356,1.164277076428011
1790958018022775300,9.347775390625,1.9791573623396455,9.534040681087971,1.1642114638458936
1790958018032787200,9.357787109375,1.9801655164688825,9.533689967954158,1.1653666252303867
1790958018042799400,9.36779931640625,1.98210539849028,9.532906124100089,1.1684786928363144
1790958018052811300,9.377811279296875,1.9842380266048012,9.531838787129521,1.173558553383872
1790958018062823200,9.3878232421875,1.9847651192188263,9.530958497163653,1.1797994936000555
1790958018072835300,9.39783544921875,1.9840049485012887,9.530288050556182,1.186475683428347
1790958018082847200,9.40784716796875,1.9829998631119727,9.529723402410745,1.1926822099182754
1790958018092860200,9.417860107421875,1.980805129546672,9.52945218425393,1.1984796441506593
1790958018102872000,9.4278720703125,1.9773219636060297,9.529456860429049,1.2041767598137258
1790958018112884200,9.43788427734375,1.9740777209877967,9.529406591546534,1.2098803052175788
1790958018122896100,9.447896240234375,1.9713354365423321,9.529124267473817,1.2165514535445718
1790958018132908000,9.457907958984375,1.9678161763750015,9.528833760094642,1.2245065042022616
1790958018142920200,9.467920166015626,1.9642080688804386,9.528367311626672,1.2338937065549194
1790958018152932000,9.47793212890625,1.9615351964093743,9.527507479926943,1.2447314730420709
1790958018162944000,9.487944091796875,1.958716777987778,9.526528990283607,1.2565974135331808
1790958018172956200,9.4979560546875,1.9558863768674433,9.525501985323428,1.2687386638343334
1790958018182968000,9.507968017578126,1.9538212610311805,9.524307222580909,1.2808365133851767
1790958018192980200,9.517980224609374,1.9519782635129987,9.523090248006582,1.2926476549491286
1790958018202992000,9.5279921875,1.9506278718173502,9.52176981305778,1.3043546054862438
1790958018213004000,9.538004150390625,1.9503977163232862,9.52022083005011,1.3159607259973882
1790958018223016200,9.54801611328125,1.9503322498716413,9.518604042503236,1.3276954413242636
1790958018233028000,9.558028076171874,1.9503744815781712,9.516966212168334,1.3393116448380051
1790958018243040000,9.5680400390625,1.951974171859771,9.515039043498039,1.3506268195785582
1790958018253052200,9.57805224609375,1.9554538306690752,9.512783958047628,1.3614379903197287
1790958018263064000,9.58806396484375,1.960062493508309,9.510361114814877,1.3716967878751456
1790958018273076200,9.598076171875,1.965579503364116,9.507862283736467,1.381098384079337
1790958018283088100,9.608088134765625,1.9721438303157686,9.505340656304359,1.3890765233516693
1790958018293101000,9.61810107421875,1.9794203971900044,9.502734273198246,1.396541598535329
1790958018303113200,9.62811328125,1.9869839643120764,9.500088142603635,1.4037845554009079
1790958018313125000,9.638125,1.994267399318516,9.49744668818414,1.411306183077395
1790958018323137300,9.64813720703125,2.0009841403529047,9.4949496106714,1.418592832954228
1790958018333149200,9.658149169921876,2.006719615264982,9.492902615013717,1.4241658107809723
1790958018343161000,9.6681611328125,2.011540021158755,9.491098195940255,1.4293895367786287
1790958018353173200,9.67817333984375,2.016400759062916,9.489190901014208,1.4351868248805404
1790958018363185200,9.68818505859375,2.0208356727704406,9.487225738421081,1.4419270929209886
1790958018373197000,9.698197021484376,2.0240505431637166,9.485430671697854,1.449217980581522
1790958018383209200,9.708209228515624,2.026882405588776,9.483643788281082,1.4569336695253847
1790958018393221000,9.71822119140625,2.0296077388994394,9.481868010780214,1.464672739344835
1790958018403233300,9.7282333984375,2.0313024139881133,9.48040378344655,1.4717790642186999
1790958018413245200,9.7382451171875,2.0320408112652597,9.479258705064654,1.4781240493312477
1790958018423257000,9.748257080078124,2.0325116436474024,9.47829599751234,1.4836296610102058
1790958018433269200,9.758269287109375,2.0327304009646174,9.477401679021119,1.4890407262735068
1790958018443281200,9.76828125,2.032359375695139,9.476442478600143,1.4956404167994857
1790958018453293000,9.77829296875,2.0313623274818062,9.475435931906103,1.5033562518738208
1790958018463305200,9.78830517578125,2.0314790857292713,9.474466210091114,1.5092926561854778
1790958018473317000,9.798317138671875,2.0326070668458938,9.473418162342906,1.5143426330514251
1790958018483330300,9.808330322265626,2.033305132112652,9.472323352843523,1.5202397282660007
1790958018493342200,9.81834228515625,2.033334942729026,9.47139688564837,1.52597111152485
1790958018503354000,9.82835400390625,2.0332835048027333,9.470562188389897,1.5312123731791971
1790958018513366300,9.8383662109375,2.0338814706958828,9.46988355847597,1.5346078608363867
1790958018523378200,9.848378173828126,2.034433990012109,9.46958486779034,1.5357128994688392
1790958018533390300,9.858390380859374,2.0352419453941284,9.469117250278591,1.537534415807575
1790958018543402200,9.86840234375,2.036586199609935,9.468119471412896,1.5418823818840086
1790958018553414100,9.8784140625,2.0387819560885427,9.466608482328057,1.548242418435216
1790958018563426300,9.88842626953125,2.041661018656194,9.464881220144033,1.555000660523772
1790958018573438200,9.898438232421874,2.0440964291095733,9.46346901525855,1.5603876142591238
1790958018583450000,9.9084501953125,2.0459322662346064,9.462626134693622,1.5630911741293967
1790958018593462300,9.918462158203125,2.0486501468911764,9.461815402832627,1.5644358667366205
1790958018603474200,9.92847412109375,2.0517530813425777,9.461029805412888,1.5651267716102302
1790958018613486300,9.938486328125,2.052592747037113,9.46054056059122,1.5669694768674671
1790958018623498200,9.948498291015625,2.0524502698265015,9.459976496967673,1.570564140358567
1790958018633510700,9.9585107421875,2.052781401477009,9.459043015509843,1.5757500185638664
1790958018643522600,9.9685224609375,2.052496154794842,9.458158633890747,1.5814100901521742
1790958018653534500,9.978534423828124,2.053593448512256,9.457047457778453,1.5866301628880202
1790958018663546600,9.988546630859375,2.0561837572664023,9.455880752086639,1.5902242418572305
1790958018673559600,9.9985595703125,2.0580776081889867,9.45501975134313,1.5928833780638874
1790958018683571500,10.008571533203124,2.060433085273951,9.454154074424505,1.594983126822114
1790958018693583600,10.01858349609375,2.0637050926819445,9.453041729268431,1.5973432800821958
1790958018703595500,10.028595458984375,2.064976135531068,9.452404600408673,1.599466117455065
1790958018713607400,10.038607421875,2.0663252120524644,9.451802542862296,1.6012857340976594
1790958018723619600,10.04861962890625,2.0668045200020075,9.451318558737634,1.6035196306295691
1790958018733631500,10.058631591796875,2.0669404213413594,9.450818792521954,1.6062895337343215
1790958018743643600,10.0686435546875,2.0677017611026764,9.45018867792487,1.6090135518707334
1790958018753655600,10.078655517578126,2.0664847865283487,9.449989355960488,1.611743999747932
1790958018763667500,10.08866748046875,2.065228210595995,9.449769575729965,1.6146429360598324
1790958018773679600,10.0986796875,2.06537273363322,9.449201420453191,1.6177749504752457
1790958018783691500,10.10869140625,2.066001679186523,9.44905470545888,1.617832672011852
1790958018793703700,10.11870361328125,2.066701936410367,9.449010281795262,1.6171968583263456
1790958018803715600,10.128715576171874,2.0685921340711415,9.448820896703005,1.6158796382479368
1790958018813727500,10.1387275390625,2.070510827174038,9.448699900671839,1.6141342558853327
1790958018823739600,10.14873974609375,2.0725534389175473,9.448559030896424,1.612340504336357
1790958018833751600,10.15875146484375,2.074223125695437,9.448506423926354,1.610496337774396
1790958018843763700,10.168763671875,2.0748842199526725,9.448702238759397,1.6085000493906438
1790958018853775600,10.178775634765625,2.076065100300312,9.44883024905324,1.6062195372380315
1790958018863787500,10.18878759765625,2.0765268725931643,9.449103805297613,1.6040202736280857
1790958018873799700,10.198799560546876,2.075742882608622,9.449620522648095,1.6019770773626862
1790958018883812400,10.208812255859375,2.075478970975429,9.4500226737082,1.5999556545376776
1790958018893824500,10.218824462890625,2.0756931982479987,9.450252390810848,1.5983146093323826
1790958018903836400,10.22883642578125,2.0754203726559877,9.450617132470011,1.5965110670417546
1790958018913848300,10.238848388671874,2.0766389546655115,9.450665063264966,1.5946439579956233
1790958018923860500,10.248860595703125,2.078789849089086,9.450579138547182,1.5923406494893133
1790958018933872400,10.258872314453125,2.0811178536452353,9.450476847216486,1.5899126916900277
1790958018943884300,10.26888427734375,2.0840115292601284,9.450202706450224,1.5877518603943288
1790958018953896400,10.278896484375,2.0872275686971844,9.449776589992641,1.5860595233932138
1790958018963908400,10.288908447265625,2.089814662580937,9.449401326939464,1.5848900412224232
1790958018973920500,10.29892041015625,2.0934100567243994,9.448723281547426,1.5841886149547992
1790958018983932400,10.308932373046876,2.0963050475135443,9.448122977566719,1.5839321559756994
1790958018993944300,10.3189443359375,2.097634688682109,9.44784123801589,1.583854414564371
1790958019003956500,10.32895654296875,2.1011250150159,9.447101817825436,1.5836390182480216
1790958019013968400,10.338968505859375,2.1052415104240176,9.446251922997831,1.5832412511020897
1790958019023980300,10.348980224609376,2.1080548142790794,9.445654541626572,1.583062825795263
1790958019033992400,10.358992431640624,2.111367153697461,9.44493148804903,1.5829717865109443
1790958019044004400,10.36900439453125,2.116436858177185,9.44377238114178,1.5831060804150998
1790958019054016500,10.3790166015625,2.1215641380630434,9.44256358987391,1.5834611774630845
1790958019064028400,10.3890283203125,2.1247340002708137,9.44172304739654,1.5842176949188111
1790958019074041300,10.399041259765625,2.1279916868925093,9.440818792033195,1.5852407543562352
1790958019084053500,10.409053466796875,2.132655733180791,9.439582528236508,1.5863301570281385
1790958019094065400,10.4190654296875,2.134816272215545,9.438915004238487,1.587397055607289
1790958019104077600,10.42907763671875,2.1346302481241524,9.438798099860549,1.5883410584591329
1790958019114089500,10.43908935546875,2.1371096438497306,9.438117131859064,1.5890521293379365
1790958019124101400,10.449101318359375,2.142004284023493,9.43679845047593,1.5902926309183238
1790958019134113500,10.459113525390626,2.146263548903167,9.435728190895915,1.5909008259445427
1790958019144125400,10.46912548828125,2.151450596152246,9.434660269403457,1.5902289180323481
1790958019154137300,10.479137451171875,2.158344301188737,9.433203640854359,1.5895321679398418
1790958019164149500,10.4891494140625,2.164086644233018,9.432148578843474,1.5879790932789444
1790958019174161400,10.499161376953126,2.1680504332974553,9.43151963329017,1.5863053148478268
1790958019184173600,10.509173583984374,2.1698687347657977,9.431431370484828,1.584348627822101
1790958019194185500,10.519185546875,2.170936656258255,9.431512034505605,1.5824018776684998
1790958019204197400,10.529197265625,2.174176222701371,9.431212759298086,1.5797437643751502
1790958019214209500,10.53920947265625,2.1766537187308073,9.43103564916551,1.5773833188541233
1790958019224221400,10.549221435546874,2.175792717987299,9.431444814488291,1.576119582528621
1790958019234233300,10.5592333984375,2.1770257669135926,9.431310374453663,1.575224387254566
1790958019244245500,10.56924560546875,2.183434026520699,9.430770860749483,1.5695789287135005
1790958019254257400,10.57925732421875,2.1899939695581794,9.43062473027706,1.561294646101445
1790958019264269600,10.58926953125,2.193213516126573,9.431139109539986,1.5536432545654475
1790958019274281500,10.599281494140625,2.1929880368076264,9.432500461021066,1.5456719834253192
1790958019284294400,10.60929443359375,2.190429146105051,9.434473222398758,1.5372380632095037
1790958019294306600,10.619306640625,2.1895706295795736,9.43614612404704,1.5281640915244816
1790958019304318500,10.629318359375,2.186957962863147,9.438487134215235,1.5174211637139319
1790958019314330600,10.63933056640625,2.177288217242062,9.442201186302304,1.5081963853813707
1790958019324342500,10.649342529296876,2.165428268100321,9.445849771937727,1.5024112261086702
1790958019334354400,10.6593544921875,2.1584119595974682,9.448012502929569,1.4989055560752749
1790958019344366600,10.66936669921875,2.157407750990987,9.449031324583292,1.4939194382257759
1790958019354378500,10.67937841796875,2.1574406303472817,9.451118652251361,1.4806035911872981
1790958019364390400,10.689390380859376,2.1537809387959537,9.454511217299103,1.4641764802604913
1790958019374402600,10.699402587890624,2.1465353515818713,9.45860228600502,1.448308318390697
1790958019384414500,10.70941455078125,2.1415524486027655,9.462256132337451,1.4317241172060369
1790958019394426600,10.719426513671875,2.141769452354312,9.464805816820263,1.4144459424078464
1790958019404438500,10.7294384765625,2.143537338809669,9.467202356567979,1.3956073864251375
1790958019414450400,10.739450439453124,2.142251682913303,9.47076384844184,1.3732295504003762
1790958019424462600,10.749462646484375,2.1405631453044713,9.474489006444811,1.3499692324526607
1790958019434474500,10.759474609375,2.1406936398163436,9.477865204879642,1.3258449911519885
1790958019444486400,10.769486328125,2.1394446626685557,9.481514959558844,1.301557522113621
1790958019454498600,10.77949853515625,2.139416313356906,9.484870699727535,1.2769123256787658
1790958019464510500,10.789510498046875,2.1401647936366497,9.488010166797041,1.2520906036332249
1790958019474522600,10.799522705078125,2.142209012815356,9.490767941072583,1.227458412810415
1790958019484534500,10.809534423828126,2.146446504254639,9.493055175226926,1.2021026569534092
1790958019494547500,10.81954736328125,2.1507389407515523,9.495368712866306,1.1758690222833306
1790958019504559600,10.8295595703125,2.15170369413048,9.498590597522258,1.1477562228031455
1790958019514571500,10.839571533203125,2.146785819211602,9.503073295894264,1.1195108829844742
1790958019524583700,10.849583740234374,2.139062531483173,9.50822936348319,1.0901284288946538
1790958019534595600,10.859595703125,2.135300402470678,9.5125361207664,1.0594927598733455
1790958019544607500,10.869607421875,2.1370292720898987,9.515328381833433,1.0305343764144927
1790958019554619600,10.87961962890625,2.1367495783656834,9.518404720538854,1.0023287110190837
1790958019564631600,10.889631591796874,2.1321688264466823,9.522078440615534,0.9768594117850065
1790958019574643500,10.8996435546875,2.130006826107204,9.52488180759847,0.9539807135660201
1790958019584655600,10.909655517578125,2.1297027285940944,9.527165534621476,0.9315916254948824
1790958019594667500,10.91966748046875,2.132473070090264,9.528635607174039,0.9099597124665975
1790958019604679700,10.9296796875,2.1327928035639223,9.530667405262589,0.8876758383356034
1790958019614691600,10.939691650390625,2.1219839709103105,9.535192773732543,0.8646690567575395
1790958019624703500,10.949703369140625,2.1140045164637264,9.538943650698661,0.8425551323659718
1790958019634715400,10.95971533203125,2.1173149561859668,9.540246549990773,0.8191847781725228
1790958019644727600,10.9697275390625,2.1235595496639608,9.540729949593544,0.7971006643973291
1790958019654739500,10.979739501953125,2.122968305772543,9.542550150758027,0.7766101764891297
1790958019664751400,10.98975146484375,2.1171017518267035,9.545233690753578,0.7594605234414339
1790958019674763500,10.999763427734376,2.1067462158985433,9.548919685789942,0.741715754044801
1790958019684775400,11.009775390625,2.093149652222544,9.553197801500557,0.7249366878751665
1790958019694787300,11.019787353515625,2.0817023755349218,9.556950432032346,0.7082197271563112
1790958019704800300,11.02980029296875,2.0733748383030295,9.55998410063982,0.6915118265267461
1790958019714812200,11.039812255859376,2.065558173202723,9.563011339506506,0.6727974083803594
1790958019724824300,11.04982421875,2.0571317056410012,9.566464694830774,0.6491142619106918
1790958019734836200,11.059836181640625,2.04980472375378,9.569919219198823,0.6207450034514069
1790958019744848100,11.06984814453125,2.047215584043413,9.57229120902717,0.5920455266570672
1790958019754860300,11.0798603515625,2.0470568863503633,9.574168693336844,0.5614402893066406
1790958019764872200,11.0898720703125,2.0474926474191246,9.575876666298509,0.5298558681931347
1790958019774884400,11.09988427734375,2.0491912680305537,9.577266659352183,0.4971595403149724
1790958019784896300,11.109896240234375,2.053091928730905,9.578191372981667,0.4620038731185719
1790958019794908200,11.119908203125,2.057695330873132,9.578909750384092,0.4251756330674514
1790958019804920300,11.12992041015625,2.0626690276324746,9.579481997314096,0.38642197791170324
1790958019814932200,11.13993212890625,2.06864576395452,9.57967722762525,0.34770291914530094
1790958019824944400,11.1499443359375,2.0724477865859865,9.580156535574794,0.3097705537771806
1790958019834956300,11.159956298828124,2.072022108519822,9.581315057960152,0.27480872865244743
1790958019844968200,11.16996826171875,2.0656303616560994,9.583635609862208,0.23976782867582513
1790958019854980400,11.17998046875,2.059872674912214,9.585660978209972,0.2059779699399136
1790958019864992300,11.1899921875,2.0560668528884647,9.58721054573953,0.16850474651614203
1790958019875004400,11.20000439453125,2.0483152158483864,9.589481997802853,0.1289020641824696
1790958019885016300,11.210016357421875,2.037893775077164,9.592130466485022,0.09173809850411489
1790958019895028500,11.220028564453125,2.0323726735681293,9.593587095034122,0.05412513324951287
1790958019905040400,11.230040283203126,2.0385247664570807,9.592430326214432,0.008061543810289003
1790958019915053300,11.24005322265625,2.053555746850371,9.58909504431188,-0.05042241540721152
1790958019925065200,11.250065185546875,2.0647977102242407,9.586212182351947,-0.10744812893643975
1790958019935077400,11.260077392578125,2.0680768780253826,9.584754384759067,-0.16097141013555227
1790958019945089300,11.27008935546875,2.0746308297134934,9.582338555788994,-0.21229352802857757
1790958019955101200,11.28010107421875,2.0919754938766357,9.577380056598782,-0.260394674581103
1790958019965113300,11.29011328125,2.1071035049036144,9.572707973134516,-0.30619631201960146
1790958019975125200,11.300125244140625,2.1108514592602847,9.570341828525066,-0.3510769256230444
1790958019985137400,11.310137451171874,2.110699483568966,9.568509352400898,-0.3987209395252168
1790958019995149300,11.3201494140625,2.1181151666529474,9.564650923407077,-0.4488146116018295
1790958020005161200,11.3301611328125,2.1332892087787387,9.558684708479046,-0.5010062423383816
1790958020015173400,11.34017333984375,2.149314753167331,9.55218891671896,-0.5536314421866089
1790958020025185300,11.350185302734374,2.161193407009542,9.54636649417579,-0.6054058704243973
1790958020035197200,11.360197265625,2.1768780290059744,9.539362168371676,-0.6573859042368829
1790958020045209300,11.370209228515625,2.195999639713764,9.531369416052103,-0.7077811165433376
1790958020055221200,11.38022119140625,2.2154257863260804,9.523471940800547,-0.7521691243242472
1790958020065233400,11.3902333984375,2.2334845901079476,9.516113979253172,-0.7908822282738983
1790958020075245300,11.400245361328125,2.2446549495503305,9.510861465552448,-0.8218518054246902
1790958020085257200,11.41025732421875,2.245261537141353,9.508543251737951,-0.8466372871130704
1790958020095269400,11.420269287109376,2.2451273893676698,9.50692178801596,-0.8650001153428107
1790958020105281300,11.43028125,2.249098777216673,9.50459422185123,-0.8801310489792377
1790958020115293200,11.440293212890625,2.2519829543508587,9.502381806498766,-0.8964833411041647
1790958020125305300,11.450305419921875,2.2482957902707157,9.50151554505825,-0.9147409553937613
1790958020135318300,11.460318359375,2.2432728475421664,9.500700137022138,-0.935316783497855
1790958020145330400,11.470330322265625,2.2455945684880017,9.498055175471306,-0.9563658551368862
1790958020155342300,11.48034228515625,2.2581432305462656,9.492621459984779,-0.9804660579748451
1790958020165354200,11.490354248046875,2.2708033901549873,9.486751106646656,-1.0076550206083803
1790958020175366400,11.500366455078124,2.2736951660737392,9.483653725153207,-1.0300518535945564
1790958020185378300,11.51037841796875,2.28033299665302,9.479932658803463,-1.0494471666771918
1790958020195390500,11.520390380859375,2.2970219733864066,9.473596441519259,-1.0700674184449017
1790958020205402400,11.53040234375,2.3101130717583,9.468436866798996,-1.08741485908702
1790958020215414300,11.540414306640624,2.3142624465227124,9.465732284015417,-1.10203667415753
1790958020225426400,11.550426513671875,2.3166890891477463,9.463496487787365,-1.1160543127898126
1790958020235438300,11.560438232421875,2.321557571966946,9.460846265539526,-1.1283408167805522
1790958020245450200,11.5704501953125,2.3260475768625737,9.458217086079717,-1.1410510991413145
1790958020255462400,11.58046240234375,2.326850125417113,9.456342524379492,-1.1548765762023627
1790958020265474300,11.590474365234375,2.3290884058631955,9.454164595818519,-1.1681221344836055
1790958020275486500,11.600486572265625,2.3318762830160558,9.451785591727495,-1.1817339687939732
1790958020285498400,11.610498291015626,2.3303666091054676,9.450217319497465,-1.1971539485048501
1790958020295510300,11.62051025390625,2.330635050783306,9.447976262572407,-1.2141848705437033
1790958020305522400,11.6305224609375,2.3417278149448335,9.443266769707202,-1.2293966873966156
1790958020315534300,11.640534423828125,2.3560599994190037,9.437719072452188,-1.2445086240716279
1790958020325546200,11.650546142578126,2.3625115136459467,9.433523374328017,-1.2639496759921311
1790958020335558400,11.660558349609374,2.3713157284788786,9.428017762649059,-1.288302173090726
1790958020345570300,11.6705703125,2.3894334228411314,9.419405417126416,-1.3174958266101777
1790958020355582200,11.680582275390625,2.4129601366400717,9.408809788832068,-1.3499303617469967
1790958020365595400,11.690595458984374,2.4307960914514957,9.399497770607471,-1.3824034753285348
1790958020375607300,11.700607177734375,2.4408209341205653,9.392676400154828,-1.4108176689080894
1790958020385619500,11.710619384765625,2.450204410146177,9.386870928746461,-1.433016495104134
1790958020395631400,11.72063134765625,2.4555577538728715,9.383035296106337,-1.4488862644091247
1790958020405643500,11.7306435546875,2.460216977855563,9.380124377095699,-1.4597884744346141
1790958020415655400,11.740655517578125,2.4619731738731265,9.378113037273287,-1.4697143867738545
1790958020425667300,11.750667236328125,2.457218380561471,9.378303591409326,-1.476447056029737
1790958020435679500,11.760679443359376,2.444977177017182,9.380614206439256,-1.4820787783063947
1790958020445691400,11.77069140625,2.4310531349524855,9.383207145541906,-1.4885577650621533
1790958020455703300,11.780703369140625,2.419018706026673,9.384985261130332,-1.4969212503902614
1790958020465715500,11.790715576171875,2.4131141581580042,9.385254725721477,-1.5047478523626923
1790958020475727400,11.800727294921876,2.414542437395453,9.384663189569116,-1.5061422293305395
1790958020485739500,11.810739501953124,2.417437866576016,9.385302656516432,-1.4974924744069575
1790958020495751400,11.82075146484375,2.421122254177183,9.38578956325054,-1.4884543046876788
1790958020505763300,11.830763427734375,2.428334815904498,9.385012733659147,-1.4815966938778757
1790958020515775500,11.840775390625,2.4302336352631446,9.385259986418484,-1.476901814059913
1790958020525787400,11.850787353515624,2.4267897784195838,9.386879112052917,-1.4722724006935952
1790958020535799300,11.86079931640625,2.432196605899185,9.386278223550319,-1.467166894248128
1790958020545811500,11.8708115234375,2.4381631130881605,9.385814113169907,-1.460216490588337
1790958020555823400,11.8808232421875,2.426232436797768,9.390279860407114,-1.451346663173288
1790958020565835300,11.890835205078124,2.4054110364347694,9.39785701766312,-1.43690298114866
1790958020575847400,11.900847412109375,2.380750204039365,9.406319725582003,-1.4225224274881183
1790958020585860400,11.9108603515625,2.349417346534133,9.416699080777168,-1.4058509864114224
1790958020595872500,11.92087255859375,2.3162518667742606,9.427366020742058,-1.3892887047976255
1790958020605884400,11.930884521484375,2.2868254274122415,9.436395130372047,-1.3766821750722824
1790958020615896600,11.940896484375,2.2657478603310883,9.443055757305025,-1.365819420274347
1790958020625908500,11.950908447265626,2.252293919996172,9.448533896455167,-1.35009168978855
1790958020635923500,11.96092333984375,2.2469142727844416,9.452897936883568,-1.3283306704878806
1790958020645935400,11.970935302734375,2.246431603834033,9.455789566671848,-1.3084196629680693
1790958020655947500,11.980947509765626,2.2502939783506095,9.457402847087383,-1.2899953868746756
1790958020665959400,11.99095947265625,2.258780067145079,9.458287228706478,-1.2684982792071997
1790958020675971300,12.000971435546875,2.2665524547122415,9.459753209605813,-1.2434551694959401
1790958020685983500,12.0109833984375,2.262251250386983,9.46393604824841,-1.219226298777014
1790958020695995400,12.020995361328126,2.253760631547868,9.46943756827414,-1.1919325605947524
1790958020706007300,12.03100732421875,2.2492799790024756,9.473859476369618,-1.1649497149925678
1790958020716019500,12.04101953125,2.241636186251044,9.478720360404253,-1.1398833705361933
1790958020726031400,12.05103125,2.220281117402762,9.48674409238398,-1.1146357512287794
1790958020736043500,12.06104345703125,2.1881378202974795,9.497216386559606,-1.0887167354658245
1790958020746055400,12.071055419921874,2.159478712046146,9.50675578379929,-1.062364004460722
1790958020756067300,12.0810673828125,2.1405312888614834,9.51354675911367,-1.03968229011856
1790958020766079500,12.09107958984375,2.1255117066450415,9.51921428335607,-1.0183994097236544
1790958020776091400,12.10109130859375,2.104389715900272,9.526351880151033,-0.9952593571547418
1790958020786103300,12.111103271484374,2.0836261832043528,9.533725039267539,-0.9679725601699203
1790958020796115500,12.121115478515625,2.0723316128604115,9.539808743095398,-0.9315922830820083
1790958020806128400,12.13112841796875,2.069535406270623,9.544996959388255,-0.8834128471288829
1790958020816140300,12.141140380859374,2.071480402858555,9.549104394707083,-0.8330268410421907
1790958020826152400,12.15115234375,2.0756931982479987,9.552526185849308,-0.7817333647217601
1790958020836164400,12.161164306640625,2.0718464596919715,9.557394668668508,-0.7307872405342757
1790958020846176500,12.171176513671876,2.059212311307341,9.564061140820383,-0.677333882766217
1790958020856188400,12.1811884765625,2.050425339870155,9.569597732159496,-0.6236582605496048
1790958020866200300,12.191200439453125,2.0451376087255775,9.574186228993534,-0.5681177577765658
1790958020876212500,12.20121240234375,2.025708685634285,9.581602058207988,-0.5097144494509324
1790958020886224400,12.211224365234376,1.9859856009244918,9.592879239025711,-0.4504643515702337
1790958020896236500,12.221236572265624,1.9473858211562036,9.603598201438784,-0.38594625015873457
1790958020906248400,12.23124853515625,1.929089409226179,9.609735681280494,-0.3193100971473381
1790958020916260400,12.24126025390625,1.9342184426777063,9.61054232148826,-0.2581587870215066
1790958020926272500,12.2512724609375,1.9430695653922854,9.610130818077922,-0.20062749402374028
1790958020936284400,12.261284423828124,1.937899907669425,9.612293549069761,-0.1369315591827035
1790958020946296600,12.271296630859375,1.9246791915684938,9.615674423679708,-0.06925787981711327
1790958020956308500,12.28130859375,1.9219982819214463,9.616459436577557,-0.005942456738997134
1790958020966320400,12.2913203125,1.9335010881885886,9.614005029162763,0.05361537536277901
1790958020976332500,12.30133251953125,1.944715286772698,9.611237318015098,0.11221918839630671
1790958020986344400,12.311344482421875,1.938726129360497,9.611617257243394,0.16898111358992754
1790958020996356400,12.3213564453125,1.922316700220853,9.613685880210996,0.22829432156840337
1790958021006368500,12.331368408203126,1.9144063654877244,9.613613984018563,0.2895684908889234
1790958021016380400,12.34138037109375,1.9146800678625702,9.611659342819452,0.3469693076411262
1790958021026392600,12.351392578125,1.9206443830944597,9.608431612944603,0.3994229868473485
1790958021036405200,12.3614052734375,1.9366531224787233,9.602976270148158,0.4501216756124049
1790958021046417200,12.371417236328124,1.9526802743025122,9.597108254897593,0.502923218408227
1790958021056429300,12.38142919921875,1.957751147826016,9.593200726065039,0.5550531820854172
1790958021066441200,12.391441162109375,1.9599790530085563,9.590095161265134,0.5991095102265477
1790958021076453400,12.401453369140626,1.9738912585049866,9.584874796268343,0.635847587776184
1790958021086465300,12.41146533203125,1.9925135413885116,9.578553192031382,0.6720089614164084
1790958021096477200,12.421477294921875,1.9873738404124974,9.577509820458292,0.7014408076059073
1790958021106489300,12.4314892578125,1.9538411347754299,9.581986673611402,0.7337649411708116
1790958021116501200,12.441501220703126,1.9256497901663183,9.58428267559409,0.7770503945372998
1790958021126513200,12.45151318359375,1.9221688161827624,9.5808702368021,0.8261787287130952
1790958021136525300,12.461525390625,1.9479533919110894,9.572209960484503,0.8652482448849826
1790958021146537200,12.471537109375,1.9881899791009723,9.561731821089982,0.8892548511553555
1790958021156549400,12.48154931640625,2.0080504254773257,9.555557516369223,0.9107340578399598
1790958021166561300,12.491561279296874,1.9951152483195065,9.555467499998212,0.9396597080729902
1790958021176573200,12.5015732421875,1.985867527502775,9.55453986375928,0.9682370563250035
1790958021186585300,12.51158544921875,2.005640149465203,9.548256253445148,0.9892311098411679
1790958021196597200,12.52159716796875,2.0391157180875537,9.53911199300289,1.0088236259963363
1790958021206609200,12.531609130859374,2.0532138015449046,9.534198501998185,1.0265272596649826
1790958021216621300,12.541621337890625,2.0446274672463534,9.533597613495587,1.0489888284504414
1790958021226633200,12.55163330078125,2.0455571493119,9.53113268468678,1.0693891538571565
1790958021236645400,12.561645263671876,2.0598970787011086,9.52611397974193,1.0864487905338407
1790958021246657300,12.5716572265625,2.0661532164864242,9.522360180166363,1.107276474507153
1790958021256670200,12.581670166015625,2.0593359376870093,9.521075401052832,1.1307627832304685
1790958021266682400,12.591682373046876,2.0576827636525032,9.518666586345434,1.153818226255849
1790958021276694300,12.6016943359375,2.065802795613557,9.514643906700611,1.1723419441357255
1790958021286706400,12.61170654296875,2.065671132057905,9.512241521734,1.191910275697708
1790958021296718300,12.62171826171875,2.047513544076681,9.513856555715202,1.2102073452148585
1790958021306730200,12.631730224609376,2.025959153264016,9.51643429724872,1.2261159121602774
1790958021316742400,12.641742431640624,2.0197034538701177,9.515590832161903,1.2428745931290088
1790958021326754300,12.65175439453125,2.032228004400432,9.511079492217302,1.2569073562651871
1790958021336766200,12.66176611328125,2.049185861203074,9.505354100307821,1.2725829181723296
1790958021346778400,12.6717783203125,2.0630144800692793,9.500373389285802,1.2873425342783331
1790958021356790300,12.681790283203124,2.080472395348549,9.494479655072093,1.302640787305683
1790958021366802400,12.691802490234375,2.1008843381278215,9.487911967119574,1.3176416648216545
1790958021376814300,12.701814453125,2.12173291875869,9.480966093504428,1.3341346805915235
1790958021386826200,12.711826171875,2.139566681613028,9.474469717222451,1.3516821738503872
1790958021396838400,12.72183837890625,2.158545376718789,9.467212293440102,1.3722162817046046
1790958021406850300,12.731850341796875,2.166638374542445,9.462533780235052,1.3915883600421248
1790958021416862200,12.7418623046875,2.15014141324982,9.46322760771811,1.4122978244632483
1790958021426874400,12.751874267578126,2.13280712435022,9.463435112988948,1.4369820377342402
1790958021436886300,12.76188623046875,2.138640945070237,9.45873029629886,1.4591180278271436
1790958021446898400,12.7718984375,2.1470319029271603,9.454025479608774,1.4771761009566484
1790958021456910300,12.781910400390625,2.1434768407940865,9.45168154683113,1.4971959756784141
1790958021466922200,12.791922119140626,2.150217547225952,9.447031090676784,1.5167494019322096
1790958021476934400,12.801934326171875,2.1796489550240334,9.437056224629282,1.5367119935087858
1790958021486947300,12.811947265625,2.2169798839002848,9.425267002636193,1.5555471884906291
1790958021496959500,12.82195947265625,2.2351173058763143,9.418213576993345,1.5722303200051189
1790958021506971400,12.831971435546874,2.2377648977756497,9.414633380419016,1.5898054319232702
1790958021516983300,12.8419833984375,2.247545264164358,9.409623443302511,1.605590007162839
1790958021526995500,12.851995361328125,2.2523522260546684,9.406622507920861,1.6163984014250337
1790958021537007400,12.86200732421875,2.2490647288165984,9.40474210100174,1.6318427849248052
1790958021547019300,12.872019287109374,2.2430065978214144,9.403238126179575,1.6487661549359558
1790958021557031400,12.882031494140625,2.2363456786274907,9.401723045441507,1.6663506192043422
1790958021567043300,12.892043212890625,2.224359180496633,9.401119234329462,1.6856921562731264
1790958021577055500,12.902055419921876,2.2106766921028496,9.40007878536582,1.7093346054062246
1790958021587067400,12.9120673828125,2.210240638773143,9.395817620790003,1.733153872410953
