time,seconds_elapsed,z,y,x
1790763741841642200,0.064642333984375,-0.4686725737601518,2.09427120359838,0.9898621012210845
1790763741851681000,0.074680908203125,-0.48155076003372665,2.1562644261747597,1.1606563286475837
1790763741861719000,0.084718994140625,-0.47339492610692974,2.1411901911616322,1.1841367190867662
1790763741871758000,0.094758056640625,-1.9378636673122642,1.0188166852876543,0.6888507175587117
1790763741881796000,0.104796142578125,-1.2237234640657901,0.0996390626206994,0.34311497030053284
1790763741891835000,0.1148349609375,-1.2132500008463858,0.08612550105303525,0.43364550137948243
1790763741901873200,0.124873046875,-1.1402502310872078,0.4936971249014139,0.43362475085239854
1790763741911912000,0.134911865234375,-0.043162849900126456,1.8253759367734192,-1.3539879665747283
1790763741921951000,0.144950927734375,-0.17581190945804118,2.3371403410241007,-3.4427515126675363
1790763741931989000,0.154989013671875,-0.0969704279333353,2.148563058017194,-4.249702393819391
1790763741942028000,0.165028076171875,-0.06502163048684596,2.1161361216649412,-4.122078468947112
1790763741952066000,0.175066162109375,0.5694511618047953,1.2567448591798542,-2.888124118246138
1790763741962105000,0.18510498046875,3.3189509454756974,0.9010673809587955,-1.6365467248320578
1790763741972142800,0.195142822265625,3.8790456653922796,1.395354580707848,-1.2589034985184668
1790763741982182100,0.20518212890625,3.890857683739066,1.3632049999922513,-1.3025650917209683
1790763741992221200,0.21522119140625,4.109315141224861,1.5709890877723693,-0.8513877695757895
1790763742002259000,0.225259033203125,0.42739305338859557,1.9798665335223078,-0.7057743798308074
1790763742012298000,0.235298095703125,-0.6821499047458172,1.4469918289646506,-0.641870282131806
1790763742022336000,0.2453359375,-0.7667723077595233,1.1665855725660919,-0.9702134709645062
1790763742032375000,0.255375,-0.8448691083967685,1.2931921370893715,-1.2026691317297518
1790763742042413000,0.2654130859375,-0.8308189557343721,1.2632289605021476,-1.2373279187873005
1790763742052452000,0.2754521484375,-1.3805840048164129,1.7326731031566858,-1.2466437364041805
1790763742062491000,0.285490966796875,-0.6365285557776689,1.7526982385754584,-0.08966448883414269
1790763742072529200,0.295529052734375,-0.5903121635258197,1.6856114922523497,-0.03637150925956666
1790763742082568000,0.30556787109375,-1.013199722188711,1.2480348985016345,0.8208671783015131
1790763742092606000,0.31560595703125,-1.8242542392671106,1.0743225916713475,1.203788637278974
1790763742102645200,0.325645263671875,-1.8377210390835998,1.6266501847177743,0.7539747855067253
1790763742112683000,0.33568310546875,-1.6556091526985168,2.1751047357231377,-0.3746110190108418
1790763742122722000,0.34572216796875,-1.0813631578326224,1.81480018222332,-0.4632077324829995
1790763742132760000,0.355760009765625,-0.6009048692107201,1.9166747488111255,-0.49816652540042994
1790763742142799000,0.365799072265625,0.020251345390081405,1.7567039670854805,-0.00908946151509881
1790763742152838000,0.375837890625,0.37777591278254985,1.8247680340081451,0.4102624703675508
1790763742162876200,0.385876220703125,0.7820803515285253,2.0659405966490505,0.4759954639941454
1790763742172915000,0.3959150390625,0.649601972362399,2.4711171420544384,-0.2502067868374288
1790763742182953200,0.405953125,0.7014297747552395,2.3916087210536,-0.28153204555809497
1790763742192992000,0.415991943359375,0.05189502241015434,1.6135738455235957,-0.34020781414955853
1790763742203029500,0.426029541015625,-1.130270104342699,0.6829536223441361,-0.04550663654729724
1790763742213068500,0.436068603515625,-1.1221358977258205,0.8109984029769897,0.4102778140671551
1790763742223107600,0.446107666015625,-0.5023416191279888,1.2149269941478966,0.4968821846783161
1790763742233145600,0.4561455078125,-0.41382396224141116,1.1066712020903826,0.48595615538582204
1790763742243184600,0.4661845703125,-0.06960954279899596,0.9649404259324074,0.42458983253613114
1790763742253222400,0.476222412109375,-0.4258925856977701,0.7747422637253999,-0.06251768484190107
1790763742263261400,0.486261474609375,-1.2277543270170688,0.12143909875750541,-0.37434929933473465
1790763742273299500,0.496299560546875,-1.5480454345583914,-0.07071545821428299,-0.5154762643806636
1790763742283338500,0.50633837890625,-1.442650877150893,-0.19376140764653682,-0.5957894258931279
1790763742293377300,0.516377197265625,-1.571536200261116,-0.43504444492459293,-0.5153903396628797
1790763742303415600,0.52641552734375,-2.053923411118984,-0.404027375370264,0.32998087303712964
1790763742313454300,0.536454345703125,-2.5424422565996645,-0.31325930920839307,0.8250142880436032
1790763742323492600,0.54649267578125,-2.427702947741747,-0.7557447177886962,0.6896067235577851
1790763742333531600,0.55653173828125,-2.2994991771548987,-0.8738327525526285,0.6221029939316213
1790763742343569400,0.5665693359375,-2.0268542024075984,-1.2547381955325603,0.3943058995619416
1790763742353608700,0.576608642578125,-1.4691916780740022,-2.1391081241905687,-0.1177314033459872
1790763742363646500,0.586646484375,-1.2387193731456994,-2.0588649591743944,-0.05910919157266616
1790763742373685500,0.596685546875,-0.9725468092828988,-2.1652835989326236,-0.41436570443529636
1790763742383724500,0.606724609375,-0.8497352531284094,-2.257356902474165,-0.45223227455820886
1790763742393762600,0.616762451171875,-0.9311398631393909,-2.561180859339237,-0.7088287259001285
1790763742403801300,0.62680126953125,-1.1911901447296143,-2.6529233234912155,-0.5829980411201715
1790763742413839600,0.636839599609375,-1.202533376520872,-2.961625700047612,-0.1712309383433312
1790763742423878400,0.64687841796875,-1.0475976663529871,-3.059512073782086,-0.18753727243468166
1790763742433916700,0.656916748046875,-1.2082687053024768,-3.2666865052312613,0.010558072762936353
1790763742443955500,0.66695556640625,-1.1437620386004448,-2.8977579157710074,0.24435627071093766
1790763742453994500,0.676994384765625,-1.0164870732963085,-2.825963430148363,0.3395986327426508
1790763742464032500,0.687032470703125,-0.8851315606802701,-3.010727876868844,0.11592972421888262
1790763742474071600,0.697071533203125,-0.7952320940464734,-3.0594302407175302,0.0767798362871632
1790763742484109300,0.707109375,-0.4490454977482557,-2.9655338134020566,0.2276379217525944
1790763742494148600,0.717148681640625,-0.32649756096601484,-2.775511592283845,0.47817792259976266
1790763742504186400,0.727186279296875,0.03629121056497097,-2.5675392884552477,0.6748828363522886
1790763742514225400,0.737225341796875,0.8262532552540302,-2.1889526438117026,0.6800663034047931
1790763742524263700,0.747263671875,0.8346043194919824,-2.193271091532707,0.57266760310065
1790763742534302500,0.757302490234375,0.8424038873270153,-2.5539029772907496,0.765500607323274
1790763742544341500,0.767341552734375,0.7349450908660888,-2.5785563570320607,0.7829982700910418
1790763742554379500,0.777379638671875,0.7343649528905749,-2.511765963307023,0.9026719666112214
1790763742564418600,0.78741845703125,1.5178604319140314,-2.045497528079152,0.750235525913164
1790763742574456600,0.79745654296875,1.5186378460273147,-2.0430419516205784,0.6858820039462298
1790763742584495600,0.80749560546875,2.706424612054229,-1.7077677944809198,0.5661399548975751
1790763742594533400,0.817533447265625,3.1042338435620067,-1.8085750240981577,0.3618090397786349
1790763742604572400,0.827572509765625,3.3905040235579014,-1.3499872065007685,0.6782922794695944
1790763742614610400,0.8376103515625,3.0782194046005604,-1.319116851940751,0.9300578400563448
1790763742624649500,0.8476494140625,3.1187492756485935,-1.3151824351012706,0.7391964647002518
1790763742634688500,0.8576884765625,2.8714965163111685,-0.5899690491765737,1.047849595287442
1790763742644726500,0.8677265625,2.915203848351538,-0.5812082350939511,0.8699969737820327
1790763742654765600,0.877765625,2.3689462228685616,0.26849603837430475,1.194634586095065
1790763742664803600,0.887803466796875,2.068987124738097,0.45343993331491944,1.4414862172856926
1790763742674842600,0.897842529296875,2.0807079576700924,0.4787912321925163,1.3019475443445145
1790763742684880400,0.90788037109375,1.8360154042094945,0.49892801129221914,1.6182047201946377
1790763742694919700,0.917919677734375,1.8952473453789949,0.5852542956143617,1.5513552897587417
1790763742704958500,0.92795849609375,1.824037381646037,0.1777589518725872,0.9606697628758847
1790763742714996500,0.93799658203125,1.2855068432837724,-0.2099012260645628,0.39344197620898486
1790763742725035500,0.948035400390625,1.2806228706344962,-0.1822416502445936,0.30517127982079983
1790763742735073500,0.958073486328125,1.5926631594419478,0.4467728766411543,0.3739426182299852
1790763742745112300,0.9681123046875,1.5890286023318767,0.48357320577204227,0.26171616897583005
1790763742755150600,0.978150634765625,1.583854414564371,0.7066127303510904,1.691209750650823
1790763742765189400,0.988189453125,1.2975117538541554,0.47695934059023853,2.2608210714533925
1790763742775227600,0.9982275390625,1.3321236330300568,0.5037549930572509,2.140454570363462
1790763742785266400,1.008266357421875,0.3970101900845766,-0.17592647574841974,1.6813880293384194
1790763742795305500,1.018305419921875,0.3417050669699907,-0.8297031034469604,1.2912111924052239
1790763742805343500,1.028343505859375,0.26445757663846015,-1.2567717471867799,0.825005885541439
1790763742815382500,1.038382568359375,0.1044341879427433,-1.4959376461803913,0.8265069377541542
1790763742825420500,1.048420654296875,0.14897300237119196,-1.4765058004796505,0.7327341368183493
1790763742835459600,1.05845947265625,1.1981804420083761,-0.29848142679333683,6.051214932185411
1790763742845497600,1.06849755859375,6.4431789447963235,4.394026401340962,9.90398575411439
1790763742855536400,1.078536376953125,0.1954752258270979,0.1431979261010885,-3.128534172081947
1790763742865574700,1.08857470703125,0.18608195905983446,-0.021104747349023817,-0.8311722992166877
1790763742875613400,1.098613525390625,0.22882921389639377,-0.04885141693055629,-0.8047738293737172
1790763742885652500,1.108652587890625,-0.05747896002233028,1.4606331085652111,1.6298527801513671
1790763742895690500,1.1186904296875,-0.3779243813425302,0.8599906896829604,2.3274431228742003
1790763742905729500,1.1287294921875,0.37748365183770655,0.364330740275979,3.090074385306239
1790763742915767600,1.138767578125,2.588162097506225,2.207917456522584,1.1711670551374553
1790763742925806600,1.148806640625,2.607037770628929,2.256529219478369,1.041881626793742
1790763742935844400,1.15884423828125,0.8946043224245309,0.6063198799967765,-0.1812099691092968
1790763742945883400,1.16888330078125,0.07772446019351482,0.8014157511174679,0.5669137522816657
1790763742955921400,1.17892138671875,0.13166560147851705,0.8474842593312263,0.42980595974922176
1790763742965960400,1.18896044921875,-0.743941467270255,1.2462567829132079,1.5227908740535379
1790763742975999500,1.19899951171875,-0.7006476844668388,1.2787386643230914,1.4287871869713067
1790763742986037500,1.20903759765625,-0.8893570694208145,1.3294400930345058,1.2932754314586519
1790763742996076500,1.21907666015625,-0.7229854807421565,1.1156529654473066,1.1489920482084155
1790763743006114600,1.229114501953125,-0.7221233109548687,1.134751633670926,1.1143526965036987
1790763743016153600,1.239153564453125,-0.7614394222989678,0.759443572306633,0.7069061603397131
1790763743026191400,1.24919140625,-0.7668173159450292,0.7609954779237509,0.7079980472296475
1790763743036230700,1.259230712890625,-0.5686766703009605,0.47149873709678647,-0.016596914535760877
1790763743046268400,1.269268310546875,-0.7062772147864103,-0.019594342786073683,-0.3358040262326598
1790763743056307500,1.279307373046875,-0.6689262660354376,-0.040751112583279604,-0.3244783300980925
1790763743066346500,1.289346435546875,-0.37476708635538813,-0.045936990788578984,-0.5069929520651698
1790763743076384500,1.299384521484375,-0.33148557851165533,-0.07806172932386397,-0.4789890928521752
1790763743086423300,1.30942333984375,-0.09702069681584835,0.5490829120367765,0.7648422164797782
1790763743096461600,1.319461669921875,-1.1349784281641244,-0.8648965819030999,0.8637947581410408
1790763743106500400,1.329500244140625,-1.0827128188759088,-0.8880459868222474,0.8718710970908403
1790763743116538600,1.33953857421875,-0.6723635470077395,-0.7981547034949064,0.7343105923548341
1790763743126577700,1.34957763671875,-0.8710165260881185,-1.6874065589755773,0.16963000595271585
1790763743136615400,1.359615478515625,-0.4907186936125159,-1.5906237625688313,-0.3610077333331108
1790763743146654700,1.36965478515625,0.21249299612343311,-1.3858721743524074,-0.5470759561285377
1790763743156693500,1.379693603515625,0.22976503344178198,-1.433413677728176,-0.46449616485834117
1790763743166731500,1.3897314453125,0.4997682615086436,-0.29542963800728317,-0.7104656063869595
1790763743176770600,1.3997705078125,-1.3947551535099745,0.6648246759355068,0.7924459704592823
1790763743186808600,1.40980859375,3.0831954394474623,0.5738666401594877,1.2863704743757842
1790763743196847400,1.419847412109375,2.4619117990747093,1.2870581643790007,-1.4880615059778093
1790763743206886100,1.42988623046875,2.3956419220924374,1.3029010456770658,-1.4692235345169902
1790763743216925000,1.439925048828125,0.005507657505571842,0.8291559909582138,-0.8979954261675477
1790763743226963000,1.449962890625,0.8756766268536448,1.234430736041069,0.949498818911612
1790763743237002000,1.460001953125,1.6953560566753147,1.3447802855074404,-0.006640753188729286
1790763743247041000,1.470041015625,1.1313014932170509,0.7688093665450811,-1.050800554047525
1790763743257079000,1.4800791015625,1.124846617989242,0.743880092471838,-0.9877548998087644
1790763743267118000,1.4901181640625,-0.129834294398129,0.7269470778495073,0.10762392389476298
1790763743277156000,1.500156005859375,0.24638562111407517,0.8637900819659232,0.3311316505074501
1790763743287195000,1.51019482421875,-0.12661416330784558,0.9438204810142516,-0.05682634133249521
1790763743297233200,1.520233154296875,-0.22338585379868744,0.3750204765945673,-0.01980243257880211
1790763743307272000,1.53027197265625,-0.22306933519542216,0.3460357896506786,0.05444821402430534
1790763743317310200,1.540310302734375,-0.34501287634372707,-0.3707335930556059,-0.5971151215389371
1790763743327349000,1.550348876953125,-0.3831622819960117,-0.7542033335655928,-0.4092597230657935
1790763743337388000,1.560387939453125,0.2772150591418147,-0.11890168923437594,-0.7797372955337166
1790763743347426000,1.570426025390625,0.5624240396469831,0.5189923096776008,-0.9242366596221924
1790763743357465000,1.580465087890625,0.5423761078745126,0.5082096343785524,-0.8701265915110706
1790763743367502800,1.5905029296875,0.7044996837198734,0.43920974791049955,-0.48249447062462564
1790763743377542100,1.600542236328125,1.0049205541431903,2.3527695795714854,0.16553016941845416
1790763743387580000,1.610579833984375,0.8725453430905937,2.2809721713393927,0.8278411089673637
1790763743397619000,1.620618896484375,0.5855474333420395,0.3338146059811115,0.9613476621374487
1790763743407657000,1.630656982421875,0.5995432254686951,0.318705299654603,0.9910098099514841
1790763743417696000,1.640696044921875,-1.1053063434779644,-0.3361071008324623,1.1877443881899117
1790763743427735000,1.650735107421875,-1.6731377951264381,-0.7156763267725705,1.7725456793397665
1790763743437773000,1.66077294921875,-0.9932140419974923,-0.7184972294121981,1.4478019763037562
1790763743447812000,1.67081201171875,-0.15798574538826943,-0.6840992852479219,0.33011224433183667
1790763743457849900,1.680849853515625,-0.20880115586817263,-0.690587478223443,0.4139151476562023
1790763743467889200,1.69088916015625,1.2315005278080702,-0.6217348912715911,-0.8424524026438593
1790763743477927000,1.700927001953125,0.9732879830390214,-0.16797347091734408,-0.9713806881129741
1790763743487966000,1.710966064453125,0.019120587794482707,0.39404841766953463,-0.4930120652467012
1790763743498004000,1.72100390625,0.5344751254916191,0.1745598635703325,0.6453776326656341
1790763743508043000,1.73104296875,0.4755626255348325,0.1767740324884653,0.7314103408686816
1790763743518081800,1.741081787109375,-0.035951895608007906,0.22812954119443893,-0.3237991156622767
1790763743528120000,1.7511201171875,-0.01148819321990013,-0.10824117901027203,0.24524814151674507
1790763743538158800,1.761158935546875,0.3569131574958563,-0.308824541631341,-0.7992265705101191
1790763743548197000,1.771197021484375,-0.5278472317844629,-0.1968248868703842,-1.0320987761870026
1790763743558236200,1.781236083984375,-0.5571814628183841,-0.18383388787209987,-1.033158075981587
1790763743568274000,1.79127392578125,-0.7002355965346098,-1.004462288981676,0.14633154795169828
1790763743578313200,1.801313232421875,-0.26149609648436306,-1.2574585604071615,0.05138195832148194
1790763743588351000,1.81135107421875,0.03941694137006998,-1.29769003303051,-0.49768400258049367
1790763743598390000,1.82139013671875,0.2932762593656778,-0.9643447981268167,-1.0774648352198302
1790763743608429000,1.831428955078125,0.23265490966439245,-0.9422872800976038,-1.0496043300002813
1790763743618467000,1.841467041015625,1.0369090990781784,-0.8859452151507139,-0.9779618200689554
1790763743628505900,1.851505859375,0.3867155905634165,-0.4184241495132446,-1.5329505951486526
1790763743638544100,1.861544189453125,0.8904381426557898,-1.3956845433145761,-0.19755349340587852
1790763743648583000,1.8715830078125,0.3244450123503804,-1.772788840445876,-1.0220062751092016
1790763743658621200,1.88162109375,0.3365209423303604,-1.7908412144869565,-0.9604629882574081
1790763743668660000,1.891659912109375,0.2403478022545576,-1.2741747174084186,-0.015505612167716025
1790763743678698000,1.901697998046875,-0.053040685313940045,-1.1084089856684207,0.41027153045684095
1790763743688737000,1.911737060546875,0.8615624690443277,-0.36425533695220946,0.44706849858686326
1790763743698775000,1.921775146484375,-0.11594634656012058,1.2504852142632006,-0.33772038124799725
1790763743708813800,1.931813720703125,-0.08734569049775599,1.2316636094152926,-0.3014589812994003
1790763743718853000,1.94185302734375,1.1938690085500478,-0.835511497464776,0.1501682035051286
1790763743728891000,1.951890869140625,-0.2481289576500654,-1.0089707063168287,-0.4023270011931658
1790763743738930000,1.961929931640625,-0.15397008000612258,-1.0482640213072298,-0.40893604406937956
1790763743748968200,1.97196826171875,-0.14339724806547163,-1.4249755197286604,0.9903126214675605
1790763743759007000,1.982007080078125,-0.09509469718933104,-1.44407418795228,0.9856206642590463
1790763743769045000,1.992044921875,1.0655971411630512,-0.2017225957840681,0.17668445450887083
1790763743779084000,2.002083984375,-1.0349337073519824,-0.6935749696016311,0.899272314235568
1790763743789122000,2.0121220703125,-0.19416677357703446,-0.664331923982501,0.9273832870848476
1790763743799160800,2.022160888671875,0.4394409263178706,-0.6466746867388486,1.2847975259706377
1790763743809200000,2.0322001953125,0.49296910288780926,-0.6626444092869758,1.2615446606770158
1790763743819238000,2.04223779296875,-0.857581874975562,-0.5833429090350866,0.710097357596457
1790763743829277000,2.05227685546875,-0.7316533558443188,-0.631520956748724,0.9527813477136194
1790763743839315000,2.06231494140625,-0.6782993667975068,-0.6384656613200903,0.886839387511462
1790763743849354000,2.07235400390625,-1.6361168089821934,11.934260578620433,7.737427312940358
1790763743859392000,2.08239208984375,-1.6449293532520533,11.913673717665672,7.869704032054543
1790763743869431000,2.09243115234375,-5.43694087831378,8.592135093784332,5.891389696410298
1790763743879468800,2.10246875,-1.1165882004708052,6.230880009940266,3.468485673382878
1790763743889508000,2.112508056640625,-1.1383464432924986,6.22492373188436,3.568060146334767
1790763743899547100,2.122547119140625,0.02210720238983631,1.4154448903173207,-2.140266062054038
1790763743909585000,2.1325849609375,-0.028159049774706364,1.429970843797922,-2.112788564802706
1790763743919624200,2.142624267578125,-0.31502514983713625,1.3931529790103434,-2.2698791149169204
1790763743929662000,2.152661865234375,2.4079922850996254,-0.3966121306777,-1.7263338171325624
1790763743939701000,2.162700927734375,2.3958549803212286,-0.39135961697697635,-1.7326685731120406
1790763743949739000,2.172739013671875,2.0602955764994024,-0.4115408197402954,-0.6511283782120794
1790763743959778000,2.182778076171875,2.081589124418795,-0.418533455106616,-0.6582821224242449
1790763743969816000,2.192816162109375,0.47030426661521196,-0.410541871830821,0.22782573594227432
1790763743979855000,2.202855224609375,1.958298844836652,0.16207915218174457,-0.7915086896091699
1790763743989892900,2.212892822265625,2.0080694224387408,0.14549275903999806,-0.8006874368429183
1790763743999932200,2.22293212890625,1.066182832096517,-0.10676000054180622,0.20485979783125222
1790763744009971000,2.232970947265625,0.9490914071545005,0.08752923037111758,0.6688012514162808
1790763744020009000,2.243009033203125,-0.6365721026584505,-0.24783026696443555,1.0393916366089135
1790763744030048000,2.253048095703125,-2.6115418040499088,-1.3290040397047995,2.6228373973071575
1790763744040086000,2.2630859375,-2.578848033455014,-1.348768478360772,2.7015067371353507
1790763744050125000,2.273125,-3.996147903989255,0.10791326223015785,0.14806363244131207
1790763744060163000,2.2831630859375,-3.2360867843061683,1.283120240408182,-0.4842747781701386
1790763744070202000,2.2932021484375,-3.324453342284262,0.7841109805732965,-1.3694096998512744
1790763744080240000,2.303240234375,-4.19798009762764,0.050095864033699034,-1.3629831739351153
1790763744090279200,2.313279052734375,-4.336900784800947,0.09591361235678196,-1.3197747313275932
1790763744100318000,2.32331787109375,-3.6514971389561888,0.34649990003108977,-0.02538227853775024
1790763744110356000,2.33335595703125,-4.783579261156916,-0.8099649682760238,0.09460041086636484
1790763744120395000,2.34339501953125,16.318139679956435,-0.03626081542670727,-1.2227739082559943
1790763744130433000,2.35343310546875,22.45830598427057,-0.34174247637093064,-2.7056314158499237
1790763744140471800,2.363471923828125,22.521188849163053,-0.36994098137319087,-2.6896383124262093
1790763744150510000,2.373510009765625,-3.6320442504674193,-0.3880249195963144,0.1298580405998975
1790763744160548900,2.383548828125,-2.5082284368306396,0.13649229098260401,-0.16310495156552643
1790763744170587100,2.393587158203125,-3.644275078748166,0.2729074250757694,-0.5184072397986427
1790763744180626000,2.4036259765625,-2.9859096619546412,0.019945640441775322,-0.06639796034134925
1790763744190664000,2.413663818359375,-3.0219015973120924,0.03648001113533973,-0.08701485110819339
1790763744200703000,2.423702880859375,3.4190468119531867,-0.455158427670598,-0.48965037026125935
1790763744210741800,2.43374169921875,1.4840277204170822,-0.302780000770092,0.9041557023629546
1790763744220779800,2.44377978515625,-0.0919113909780979,0.5863122802346944,0.06652834525536745
1790763744230818800,2.45381884765625,-1.48672675024271,-0.05756137760877609,0.21747158825360238
1790763744240856600,2.463856689453125,-1.493466872152686,-0.05483692108094692,0.22008615466617046
1790763744250895600,2.4738955078125,0.04333616064041853,0.40885786426663395,0.7260439184647053
1790763744260933600,2.48393359375,0.04015606929957866,0.4101905741751194,0.726572691579163
1790763744270972700,2.49397265625,1.007868005771935,0.5589250916153192,0.1079919169569388
1790763744281011000,2.504010986328125,0.5964338612765073,0.1653273403227329,-0.3785915765469894
1790763744291049700,2.5140498046875,0.5992471651315688,0.16408464678525925,-0.37793289344254877
1790763744301088800,2.5240888671875,-0.7517115167498588,0.05785480759739876,-0.4811182869005948
1790763744311126800,2.534126708984375,0.08378449088484048,-0.14973112726211546,0.022091968288086353
1790763744321165800,2.544165771484375,0.07367664610743523,0.001205284136533737,0.009316950128041207
1790763744331203600,2.55420361328125,-0.3586328208953142,0.047400049078464505,-0.21608316610250622
1790763744341243000,2.564242919921875,-0.3634159635186195,0.04939969846308231,-0.21522899695858358
1790763744351280600,2.57428076171875,0.8989397212803363,-0.1618120256781578,-0.7246311290573328
1790763744361319700,2.584319580078125,0.47950902507305143,-0.4108136745095253,-0.1710843329468742
1790763744371357700,2.594357666015625,-1.0383093212649226,-0.45137540200054643,0.0970035630179569
1790763744381396700,2.604396728515625,-1.289897771719098,-0.4286871848523617,0.015068280196376144
1790763744391434800,2.614434814453125,-1.3045593342781066,-0.4224468291580677,0.016436645940132437
1790763744401473800,2.624473876953125,0.8954624005585908,-0.2704939341932535,0.40063765986673533
1790763744411512800,2.634512939453125,0.4417217307314276,-0.1574813029974699,0.44862990268468855
1790763744421550800,2.64455078125,-0.13104454697072504,0.05063070156276226,0.3557634394714609
1790763744431590000,2.65458984375,0.07468406958431005,0.11394319004416466,0.17670038273036479
1790763744441627600,2.664627685546875,0.06473959867507219,0.11851824287474155,0.17304986086618154
1790763744451667000,2.6746669921875,-0.004840718029439449,0.34951135680675505,0.05342135519459843
1790763744461704700,2.68470458984375,-0.012762450939416884,0.35307986294329163,0.052143480745889245
1790763744471743700,2.69474365234375,0.41380964145511384,0.6398650067239999,-0.09320164998434484
1790763744481781800,2.70478173828125,0.4309638976126909,0.5522644646823406,-0.06106777829453349
1790763744491820800,2.71482080078125,0.4339858757823705,0.5507932230859994,-0.05878891010973602
1790763744501859600,2.724859619140625,0.08327917171120643,0.38541678292453285,-0.31643669713549316
1790763744511897900,2.73489794921875,-0.3182362208381295,0.4068745814949274,-0.30694026225470006
1790763744521936600,2.7449365234375,-0.557793457236886,0.3765501703798771,0.04719787756986916
1790763744531975000,2.754974853515625,0.19014321714937685,0.4312731096923351,0.17946440408360212
1790763744542013700,2.765013671875,0.1961544402629137,0.4285685269087553,0.18057653004396707
1790763744552051700,2.7750517578125,0.3269406285583973,0.2662286779642105,0.3305821268659085
1790763744562090800,2.7850908203125,-0.6272621302604675,0.09250058904290198,0.13860157475415616
1790763744572128800,2.795128662109375,-0.777228235322237,-0.24942192007005212,0.2851905680656433
1790763744582167800,2.805167724609375,0.2335106497108936,-0.6126175188362598,0.7655668774925172
1790763744592206600,2.81520654296875,0.23919804769754408,-0.6151186880022287,0.7662491606682539
1790763744602244900,2.825244873046875,-0.31061347087472674,-0.6355880600571632,0.9255071179494261
1790763744612283600,2.83528369140625,-0.7484902166157961,-0.42481940350830555,0.596716916001588
1790763744622322000,2.845322021484375,-0.75401248716861,-0.4225064503908157,0.597993657939136
1790763744632360700,2.855360595703125,0.6340668418392539,-0.2755675841957331,0.31195231826305386
1790763744642398700,2.865398681640625,0.6325394861415028,-0.2749854003936052,0.3133402654901147
1790763744652437800,2.875437744140625,-0.18037994802594184,-0.18287644101679323,0.8577324624273925
1790763744662475800,2.885475830078125,-0.24019056586623191,0.052960605815052984,0.4540018415139988
1790763744672514600,2.8955146484375,-0.2470581135481596,0.05562368754446506,0.4597623778020963
1790763744682552800,2.905552734375,0.14240882155001164,-0.1078542255192995,-0.17789982164800167
1790763744692591600,2.915591552734375,0.13937398389875888,-0.10671382331252098,-0.1745900395128876
1790763744702630700,2.925630615234375,-0.18798136294037102,0.4466659091353416,-0.2672833381162956
1790763744712668700,2.935668701171875,0.9397302890911697,0.576594603818655,-0.2216235933665186
1790763744722707700,2.945707763671875,0.14057020794600247,-0.039700726747512814,0.5816062579682096
1790763744732745700,2.955745849609375,0.14304127423465252,-0.04117489095330238,0.5890861653948203
1790763744742784800,2.96578466796875,-0.6193868668407201,0.07715104421973228,-0.0541083876106888
1790763744752822500,2.975822509765625,0.14939619621932507,-0.17352292173802852,-0.4166233837015927
1790763744762861800,2.98586181640625,0.07841244245767592,-0.06423661758899689,-0.41794305146541444
1790763744772899800,2.99589990234375,0.07859247519969939,-0.06460778898894787,-0.4121606686716899
1790763744782938600,3.005938720703125,0.17659692235589025,-0.27487492575645445,-0.43988614933472125
1790763744792978000,3.01597802734375,0.1740022296875715,-0.2739046194195747,-0.43660720072928816
1790763744803015700,3.026015625,0.0010638298392295837,-0.5389110621124505,-0.18093750884346663
1790763744813054700,3.0360546875,-0.2517658528476953,-0.2217781263411045,-0.40782643885966385
1790763744823092700,3.0460927734375,-0.3898644099831581,0.11404372780919074,-0.48030426710397
1790763744833131800,3.0561318359375,-0.39839521470218897,0.11747194869220257,-0.4734877189569175
1790763744843169800,3.066169677734375,0.787099640995264,1.0766712006241081,-0.331877098579891
1790763744853208800,3.076208740234375,0.6721931588768959,0.8034095552831888,-0.3268995658956468
1790763744863246600,3.08624658203125,-0.00007394201904535293,0.5576262839764357,-0.30122393043451007
1790763744873286000,3.096285888671875,0.006701543465256691,0.5545744951903819,-0.29947569852769373
1790763744883325000,3.106324951171875,-0.2776277315959334,0.10092296495139598,-0.35443135061748327
1790763744893362700,3.11636279296875,-0.27490006019771096,0.09956453607976436,-0.35076723861936476
1790763744903401700,3.126401611328125,0.6467357692763209,-0.32230186284184453,0.12463595857005566
1790763744913439700,3.136439697265625,1.1110670989617704,-0.559095187485218,1.1833983218096196
1790763744923478800,3.146478759765625,0.09392360758334398,-0.504754525488615,1.077783618845418
1790763744933516800,3.156516845703125,0.09840542917251587,-0.5068178877592087,1.080397089279443
1790763744943555800,3.166555908203125,-0.7172995440602302,-0.8149474328637123,0.891779766523093
1790763744953593900,3.17659375,0.07595803504288196,-0.6027081192404031,0.7692829754061996
1790763744963633000,3.1866328125,0.5490840810805558,-0.39509821898341174,0.916163827803731
1790763744973670700,3.196670654296875,-0.09157938254475594,-0.10226327364444732,0.3621393311789259
1790763744983709700,3.206709716796875,-0.3481839075952768,0.16802666240930555,-0.21242106339838354
1790763744993748700,3.216748779296875,-0.35722236957550046,0.1719809529930353,-0.2120638109259307
1790763745003786800,3.226786865234375,0.4669622627109289,0.6674304745197296,-0.6188495450936258
1790763745013825500,3.236825439453125,0.7500316008388995,1.007469069582224,-0.7622824489943683
1790763745023863800,3.24686376953125,0.23045184666216373,1.2958359295964241,-0.8533255327053367
1790763745033902600,3.256902587890625,0.2403653379112482,1.2914397404640912,-0.8522884447425604
1790763745043940900,3.26694091796875,0.1870961045384407,0.8035381500989198,-0.7574314287666231
1790763745053980000,3.27697998046875,-0.38497576115876436,0.4414437905728817,-0.23440182639695703
1790763745064017700,3.287017578125,0.0447948350161314,0.028104981499910354,0.06045074237473309
1790763745074057000,3.297056884765625,0.05913432601392269,0.022085575079917905,0.056392918351292606
1790763745084095700,3.307095703125,-0.07812456542700529,-0.6244798060655593,1.0859230130940676
1790763745094133800,3.3171337890625,-0.06918868703842163,-0.6281733998864889,1.0827480363197624
1790763745104172800,3.3271728515625,0.2872793570384383,-1.7109616220861672,1.596136534640938
1790763745114210800,3.3372109375,-1.1644511908859014,-1.2584060703903437,1.1200315458577126
1790763745124249600,3.34724951171875,-2.560013861386478,-0.9478115964770316,-0.2144757674384862
1790763745134288000,3.357287841796875,-2.591997145624459,-0.9340946212917566,-0.21247710443455725
1790763745144326700,3.36732666015625,7.621055434444546,-0.3332312531352043,-0.37048261396922166
1790763745154365000,3.377364990234375,-0.09450374555885792,0.9781640646427869,0.01480192087776959
1790763745164403700,3.38740380859375,-6.253674025550485,0.07692015807330609,0.8494463531844317
1790763745174442800,3.39744287109375,-6.240890531823038,0.07033025828897953,0.8808055141746998
1790763745184480800,3.407480712890625,0.6984311774611472,0.89261051825881,-0.4972205497872084
1790763745194519800,3.417519775390625,0.7006579135999083,0.8917536091685294,-0.49954979645237324
1790763745204557300,3.427557373046875,0.5173346055984497,0.23316519727408885,0.28117840981483455
1790763745214596600,3.4375966796875,2.3323949000626802,-0.40191023708581924,-0.9052493428185582
1790763745224634400,3.44763427734375,0.8371750467628241,-0.1940712042480707,-0.7597207818128168
1790763745234673400,3.45767333984375,0.8478475396856665,-0.198638073772192,-0.7550704717889428
1790763745244711400,3.46771142578125,-1.1657996828854083,-0.5219458987861871,0.1906088071008213
1790763745254750500,3.47775048828125,-0.09552256721258164,-0.40406946094632146,0.9079278413128107
1790763745264788500,3.48778857421875,0.6038713178008794,0.03988309757709503,0.4016792778741568
1790763745274827500,3.49782763671875,0.6049532678186893,0.039459319207072255,0.40084374036546794
1790763745284866600,3.507866455078125,-0.11358663169145583,0.3350157984644174,-0.4225091538045555
1790763745294904600,3.517904541015625,-0.11443652651906012,0.3353928150832653,-0.4233082682929933
1790763745304943600,3.527943603515625,0.3373340122789144,0.6678934158563613,-1.1779764428913593
1790763745314981400,3.5379814453125,0.15685323422700165,0.7045897000908852,-1.0222332157328724
1790763745325020700,3.548020751953125,0.1661021240875125,0.7006850938677788,-1.0195015988118945
1790763745335058400,3.558058349609375,-0.15879413916170595,0.30807167743742464,-0.21927684757728128
1790763745345097500,3.568097412109375,-0.32479426417946816,-0.1664215653002262,0.20818994690096004
1790763745355135500,3.578135498046875,0.5034820213347673,-0.4304670540064573,-0.13996577577944844
1790763745365174500,3.588174560546875,0.4292278676003217,-0.5903378824889659,-0.09363403178593144
1790763745375213600,3.598213623046875,0.4337479753732681,-0.5922217965394259,-0.09247709856946021
1790763745385251600,3.60825146484375,-0.5426578474253416,-0.5381430003494024,0.17310886104442177
1790763745395290600,3.61829052734375,-0.302578632979095,-0.2101490633457899,0.29094354210179296
1790763745405328600,3.62832861328125,0.11819061835557222,-0.07906418436467647,0.5206261944897472
1790763745415367700,3.63836767578125,0.15446692361235617,0.02443944472968578,0.6378190339796245
1790763745425405400,3.648405517578125,0.1505757613927126,0.025996611043810843,0.6393079573631286
1790763745435444500,3.658444580078125,-0.3340302945584059,0.23736440252959726,0.7508248701084405
1790763745445482500,3.668482421875,0.3417819315984845,0.0770499219328165,0.23579041294483466
1790763745455521500,3.678521484375,0.5306023757115006,0.23682956500053404,0.22940056577725335
1790763745465560300,3.688560302734375,0.38529695593714713,0.194040809109807,0.23186001469334586
1790763745475598600,3.6985986328125,0.38678719449490306,0.1934568717420101,0.23066748044053093
1790763745485637400,3.708637451171875,-0.8208551956027745,-0.17940847264528273,0.3298956789717078
1790763745495675600,3.718675537109375,-0.5633364783167839,0.3084311583995819,0.11792473396100103
1790763745505714400,3.72871435546875,-0.5696855550825596,0.3110585842937231,0.11808308459417893
1790763745515752400,3.73875244140625,0.5376356353491545,0.5445382543444633,0.09995755398534238
1790763745525791500,3.74879150390625,0.54411564501822,0.5417097529202699,0.10540696023134515
1790763745535829500,3.75882958984375,1.084844277946651,0.7070563824653625,-0.41274361965879797
1790763745545868300,3.768868408203125,-0.26230010634362694,0.2902612954586744,0.0835821367131546
1790763745555907600,3.778907470703125,-0.5747995370954275,-0.11409516573548316,0.28071749603850765
1790763745565945300,3.7889453125,-0.8632043910324573,-0.1484229672729969,0.2786684180215932
1790763745575984400,3.798984375,-0.8606807177737354,-0.1494295139670372,0.277637284875568
1790763745586022700,3.809022705078125,0.7503484117031097,-0.38727205540239806,-0.573118488673307
1790763745596061400,3.8190615234375,0.6126455758869648,-0.11821779862344264,-0.6291644567504525
1790763745606099700,3.829099609375,0.6176198571681976,-0.12021569444239139,-0.6302582433365285
1790763745616138500,3.839138427734375,0.323895561774075,0.23426234486103056,-0.5807331283954903
1790763745626176500,3.849176513671875,0.33287761739194394,0.2306178508788347,-0.58075588821657
1790763745636215600,3.859215576171875,0.03812865512520074,0.2877455132454634,-0.5479927421798929
1790763745646254600,3.869254638671875,-0.2828250079780817,0.09924655617177486,-0.2469428896706551
1790763745656292400,3.879292236328125,0.6492761014088988,-0.051341480180621145,-0.40852348121311516
1790763745666331600,3.88933154296875,0.5549029964923858,-0.13143909924626349,-0.2505256252619438
1790763745676369400,3.899369384765625,0.5648316853106021,-0.13530863415598868,-0.25448470161864534
1790763745686408400,3.909408447265625,-0.5534808547347784,-0.28594752391278744,-0.10910612527653574
1790763745696446500,3.919446533203125,-0.9375751568838954,-0.5839993271172046,0.23408055855333804
1790763745706485500,3.929485595703125,-0.3556158111616969,-0.7524152811050414,0.3675981080414727
1790763745716523500,3.9395234375,0.6927016938984394,-0.7219412323862314,0.5279894897993653
1790763745726562600,3.9495625,0.6900263372093439,-0.7208312253177166,0.5267379553683101
1790763745736601600,3.9596015625,-0.19119301846325396,-0.6381739848971366,0.7441573750432581
1790763745746639600,3.9696396484375,0.12706336838006974,-0.22208149320185183,0.34363720407634973
1790763745756678700,3.9796787109375,0.6005997487843037,0.05504910252690315,0.8028270792201161
1790763745766716400,3.98971630859375,0.5928878592327237,0.05805120695233345,0.8074845496371388
1790763745776755500,3.99975537109375,-0.07284837858974934,0.662455608716607,0.30136132961120454
1790763745786793500,4.00979345703125,0.52294776930511,0.5919710366487503,0.36548546326905484
1790763745796832500,4.01983251953125,0.44098669445514677,0.5595756644785403,0.2869853242616169
1790763745806870500,4.02987060546875,0.4407628225713968,0.5594628517538309,0.2947955961537547
1790763745816909600,4.03990966796875,-0.241641349196434,0.09802081376910209,0.0441531578454189
1790763745826948400,4.0499482421875,-0.24695932934880255,0.10012567709386348,0.047111441395431754
1790763745836986600,4.059986572265625,0.41250381955355403,0.057169747942686075,-0.23630734949102625
1790763745847025400,4.070025390625,0.7708800353392958,0.002825578814744949,-0.10526442822180687
1790763745857063400,4.0800634765625,0.7684165678352117,0.003867196822166443,-0.10634071568381041
1790763745867102700,4.090102783203125,-0.1952174516737461,-0.12461305261850357,-0.2159453285343945
1790763745877140500,4.100140380859375,-0.25279870302677154,0.1297492464631796,-0.6121924618246033
1790763745887179500,4.110179443359375,-0.13820201750993727,0.16548106957972047,-0.6098455699048936
1790763745897217500,4.120217529296875,0.3851636849462986,0.3354711410164833,-0.43411834305562075
1790763745907256600,4.130256591796875,0.5719087840899825,0.30526947949826716,-0.38477811969481407
1790763745917295400,4.14029541015625,0.5749152724295854,0.3040209407418966,-0.38455702429004013
1790763745927333600,4.150333740234375,0.003393149569630623,0.24300328519940376,-0.10784456264181062
1790763745937372400,4.160372314453125,-0.2995896802961826,0.15054595077633856,-0.11622070652209221
1790763745947410700,4.17041064453125,-1.588865520724654,-0.06187748724222183,1.239362493354827
1790763745957449500,4.180449462890625,2.7869723129749295,-0.30596915220022197,-0.848374486169219
1790763745967487500,4.190487548828125,2.778894220459461,-0.30275135919749735,-0.8407086277164518
1790763745977526500,4.200526611328125,-0.16446692410111427,-0.8313397647380828,2.0383219373613595
1790763745987564500,4.210564453125,0.4744871052578091,-0.9883347455233334,2.5478248264208436
1790763745997603300,4.220603271484375,-0.6933329775393009,-0.664350628682971,2.2168998044013977
1790763746007642600,4.230642578125,-1.2431553097665309,-0.3626356267958879,2.397465484257787
1790763746017680400,4.240680419921875,-1.261991527661681,-0.35440906572043895,2.469476096849143
1790763746027719400,4.250719482421875,0.279528889042139,0.3557698326796293,-1.6784797406762837
1790763746037757400,4.26075732421875,1.7104291226446628,0.6563461859256029,2.5857313632279633
1790763746047796500,4.27079638671875,-1.0057225181758402,1.214814765945077,2.142650180711597
1790763746057834500,4.28083447265625,1.1930860414788127,0.9068576547980308,-4.425374894806742
1790763746067873500,4.29087353515625,1.2025740007922052,0.9057768738240003,-4.36277260042131
1790763746077911600,4.30091162109375,0.7796931641310453,0.7618406965762377,-1.966169432081282
1790763746087950600,4.31095068359375,-1.367847272840142,0.947587140071392,-1.074183767722547
1790763746097989600,4.32098974609375,-0.7926537679910659,0.36293490200340744,-3.7740985594913363
1790763746108027400,4.33102734375,-0.7846592621058225,0.3603536533385515,-3.7617028960376975
1790763746118066400,4.34106640625,1.7991145373135804,0.42871173477172847,0.44032706150263545
1790763746128104400,4.3511044921875,-1.320924193623662,-0.02391103694140911,-1.3759184972234069
1790763746138143500,4.3611435546875,-0.09317045112848281,-0.6834750158697366,-0.030217005217820406
1790763746148181500,4.371181396484375,-0.07936053696274757,-0.7807973259806632,0.28453192149382084
1790763746158220500,4.381220458984375,-0.07685995231866836,-0.7816174101918936,0.2880740145474672
1790763746168258300,4.39125830078125,0.028561493095755574,-0.8494874158471822,0.3105811760403216
1790763746178297600,4.401297607421875,-0.587474894273281,-0.5725877062648534,0.48789917921237647
1790763746188336600,4.411336669921875,-0.1990788032770157,-0.3669207567691803,0.49651203619167206
1790763746198374400,4.42137451171875,0.31583471265435215,0.033497195932269096,0.5493098526604473
1790763746208413700,4.43141357421875,0.30892098774313925,0.03669277710318565,0.552643746323511
1790763746218451700,4.44145166015625,0.07555705302655696,0.28585049327909945,0.053552945685014126
1790763746228490500,4.451490478515625,0.07203297055363654,0.28754502223730083,0.056079541553184384
1790763746238528800,4.46152880859375,0.12950257822573183,0.5211246455311775,-0.5179539065405726
1790763746248567600,4.471567626953125,-0.11176643052697181,0.5922171203643083,-0.5844950016796588
1790763746258606600,4.481606689453125,-0.10922960552573203,0.5911836856633425,-0.5837111578255891
1790763746268644600,4.49164453125,0.04447568606436252,0.41976387368440626,-0.36009266431480647
1790763746278683600,4.50168359375,-0.004770575402677059,0.13106325167119504,-0.10633885252028703
1790763746288721700,4.5117216796875,0.450423215842247,0.035872692891955375,-0.3511588317528367
1790763746298760700,4.5217607421875,0.3821811620041728,0.00011924246549606323,-0.43718671765029427
1790763746308798700,4.531798828125,0.39080607474744317,-0.003571428745985031,-0.43733891253732143
1790763746318837800,4.541837646484375,-0.07765607113242148,0.0706453155875206,-0.6564908550933003
1790763746328875800,4.551875732421875,-0.15281214214265346,-0.09813070388436317,-0.45019130678251384
1790763746338914600,4.56191455078125,-0.4787865560173988,-0.3224123374789953,-0.25332331142276526
1790763746348953600,4.57195361328125,0.13589374056756495,-0.30741876648664473,-0.6500921670321375
1790763746358991600,4.58199169921875,0.13869886111617089,-0.31008710891306396,-0.671841422829777
1790763746369030700,4.59203076171875,-0.9738187289148569,-0.4778618423879146,-0.799938372041285
1790763746379068700,4.602068603515625,0.004044306954741478,-0.28943770411610603,1.256118543975055
1790763746389107700,4.612107666015625,1.9871756874918935,-0.05057400293946266,1.7210867102593181
1790763746399145700,4.622145751953125,0.14969430238306522,0.45855859150290484,-0.08734817471578717
1790763746409184800,4.632184814453125,0.15271832637935875,0.4553361223250627,-0.1247456294896081
1790763746419222500,4.642222412109375,0.27357261098623276,0.6955535761982202,0.1612410208571702
1790763746429261600,4.652261474609375,-0.013087445110082625,0.6759843678534031,0.4854456120477989
1790763746439300900,4.66230078125,-0.012859481573104858,0.6734902129501104,0.4101351176608354
1790763746449338600,4.672338623046875,0.2506464934289455,0.7168167289793491,0.4626362892705947
1790763746459377700,4.682377685546875,0.2468807111546397,0.7171463993251324,0.35449981274381276
1790763746469415700,4.692415771484375,0.4182306727677583,1.0153957709282635,1.4823678243808447
1790763746479454700,4.702454833984375,-0.17919307632893322,0.8014607593029737,1.955053871566057
1790763746489492700,4.71249267578125,-0.16143384001553057,0.7975058841973542,1.828737229900062
1790763746499531800,4.72253173828125,-0.19664485412836075,2.0049597659856078,2.383392535241693
1790763746509569500,4.732569580078125,-0.17508067257404325,2.0098580594211817,2.175570307408273
1790763746519608800,4.74260888671875,-0.9321960941940546,0.10787877543866634,-0.5135121977660805
1790763746529647600,4.752647705078125,3.6154011587023733,-1.3818039020001887,-0.8327422519471496
1790763746539685600,4.762685546875,3.615569501006603,-1.357263919505477,-1.0118516685806214
1790763746549724700,4.772724609375,2.2547820835500954,-2.7547178105801344,-3.0599814448595044
1790763746559762700,4.7827626953125,2.2486457727521656,-2.7435440901368855,-3.1122406244069336
1790763746569801500,4.792801513671875,-1.3436346226036548,-1.3188234219521284,0.3934486982107162
1790763746579839700,4.80283984375,1.2804063052743673,-0.7285515904366969,-0.08978037029877305
1790763746589878500,4.81287841796875,1.2706710932016372,-0.7271785485178232,-0.07316635849773884
1790763746599917600,4.82291748046875,-0.020487492233514783,-0.12720190006792545,0.03489054998680949
1790763746609955800,4.832955810546875,-0.031111177578568457,-0.12475976761281489,0.04775587677881121
1790763746619994600,4.84299462890625,-0.018670505939424036,0.4655898053139448,0.4622577382817864
1790763746630033000,4.853032958984375,0.08292582822889089,0.45700025614500045,0.6361681980326771
1790763746640071700,4.86307177734375,0.07371756263971328,0.4596089773386717,0.6446735760495066
1790763746650109700,4.873109619140625,-0.17310849571824072,0.19082009349763393,0.6027826457813382
1790763746660148700,4.883148681640625,-0.18609686436802148,0.19368132814764977,0.620410949191451
1790763746670186800,4.893186767578125,-0.09379325920194387,0.2497545130252838,-0.41249373655095695
1790763746680225500,4.9032255859375,0.7493421572700143,0.6195756674110889,-1.4144672774568199
1790763746690264600,4.9132646484375,0.7401096340224146,0.6227788473665714,-1.4089223566807805
1790763746700302600,4.923302490234375,0.1735208759114146,-0.23542203629016875,0.621906740707159
1790763746710341600,4.933341552734375,0.1635766972631216,-0.04549216963052749,0.18145049986690281
1790763746720379600,4.943379638671875,0.29238310991823674,0.04464753549993038,0.014763707759231328
1790763746730418700,4.953418701171875,0.16145371375977993,0.5835352167367935,-1.0036636859498917
1790763746740456700,4.963456787109375,0.1586918478310108,0.5842220299571752,-1.0000465183660388
1790763746750495700,4.973495849609375,0.005488660544157028,0.5087789586991072,-0.3092806148357689
1790763746760533500,4.983533447265625,0.05701981807798147,0.5286287375509738,-0.46622678804323076
1790763746770572500,4.993572509765625,0.019918167912960052,0.28116555033326146,-0.24811434460282325
1790763746780611800,5.00361181640625,-0.07807751141488552,0.07141337735056877,-0.16904314597547054
1790763746790649600,5.013649658203125,-0.0781874015301466,0.07049918511509895,-0.16242270492240785
1790763746800688600,5.023688720703125,0.07515344066172838,-0.034116789135336875,-0.5719054230891167
1790763746810726700,5.0337265625,0.013225392276048659,-0.21363164476454258,-0.4028882883377373
1790763746820765700,5.043765625,-0.07486176423877478,-0.2808750429540872,-0.294541310865432
1790763746830803700,5.0538037109375,-0.16600070953965185,-0.3873591491639614,-0.12152575412765144
1790763746840842800,5.0638427734375,-0.17089958749711512,-0.38573184022307394,-0.11772899219319223
1790763746850881500,5.073881591796875,-0.27662264620661736,-0.3227174579054117,-0.3308496186956763
1790763746860919800,5.083919921875,-0.2828250079780817,-0.3207528798341751,-0.32529037713333964
1790763746870958600,5.09395849609375,-0.29923896716237064,-0.19039573060572146,0.38533611890375613
1790763746880996600,5.10399658203125,0.3637704760447144,0.05472586192190647,0.4202537030279636
1790763746891035600,5.11403564453125,0.3559352523744106,0.05785656116306782,0.4229756753377616
1790763746901073700,5.12407373046875,-0.3515031151458621,0.372782926800847,0.9717866385653614
1790763746911112700,5.13411279296875,-0.15733867965638637,0.3281681245267391,0.7416882815159856
1790763746921150700,5.144150634765625,-0.12280629545748233,0.33589375034272667,0.12099573890417814
1790763746931189800,5.154189697265625,0.23779694872796533,0.20191373444199562,0.006252484523504972
1790763746941228500,5.164228515625,0.23454525345563887,0.20346388649344443,0.005707125600427389
1790763746951266800,5.174266845703125,0.1452238789707422,0.24361878674924373,0.2820630836948752
1790763746961305600,5.1843056640625,0.22216858696341513,0.31582828291356563,0.6122872639685869
1790763746971344000,5.19434375,0.18400544504672287,0.4558388111501932,0.7078818735040724
1790763746981382700,5.204382568359375,0.28411504778861996,0.6269575943559408,0.597564618872106
1790763746991420700,5.214420654296875,0.2929898436397314,0.6222422562718392,0.6025716333791613
1790763747001459700,5.224459716796875,0.28042203848958014,0.42628772249519825,0.3590494388721883
1790763747011498800,5.234498779296875,0.3349818961948156,0.1748912874817848,0.23761676985546945
1790763747021536500,5.24453662109375,0.011978607085347174,-0.08511983114182949,0.30624227005317806
1790763747031575600,5.254575439453125,-0.3158288674354553,-0.4698772733747959,0.46699711482860146
1790763747041613600,5.264613525390625,-0.30959669504761694,-0.473109094902873,0.47034036084190006
1790763747051652600,5.274652587890625,-0.11329437074661254,-0.7928180186420679,0.3922263168089092
1790763747061690600,5.284690673828125,0.11036123990416526,-0.8143693407148123,0.3424652376875281
1790763747071729700,5.294729736328125,0.1928729343742132,-0.7542635393202305,0.2379155336063355
1790763747081767700,5.304767578125,-0.07140081012994051,-0.6659387746572494,0.13454817117750645
1790763747091806700,5.314806640625,-0.0769216193780303,-0.664225540998578,0.14008264362476766
1790763747101845800,5.324845703125,-0.16532967841029167,-0.19145897592306135,-0.05534603964686394
1790763747111883500,5.334883544921875,-0.2196428678780794,0.005443652358651161,0.03657667644284665
1790763747121922800,5.3449228515625,-0.25189503218531606,0.0783697723597288,0.057468146367371076
1790763747131960600,5.354960693359375,-0.03958732950091362,0.18494681755006312,-0.0688455726891756
1790763747141999600,5.36499951171875,-0.046989130190014834,0.18769933112859724,-0.06447174151912331
1790763747152037600,5.37503759765625,0.013899638275802135,0.2680968099236488,-0.25850349053964017
1790763747162076700,5.38507666015625,0.019863807377219198,0.5786264019072056,-0.496765353365615
1790763747172115500,5.395115478515625,0.10835837564915418,0.8370908756107092,-0.4520488442827016
1790763747182153700,5.40515380859375,-0.2158662719488144,0.8401251287400722,-0.28961612942293286
1790763747192192500,5.415192626953125,-0.21303893956840037,0.8385340601563454,-0.28720336919277906
1790763747202230800,5.425230712890625,-0.09166063108742237,0.465194083994627,0.167188458019495
1790763747212269800,5.435269775390625,0.09143383659422397,0.3045785746246576,0.1129835512317717
1790763747222307600,5.4453076171875,0.5200280824661254,0.44667000078856944,-0.13160846446380017
1790763747232347000,5.455346923828125,0.27406945459246634,0.24717151079475877,-0.18010061962790785
1790763747242384600,5.465384521484375,0.2839943440183997,0.24279402636289596,-0.180598340016976
1790763747252423700,5.475423583984375,0.12706161481440068,-0.46391631914377207,0.14493234867826102
1790763747262463000,5.485462890625,-0.03609890286326408,-0.6337269423604012,0.04950805420838296
1790763747272500700,5.495500732421875,-0.17223054383993147,-0.6849982799142599,-0.08517316876426338
1790763747282539800,5.505539794921875,-0.08008359054028988,-0.6372206296950579,-0.02655848271027207
1790763747292577800,5.515577880859375,-0.08115326559841632,-0.6371966642975807,-0.02299845214113593
1790763747302616800,5.525616943359375,-0.06302256562411784,-0.2988976063787937,0.3941167336653918
1790763747312654800,5.53565478515625,0.19885873078554867,0.026389994275569914,0.15011632718741894
1790763747322694000,5.54569384765625,0.24423574960380792,0.18353753527402877,-0.08950579114109278
1790763747332732700,5.555732666015625,0.3941548006534576,0.34908056417405603,-0.09870163564011454
1790763747342770700,5.565770751953125,0.3963789064437151,0.34827743109762666,-0.10019012063220142
1790763747352809700,5.575809814453125,0.5232528897315264,0.4997691382914781,-0.20630553966015577
1790763747362847700,5.58584765625,0.15330723218321798,0.3611678923308849,-0.1621886769708246
1790763747372886800,5.59588671875,-0.2932426493570208,0.10904606565237045,-0.08443257953003049
1790763747382924800,5.6059248046875,-0.6217658709317445,-0.11354980681240558,0.5160962959751486
1790763747392963600,5.615963623046875,-0.618191519576311,-0.11600362970530986,0.5231402962025254
1790763747403002600,5.626002685546875,-0.3698988957971334,0.03597030804753303,0.1381669461965561
1790763747413040600,5.63604052734375,-0.3574447801545262,0.028199089524149894,0.1570303443595767
1790763747423079700,5.64607958984375,0.23747692299336193,-1.7324889787614344,0.29001981485299766
1790763747433118000,5.656117919921875,-0.322560221517086,1.1800468194246292,0.3262777076702565
1790763747443156700,5.66615673828125,-0.3103232557564974,1.171460777387023,0.3561930995929986
1790763747453194800,5.67619482421875,0.23633476722091434,-0.27613866208195686,0.17285357110910116
1790763747463233800,5.68623388671875,0.3539350184679031,-0.8126946855008602,-0.07805332682169973
1790763747473271800,5.696271728515625,0.46751989659368987,-0.8913719163745641,-0.08847688648477196
1790763747483310600,5.706310546875,0.18738661191761494,-0.4716396068722009,-0.29409824327304956
1790763747493350000,5.716349853515625,-0.04473462926149368,-0.011406944677233695,-0.4697342847075313
1790763747503387600,5.7263876953125,-0.3558043194711208,0.2499772158652544,-0.25158830432370305
1790763747513426700,5.7364267578125,-0.36069822899252174,0.2933464019924402,0.2902737165488303
1790763747523464700,5.746464599609375,-0.3627414252579212,0.292390124180913,0.3082867084275931
1790763747533503700,5.756503662109375,0.029432430711388586,0.3896346928805113,0.3007026099741459
1790763747543541800,5.766541748046875,0.026602760243415832,0.3892968392282724,0.3166486593857407
1790763747553580800,5.776580810546875,0.22406652953922748,0.2800666491806507,-0.09967194197699426
1790763747563619800,5.786619873046875,-0.30677696145176886,-0.19206980129778384,0.6319337022680789
1790763747573657900,5.796657958984375,-0.3119496879145503,-0.19039046990871428,0.637865649600327
1790763747583697000,5.80669677734375,0.12960370051264763,-0.09427402845621108,0.384153923381865
1790763747593734700,5.816734619140625,0.0660480509251356,-0.25794249565601346,0.4694694962915033
1790763747603774000,5.82677392578125,0.12599603140950202,-0.19977204623818395,0.39915889255106446
1790763747613811700,5.836811767578125,0.22129764934778212,0.30405425848960876,0.43316557237543163
1790763747623850800,5.846850830078125,-0.046233635647594924,0.031219314128160473,0.419064054851979
1790763747633888800,5.856888671875,-0.05193769250810146,0.03155249160528183,0.44454796713329847
1790763747643927800,5.866927734375,0.04832885436117649,0.4666343459308147,0.24436207939721644
1790763747653966600,5.876966552734375,0.1922328829050064,0.5369546673476696,-0.20718487977795302
1790763747664004900,5.8870048828125,0.3549979715242982,0.16361410666406154,-0.23463066671676933
1790763747674043600,5.897043701171875,0.35753391974270343,0.16076865410506724,-0.2109375833749771
1790763747684082000,5.90708203125,0.3996647962465882,0.4098252479940653,-0.28282763832658525
1790763747694120700,5.91712060546875,0.0808972450107336,0.5835375548243522,0.08748685253411531
1790763747704158700,5.92715869140625,-0.5367635286897421,-0.0812543878853321,0.30381606581956144
1790763747714197800,5.93719775390625,-0.4153036794051528,-0.9083043464750051,0.392332992053777
1790763747724236800,5.94723681640625,-0.4132642825320363,-0.9107306968390941,0.4159776331439614
1790763747734274800,5.95727490234375,0.06990735670179128,0.16963000595271585,0.24836185309048742
1790763747744313600,5.967313720703125,0.07017799033671616,0.16866320674717425,0.26237437715623524
1790763747754351900,5.977351806640625,-0.12051935356408357,-0.22505203344523905,-0.46352260711845006
1790763747764390700,5.987390625,-0.12853987067341804,-0.03971709336042404,-0.1892111239310354
1790763747774429000,5.997428955078125,-0.13294599667787552,-0.0380196417927742,-0.18548238573148845
1790763747784467700,6.0074677734375,-0.21609774261713027,0.2972340570807457,-0.049782633366063235
1790763747794506800,6.0175068359375,-0.22063480152487752,0.29907004033625123,-0.04732533987443894
1790763747804544800,6.027544677734375,0.04336626351773738,0.45196226197779177,-0.09755765323676169
1790763747814583800,6.037583740234375,0.22480711877346038,0.5021761994332075,-0.30870708926413204
1790763747824621600,6.04762158203125,0.2260918978869915,0.5014490542024373,-0.30578590458780525
1790763747834660900,6.057660888671875,0.3100859398692846,0.4725397705823183,-0.33799032076317814
1790763747844698600,6.06769873046875,0.1799807195752859,0.3978109850734472,-0.20197664361037312
1790763747854737700,6.077737548828125,-0.1288777243256569,0.17552549373209475,-0.3245071178011596
1790763747864775700,6.087775634765625,-0.20793255634009836,-0.015549451309442519,-0.43088411037474866
1790763747874814700,6.097814697265625,-0.20126374610066414,-0.01861643766462803,-0.4275815251654014
1790763747884853800,6.107853759765625,-0.07320522920340299,-0.558339985203743,0.06928560807425528
1790763747894891800,6.117891845703125,-0.07088789217174053,-0.5597790780961514,0.0773948263803497
1790763747904930800,6.127930908203125,0.2679530175387859,-0.5943406883895397,0.380738817708753
1790763747914968800,6.13796875,0.514870261311531,-0.2709434315264225,0.3767838695378974
1790763747925008000,6.1480078125,0.5170709862262011,-0.2720511005073786,0.3798674782343209
1790763747935045600,6.158045654296875,-0.29842063651680945,0.08605565068721771,0.2717004604388028
1790763747945085000,6.1680849609375,-0.08881927018165588,0.20873042871952055,0.1064359196865931
1790763747955123700,6.178123779296875,-0.03863748143017292,0.48549978992044923,-0.14074264190346003
1790763747965161700,6.18816162109375,-0.8820201506614684,0.3515262037605047,-0.1551684594778344
1790763747975200800,6.19820068359375,-0.8792436716854571,0.35002924320101736,-0.14904321806319057
1790763747985238800,6.20823876953125,0.821141611328721,0.5633885007649659,0.17736359587945044
1790763747995277600,6.218277587890625,0.833155874249339,0.5576350518047809,0.19054836388416588
1790763748005315800,6.22831591796875,-0.5479445556566119,0.23199323088526724,0.7721466942742466
1790763748015355000,6.23835498046875,-0.24245851079821584,0.1575602134525776,1.0381595375306905
1790763748025393700,6.2483935546875,-0.23131226288378237,0.1519564020961523,1.0593336237888782
1790763748035432000,6.258431884765625,-0.321581147351861,0.31852877404391766,0.4422946717811748
1790763748045470700,6.268470703125,-0.4690586504682898,0.30707331404983995,0.3970813190920278
1790763748055508700,6.2785087890625,-0.7658344423875212,0.22818565529584883,0.3395490579798817
1790763748065547800,6.2885478515625,-0.06415244643688202,0.12664017453193663,0.33170309371985496
1790763748075585800,6.298585693359375,-0.05777180548906326,0.12345862188637256,0.34842641111426054
1790763748085624600,6.30862451171875,0.030866262906789777,-0.12402677716314792,0.3326337256334722
1790763748095663900,6.318663818359375,-0.1305108784854412,-0.19891864427924155,0.2544005487328395
1790763748105701600,6.32870166015625,-0.43747547146379945,-0.2071604029238224,0.27241509324787183
1790763748115740700,6.33874072265625,0.1107435172200203,-0.040270635589957235,0.013124361320678143
1790763748125778700,6.34877880859375,0.11418284401893615,-0.04184592208266258,0.019526848774123935
1790763748135817700,6.358817626953125,-0.6853758810549974,0.000339022696018219,-0.2346228304701857
1790763748145855700,6.368855712890625,0.4991477915227413,0.057685880771279334,-0.2076813032590784
1790763748155894800,6.378894775390625,0.35148645627200603,0.16293021605312824,-0.22644420018969103
1790763748165932500,6.3889326171875,-0.073958677919209,0.20944412994682787,-0.3820282364647835
1790763748175971800,6.398971923828125,-0.06937310369461774,0.20761516095399854,-0.38429789842981843
1790763748186011000,6.409010986328125,-0.15732289756536483,0.430527259761095,-0.7168725508198142
1790763748196048600,6.419048583984375,0.05638064339160919,0.5821814640402794,-0.8439877955175936
1790763748206088000,6.429087890625,-0.3263356484025717,0.7017763962358236,-0.9540819819834083
1790763748216125400,6.43912548828125,-0.4833236149251461,0.6518757625132798,-0.9025940060041844
1790763748226164500,6.44916455078125,-0.47355976127982136,0.6482616636693477,-0.9150338008604944
1790763748236202500,6.459202392578125,-0.3070966949254274,0.6374094302654266,-1.0429079011015594
1790763748246241500,6.469241455078125,-0.16164222206920384,0.4703559968024492,-0.993235450111702
1790763748256280600,6.479280517578125,-0.6741518917292356,0.13576631479561327,-0.9628924073614179
1790763748266318600,6.489318603515625,-0.919837840141356,-0.12429039653539657,-1.1146228917472063
1790763748276357600,6.499357666015625,-0.9088292471319437,-0.12841770559847354,-1.1220428126148878
1790763748286395600,6.509395751953125,-1.018578784878552,-0.47574645766913887,-1.1796188763361424
1790763748296434700,6.5194345703125,-0.19498773457109927,-0.6874772372484207,-0.7019513144113123
1790763748306472400,6.529472412109375,-0.19181319618821144,-0.6884422828882932,-0.7097887300387025
1790763748316511700,6.53951171875,-0.9216296919941902,-0.7094388936877251,-0.26037198782525955
1790763748326550500,6.549550537109375,-0.9293442118942737,-0.7061474509268999,-0.26628932211026546
1790763748336588500,6.559588623046875,-0.27320962289273737,-0.2895949405044317,-0.10509864320084453
1790763748346627600,6.569627685546875,-0.07506956177055835,-0.07694821512401104,-0.07970723150856793
1790763748356665600,6.57966552734375,-0.08440466860979795,-0.07293839496076107,-0.08633969179298728
1790763748366704400,6.589704345703125,-0.29973376494199033,0.3767547530412674,0.1818323387913406
1790763748376742700,6.59974267578125,-0.30977848135530944,0.3810965816378593,0.17497315707895902
1790763748386781400,6.609781494140625,0.42691316091716286,0.6143143858820199,0.7856509765569121
1790763748396820500,6.619820556640625,0.3557698326796293,0.6742950995922088,0.9592148148272186
1790763748406858500,6.6298583984375,0.35723990523219107,0.6739104841887951,0.9544693008005618
1790763748416897500,6.6398974609375,-0.09928981079161167,0.4562877239614725,0.9278582111202179
1790763748426935600,6.649935546875,-0.09511369415074586,0.4548498001128435,0.9223745190121233
1790763748436974600,6.659974609375,0.020151392146945,0.2799842315942049,0.8736631681393832
1790763748447012600,6.6700126953125,0.041077568058669564,-0.15086802233755586,0.7876037911251187
1790763748457051400,6.680051513671875,0.0461126396164298,-0.1528273397117853,0.7862034958731383
1790763748467090700,6.690090576171875,0.047513446325063706,-0.43625615880191326,0.7772605301566422
1790763748477128400,6.70012841796875,0.05209025272130966,-0.48833472108542914,0.8278297107905149
1790763748487167500,6.71016748046875,0.32382103523314,-0.5126549233496189,0.8802673156447708
1790763748497205500,6.72020556640625,0.3063438307315111,-0.5223574021965265,0.9211664583966136
1790763748507244500,6.73024462890625,0.3046323506385088,-0.5217138435959816,0.9220973095059394
1790763748517282600,6.740282470703125,0.24273586643487213,-0.3899322145223617,0.7954341194245964
1790763748527321600,6.750321533203125,0.4944216397836804,-0.24212591784298418,0.5941628476046026
1790763748537360400,6.7603603515625,0.7933516871273517,-0.032386604341864585,0.2637094251522794
1790763748547398700,6.770398681640625,1.0371347245275975,0.15146306562125683,-0.5608083846112712
1790763748557437700,6.780437744140625,1.0395733498513697,0.15059855774641037,-0.5633974877890199
1790763748567475500,6.790475341796875,-0.5215741428643464,-0.14043138399720193,-0.034584771973267196
1790763748577514800,6.8005146484375,0.4456707606181502,0.4053419651001692,0.06497260371334851
1790763748587552500,6.810552490234375,2.4154566296309232,-0.19314824418425558,0.8601509217459707
1790763748597591600,6.820591552734375,1.3544520769551396,0.2630652454972267,0.08610686941780149
1790763748607630600,6.830630615234375,1.364938107395172,0.2587871297866106,0.08750431512556969
1790763748617668600,6.840668701171875,-0.6680538671150803,-0.2001671830356121,-0.5524551649488508
1790763748627707400,6.850707275390625,0.47576603915244337,-0.46832887488901614,-0.2205522378079593
1790763748637745700,6.86074560546875,1.1174351726889609,-0.39051147571504113,-0.7310927993521094
1790763748647784400,6.870784423828125,0.5846507767632604,-0.42193712607026096,-0.536570819129236
1790763748657822700,6.88082275390625,0.5887511978194118,-0.42386838639378543,-0.5300256352694704
1790763748667861500,6.890861572265625,-1.134048453837633,-0.3397445805519819,0.2987699979437515
1790763748677900500,6.900900634765625,-0.46913200796544546,-0.1324666887283325,0.8621551011752336
1790763748687938600,6.9109384765625,-0.4766910450428724,-0.1292734456449747,0.8586791686929762
1790763748697977600,6.9209775390625,0.3600689911782741,0.10236264236569403,0.2912360222423449
1790763748708015400,6.931015380859375,0.358456003023684,0.10324117876589298,0.2860746939564124
1790763748718054700,6.9410546875,-0.725642132730782,0.3286117766410112,-0.48041236712094393
1790763748728092400,6.951092529296875,-0.37195728963166474,0.31360008547008034,-0.3522931695450097
1790763748738131500,6.96113134765625,-1.9105650337591766,0.40596038925945754,-0.1562554144643247
1790763748748169700,6.971169677734375,-1.9134730301603673,0.4070253881424665,-0.1537813159683719
1790763748758208500,6.98120849609375,-2.299168337765336,0.6998299383431673,0.22819738226626066
1790763748768247600,6.99124755859375,-0.8192115200489759,0.8261042021721601,1.4459823596611618
1790763748778285600,7.00128564453125,1.1764075861394405,1.095316279861331,1.4012559137061238
1790763748788324600,7.01132470703125,2.604575764429569,0.8637117560327052,0.22318024822399019
1790763748798362400,7.0213623046875,-0.8237167225137353,0.6934265010416507,-0.8828376045241951
1790763748808401700,7.031401611328125,-0.7998913180291652,0.6835030729204415,-0.8746365432161838
1790763748818440400,7.0414404296875,-4.368346308900415,0.4677233102113008,-3.2579169233202934
1790763748828478500,7.051478515625,-2.191688206255436,0.6618740094363689,-4.187308481487632
1790763748838517800,7.061517822265625,0.4979091896384954,0.9332230991542338,-3.9833088806822894
1790763748848555500,7.071555419921875,0.7304097855240106,0.5372860912591219,-1.7336197363570331
1790763748858594600,7.081594482421875,0.7411684954255819,0.5337210922539234,-1.7497613083407282
1790763748868632600,7.091632568359375,-2.5791660133630034,0.4737292726278305,0.2766277973057702
1790763748878671600,7.101671630859375,-2.296049913483858,0.17807400917112826,0.9592973054789006
1790763748888709600,7.111709716796875,-1.0537313468024134,0.005639467191696166,1.2747187611572444
1790763748898748700,7.121748779296875,-0.25261779350191355,0.3188309718608856,0.6841483850866555
1790763748908787500,7.131787353515625,-0.25049013382345436,0.31856676796674727,0.6733967625129967
1790763748918825700,7.14182568359375,-1.3727233544439077,0.20157704983353614,0.6359636153712869
1790763748928864500,7.151864501953125,-1.9660493128329515,0.1894353611409664,0.5663805952530354
1790763748938902500,7.161902587890625,-1.9701894813776015,0.19143267243802548,0.5604141245966777
1790763748948941600,7.171941650390625,-1.6476365663841366,0.3372948493123054,0.5160798197643831
1790763748958979600,7.1819794921875,-1.6524276000529527,0.3396837902754545,0.5081222118234262
1790763748969018400,7.192018310546875,-1.3313295600429176,0.3016454437822103,0.6184595228627324
1790763748979057700,7.2020576171875,-1.7926114390298724,0.3693699034869671,0.6016922201961279
1790763748989095400,7.212095458984375,-0.8316998302221298,0.6036784255772829,0.5984015446202829
1790763748999134500,7.222134521484375,-0.05751607716232538,0.6867997763782739,0.5475150051329285
1790763749009172500,7.23217236328125,-0.059133741492033,0.6875701762288808,0.5456435852378606
1790763749019211500,7.24221142578125,-1.6295365538090467,0.75392860827744,0.6381618560679256
1790763749029249500,7.25224951171875,-1.3288532330572604,0.7006517761200666,0.7809604075878858
1790763749039288600,7.26228857421875,-1.454516379250586,0.5868675760298967,1.0321975603863596
1790763749049327600,7.27232763671875,-1.444372586376965,0.48904023900628085,1.203524871776253
1790763749059365600,7.28236572265625,-1.453184546124935,0.4924631991922855,1.2062890757925808
1790763749069404700,7.29240478515625,0.9643687635242938,0.5639519798666238,0.892298968091607
1790763749079442400,7.3024423828125,0.9715314947605133,0.5608230341911316,0.8956145223803818
1790763749089481500,7.3124814453125,-1.8060238783106206,0.34554245317578314,0.49563839516229924
1790763749099519500,7.32251953125,-2.1200059488356113,0.023472645524144173,0.4831642231123522
1790763749109558500,7.33255859375,-2.121781434075534,0.023977087914943695,0.4867493881227448
1790763749119597300,7.342597412109375,-2.3861156765952707,0.08778291287124157,0.5589465362621471
1790763749129635600,7.352635498046875,-0.6939718599647283,0.1931862381070852,0.33037326988819987
1790763749139674600,7.362674560546875,-0.02992722849100828,0.36512744361162186,0.3479185346573591
1790763749149712600,7.372712646484375,-0.912125950589776,0.3744102357417345,0.6158892339833081
1790763749159751700,7.382751708984375,-0.9222194745808839,0.3781839090615511,0.6225754337489604
1790763749169789400,7.39278955078125,-0.6919383083105087,0.630573446765542,0.9324740343526006
1790763749179828700,7.402828857421875,-1.510464476443827,0.8949515284270048,0.8920200050197541
1790763749189867500,7.412867431640625,-1.5171967073082924,0.8971113368093967,0.9037990709450096
1790763749199905500,7.422905517578125,-0.6446294446468352,0.9620382747501134,0.37525735409036276
1790763749209944600,7.432944580078125,-0.637188480991125,0.9583844284176826,0.3863757641497999
1790763749219982800,7.44298291015625,-1.254362347957492,0.3108236064940691,0.5935326234096661
1790763749230021600,7.453021728515625,-0.8657996682226657,0.17654080825448035,0.9229356600262224
1790763749240060000,7.463059814453125,-0.87819387037158,0.18103695062994957,0.9365794969100505
1790763749250098700,7.4730986328125,1.9097092937126754,0.45700843945145603,1.1601283592507243
1790763749260137700,7.4831376953125,1.9241256493389605,0.4503741160035133,1.1747585037581623
1790763749270175700,7.49317578125,-3.8132016126066444,0.2592138307660818,0.7358789376500994
1790763749280214800,7.50321484375,-4.998512051647901,0.22429449307620525,0.9008857407815754
1790763749290252800,7.513252685546875,-5.020391875022649,0.2327227142035961,0.9168377815425396
1790763749300291800,7.523291748046875,1.8903551894232629,0.4947252989053726,0.3917953415131196
1790763749310331000,7.533330810546875,1.0856459497183562,0.37449382237195966,0.8143420143164694
1790763749320368600,7.54336865234375,-2.634589502160251,0.5247153634995222,0.8957004470981657
1790763749330408000,7.553407958984375,-2.145669090141356,0.6100280868649482,0.8610076116405427
1790763749340445700,7.56344580078125,-2.1437635487809774,0.6087018066972494,0.8790123471476137
1790763749350484700,7.573484619140625,-1.1526555391520261,0.014145429730415344,0.6483042607020586
1790763749360522800,7.583522705078125,-1.1568927383303642,0.015432546931505203,0.6665865710414945
1790763749370561800,7.593561767578125,0.36513796500563617,0.4518161315053701,0.35024606428947297
1790763749380600600,7.6036005859375,6.00175736605525,0.7684037083536386,0.12165610250905155
1790763749390638800,7.613638916015625,6.0209723541349165,0.7598883934646844,0.14478610860798508
1790763749400677600,7.623677734375,-3.2330911096215247,0.7115753211945295,0.5278612237771972
1790763749410716000,7.6337158203125,-6.166164668923616,0.20545067639648912,0.4996218753078952
1790763749420754700,7.643754638671875,-5.55896625252664,0.8689777137368917,0.6515376166000962
1790763749430792700,7.653792724609375,0.9770867908000945,1.5632470953434705,-0.20673103506322948
1790763749440831700,7.663831787109375,0.9732102416276931,1.5647767891287803,-0.19148699644114822
1790763749450870800,7.673870849609375,2.4523966594934463,1.3743763823479413,0.06273355151570867
1790763749460908500,7.683908447265625,-6.254253871265053,0.15194471165835857,-0.16271608011210337
1790763749470947800,7.69394775390625,-5.32916088707447,-0.39513855099380013,-0.06505320380204357
1790763749480985600,7.703985595703125,-5.132226110088825,-1.0182383008778095,-0.36613059277217835
1790763749491024600,7.714024658203125,-5.120661344501376,-1.0228174453616141,-0.3492059806520119
1790763749501063000,7.72406298828125,-5.486042470613121,-1.6568617831081152,-0.9869590732559561
1790763749511101700,7.734101806640625,-2.8740660745382307,-0.7406243055462837,-0.45537137630153446
1790763749521140700,7.744140625,11.845649398231506,-0.8604957165956497,-0.6067141400113701
1790763749531178800,7.7541787109375,6.237340145865082,0.04862579148113727,-0.27663430011179296
1790763749541217800,7.7642177734375,6.2656315898478026,0.037078561550378794,-0.2672305484831333
1790763749551255800,7.774255859375,-5.9412839003920555,-0.011956979775428771,-0.05288133916691876
1790763749561294800,7.784294921875,-4.551087140838802,0.784136115014553,0.4625679367421195
1790763749571332600,7.79433251953125,2.9511826319664713,1.5087515350461005,-0.6186595024142414
1790763749581372000,7.804371826171875,12.258167538571357,1.8310341086655855,-0.7135560466829687
1790763749591410700,7.81441064453125,12.313071679669617,1.8079677058547734,-0.7023031965889036
1790763749601448700,7.82444873046875,-3.5573949599355457,0.6612474019706249,-0.5557661526603624
1790763749611487700,7.83448779296875,-4.4623809756428,-0.7273726097851991,-0.1831505635167472
1790763749621525800,7.84452587890625,-4.97479215336442,-0.9661240827590226,-0.2678152530359104
1790763749631564800,7.854564697265625,-1.073137181279063,-1.4130781611859797,-0.46417672364562745
1790763749641602800,7.864602783203125,-1.0629966032758356,-1.4170365434229373,-0.453293875907734
1790763749651641900,7.874641845703125,-1.294993049031496,-1.9234844288259743,-0.3393583211807534
1790763749661680600,7.8846806640625,-0.09657412209212779,-1.3823767334520816,-0.6372537282470613
1790763749671719000,7.894718994140625,4.2291053037315605,-0.7305436410367488,-0.33603637368381023
1790763749681757700,7.9047578125,3.25029534240067,0.09895780235826969,0.03324395182356238
1790763749691795700,7.914795654296875,3.2554508254677055,0.09678104284107684,0.03181676856465637
1790763749701834800,7.924834716796875,-4.988613757967949,0.2980395282447338,-0.060209170437511055
1790763749711872800,7.934872802734375,-2.2904729901343583,0.8006342453509568,-0.7090726907238364
1790763749721911600,7.94491162109375,5.323525511536002,1.9656489153385162,-1.2342765683926642
1790763749731950800,7.954950927734375,8.644756092381478,2.2412328661471603,-0.8938014816090464
1790763749741988600,7.964988525390625,8.689040639787912,2.2223796971172094,-0.8895800645217299
1790763749752027600,7.975027587890625,1.0747867020517587,2.2089619971394536,-0.3486672341328114
1790763749762065700,7.985065673828125,-5.307087002432346,0.7005161670416593,0.10398355809841305
1790763749772104700,7.995104736328125,-4.850956514859199,-0.18607377575337886,-0.5478345194108784
1790763749782142700,8.005142822265626,-4.487393836346269,-1.5409417400330305,-1.2776529149129987
1790763749792181800,8.015181640625,-4.520639687865972,-1.527587168419361,-1.2868525588043034
1790763749802220800,8.025220703125,-4.9016643733114,-2.109890213012695,-1.0154372719824314
1790763749812258800,8.0352587890625,20.046783771479127,0.16325228761434554,1.5394406878203153
1790763749822297900,8.0452978515625,3.41658860514611,2.053836317357421,1.1123302507653832
1790763749832335600,8.055335693359375,-7.429100199437141,0.5225941335618496,0.6422464950330555
1790763749842375000,8.065375,-7.412400409048796,0.5155483067035674,0.631782968685776
1790763749852412700,8.07541259765625,-5.571626996657252,1.280292908027768,3.021067192314565
1790763749862451700,8.08545166015625,-2.430847090986371,1.65493169182837,1.6322664171643555
1790763749872490800,8.09549072265625,11.504047791635989,1.391721484902501,0.48267727984562514
1790763749882528800,8.10552880859375,0.5361778377562761,1.086933066919446,1.9918544929578899
1790763749892567800,8.11556787109375,-7.687773347455263,-0.08227496310472487,1.2944357074096797
1790763749902605800,8.125605712890625,-5.798668742614984,0.3994178357481956,1.297261724615842
1790763749912644900,8.135644775390626,-4.758925004632771,1.2857663710027933,0.7934920454461127
1790763749922683600,8.14568359375,2.6669559404969214,0.5359872836202383,-0.10540750822061672
1790763749932722000,8.155721923828125,8.212767527896165,-0.5674234553694725,0.7470083074949682
1790763749942760700,8.1657607421875,8.284871810120343,-0.5968342587709426,0.7519960327796638
1790763749952798700,8.175798828125,-7.703543163517117,-2.1339736839115617,0.07251359367743133
1790763749962837800,8.185837646484375,-5.258013467183709,0.41654783424735065,-0.304071319222264
1790763749972875800,8.195875732421875,9.798714530825615,0.6735755531460046,-2.3065432504475116
1790763749982914600,8.20591455078125,9.41525998788476,-0.12592881139218806,-0.8286197651896625
1790763749992953900,8.215953857421875,9.510836915633082,-0.1645750606507063,-0.826212996308878
1790763750002991600,8.22599169921875,-6.530194380426407,-3.5404485013097524,-1.4842838871352373
1790763750013030700,8.23603076171875,-7.009742568466067,0.7777619038075209,-1.2633499565333126
1790763750023068700,8.246068603515624,-5.500062812659144,2.400434417065978,-2.2170941579297185
1790763750033107700,8.256107666015625,2.283802426329255,3.8313223757088184,-3.205475372943282
1790763750043145700,8.266145751953125,2.2802631462872025,3.832712368762493,-3.208485660675168
1790763750053184800,8.276184814453124,2.560073190358281,2.7987428302675483,-1.9076861173219977
1790763750063223800,8.286223876953125,-5.459733724880218,1.9867484019905328,-2.902277146761119
1790763750073261800,8.29626171875,-5.431846185523272,1.9749527502566575,-2.9170871778801084
1790763750083300900,8.30630078125,-3.198231100903451,0.40084523820281026,-2.978053103235364
1790763750093338600,8.316338623046875,-3.1731554040968417,0.3902344123393297,-2.9978651804253458
1790763750103378000,8.3263779296875,0.6344231079310179,-1.7802222053170202,-2.273860001246631
1790763750113415700,8.336415771484376,-2.4583418316334487,-1.5242098009407519,-1.4556557585440575
1790763750123454700,8.346454833984374,5.3928299339085815,-1.963166450873017,-0.7321030723731965
1790763750133493800,8.35649365234375,4.522026758310199,-1.6585750167667865,-0.3146991327531636
1790763750143531800,8.36653173828125,4.5381534249857065,-1.6654355501860378,-0.3441846453586593
1790763750153570600,8.376570556640624,-5.109284210440516,-1.4558511349856853,0.33660628252625463
1790763750163608800,8.38660888671875,4.529458661876618,-0.46662382453680035,1.5114721921816467
1790763750173647600,8.396647705078125,4.518231457680463,-0.462230558013916,1.4940245060354471
1790763750183686700,8.406686767578124,-1.9030992279231547,1.4505524440556763,0.6187137168195098
1790763750193725000,8.416724853515625,0.2514969727784395,0.6171762050539255,0.7431149533182382
1790763750203763700,8.426763671875,-3.556739710897207,-0.1609972021639347,0.4110503328096121
1790763750213802200,8.43680224609375,-5.683973857420683,0.7141466329872608,0.47360959177091716
1790763750223841300,8.44684130859375,-5.7224190311491485,0.7298305243313312,0.46360246742162853
1790763750233879300,8.45687939453125,10.152560701966285,0.24630291126668452,0.43061702040378
1790763750243918000,8.46691796875,10.176409195065498,0.23651918387711046,0.42609340549949554
1790763750253957400,8.476957275390625,0.5410559651866554,0.9095973088949918,0.6536809122391045
1790763750263995400,8.486995361328125,-2.6247306637078522,0.019916998869180677,1.5893063963599503
1790763750274034200,8.4970341796875,-2.610924256673455,0.01461655437350273,1.5614814008451998
1790763750284072400,8.507072509765624,1.2545955721914768,-1.9437071326434612,4.000732601431012
1790763750294111200,8.517111328125,6.841555162537097,-2.221459075140953,5.320845478671789
1790763750304149500,8.5271494140625,5.799457847166061,-1.699251895070076,3.9680455528378484
1790763750314188300,8.537188232421874,0.3855342718243599,-2.0667922450423237,2.5405808466419577
1790763750324227300,8.547227294921875,-4.459485546462237,-2.280599830895662,1.4575577927730976
1790763750334265300,8.557265380859375,-4.612596671551466,-1.213617080593109,1.1966223989114164
1790763750344304400,8.567304443359374,-4.447383605258167,-1.8176240074723957,1.1873440637607127
1790763750354342100,8.577342041015624,-3.945938934969902,-2.8626988773494957,1.5739359548792242
1790763750364381400,8.58738134765625,-2.6071333399578926,-2.985421001654863,2.5019044945061206
1790763750374419200,8.597419189453126,-2.7103485074996945,-2.9437101041287184,2.52672855463922
1790763750384458200,8.607458251953124,14.06565301386714,2.6364912441283463,1.2453200865849852
1790763750394497300,8.617497314453125,4.447778742055594,3.666933193019032,1.2083030459634958
1790763750404535300,8.627535400390625,-3.5737276705771683,2.72339328251183,1.8218984699212013
1790763750414574300,8.63757421875,-3.552588144175708,2.7147406049788,1.8365204311221837
1790763750424612400,8.6476123046875,-5.474717359000444,2.8597207383215424,1.0200630320869386
1790763750434651400,8.6576513671875,-4.432603092494607,2.7555349721819162,0.06360464439496863
1790763750444690200,8.667690185546874,-0.09715309102386235,3.1074118890762326,-1.236319180136174
1790763750454728400,8.677728515625,11.064732829785346,1.9947943458020685,-2.302694027673453
1790763750464767200,8.687767333984375,2.086014831906557,1.5378934583783148,-1.3654711913585662
1790763750474805200,8.69780517578125,-4.666979126863182,1.4985107115387917,-2.6103847429692744
1790763750484844300,8.70784423828125,2.644311562490463,0.8175128994375467,-2.6918030892446634
1790763750494882300,8.71788232421875,4.844733987082541,-1.2245529006272553,-0.4186160188235342
1790763750504921000,8.727921142578126,-2.423071488548815,-1.6706489009201526,-0.773566059552878
1790763750514960400,8.73796044921875,-4.639328903393447,-2.551613405048847,-1.4350830722451209
1790763750524998100,8.747998046875,-1.0165095773890613,-3.3235072936058043,-1.9534955362081527
1790763750535037200,8.758037109375,-0.8656178819149732,-2.9875036531478165,-2.5809716014802455
1790763750545075200,8.7680751953125,-1.1485019266039131,-1.8597294572740792,-3.1965351106405255
1790763750555114200,8.7781142578125,4.108169478321075,-1.3819675681293009,-3.551896362519264
1790763750565152500,8.788152587890625,2.292878882232308,-1.2364900066584348,-2.3025268544130024
1790763750575191300,8.79819140625,-5.051238848707079,-0.8161585622191428,-1.6458102277398108
1790763750585230300,8.808230224609375,-6.063761110025644,-0.3386509400963783,-1.601541316293925
1790763750595268400,8.818268310546875,-4.282057726240158,0.6009487083524465,-1.7143892584472893
1790763750605307400,8.828307373046876,2.6349489831224084,1.7265730327159166,-2.152409212051332
1790763750615345200,8.83834521484375,7.709712792062759,1.651921404096484,-1.5927223422832786
1790763750625384400,8.848384521484375,2.0770973659574983,2.1992770539492366,-0.9533935613278299
1790763750635423200,8.85842333984375,-2.187200831708312,0.93170100415349,-0.6528660887248814
1790763750645461200,8.868461181640624,-4.918385206487774,0.8402823651283979,-0.7645178798962384
1790763750655500300,8.878500244140625,-0.9361641210421919,1.3970166687011718,-1.373945151323825
1790763750665538300,8.888538330078125,5.347727055856585,0.7820289136022329,-0.8702231106881052
1790763750675577300,8.898577392578124,0.4887544078022241,0.05739361982643604,0.12585761845265514
1790763750685615400,8.908615478515625,-5.781995255711674,-0.5776853216648101,0.6575387567110359
1790763750695654400,8.918654296875,-3.6938410736888643,-1.063271620824933,1.6421185336150228
1790763750705693200,8.928693115234376,4.3396360549837345,-1.3425976807713509,1.841375323807448
1790763750715731500,8.9387314453125,2.9586282717972994,-1.5446435171604156,1.5618988956049085
1790763750725770200,8.948770263671875,-3.8412463883519172,-0.9604618192136287,1.3111460191920399
1790763750735808300,8.958808349609376,-1.6948837629884481,-1.7011515912115573,1.4787052102200686
1790763750745847300,8.968847412109374,-1.702923569320142,-1.6980325824081897,1.4684827991522849
1790763750755885300,8.97888525390625,-2.6149302774444223,-1.3916846600234507,1.5086493898458777
1790763750765924000,8.988924072265625,-1.7083435485422611,-0.33671032742261886,0.998032328999415
1790763750775963400,8.99896337890625,-1.7291522355541586,-0.3284153772860765,1.0002719976849854
1790763750786001200,9.009001220703125,1.2163535198196769,-0.6962240228056907,0.5564454766940325
1790763750796040200,9.019040283203125,-3.3539158758729695,0.6571101560354232,-0.406154961983487
1790763750806078200,9.029078125,-0.5408002368599176,2.3796049795269965,-0.3469044987766072
1790763750816117200,9.0391171875,8.721804260748625,2.446620998701453,-0.13889776295544579
1790763750826156300,9.04915625,8.758069167828559,2.431591187351942,-0.13828068136987276
1790763750836194300,9.0591943359375,-6.9792398781746625,1.896699882274866,0.40636476880926636
1790763750846233300,9.0692333984375,-5.876826333528757,1.9229992756575345,-0.6083824020171538
1790763750856271400,9.079271240234375,-4.760046409878134,2.697672565799951,-1.3979500040285289
1790763750866310400,9.089310302734376,3.5351533175110816,3.150959354379773,-1.5118724435456097
1790763750876348200,9.09934814453125,7.996539436897635,0.6006646307140588,-0.4924410604257136
1790763750886387500,9.109387451171875,-3.789882696339488,0.4808972645610571,-0.28377355914087965
1790763750896426200,9.11942626953125,-5.2408898984253405,-0.8294844922602176,-0.6412709279991686
1790763750906464300,9.12946435546875,-5.199679351636767,-0.845752320972085,-0.6451995726849883
1790763750916503300,9.13950341796875,-5.472988343250751,-3.3729783037394285,-0.7935826463390141
1790763750926541300,9.149541259765625,-4.691684821313619,-2.8438731808483597,-0.724568439084664
1790763750936580000,9.159580078125,3.677538173663616,-3.412036056408286,-0.36197526319101453
1790763750946618400,9.169618408203124,5.370348637509346,-3.423263552865386,0.3603886515866965
1790763750956657400,9.179657470703125,5.348655861139298,-3.4146260729014872,0.3510523026384413
1790763750966696200,9.1896962890625,-1.2000278234407304,-1.579891356152296,1.652635251454264
1790763750976734500,9.199734375,-1.2647533935904502,-1.5533254207879303,1.6516782429903745
1790763750986773200,9.209773193359375,3.1024481291890145,0.4771756136894226,0.6724210493486374
1790763750996811300,9.219811279296875,-4.314068483006954,2.3332582388937473,0.12444283801759592
1790763751006850300,9.229850341796874,-0.20495441731214523,4.2523949939042325,-0.8819733158450573
1790763751016889300,9.239889404296875,7.149300092238187,4.760936636716127,-1.2783924812339245
1790763751026927400,9.24992724609375,7.165513560414314,4.753810730358958,-1.2815503607429564
1790763751036966400,9.25996630859375,-7.338961078828572,5.399203560593724,-0.001382268688234035
1790763751047004200,9.270004150390625,0.41346769614964723,6.5229398792535065,-1.1475111620008944
1790763751057043200,9.280043212890625,13.208221361017227,5.156074018666148,0.2203568796326406
1790763751067081200,9.290081298828126,13.33649001353383,5.10039947771728,0.21610022683516145
1790763751077120300,9.300120361328124,-7.645770188984274,1.585622593280673,0.06698681134628132
1790763751087159300,9.3101591796875,-6.114400579416752,-0.8092816621869802,-0.25415519566964356
1790763751097197300,9.320197265625,-6.582858633643388,-0.698284462466836,0.3650589449526742
1790763751107236400,9.330236328125,-5.706350524401665,-0.8639502409636974,-1.868646338701248
1790763751117274400,9.3402744140625,-5.790180900254845,-0.8309557338565587,-1.8922040321603417
1790763751127313400,9.3503134765625,-2.2118349222272635,-1.4765245051801204,-1.1929849191918969
1790763751137351200,9.36035107421875,1.8673644821971653,-2.3118366806805133,-1.208257380190864
1790763751147390500,9.370390380859375,-7.77815562916994,-3.139341981822252,-0.6019675665387884
1790763751157429200,9.38042919921875,-7.789051117193698,-3.1351170576035976,-0.6084122491661459
1790763751167467300,9.39046728515625,-3.7800270727574823,-1.063823409488797,-0.8745539794992655
1790763751177506300,9.40050634765625,-3.8124724215492605,-1.0508727425009012,-0.8919969894703477
1790763751187544300,9.41054443359375,-2.2413690597474574,-1.2171499308943747,0.34065859012436117
1790763751197583000,9.4205830078125,-5.783634839612245,-1.1703759047597646,-0.2873469971808605
1790763751207622400,9.430622314453124,-4.678017238228023,-0.4231868338704109,-0.8691787892669439
1790763751217659400,9.440659423828125,-4.784730184757709,-0.37967443988025185,-0.8767237247537821
1790763751227698400,9.450698486328125,13.899315619719028,1.1270791993468998,-0.7937054690010845
1790763751237736400,9.460736328125,1.5548989537149667,3.121245768639445,-0.7493846812374889
1790763751247775200,9.470775146484375,-0.5865864210009575,2.9105928474247453,-1.4013865543484687
1790763751257813500,9.4808134765625,-0.5837701945364475,2.9097774393886326,-1.4156696389839052
1790763751267852300,9.490852294921876,1.9240286187052726,2.164500924122333,-1.346425276235491
1790763751277891300,9.500891357421875,1.986783473303914,2.139465851587057,-1.3683705660618841
1790763751287929300,9.510929443359375,-4.652214396190643,-1.9926812991708516,-0.38795653053522106
1790763751297968400,9.520968505859376,-5.880932015281915,-1.1339578529447316,-1.2294153920970856
1790763751308006400,9.53100634765625,6.6824377827703945,-1.7875269753724337,-1.4856829402782021
1790763751318045400,9.54104541015625,6.718537270155549,-1.801331044319272,-1.5011559653505682
1790763751328083200,9.551083251953125,-5.0972208476811645,-1.6351830352634191,-1.0151548017792402
1790763751338122200,9.561122314453126,-1.293534374655783,-1.7204647789686918,-0.8327683362364768
1790763751348161500,9.57116162109375,7.28711866338849,-1.013438791641593,-0.855062293370068
1790763751358199300,9.58119921875,7.293659463334083,-1.0155389787912368,-0.8676259338017552
1790763751368238300,9.59123828125,-6.7917293476164335,0.886340351948142,-0.8748942443042993
1790763751378276400,9.6012763671875,-1.7028925896599887,1.8219237504929302,-1.0353364429339766
1790763751388315400,9.6113154296875,-0.515541876962781,-0.008714636853337288,0.10508019422870128
1790763751398354200,9.621354248046876,-5.758941127860545,0.13537468512952328,0.001998005416803062
1790763751408392400,9.631392333984374,-3.27777576226145,0.908888283842802,-0.4735715613154694
1790763751418431200,9.64143115234375,-3.3199303119018673,0.9272954626709222,-0.48867604533638803
1790763751428469500,9.651469482421875,7.824302463316917,1.6706459783107042,0.36302462611347436
1790763751438508300,9.66150830078125,0.5448194093734026,2.346951833203435,0.6073463004350662
1790763751448546300,9.67154638671875,5.304443794447184,2.0305472117066383,1.035868942375481
1790763751458585300,9.68158544921875,5.38305965052247,1.9995541075497865,1.0171753478214145
1790763751468624400,9.691624267578124,-6.0493543990105385,0.12666647801697253,0.47384449650533494
1790763751478662400,9.701662353515625,-5.973686286824941,0.09881400997340678,0.4513500483635813
1790763751488701400,9.711701416015625,-5.502925800874829,-1.976475429779291,1.2007608138903976
1790763751498739500,9.721739501953126,-5.278682745724916,-0.7602554732114076,0.9054117668386549
1790763751508778200,9.7317783203125,-5.336040125194192,-0.7368214061319828,0.8872779250591993
1790763751518817500,9.741817626953125,-3.838195476348698,-1.147721005359292,-0.1959755765646696
1790763751528855300,9.751855224609375,9.269178615301847,-2.8817461076468227,3.3612025257498024
1790763751538894300,9.761894287109374,8.826946889221668,0.7342126849383115,1.072762064356357
1790763751548932400,9.771932373046875,1.0685405011385678,0.7464467280894518,1.4777034858316183
1790763751558971400,9.781971435546875,1.0907885733038187,0.7379162156313658,1.474331671310961
1790763751569009400,9.792009521484376,-3.157287096096575,-0.40041327652633185,1.6153145517110823
1790763751579048400,9.80204833984375,-3.1452661111742257,-0.40352001037001606,1.5942396149784326
1790763751589087500,9.81208740234375,-4.94086767193079,0.3625549627751112,2.1873820334941145
1790763751599125500,9.82212548828125,-4.296987584346533,0.37547815723419187,2.7109958654925226
1790763751609164500,9.83216455078125,-4.319520026411116,0.38401977560818196,2.714943141813576
1790763751619202300,9.842202392578125,-2.1802695711404083,-0.7781430120795965,2.204343251297623
1790763751629241300,9.852241455078126,4.735858309561014,0.7210340544134378,1.8083268945559858
1790763751639279400,9.862279296875,2.5379461142241952,0.688825144726038,1.7072233123406766
1790763751649318400,9.872318359375,-0.45018180830180643,0.05194762938022613,2.245187448991835
1790763751659357200,9.882357177734375,-0.4349810242995619,0.04430091401934624,2.2701889115184546
1790763751669395500,9.8923955078125,-2.7277380337178707,-0.0885176568865776,0.5376981061261147
1790763751679434200,9.902434326171875,4.696418279576301,-0.6816121446073055,-0.422652471265383
1790763751689472500,9.912472412109375,1.686926081982255,-1.560333253723383,1.3730359275244175
1790763751699511300,9.92251123046875,-4.16871600922048,-1.1235860965341329,1.2435574608266353
1790763751709550300,9.93255029296875,-4.218801059599221,-1.1055150177925825,1.2712528386123478
1790763751719588400,9.94258837890625,6.346721142560243,0.16749883914291858,0.785625988246128
1790763751729627400,9.95262744140625,2.8923846983000634,-0.7191279285311698,1.0638809848949313
1790763751739665200,9.9626650390625,-7.166327214884758,-0.4709902030527591,1.4513155373826623
1790763751749704400,9.972704345703125,-7.200317162770032,-0.4584697441756725,1.4711078869588672
1790763751759742500,9.982742431640625,-6.251104467323422,0.10455810658335685,0.6608005349859595
1790763751769781200,9.99278125,7.299365566021203,0.1639215651780367,1.2957178561747074
1790763751779820500,10.002820556640625,3.2331846331238743,1.086871107599139,0.17712280939351766
1790763751789858300,10.0128583984375,-0.27003976068496705,2.6058652197182175,-0.1571330740816891
1790763751799897300,10.0228974609375,3.299076616704464,1.4517927995055913,0.7823655251454561
1790763751809935400,10.032935302734375,3.3536130935341117,1.42907944791615,0.7945096980560571
1790763751819974400,10.042974365234375,-5.7857426255464555,-1.1185182917505503,0.9966716351054609
1790763751830013200,10.05301318359375,-6.370489556160569,-1.016622097852826,0.9594657939136028
1790763751840051500,10.063051513671875,-4.932518361258507,0.4120148669928312,0.2325677976365201
1790763751850090200,10.07309033203125,-2.202874786180258,0.5564391200184822,-0.72508413352184
1790763751860128500,10.08312841796875,-2.2285756291478873,0.5665192000061273,-0.7041076156623661
1790763751870167600,10.09316748046875,0.5635515823721885,0.9656085344523191,0.7782855623554438
1790763751880205300,10.103205322265625,3.0768115836292504,1.292163963085413,-0.6739285313021391
1790763751890244600,10.11324462890625,1.7635288446694612,0.26492402510643004,0.9938848539311438
1790763751900283400,10.123283447265624,-5.765197265645861,-0.4420744896918535,1.3912819244414567
1790763751910321400,10.1333212890625,-5.820307742971181,-0.4194838876992464,1.4055594561189413
1790763751920360400,10.1433603515625,8.640327754545211,1.2837959477126597,0.43149073449838904
1790763751930398500,10.1533984375,0.45353930203616616,0.4013023343205452,0.6506653638102113
1790763751940437200,10.163437255859375,-7.672326187476515,0.3627981238812208,-0.10693751253318041
1790763751950476300,10.173476318359375,-7.674345710605382,0.36355332616269587,-0.08879219037848524
1790763751960514300,10.183514404296876,-1.8752724788427353,-1.1230407376110554,-1.5967041053958235
1790763751970553300,10.19355322265625,-4.541340530589222,-1.649881422701478,-0.9639885320350527
1790763751980591400,10.20359130859375,-4.4997190649122,-1.0293635060042143,0.14258162083365022
1790763751990630400,10.21363037109375,6.024165012696385,-2.439175943392515,0.2739961153616197
1790763752000668200,10.223668212890624,6.028919513747096,-2.4411183096319435,0.2817160055565648
1790763752010707500,10.23370751953125,-1.601299470362067,-0.21565350598096847,0.5486566859813407
1790763752020746500,10.24374658203125,7.953583507746457,-0.30161563316583634,-0.018646011960628674
1790763752030784300,10.2537841796875,-0.2397673720180988,0.6874521028071642,0.8053059634890407
1790763752040823600,10.263823486328125,-7.033474741709232,0.6920803471297026,-0.020338637797755653
1790763752050861300,10.273861328125,-7.078504554525018,0.7112590948522091,-0.011821334164403379
1790763752060900400,10.283900390625,1.4338760345429182,1.8393442563712596,-1.5911336117871104
1790763752070938400,10.2939384765625,1.0390309135377407,1.6034657084852455,-1.6095638792298734
1790763752080977400,10.303977294921875,-2.4139231364533305,2.097405994492769,-0.5320325546450912
1790763752091016200,10.31401611328125,4.769798280824721,2.1646406248539685,0.2425804566774517
1790763752101054500,10.324054443359374,4.778353343202173,2.1609119597196575,0.24484949758797883
1790763752111093200,10.33409326171875,0.6266779006317258,2.5597435200124976,0.33111736625377086
1790763752121131500,10.344131591796875,3.8266198971062897,2.117488997578621,0.17685221229121087
1790763752131170300,10.35417041015625,-0.3350006008952856,1.8195237036138772,0.02885243429976981
1790763752141209300,10.364209228515625,-4.512593744054437,0.9846469969213009,-0.4937114456877112
1790763752151247400,10.374247314453125,-4.494733969976008,0.977033599308133,-0.5007045194454491
1790763752161286400,10.384286376953124,-5.7757297655761235,0.21167875713109968,-1.4375639292754232
1790763752171324400,10.394324462890625,4.1478371795818205,-0.10340835202634334,-0.16037369997072964
1790763752181363500,10.404363525390625,4.85186778448522,-0.43009938973784445,0.08446926741176285
1790763752191401500,10.4144013671875,2.2160452333986758,-0.6702367641121149,-0.24624466000711545
1790763752201440300,10.424440185546874,2.2812162092283366,-0.6970692414581775,-0.25492758654793723
1790763752211480000,10.43447998046875,-6.576373947799206,-2.543442373552918,-0.10575786516140215
1790763752221518000,10.44451806640625,-6.218800865089893,-1.5705203012168407,0.47059711208194493
1790763752231557000,10.45455712890625,-4.729336506576836,-0.8796475763112306,-0.6884463014762848
1790763752241595100,10.46459521484375,6.910139453941583,-0.7518494639158249,0.324165537821874
1790763752251634200,10.47463427734375,6.889326383015513,-0.743059423738718,0.3271265795845538
1790763752261673000,10.4846728515625,4.275722093477845,2.874434907850623,-0.3174847814163193
1790763752271711200,10.494711181640625,-0.2532154671341181,0.7758832504540681,0.8886836271386593
1790763752281750000,10.50475,-5.40862956058681,-0.0870054987579584,0.7230433484092355
1790763752291788000,10.5147880859375,-5.401030191498995,-0.9471586855262517,0.12236506362915969
1790763752301827000,10.5248271484375,-5.356171643596888,-0.9646803136914968,0.13655046004378235
1790763752311865000,10.534864990234375,-5.764008348122239,-1.3373077576696872,-1.5282824572071432
1790763752321903900,10.54490380859375,-4.371986418968439,0.35490590932667254,-2.302249791037291
1790763752331943000,10.55494287109375,17.062121479237078,-1.5585358489125967,-0.6985912633936852
1790763752341981000,10.56498095703125,17.12811867675781,-1.58600136346519,-0.6961451854158193
1790763752352020000,10.57502001953125,20.9439757723093,-1.386077926057577,-0.9237374048631638
1790763752362058200,10.585058349609374,-7.48156513068974,-0.9335065922707318,-0.2783086995974183
1790763752372097000,10.595096923828125,-5.4436675562202925,-0.35500293996036053,-0.7131746461499482
1790763752382136000,10.605135986328126,-2.3721762908309696,1.4629337867230177,-1.8454712148189543
1790763752392174000,10.615174072265624,-2.4263965413182973,1.4857804093033073,-1.8511308480158448
1790763752402213000,10.625213134765625,15.404115786790847,2.406706336942315,-2.1779205237962302
1790763752412251000,10.6352509765625,-8.083265534192323,2.999158435106277,-0.9667068510830402
1790763752422290200,10.645290283203124,-4.573021032488346,1.1740876187592744,-1.3375165781147778
1790763752432328000,10.655327880859375,-4.763265371924638,0.9197299958527088,-0.986022596123442
1790763752442367000,10.665366943359375,-4.7625925872296095,0.9194985251843929,-0.988589670132473
1790763752452406000,10.675406005859376,-5.472429540324211,0.8697457754999399,-1.353129011657834
1790763752462444000,10.685444091796874,13.623019136726855,-0.34267011260986324,-1.327093237647414
1790763752472483000,10.695483154296875,12.463270424443483,0.25938918733298777,-1.4326174127839504
1790763752482521000,10.70552099609375,1.4440858783900736,0.10538695862293243,-1.2882139102853833
1790763752492560100,10.71556005859375,1.5483797810792923,0.06578910772800445,-1.321574035834521
1790763752502599000,10.725598876953125,-4.826009120607376,-2.121408801370859,-0.9671164547972381
1790763752512637200,10.73563720703125,-4.9165357792288065,-2.244764547404647,0.29812879569707434
1790763752522676000,10.745676025390624,-4.648120404875278,-4.29975178836286,0.12358356344029307
1790763752532714200,10.75571435546875,-5.300914451277256,-4.705318794390559,-1.1092707170642913
1790763752542753000,10.7657529296875,-5.306459225922823,-4.703206916803121,-1.1148888492070137
1790763752552791000,10.775791015625,-6.093598614406585,-3.384750574597716,-0.7895403121456503
1790763752562830000,10.785830078125,-5.397534750598669,-0.6861129631578922,-1.3204422553256154
1790763752572869000,10.795869140625,-0.6866033770233392,0.35720541844069953,-0.12516780042443423
1790763752582907000,10.805906982421876,21.368892790973185,-1.1237819113671779,-0.4960507022902369
1790763752592946200,10.8159462890625,21.439164012551306,-1.15201431863904,-0.501147075581178
1790763752602984000,10.82598388671875,5.996875439232587,1.483311973363161,0.692291213401407
1790763752613023000,10.83602294921875,-6.600767215299606,0.1367798757523298,-0.3836399825103581
1790763752623062000,10.84606201171875,-5.62002774721086,2.826884636646509,-0.6608029461387545
1790763752633100000,10.85610009765625,15.276726255196332,1.4153291549831628,0.2941976119942963
1790763752643139000,10.86613916015625,15.328866776800155,1.3935031076222657,0.2969525367256254
1790763752653177000,10.876177001953126,17.373562925368546,0.6548644229352474,1.057288016370684
1790763752663216000,10.886216064453125,-6.93164869043827,1.2181804429858922,-1.4531670104682444
1790763752673254000,10.89625390625,-4.910722124513984,2.7628081780552862,-0.5335027002628893
1790763752683293200,10.906293212890626,6.18715718806982,3.5491590465098617,-0.565656482229568
1790763752693332000,10.91633203125,6.2164557632684705,3.5374101565271614,-0.5760798592295497
1790763752703370000,10.926369873046875,15.664998427551984,2.0324170972317455,0.34122886429298666
1790763752713409000,10.936408935546876,-7.658247977763414,1.8097545892715452,0.5484011037850752
1790763752723447000,10.946447021484374,-7.57365830797553,1.7768682187139986,0.5440582522751763
1790763752733485800,10.95648583984375,-4.407231335350871,-0.9604320085972547,-0.731764999525249
1790763752743525000,10.966525146484376,-4.332035809113085,-0.9878039996474981,-0.7388501354806125
1790763752753563100,10.976563232421874,-5.775093805760145,-2.87636149199903,-1.2211038561519234
1790763752763602000,10.986601806640625,-5.367768557888269,-2.0600117911219598,-0.9024502866845577
1790763752773640200,10.99664013671875,-5.4819326972067355,-2.0157196449309587,-0.9168686881374567
1790763752783679000,11.006678955078126,14.424447747325896,-3.718575701972842,1.0781361586101352
1790763752793717200,11.01671728515625,14.455862291765213,-3.731611709156632,1.08867362697646
1790763752803756000,11.026756103515625,13.186758886271715,-0.950157282820344,-0.9941283803634345
1790763752813795000,11.036795166015626,-4.7072763581991195,-3.5054771411716934,-0.5264320677569135
1790763752823833000,11.0468330078125,-4.619130164973438,-3.5372669486641883,-0.5312091094329953
1790763752833872100,11.0568720703125,-4.982460496035218,-0.4374193573623895,1.1438174951147286
1790763752843910000,11.066909912109375,-5.060329917657375,-0.4090174387425184,1.1417913961146027
1790763752853949200,11.07694921875,-6.605467355814576,-0.28865619834959505,0.33814152926951646
1790763752863988200,11.08698828125,-3.140098645408451,1.5257529387295246,0.6224211199700832
1790763752874026000,11.09702587890625,-3.2670570921093223,1.577341671669483,0.6398787429884075
1790763752884065000,11.10706494140625,17.99980915658474,2.877267500928044,-0.2746787455972284
1790763752894103000,11.11710302734375,18.073931208372116,2.8461066389888523,-0.2626719353307038
1790763752904142000,11.12714208984375,-6.489260312491655,3.3669892924576996,0.2907236522734165
1790763752914180000,11.13718017578125,-2.6957190936446187,2.7844191213607785,0.22649605824109165
1790763752924219100,11.14721923828125,-2.6804639491066333,2.778058354157209,0.2289766595430672
1790763752934258000,11.1572578125,1.8860361571803688,-0.48063949040770526,1.3179310031570493
1790763752944296200,11.167296142578126,1.966551709397137,-0.5126455709993839,1.3286068570807574
1790763752954335000,11.1773349609375,-7.458816707786918,-1.2034627663254738,0.535312781892158
1790763752964373000,11.187373046875,-6.042045537301898,-1.5314835913360119,1.9294711020201443
1790763752974412000,11.197412109375,-6.133908412963152,-1.495475289365649,1.9271245388939975
1790763752984451000,11.207451171875,16.81089981626868,-2.2864649235367773,1.9490289121881126
1790763752994488800,11.21748876953125,16.86504641699791,-2.3090122709095477,1.9721102203071117
1790763753004528000,11.227528076171875,3.029538083539903,-1.0184680179804564,1.8968720239713788
1790763753014566000,11.23756591796875,-5.437544689425826,-0.6575292582303285,1.461923732897639
1790763753024605000,11.24760498046875,-5.52748682615757,-0.6221089852809906,1.476450563161075
1790763753034643000,11.257642822265625,14.745806191837787,1.083857312735915,0.8616531430024653
1790763753044682000,11.267681884765626,14.839381132113934,1.0452408740937709,0.87938052287288
1790763753054721000,11.277720947265625,-6.594694617387652,-0.1864811875104904,0.9723878193289041
1790763753064759000,11.287759033203125,-6.271944426256418,-0.06262684430480003,0.22595924795065073
1790763753074798000,11.297798095703126,-6.204430394431948,-0.08821662811338901,0.263863172675576
1790763753084836000,11.307836181640624,-5.514762953662872,0.18260054668486117,-0.47294926469866183
1790763753094875100,11.317875244140625,-5.906180438306928,2.9073703782469034,-1.2798210527323186
1790763753104914000,11.327913818359375,2.9504361975133415,1.9746686726182698,0.8428926937572657
1790763753114952200,11.3379521484375,29.757469305717944,-2.507776601409912,1.8370025155507026
1790763753124991000,11.347990966796875,29.879176115500925,-2.5571049882024526,1.868170537883043
1790763753135029000,11.358029052734375,-9.413589424324035,0.690626641190052,-0.645849268765375
1790763753145068000,11.368068115234376,-5.426339989322424,-0.06386310810148715,-0.2890524128592573
1790763753155106000,11.37810595703125,-6.5532029155701395,0.49386897433698174,3.2912922464385628
1790763753165145000,11.38814501953125,-2.811468456327915,0.8229454458802938,2.617509480282664
1790763753175184100,11.39818408203125,11.048939048326014,-2.5916210057884452,2.797387908527255
1790763753185222100,11.40822216796875,11.156655911201238,-2.6324936989247796,2.822666434429586
1790763753195261000,11.418260986328125,-8.0313120595932,-2.545624978289008,-0.0841772621952463
1790763753205299200,11.42829931640625,-4.978562904074788,-2.1412042196869847,-0.6146363113127649
1790763753215337700,11.438337646484374,10.375209765923023,-0.3174620215952396,2.1608467855289577
1790763753225376800,11.448376708984375,10.386806680214404,-0.3222317202150822,2.1797736043170093
1790763753235414800,11.458414794921875,-3.6569904756754634,1.3331851247817277,2.2133928191937504
1790763753245453800,11.468453857421874,-3.610155074742436,1.315396370112896,2.235903195556998
1790763753255491800,11.478491943359375,-5.231624057430029,-0.7732289365530014,0.1522101576615125
1790763753265531000,11.48853076171875,-5.664485313096642,0.18288287075757978,-1.2648448712661862
1790763753275568600,11.498568603515626,-5.733973859864473,0.20905659193396567,-1.2460673978209496
1790763753285608000,11.50860791015625,1.688859680393338,1.1321136863827705,-2.4407284335315227
1790763753295647000,11.51864697265625,13.573044853246211,-0.5600853675663471,-4.279103844870627
1790763753305684700,11.528684814453126,3.576752863617241,-1.1867074463576077,-1.3480847338803112
1790763753315723800,11.538723876953124,-8.402154373720288,-0.7799813334226607,-1.058670483705029
1790763753325761800,11.54876171875,-8.444631579443811,-0.7639496515542268,-1.0622663893051445
1790763753335800800,11.55880078125,5.259952326291799,0.9840098680615424,-1.1307478779222815
1790763753345839600,11.568839599609374,18.59395695275068,-0.9209224205076694,-1.0460873348552733
1790763753355878000,11.5788779296875,0.015139993725717067,2.435537294629216,-1.5107814334385097
1790763753365916700,11.588916748046875,-7.621801868897676,0.6240852537900209,-1.449007991092652
1790763753375955000,11.598954833984376,-7.6034806147873395,0.617145225393772,-1.4506936060920357
1790763753385993700,11.60899365234375,-5.852112163510919,-0.004818798458576202,-1.739584197719395
1790763753396031700,11.61903173828125,-2.521907418093085,2.2948002056837082,-2.0141287224777042
1790763753406070800,11.62907080078125,5.80044919629097,0.7544120078802108,-1.6716732755318282
1790763753416109800,11.63910986328125,5.125843131053448,1.7606816385447979,0.0805571537356358
1790763753426147600,11.649147705078125,5.220923799717426,1.724289305692911,0.06145590539586264
1790763753436187000,11.659186767578126,-5.714725554037094,-2.5339193429261444,-1.3687274166755377
1790763753446224600,11.669224609375,-5.624844792103767,-2.5658552808910606,-1.387891551350802
1790763753456263700,11.679263671875,-6.561849747884273,-2.4810294642597435,0.6046370414763689
1790763753466303000,11.689302978515625,-5.383081862354278,-3.132620564612746,-1.2790551829263568
1790763753476340700,11.6993408203125,-5.493658206313849,-3.0926953814595937,-1.3069983979932962
1790763753486379800,11.7093798828125,3.9282457496300336,0.1852998687714338,0.3059637453727424
1790763753496417800,11.719417724609375,20.827613830685614,-3.2618852424293756,1.9532585125818847
1790763753506456800,11.729456787109376,-0.5754542016118764,1.909575730460882,0.7303490683127194
1790763753516494800,11.739494873046874,-7.594605234414338,-0.3345423357337713,-0.002598254598584026
1790763753526534000,11.749533935546875,-7.627226232033967,-0.3217161719083786,-0.01958670746888965
1790763753536572700,11.75957275390625,-3.441295760901272,1.2885329131066798,0.4725751341566443
1790763753546611000,11.76961083984375,3.2482404556974767,1.3436562499135731,-0.395288919249922
1790763753556649700,11.779649658203125,8.298582355564832,2.4930028106480835,-0.569819118334353
1790763753566687700,11.789687744140625,7.013811425340175,1.3338526487797497,-0.03511964603494853
1790763753576727000,11.79972705078125,7.126036121028661,1.2911655996978282,-0.047006044792197645
1790763753586765800,11.809765869140625,-5.568017573988437,-0.6219780523777008,0.2508342893523164
1790763753596803800,11.819803955078125,-7.209096097031235,-0.3546680089175701,1.349033997429162
1790763753606843000,11.8298427734375,-6.110180331373214,-0.40483576914370056,-0.7404530406326055
1790763753616881000,11.839880859375,-1.418876033809781,-0.4661556225031614,0.46235056766439225
1790763753626919700,11.849919677734375,12.653028441667557,-3.0357588577508925,1.6754370119795203
1790763753636958000,11.8599580078125,7.50907273081839,0.0013929156631231306,0.389664065105468
1790763753646996700,11.869996826171874,-1.2082581839084625,1.605288832259178,-0.5648554680449888
1790763753657035800,11.880035888671875,2.6211177339076994,1.6504565922409296,-0.11149376933174207
1790763753667073800,11.89007373046875,7.5058724734723565,1.5889508609205483,0.5336295049803331
1790763753677112800,11.90011279296875,1.7859329841792582,1.933914052903652,0.7161578997444361
1790763753687150600,11.910150634765625,-3.471919739484787,1.485447231826186,0.9914147374905645
1790763753697190000,11.92018994140625,-4.533569019804895,-1.9854133539944887,0.012866386237926781
1790763753707229000,11.93022900390625,-7.4155994973510495,0.06600245821774005,0.675326926857978
1790763753717266700,11.9402666015625,-3.9568417295172806,-0.7165496024757623,-0.11192205948010087
1790763753727306000,11.950305908203125,-5.148788537833094,-3.061996291813254,-1.7640806333333252
1790763753737343700,11.96034375,-6.207237853068113,2.4117349787592888,0.1465648635172285
1790763753747382800,11.9703828125,-1.6486922129169106,0.7429027718722819,0.7402834562193602
1790763753757420800,11.9804208984375,-1.7157544093206525,0.7698322798520326,0.7392849467013031
1790763753767459800,11.9904599609375,7.282858667856455,-0.7332675130426883,1.9367571673750876
1790763753777498600,12.00049853515625,-9.31011034514904,-0.9309761970102787,0.3925005671730265
1790763753787537000,12.010536865234375,-6.241259365135431,-2.40319043777585,-0.4098135575562715
1790763753797575700,12.02057568359375,-7.2204305609941475,2.355373624590039,-0.09009931832114235
1790763753807614000,12.030614013671874,-4.580919384522736,0.8258002507895231,-0.5702352613871917
1790763753817652700,12.04065283203125,14.40485691167116,1.1176017614275215,3.1616078819051383
1790763753827691800,12.05069189453125,14.477003279471397,1.0873685357272624,3.1936154238015413
1790763753837729800,12.060729736328126,-5.73714898276925,1.02431732853055,0.7822913639307022
1790763753847768800,12.070768798828125,-6.53300476167202,-2.298181664815545,-0.324251827865839
1790763753857806600,12.080806640625,-6.44868747908473,-2.328932192388177,-0.31666210338920353
1790763753867846000,12.090845947265626,-7.098778696268797,-2.1934330040961503,0.6530570812523364
1790763753877885000,12.100885009765625,-6.131335347604751,-1.3258669107228516,-1.2642502663739026
1790763753887922700,12.110922607421875,-2.4577274991273876,-1.3120266014188526,1.6722019755810498
1790763753897961700,12.120961669921876,23.214392062842844,-3.349404535928368,4.389661776390671
1790763753907999700,12.130999755859374,17.118967402052878,0.7333902626395226,1.8085808693170546
1790763753918038800,12.141038818359375,17.205474303638933,0.698726361015439,1.833567426535487
1790763753928076800,12.151076904296875,-4.227955256913602,-1.9274276134938,0.18261859379820525
1790763753938115800,12.16111572265625,-3.7285473531499504,-2.325351411291957,0.33777539937086404
1790763753948154600,12.171154541015625,-5.642614257550239,-3.002922171553969,0.9450201391275972
1790763753958193000,12.18119287109375,-4.7123242892384525,-3.3608740244477984,-1.4776675377354025
1790763753968231700,12.191231689453126,-8.539769531252979,2.448791912999749,-1.707192917202413
1790763753978269700,12.201269775390625,-7.140593054169416,4.789080781182647,1.031052920395881
1790763753988309000,12.21130908203125,37.17202893862724,3.7891520439773796,6.743948774787783
1790763753998346800,12.2213466796875,36.46178106664419,6.404539125278592,-0.26571106556458396
1790763754008385800,12.2313857421875,36.78673548982143,6.272397430720925,-0.236649678388983
1790763754018424800,12.2414248046875,-8.407768121948838,6.574405862596631,2.7526059329926964
1790763754028462800,12.251462890625,-9.417924238657951,0.12730360687673092,0.33355420147925613
1790763754038501600,12.261501708984374,-4.458911253705621,2.3488953684866427,0.39333683533407743
1790763754048540000,12.271539794921875,-3.6160634220033883,-5.525544459918141,-2.9017718275874853
1790763754058578700,12.28157861328125,-8.499834411227702,2.2061837645977733,-0.632250147806108
1790763754068617700,12.29161767578125,-5.912014551287889,0.4810205986797809,1.838416327871382
1790763754078655700,12.30165576171875,-3.479834165871143,-6.098368313026428,-0.40851694187447424
1790763754088694800,12.31169482421875,-3.7805490508049724,-0.6968745956689119,0.5770029288912192
1790763754098732800,12.32173291015625,-3.6461043400019406,-2.034631266149878,0.09021057840958237
1790763754108771800,12.331771728515625,-3.7225118723779915,-2.0167197618842123,0.08797109238710255
1790763754118811000,12.341810791015625,-4.011141182720661,-3.1500966000705954,-1.0051427455265074
1790763754128849000,12.351848876953126,-3.115876935082674,-1.0796697979182004,0.9175585700977593
1790763754138888000,12.361887939453124,-2.8007740438342092,-2.5055735384076834,1.1439128452479839
1790763754148925700,12.37192578125,-2.9277766219377517,-1.3864981972962618,1.4007282365702092
1790763754158965000,12.381965087890626,-2.8947695476099846,-0.8923650190651417,1.1795075979813934
1790763754169002800,12.392002685546874,-2.6978084671393034,-0.42956747481822966,0.8869377333194017
1790763754179041800,12.402041748046875,23.546664700078964,-1.7032979555904864,0.616059768244624
1790763754189080800,12.412080810546875,27.17867797088623,-0.6253448984622955,0.12858630363103002
1790763754199118800,12.422118896484376,-3.2023452582240104,3.931404798182845,1.0110362605445087
1790763754209157600,12.43215771484375,-4.479515065795183,0.38927871904969213,-0.537227931331098
1790763754219195400,12.4421953125,-3.588506722036004,-0.43842590405642984,-0.7237010816656053
1790763754229234400,12.452234375,-5.233170702350139,1.4974287615209818,-0.7463995279468596
1790763754239273200,12.462273193359374,-4.792625906443596,-0.38405017074644565,-1.730396244265884
1790763754249311500,12.4723115234375,-4.796667875310779,-0.38296880525052546,-1.7357210925504565
1790763754259350300,12.482350341796876,-5.441590165424347,0.8893103076696396,-0.1210597075184807
1790763754269388500,12.492388427734374,-4.07448786573261,1.4990531478524207,-1.6454355492085218
1790763754279427300,12.50242724609375,-0.3744406308799982,0.3675421035379171,-0.2145689986798912
1790763754289465300,12.51246533203125,18.273674028515813,-2.6834412113517523,-1.2877454159907995
1790763754299504400,12.52250439453125,7.834971156847477,1.9195301382422445,-2.3843311312660576
1790763754309543400,12.53254345703125,7.924322341948747,1.88382403408885,-2.4049311439633367
1790763754319581200,12.542581298828125,-4.98344424637556,-3.1248937697529793,-0.6088150578133762
1790763754329620500,12.552620361328126,-5.291173978507518,0.5289981553852557,-1.328896779938042
1790763754339658500,12.562658447265624,-3.6666909086957573,1.5817793618559837,-1.7025798704490065
1790763754349697300,12.572697265625,10.533850175827741,-2.019032715001702,-0.010137655393779277
1790763754359736300,12.582736328125,10.563291374367475,-2.031144008556008,-0.01995232591088861
1790763754369774300,12.5927744140625,-5.883259581446647,2.583618316596746,-1.7049704188473522
1790763754379813400,12.6028134765625,-3.4426989056974646,-0.9261322641104459,-1.6615331359200178
1790763754389851400,12.612851318359375,-4.715359126889705,0.8261918804556131,-1.651665675769746
