time,seconds_elapsed,z,y,x
1790958008719063600,0.0440634765625,0.07345424592494965,-0.2399928867816925,-0.44647708535194397
1790958008729075700,0.05407568359375,0.11928431689739227,-0.35178759694099426,-0.4093065559864044
1790958008739087600,0.064087646484375,0.1588149517774582,-0.4655192196369171,-0.33535510301589966
1790958008749099500,0.074099609375,0.18226860463619232,-0.5947086215019226,-0.25376808643341064
1790958008759111700,0.084111572265625,0.19215986132621765,-0.706835150718689,-0.19246451556682587
1790958008769123600,0.09412353515625,0.19033852219581604,-0.7706482410430908,-0.15278582274913788
1790958008779135700,0.1041357421875,0.10690248012542725,-0.9918125867843628,-0.13236762583255768
1790958008789147600,0.114147705078125,0.003099120454862714,-1.224388837814331,-0.04986529424786568
1790958008799159600,0.12415966796875,0.0757560133934021,-1.0710397958755493,0.13260917365550995
1790958008809171700,0.134171630859375,0.14242878556251526,-0.9882341027259827,0.24159877002239227
1790958008819183600,0.14418359375,0.16631947457790375,-1.0790393352508545,0.2700751721858978
1790958008829196800,0.15419677734375,0.1661548912525177,-1.2281359434127808,0.2695470452308655
1790958008839208700,0.164208740234375,0.17622269690036774,-1.2514595985412598,0.2673209309577942
1790958008849220600,0.174220703125,0.1655128002166748,-1.1498475074768066,0.24949558079242706
1790958008859232800,0.184232666015625,0.10401587933301926,-0.9725238084793091,0.22201068699359894
1790958008869244700,0.19424462890625,-0.003896737238392234,-0.8067761659622192,0.21271492540836334
1790958008879256600,0.204256591796875,-0.11461979150772095,-0.6580644249916077,0.22109003365039825
1790958008889268700,0.214268798828125,-0.20168118178844452,-0.5253263711929321,0.23513102531433105
1790958008899280600,0.22428076171875,-0.24138465523719788,-0.3944559693336487,0.2487405687570572
1790958008909292800,0.234292724609375,-0.21076469123363495,-0.28421759605407715,0.25110679864883423
1790958008919304700,0.2443046875,-0.23464685678482056,-0.29060015082359314,0.23275361955165863
1790958008929316600,0.254316650390625,-0.21081823110580444,-0.30607524514198303,0.21632058918476105
1790958008939328800,0.264328857421875,-0.18130986392498016,-0.2725018262863159,0.1681799590587616
1790958008949340700,0.274340576171875,-0.16403980553150177,-0.09599896520376205,0.09705491364002228
1790958008959352600,0.2843525390625,-0.19848087430000305,0.103848896920681,0.04283827915787697
1790958008969364700,0.29436474609375,-0.2869976758956909,0.26257967948913574,0.03531218320131302
1790958008979376600,0.304376708984375,-0.3694286346435547,0.3649337589740753,0.08025329560041428
1790958008989388800,0.314388916015625,-0.3842832148075104,0.4166845679283142,0.14639422297477722
1790958008999400700,0.324400634765625,-0.3843034505844116,0.37351474165916443,0.203211709856987
1790958009009412600,0.33441259765625,-0.3897717297077179,0.2858456075191498,0.22567041218280792
1790958009019424800,0.3444248046875,-0.3711783289909363,0.2565111517906189,0.2174803912639618
1790958009029436700,0.354436767578125,-0.30948567390441895,0.30878180265426636,0.1618613302707672
1790958009039448600,0.364448486328125,-0.22001305222511292,0.42713749408721924,0.06300293654203415
1790958009049460700,0.374460693359375,-0.15303029119968414,0.5235643982887268,-0.021986259147524834
1790958009059473400,0.384473388671875,-0.13175030052661896,0.48339197039604187,-0.06974339485168457
1790958009069485600,0.394485595703125,-0.12346015125513077,0.4055488407611847,-0.04540982469916344
1790958009079497500,0.40449755859375,-0.1203778088092804,0.33234652876853943,0.014050038531422615
1790958009089509400,0.41450927734375,-0.1476088911294937,0.2538661062717438,0.05432955175638199
1790958009099521500,0.424521484375,-0.16252979636192322,0.19375988841056824,0.08563394099473953
1790958009109533400,0.434533447265625,-0.13641776144504547,0.17272330820560455,0.10078360140323639
1790958009119545600,0.444545654296875,-0.08616417646408081,0.18580262362957,0.06278801709413528
1790958009129557500,0.4545576171875,-0.04448384419083595,0.14601686596870422,0.007035272661596537
1790958009139569400,0.4645693359375,-0.008580705150961876,0.06962434947490692,-0.02382011152803898
1790958009149581600,0.47458154296875,0.03398992493748665,-0.02178172767162323,-0.033613886684179306
1790958009159593500,0.484593505859375,0.06208467483520508,-0.11222294718027115,-0.03846403583884239
1790958009169605400,0.49460546875,0.06463811546564102,-0.17163780331611633,-0.027901671826839447
1790958009179617500,0.504617431640625,0.07647320628166199,-0.20561520755290985,-0.004821919370442629
1790958009189629400,0.51462939453125,0.0878227949142456,-0.2367619425058365,0.007337008602917194
1790958009199641600,0.5246416015625,0.10031834989786148,-0.24177108705043793,-0.003850398352369666
1790958009209653500,0.534653564453125,0.1035572811961174,-0.2382786124944687,-0.02569018304347992
1790958009219665400,0.54466552734375,0.09217572957277298,-0.21227364242076874,-0.028358669951558113
1790958009229677600,0.554677490234375,0.08016940206289291,-0.138153076171875,-0.015802131965756416
1790958009239689500,0.564689453125,0.07499488443136215,0.0049614692106842995,-0.004055994097143412
1790958009249701400,0.574701416015625,0.08062240481376648,0.23567670583724976,-0.005604356061667204
1790958009259713500,0.584713623046875,0.1038462370634079,0.5909942984580994,-0.04735260084271431
1790958009269725400,0.594725341796875,0.14115099608898163,0.8192203044891357,-0.1367916762828827
1790958009279738600,0.604738525390625,0.2035406082868576,0.8614684343338013,-0.2238602638244629
1790958009289750500,0.61475048828125,0.2377510368824005,0.7327613234519958,-0.26883333921432495
1790958009299762400,0.624762451171875,0.2538391947746277,0.5205984711647034,-0.2535414695739746
1790958009309774600,0.634774658203125,0.26460501551628113,0.32604628801345825,-0.17950797080993652
1790958009319786500,0.644786376953125,0.24451573193073273,0.1635495126247406,-0.09374087303876877
1790958009329798700,0.654798583984375,0.19786274433135986,0.035843752324581146,-0.015500130131840706
1790958009339810600,0.664810546875,0.15525244176387787,-0.011578358709812164,0.055986303836107254
1790958009349822500,0.674822509765625,0.11700624972581863,-0.012341887690126896,0.11169164627790451
1790958009359834600,0.684834716796875,0.07293465733528137,0.0022684806026518345,0.14672152698040009
1790958009369846500,0.694846435546875,0.04151122272014618,0.03175579756498337,0.16100646555423737
1790958009379858400,0.7048583984375,0.028145350515842438,0.08344802260398865,0.14990746974945068
1790958009389870600,0.71487060546875,0.03574148565530777,0.15009762346744537,0.11218965798616409
1790958009399882500,0.724882568359375,0.05403180792927742,0.21391095221042633,0.06030728295445442
1790958009409894700,0.734894775390625,0.06668688356876373,0.2401537448167801,0.019809391349554062
1790958009419906600,0.744906494140625,0.08073905110359192,0.2268667072057724,0.0049436260014772415
1790958009429918500,0.75491845703125,0.09374859929084778,0.19693782925605774,0.016621854156255722
1790958009439930600,0.7649306640625,0.09742908179759979,0.16562917828559875,0.03550100326538086
1790958009449942500,0.774942626953125,0.09194137156009674,0.13667289912700653,0.06006120517849922
1790958009459954400,0.784954345703125,0.08279421925544739,0.1390465646982193,0.07787242531776428
1790958009469966600,0.794966552734375,0.06780567765235901,0.15621596574783325,0.08008338510990143
1790958009479979500,0.8049794921875,0.047625843435525894,0.18370698392391205,0.07302626967430115
1790958009489991700,0.81499169921875,0.027055319398641586,0.22716844081878662,0.06637875735759735
1790958009500003600,0.825003662109375,0.009307481348514557,0.2847878038883209,0.06317417323589325
1790958009510015500,0.835015380859375,-0.005250421818345785,0.33974531292915344,0.054000649601221085
1790958009520027600,0.845027587890625,-0.004975051153451204,0.37559065222740173,0.032758213579654694
1790958009530039600,0.85503955078125,0.004366252571344376,0.38745370507240295,-0.003198456484824419
1790958009540051700,0.8650517578125,0.019334549084305763,0.3716484010219574,-0.03706720843911171
1790958009550063600,0.875063720703125,0.025735456496477127,0.3161957859992981,-0.05083175376057625
1790958009560075500,0.885075439453125,0.023436084389686584,0.24893471598625183,-0.03843953460454941
1790958009570087700,0.895087646484375,0.018918562680482864,0.1866319328546524,-0.014490525238215923
1790958009580099600,0.905099609375,0.011788216419517994,0.14317020773887634,-0.001785116852261126
1790958009590111500,0.915111572265625,0.008389756083488464,0.12811589241027832,-0.0036075180396437645
1790958009600123600,0.92512353515625,0.013760819099843502,0.13447950780391693,-0.012117116712033749
1790958009610135600,0.935135498046875,0.023722106590867043,0.1470206081867218,-0.029447104781866074
1790958009620147500,0.9451474609375,0.033007483929395676,0.1558109074831009,-0.05422568693757057
1790958009630159600,0.95515966796875,0.04086833819746971,0.16301821172237396,-0.07895686477422714
1790958009640171500,0.965171630859375,0.04869723320007324,0.15462926030158997,-0.08994986116886139
1790958009650183700,0.97518359375,0.051425375044345856,0.12299623340368271,-0.08402778953313828
1790958009660195600,0.985195556640625,0.05378253757953644,0.0923570916056633,-0.06238801032304764
1790958009670207500,0.99520751953125,0.05608084425330162,0.07722873985767365,-0.04241110756993294
1790958009680219600,1.0052197265625,0.05429359897971153,0.09365139156579971,-0.03645148500800133
1790958009690231600,1.0152314453125,0.05199209600687027,0.16187971830368042,-0.034022681415081024
1790958009700244700,1.02524462890625,0.045276667922735214,0.2588707208633423,-0.04626123979687691
1790958009710256600,1.035256591796875,0.03225753828883171,0.37341779470443726,-0.07224436849355698
1790958009720268500,1.0452685546875,0.024405207484960556,0.520786464214325,-0.10748251527547836
1790958009730280700,1.05528076171875,0.022189991548657417,0.6852198839187622,-0.161241352558136
1790958009740292600,1.065292724609375,0.013483584858477116,0.7721758484840393,-0.2151690274477005
1790958009750304500,1.075304443359375,-0.013489443808794022,0.7766600847244263,-0.2509787082672119
1790958009760316700,1.085316650390625,-0.08570078760385513,0.6822443604469299,-0.23595793545246124
1790958009770328600,1.09532861328125,-0.08779057115316391,0.613878607749939,-0.1683642417192459
1790958009780340700,1.1053408203125,-0.05643531307578087,0.5023387670516968,-0.11877964437007904
1790958009790352600,1.1153525390625,-0.02720285952091217,0.34163856506347656,-0.10265740007162094
1790958009800364500,1.125364501953125,-0.008627843111753464,0.2321147322654724,-0.09653639048337936
1790958009810376700,1.135376708984375,0.006191849708557129,0.20998013019561768,-0.09141646325588226
1790958009820388600,1.145388671875,0.012195147573947906,0.1965641975402832,-0.09355072677135468
1790958009830400500,1.155400390625,0.025022262707352638,0.1623886376619339,-0.09627540409564972
1790958009840412700,1.16541259765625,0.03874420002102852,0.11590156704187393,-0.10643962025642395
1790958009850424600,1.175424560546875,0.04862319678068161,0.07133809477090836,-0.10909399390220642
1790958009860436700,1.185436767578125,0.04008936136960983,0.019085809588432312,-0.09163058549165726
1790958009870448600,1.19544873046875,0.03098641149699688,0.01395975798368454,-0.05211646482348442
1790958009880460500,1.20546044921875,0.023733824491500854,0.03217151761054993,-0.011440673843026161
1790958009890473700,1.2154736328125,0.01341673918068409,0.039503999054431915,0.017369136214256287
1790958009900485600,1.225485595703125,0.009576461277902126,0.004466653801500797,0.03670714795589447
1790958009910497800,1.235497802734375,0.010576211847364902,-0.013079849071800709,0.04914490878582001
1790958009920509700,1.245509765625,0.014633004553616047,0.004856273997575045,0.0518682561814785
1790958009930521600,1.255521484375,0.014943529851734638,0.037878405302762985,0.04833104833960533
1790958009940533800,1.26553369140625,0.01215653121471405,0.04818776994943619,0.04369794577360153
1790958009950545700,1.275545654296875,0.0184093676507473,0.04328462481498718,0.039748210459947586
1790958009960557600,1.2855576171875,0.019302058964967728,0.039677370339632034,0.0367465615272522
1790958009970569700,1.29556982421875,0.008499212563037872,0.03532043844461441,0.03699690103530884
1790958009980581600,1.30558154296875,0.012601013295352459,0.04778057336807251,0.04519011452794075
1790958009990593800,1.31559375,0.03139067813754082,0.05122910067439079,0.04975370690226555
1790958010000605700,1.325605712890625,0.04426759481430054,0.02209385111927986,0.04813024401664734
1790958010010617600,1.33561767578125,0.042693134397268295,-0.00020532972121145576,0.04465002566576004
1790958010020629800,1.345629638671875,0.03363625705242157,0.03317632898688316,0.0471869520843029
1790958010030641700,1.3556416015625,-0.011749866418540478,0.16089913249015808,0.06343063712120056
1790958010040653600,1.365653564453125,-0.03184075281023979,0.03744084760546684,0.05703612044453621
1790958010050665700,1.375665771484375,-0.00848722830414772,-0.16786250472068787,0.09223485738039017
1790958010060677600,1.385677734375,0.028130438178777695,-0.2772473096847534,0.11793302744626999
1790958010070689800,1.395689697265625,0.02353515289723873,-0.3372768461704254,0.10390748828649521
1790958010080701700,1.40570166015625,-0.0013025520602241158,-0.3506099581718445,0.09922166168689728
1790958010090714400,1.41571435546875,-0.021649634465575218,-0.24313275516033173,0.09697315096855164
1790958010100726500,1.4257265625,-0.05285122990608215,-0.09990902245044708,0.07010931521654129
1790958010110738400,1.435738525390625,-0.06161303073167801,-0.025125859305262566,0.029164010658860207
1790958010120750600,1.44575048828125,-0.038535408675670624,-0.05084560438990593,-0.012927250005304813
1790958010130762500,1.455762451171875,-0.0005201153689995408,-0.15751026570796967,-0.049679405987262726
1790958010140774400,1.4657744140625,0.04488704726099968,-0.29246196150779724,-0.061223410069942474
1790958010150786600,1.47578662109375,0.07719279080629349,-0.36742380261421204,-0.053458962589502335
1790958010160798500,1.485798583984375,0.07935607433319092,-0.38993579149246216,-0.045351237058639526
1790958010170810400,1.495810302734375,0.05681747570633888,-0.3615241050720215,-0.028792500495910645
1790958010180822500,1.505822509765625,0.02346191555261612,-0.3296085298061371,0.007510113995522261
1790958010190834400,1.51583447265625,-0.005770004820078611,-0.3179260492324829,0.04595151171088219
1790958010200846600,1.5258466796875,-0.034570228308439255,-0.3012669086456299,0.07766949385404587
1790958010210858500,1.5358583984375,-0.060329120606184006,-0.2803126275539398,0.08687018603086472
1790958010220870400,1.545870361328125,-0.07367102801799774,-0.24627982079982758,0.0758015513420105
1790958010230882600,1.555882568359375,-0.06445489078760147,-0.22081387042999268,0.05478015914559364
1790958010240894500,1.56589453125,-0.03207697719335556,-0.2378985732793808,0.03538808599114418
1790958010250906400,1.57590625,-0.002304965863004327,-0.2573851943016052,0.023239275440573692
1790958010260918500,1.58591845703125,0.017241304740309715,-0.2507307529449463,0.018081799149513245
1790958010270931500,1.595931396484375,0.016148343682289124,-0.2316441535949707,0.021812621504068375
1790958010280943600,1.605943603515625,-0.011197260580956936,-0.22643926739692688,0.03235367685556412
1790958010290955500,1.61595556640625,-0.03435664251446724,-0.22548851370811462,0.04727803170681
1790958010300967400,1.625967529296875,-0.046483878046274185,-0.2276344895362854,0.0550435446202755
1790958010310979600,1.6359794921875,-0.04825647920370102,-0.22319206595420837,0.056290969252586365
1790958010320991500,1.645991455078125,-0.04981176555156708,-0.20380665361881256,0.05049460008740425
1790958010331003600,1.656003662109375,-0.05818713828921318,-0.18114101886749268,0.041254229843616486
1790958010341015600,1.666015625,-0.07319112122058868,-0.23211951553821564,0.04218313843011856
1790958010351027500,1.67602734375,-0.087943434715271,-0.30239900946617126,0.07637413591146469
1790958010361039600,1.68603955078125,-0.09139382839202881,-0.31590843200683594,0.13174258172512054
1790958010371051500,1.696051513671875,-0.10334982722997665,-0.28443172574043274,0.16710536181926727
1790958010381063400,1.7060634765625,-0.12366947531700134,-0.25971412658691406,0.1702074110507965
1790958010391075600,1.71607568359375,-0.12932176887989044,-0.2552996873855591,0.16795092821121216
1790958010401087500,1.72608740234375,-0.1446397453546524,-0.2921202778816223,0.16306455433368683
1790958010411099600,1.736099609375,-0.1910248100757599,-0.3652951419353485,0.16739459335803986
1790958010421111600,1.746111572265625,-0.2225601077079773,-0.47606825828552246,0.19097287952899933
1790958010431124500,1.75612451171875,-0.2303200215101242,-0.5407724380493164,0.22371885180473328
1790958010441136600,1.76613671875,-0.24064509570598602,-0.552165150642395,0.23608443140983582
1790958010451148500,1.7761484375,-0.26103851199150085,-0.5169270038604736,0.2778755724430084
1790958010461160700,1.78616064453125,-0.30176571011543274,-0.4148549735546112,0.347028523683548
1790958010471172600,1.796172607421875,-0.34476110339164734,-0.317064493894577,0.3902236819267273
1790958010481184500,1.8061845703125,-0.35825082659721375,-0.2575055658817291,0.38120460510253906
1790958010491196700,1.81619677734375,-0.3191896975040436,-0.2354426085948944,0.33612075448036194
1790958010501208600,1.82620849609375,-0.26532992720603943,-0.20872338116168976,0.27918583154678345
1790958010511220500,1.836220458984375,-0.21000702679157257,-0.156345933675766,0.22426186501979828
1790958010521232600,1.846232666015625,-0.15400607883930206,-0.07973877340555191,0.1612999439239502
1790958010531244500,1.85624462890625,-0.11684432625770569,-0.06696012616157532,0.10850650072097778
1790958010541256700,1.866256591796875,-0.09921766072511673,-0.13024349510669708,0.08200565725564957
1790958010551268600,1.8762685546875,-0.0780002623796463,-0.19310128688812256,0.07532085478305817
1790958010561280500,1.886280517578125,-0.06079437583684921,-0.2364966869354248,0.06694334745407104
1790958010571292700,1.896292724609375,-0.037463486194610596,-0.2638801038265228,0.04566042870283127
1790958010581304600,1.9063046875,-0.01227557472884655,-0.24180437624454498,0.018629610538482666
1790958010591316500,1.91631640625,0.012399411760270596,-0.21328963339328766,-0.004613393917679787
1790958010601328600,1.92632861328125,0.029863357543945312,-0.24365340173244476,-0.020964404568076134
1790958010611341600,1.936341552734375,0.020426178351044655,-0.2939314842224121,-0.003232811111956835
1790958010621353000,1.94635302734375,0.002697782125324011,-0.33169084787368774,0.032949961721897125
1790958010631364900,1.95636474609375,-0.006451507564634085,-0.3404955267906189,0.049361422657966614
1790958010641377000,1.966376953125,0.004989964887499809,-0.3315254747867584,0.03832928091287613
1790958010651389000,1.976388916015625,0.028301412239670753,-0.2783120572566986,0.00009028115891851485
1790958010661401000,1.986401123046875,0.06396646797657013,-0.1783931702375412,-0.04946475476026535
1790958010671413000,1.9964130859375,0.09540534764528275,-0.028924059122800827,-0.06119118630886078
1790958010681425000,2.0064248046875,0.09214483946561813,0.08341792970895767,-0.014784539118409157
1790958010691437000,2.01643701171875,0.062427159398794174,0.12478187680244446,0.05580201372504234
1790958010701449000,2.026448974609375,0.028439629822969437,0.12437281757593155,0.10598529130220413
1790958010711460900,2.0364609375,0.005054146982729435,0.10852114856243134,0.11494708806276321
1790958010721473000,2.04647314453125,0.00017789915727917105,0.09338880330324173,0.08437933027744293
1790958010731485000,2.05648486328125,0.005902630276978016,0.12011495232582092,0.04830654710531235
1790958010741497000,2.0664970703125,0.015246064402163029,0.14753539860248566,0.025527464225888252
1790958010751509000,2.076509033203125,0.019824305549263954,0.16062723100185394,0.022953785955905914
1790958010761521000,2.08652099609375,0.05070791766047478,0.1609627902507782,0.022302109748125076
1790958010771534000,2.0965341796875,0.05866757407784462,0.11098404228687286,0.015934225171804428
1790958010781546000,2.1065458984375,0.05830352008342743,0.04213973134756088,0.009416937828063965
1790958010791558100,2.11655810546875,0.057017479091882706,-0.036914341151714325,-0.007787082809954882
1790958010801570000,2.126570068359375,0.06234193593263626,-0.07964156568050385,-0.028586370870471
1790958010811582000,2.13658203125,0.0737471878528595,-0.11994611471891403,-0.052741773426532745
1790958010821594000,2.146593994140625,0.0872531458735466,-0.17534253001213074,-0.06436993181705475
1790958010831606000,2.15660595703125,0.08875836431980133,-0.2615261375904083,-0.05444246903061867
1790958010841618000,2.166617919921875,-0.011453190818428993,-0.4019594192504883,-0.031371504068374634
1790958010851630000,2.176630126953125,-0.12196291983127594,-0.5584747195243835,0.09502638131380081
1790958010861642000,2.18664208984375,-0.30325016379356384,-0.6371418237686157,0.2201067954301834
1790958010871654100,2.196654052734375,-0.5361470580101013,-0.632863461971283,0.40077751874923706
1790958010881666000,2.206666015625,-0.7485173940658569,-0.5537252426147461,0.6016137003898621
1790958010891678000,2.216677978515625,-0.9490219950675964,-0.3857961595058441,0.7302544713020325
1790958010901690000,2.226690185546875,-1.0775775909423828,-0.108741395175457,0.7954891324043274
1790958010911702000,2.236701904296875,-1.2893364429473877,0.310452401638031,0.8136383295059204
1790958010921714000,2.2467138671875,-1.3374003171920776,0.8466079831123352,0.7954750061035156
1790958010931726800,2.256726806640625,-1.1788841485977173,1.1504755020141602,0.6598325371742249
1790958010941738800,2.26673876953125,-0.8994954228401184,0.8997942209243774,0.41906675696372986
1790958010951751000,2.2767509765625,-0.6982587575912476,0.3661481738090515,0.10615094006061554
1790958010961762800,2.2867626953125,-0.5648303627967834,-0.3441866636276245,-0.0828823670744896
1790958010971774700,2.296774658203125,-0.41397586464881897,-0.829587996006012,-0.16336949169635773
1790958010981787000,2.306786865234375,-0.23949460685253143,-1.0216341018676758,-0.13463051617145538
1790958010991798800,2.316798828125,-0.093844473361969,-0.9796874523162842,-0.07944235950708389
1790958011001811000,2.32681103515625,-0.0899309515953064,-0.4227195680141449,0.021464811637997627
1790958011011822800,2.33682275390625,-0.1566748321056366,0.14952370524406433,0.2113356739282608
1790958011021834800,2.346834716796875,-0.2561492323875427,0.36314013600349426,0.38911446928977966
1790958011031847000,2.356846923828125,-0.38278892636299133,0.489470899105072,0.45481863617897034
1790958011041858800,2.36685888671875,-0.5168308615684509,0.8776606917381287,0.47748002409935
1790958011051870700,2.37687060546875,-0.6980587244033813,1.5556093454360962,0.4554860293865204
1790958011061883000,2.3868828125,-0.9319508671760559,2.0589771270751953,0.41700735688209534
1790958011071894800,2.396894775390625,-1.179868221282959,2.059258460998535,0.3902425765991211
1790958011081907000,2.406906982421875,-1.3672047853469849,1.1320301294326782,0.23216532170772552
1790958011091918800,2.4169189453125,-1.4930826425552368,0.22748109698295593,0.19743584096431732
1790958011101932000,2.42693212890625,-1.579602599143982,-0.28215551376342773,0.25505173206329346
1790958011111944000,2.43694384765625,-1.7283177375793457,-0.477110356092453,0.2987792491912842
1790958011121955800,2.446955810546875,-1.7998566627502441,0.07926046848297119,0.28600460290908813
1790958011131968000,2.456968017578125,-1.5722697973251343,0.04378795996308327,0.3300466239452362
1790958011141980000,2.46697998046875,-1.0594571828842163,-0.41756686568260193,0.4419052302837372
1790958011151991800,2.47699169921875,-0.4328651428222656,-1.0323903560638428,0.574800968170166
1790958011162004000,2.48700390625,-0.1134173721075058,-1.1271350383758545,0.6561552286148071
1790958011172015900,2.497015869140625,-0.028720328584313393,-1.091990351676941,0.8927856087684631
1790958011182027800,2.50702783203125,-0.11071453243494034,-1.0340948104858398,1.1494323015213013
1790958011192040000,2.5170400390625,-0.25504961609840393,-1.14804208278656,1.4835748672485352
1790958011202051800,2.5270517578125,-0.39018532633781433,-1.5612685680389404,1.9267849922180176
1790958011212064000,2.53706396484375,-0.4872492849826813,-1.9778093099594116,2.3525900840759277
1790958011222076000,2.547075927734375,-0.5397766828536987,-2.1813955307006836,2.640770196914673
1790958011232087800,2.557087890625,-0.5407343506813049,-1.9969366788864136,2.7597272396087646
1790958011242100000,2.567099853515625,-0.4920789301395416,-1.5419939756393433,2.7875430583953857
1790958011252112000,2.57711181640625,-0.4009338319301605,-1.0161653757095337,2.7910428047180176
1790958011262123800,2.587123779296875,-0.3406422734260559,-0.5155072808265686,2.747864246368408
1790958011272137000,2.597136962890625,-0.3830728232860565,-0.13773763179779053,2.5786452293395996
1790958011282148900,2.60714892578125,-0.4886559545993805,0.0731346607208252,2.260777235031128
1790958011292161000,2.6171611328125,-0.5462439060211182,0.16109994053840637,1.8419098854064941
1790958011302173000,2.6271728515625,-0.5060821175575256,0.23344764113426208,1.3938857316970825
1790958011312185000,2.63718505859375,-0.40048402547836304,0.3321206867694855,0.9823764562606812
1790958011322197000,2.647197021484375,-0.2276581972837448,0.43644654750823975,0.6833948493003845
1790958011332209000,2.657208984375,-0.009208411909639835,0.3665505647659302,0.5603829026222229
1790958011342221000,2.667220947265625,0.22744354605674744,0.13767051696777344,0.6065825819969177
1790958011352233000,2.67723291015625,0.4174875020980835,-0.03051476553082466,0.7237414717674255
1790958011362244900,2.687244873046875,0.511371374130249,-0.03447036072611809,0.8527742624282837
1790958011372257000,2.697257080078125,0.4911113977432251,0.07592432200908661,0.997106671333313
1790958011382269000,2.70726904296875,0.3779832422733307,0.21942077577114105,1.0790166854858398
1790958011392280800,2.71728076171875,0.2776358723640442,0.28615427017211914,1.039541482925415
1790958011402293000,2.72729296875,0.2754930853843689,0.24695172905921936,0.9165353775024414
1790958011412305000,2.737304931640625,0.3590202033519745,0.21033300459384918,0.7598808407783508
1790958011422317000,2.747317138671875,0.3893088698387146,0.2698115110397339,0.5339614152908325
1790958011432329000,2.757328857421875,0.31833696365356445,0.2979179620742798,0.27968597412109375
1790958011442342100,2.767342041015625,0.1690675914287567,0.2832365036010742,0.06483785063028336
1790958011452354000,2.77735400390625,-0.007234210614115,0.3295089304447174,-0.07063182443380356
1790958011462366000,2.787365966796875,-0.13611656427383423,0.4672534763813019,-0.09747862070798874
1790958011472378000,2.797378173828125,-0.20058795809745789,0.5836461186408997,-0.04444682598114014
1790958011482390000,2.80739013671875,-0.23219382762908936,0.6396574378013611,0.03502855822443962
1790958011492402000,2.81740185546875,-0.24634718894958496,0.6375812888145447,0.12465164810419083
1790958011502414000,2.8274140625,-0.23909273743629456,0.5796444416046143,0.24552294611930847
1790958011512426000,2.837426025390625,-0.24565796554088593,0.5425218343734741,0.36512044072151184
1790958011522438100,2.847438232421875,-0.2754334509372711,0.5256158709526062,0.450285404920578
1790958011532450000,2.857449951171875,-0.2607303857803345,0.5189502239227295,0.45474541187286377
1790958011542462000,2.8674619140625,-0.13471120595932007,0.6210190653800964,0.35856056213378906
1790958011552474000,2.87747412109375,0.09406711161136627,0.80037522315979,0.2008281797170639
1790958011562486000,2.887486083984375,0.336039274930954,0.8548025488853455,0.07464227825403214
1790958011572498000,2.897497802734375,0.47867551445961,0.7529786825180054,0.01679655723273754
1790958011582510000,2.907510009765625,0.4723132252693176,0.6003140807151794,0.004761732183396816
1790958011592522000,2.91752197265625,0.36270788311958313,0.4410463571548462,0.013391172513365746
1790958011602534000,2.927533935546875,0.21480818092823029,0.2850048542022705,0.009721869602799416
1790958011612546800,2.937546875,0.09522584825754166,0.13564704358577728,-0.038186267018318176
1790958011622559200,2.947559326171875,0.07366889715194702,0.03299044072628021,-0.12100870907306671
1790958011632571100,2.957571044921875,0.14478328824043274,0.028775189071893692,-0.18843649327754974
1790958011642583300,2.967583251953125,0.22633780539035797,0.09036558121442795,-0.19443419575691223
1790958011652595200,2.97759521484375,0.2383049726486206,-0.04573899134993553,-0.06469617038965225
1790958011662607000,2.987607177734375,0.19139526784420013,-0.15499304234981537,0.05910805985331535
1790958011672619300,2.997619384765625,0.170001819729805,-0.16782549023628235,0.07368673384189606
1790958011682631200,3.007631103515625,0.19358864426612854,-0.1760767549276352,0.03176618367433548
1790958011692643300,3.017643310546875,0.22741185128688812,-0.17020341753959656,-0.037812359631061554
1790958011702655200,3.0276552734375,0.24140223860740662,-0.21926790475845337,-0.10416102409362793
1790958011712667100,3.037667236328125,0.22674553096294403,-0.03386129438877106,-0.2951147258281708
1790958011722679300,3.04767919921875,0.24912354350090027,0.161110058426857,-0.4698348641395569
1790958011732691200,3.057691162109375,0.2674838900566101,0.33496788144111633,-0.5220858454704285
1790958011742703000,3.067703125,0.2843209505081177,0.4222681522369385,-0.38896292448043823
1790958011752715300,3.07771533203125,0.272044837474823,0.46138545870780945,-0.1619846373796463
1790958011762727200,3.08772705078125,0.26471713185310364,0.4545709788799286,0.0488026924431324
1790958011772740400,3.097740234375,0.26020973920822144,0.35819411277770996,0.1932900995016098
1790958011782752300,3.107752197265625,0.2617160379886627,0.23092801868915558,0.20200608670711517
1790958011792764400,3.117764404296875,0.2718070149421692,0.10677198320627213,0.10922635346651077
1790958011802776300,3.1277763671875,0.2810572385787964,0.08972375839948654,0.015801066532731056
1790958011812788200,3.137788330078125,0.23185719549655914,0.21375435590744019,-0.007285077124834061
1790958011822800400,3.14780029296875,0.12495232373476028,0.3309555649757385,0.03714310750365257
1790958011832812300,3.157812255859375,0.009643838740885258,0.39940890669822693,0.05591732636094093
1790958011842824200,3.16782421875,-0.04421592876315117,0.38383233547210693,0.023871244862675667
1790958011852836400,3.17783642578125,-0.03821875900030136,0.33465227484703064,-0.05178649723529816
1790958011862848300,3.18784814453125,-0.023025691509246826,0.3421163260936737,-0.12755689024925232
1790958011872860200,3.197860107421875,-0.022349780425429344,0.37777552008628845,-0.13218919932842255
1790958011882872300,3.207872314453125,-0.02514529973268509,0.43006590008735657,-0.022293854504823685
1790958011892884200,3.21788427734375,-0.015231417492032051,0.45333951711654663,0.15179485082626343
1790958011902896400,3.227896484375,0.003748132847249508,0.3718350827693939,0.2205912321805954
1790958011912909300,3.237909423828125,0.04478691145777702,0.23517709970474243,0.06903739273548126
1790958011922921500,3.24792138671875,0.114401675760746,0.10012900084257126,-0.17396754026412964
1790958011932933400,3.257933349609375,0.20506073534488678,-0.04006272926926613,-0.3601112961769104
1790958011942945300,3.2679453125,0.32817307114601135,-0.19044025242328644,-0.45617392659187317
1790958011952957400,3.27795751953125,0.4340726137161255,-0.22432711720466614,-0.42638248205184937
1790958011962969300,3.28796923828125,0.48702770471572876,-0.12263137847185135,-0.3328722417354584
1790958011972981200,3.297981201171875,0.48201510310173035,0.041557297110557556,-0.2577042281627655
1790958011982993400,3.307993408203125,0.4198920726776123,0.21390163898468018,-0.2213025540113449
1790958011993005300,3.31800537109375,0.3074134886264801,0.2234400063753128,-0.2207813858985901
1790958012003017500,3.328017578125,0.1994691640138626,0.14109773933887482,-0.25173982977867126
1790958012013029400,3.338029296875,0.14772021770477295,0.08454471081495285,-0.27092283964157104
1790958012023041300,3.348041259765625,0.18576374650001526,0.07411577552556992,-0.231828972697258
1790958012033053400,3.358053466796875,0.24143871665000916,0.13150769472122192,-0.15822985768318176
1790958012043065300,3.3680654296875,0.2623666524887085,0.16583077609539032,-0.09819607436656952
1790958012053078500,3.37807861328125,0.292707234621048,0.1868407279253006,-0.1064675897359848
1790958012063090400,3.38809033203125,0.3934367597103119,0.2713279128074646,-0.17632390558719635
1790958012073102300,3.398102294921875,0.5501102805137634,0.3194674849510193,-0.18678399920463562
1790958012083114500,3.408114501953125,0.7327584028244019,0.3081487715244293,-0.006375074852257967
1790958012093126400,3.41812646484375,0.8053960800170898,0.18323293328285217,0.2703308165073395
1790958012103138300,3.42813818359375,0.748141348361969,0.11817137897014618,0.47904807329177856
1790958012113150500,3.438150390625,0.6589393019676208,0.2827496826648712,0.6533519625663757
1790958012123162400,3.448162353515625,0.5820029377937317,0.5250752568244934,0.8359710574150085
1790958012133174500,3.458174560546875,0.5741814970970154,0.5833289623260498,0.8708091974258423
1790958012143186400,3.4681865234375,0.7366503477096558,0.5318167805671692,0.6785271167755127
1790958012153198300,3.4781982421875,0.8795424699783325,0.38651201128959656,0.4577752947807312
1790958012163210500,3.48821044921875,0.8275232315063477,0.1645205020904541,0.3600063920021057
1790958012173223200,3.49822314453125,0.6778455972671509,0.06562747806310654,0.4152113199234009
1790958012183235300,3.5082353515625,0.568228006362915,0.0644112154841423,0.554776668548584
1790958012193247200,3.518247314453125,0.502769947052002,0.2089201956987381,0.6648227572441101
1790958012203259100,3.528259033203125,0.43231919407844543,0.41191166639328003,0.6994653940200806
1790958012213271300,3.538271240234375,0.3568670451641083,0.493358314037323,0.661033034324646
1790958012223283200,3.548283203125,0.30479586124420166,0.3327348232269287,0.6045506000518799
1790958012233295000,3.558295166015625,0.2915532886981964,0.05885399505496025,0.5562731027603149
1790958012243307300,3.568307373046875,0.2891359329223633,-0.15583033859729767,0.5540125966072083
1790958012253319200,3.578319091796875,0.2752475440502167,-0.1844201683998108,0.5392717123031616
1790958012263331300,3.588331298828125,0.24017664790153503,-0.08153054863214493,0.47213664650917053
1790958012273343200,3.59834326171875,0.20895826816558838,0.08570078760385513,0.4046047329902649
1790958012283355100,3.608355224609375,0.22850747406482697,0.13737037777900696,0.44385042786598206
1790958012293368300,3.618368408203125,0.29682981967926025,0.07616987079381943,0.5769709348678589
1790958012303380200,3.628380126953125,0.39674443006515503,0.03087029792368412,0.6925052404403687
1790958012313392400,3.638392333984375,0.4951349198818207,-0.011083809658885002,0.7410293817520142
1790958012323404300,3.648404296875,0.5692988634109497,0.01182257104665041,0.7065374255180359
1790958012333416200,3.658416259765625,0.5919653177261353,0.04586416110396385,0.654900848865509
1790958012343428400,3.668428466796875,0.5389561653137207,0.1670459806919098,0.6341860294342041
1790958012353440300,3.678440185546875,0.46624332666397095,0.37146756052970886,0.6110026240348816
1790958012363452200,3.6884521484375,0.4312986731529236,0.4541616439819336,0.6194738745689392
1790958012373464300,3.69846435546875,0.4550202488899231,0.3645891547203064,0.6766924262046814
1790958012383476200,3.708476318359375,0.4872809648513794,0.3074917793273926,0.6165462732315063
1790958012393488400,3.71848828125,0.46590352058410645,0.27065253257751465,0.5010697841644287
1790958012403501300,3.728501220703125,0.3914647102355957,0.29477518796920776,0.3945324122905731
1790958012413513500,3.738513427734375,0.34745916724205017,0.3661494851112366,0.3640991151332855
1790958012423525400,3.748525390625,0.3836211562156677,0.42600324749946594,0.4202047288417816
1790958012433537300,3.758537353515625,0.46746546030044556,0.3390587568283081,0.4301271438598633
1790958012443549400,3.768549560546875,0.5662652850151062,0.19680547714233398,0.32761621475219727
1790958012453561300,3.778561279296875,0.521744966506958,0.135911226272583,0.19726033508777618
1790958012463573200,3.7885732421875,0.40384626388549805,0.15323776006698608,0.16727101802825928
1790958012473585400,3.79858544921875,0.2862410843372345,0.08467067778110504,0.10022939741611481
1790958012483597300,3.808597412109375,0.19616125524044037,-0.03050224855542183,-0.07012129575014114
1790958012493609500,3.818609375,0.11931440979242325,-0.1150197982788086,-0.14510738849639893
1790958012503621400,3.828621337890625,0.11904383450746536,-0.1265462189912796,-0.1295500099658966
1790958012513633300,3.83863330078125,0.14381149411201477,-0.08373857289552689,-0.0027329358272254467
1790958012523646500,3.848646484375,0.15632835030555725,0.05222112685441971,0.1444309502840042
1790958012533658400,3.858658447265625,0.1494446098804474,0.09295684099197388,0.17435023188591003
1790958012543670500,3.86867041015625,0.15810681879520416,0.03940679505467415,0.07551206648349762
1790958012553682400,3.878682373046875,0.18803967535495758,0.0067575047723948956,-0.09967732429504395
1790958012563694300,3.8886943359375,0.21888548135757446,-0.1344859004020691,-0.22375373542308807
1790958012573706500,3.89870654296875,0.27961140871047974,-0.2816023826599121,-0.19659322500228882
1790958012583718400,3.908718505859375,0.292441189289093,-0.27133989334106445,0.012911804020404816
1790958012593730300,3.918730224609375,0.32959309220314026,-0.2205563485622406,0.24289999902248383
1790958012603742500,3.928742431640625,0.39941877126693726,-0.13646863400936127,0.3311675488948822
1790958012613754400,3.93875439453125,0.4852551221847534,-0.08735035359859467,0.27807316184043884
1790958012623766800,3.948766845703125,0.5765812993049622,-0.08186450600624084,0.08808191865682602
1790958012633779000,3.958779052734375,0.6830834746360779,-0.08211217820644379,-0.13147467374801636
1790958012643792000,3.9687919921875,0.7363544702529907,-0.05920713022351265,-0.30358970165252686
1790958012653803800,3.9788037109375,0.7942861914634705,-0.037152696400880814,-0.3928149342536926
1790958012663816000,3.98881591796875,0.8299925327301025,-0.012012987397611141,-0.3832576274871826
1790958012673827800,3.998827880859375,0.8082800507545471,0.07906419038772583,-0.4179293215274811
1790958012683840000,4.008840087890625,0.7821203470230103,0.15647216141223907,-0.47080907225608826
1790958012693852000,4.018851806640625,0.6992587447166443,0.22972187399864197,-0.5380229949951172
1790958012703863800,4.02886376953125,0.5726717710494995,0.2563103437423706,-0.6116090416908264
1790958012713876000,4.0388759765625,0.40567079186439514,0.3161744773387909,-0.69270920753479
1790958012723887900,4.048887939453125,0.23756808042526245,0.3543224036693573,-0.8004838824272156
1790958012733899800,4.058899658203125,0.09979050606489182,0.3820943832397461,-0.946294903755188
1790958012743912000,4.068911865234375,0.013391172513365746,0.3536345064640045,-1.1231982707977295
1790958012753923800,4.078923828125,-0.0968482494354248,0.20991648733615875,-1.2587164640426636
1790958012763937000,4.08893701171875,-0.3356421887874603,0.003369963960722089,-1.2765966653823853
1790958012773949000,4.098948974609375,-0.6925531625747681,-0.14897030591964722,-1.1059762239456177
1790958012783960800,4.1089609375,-0.9669447541236877,-0.22580303251743317,-0.7142416834831238
1790958012793973000,4.118972900390625,-1.1063722372055054,-0.06986483186483383,-0.2589695155620575
1790958012803985000,4.12898486328125,-1.25951087474823,0.31500428915023804,0.19525817036628723
1790958012813997000,4.1389970703125,-1.437038779258728,0.5897341370582581,0.49764201045036316
1790958012824009000,4.149009033203125,-1.4630389213562012,0.6162413358688354,0.6080044507980347
1790958012834020900,4.159020751953125,-1.173352599143982,0.43577197194099426,0.6346347332000732
1790958012844033000,4.169032958984375,-0.6984182596206665,0.25094833970069885,0.6547807455062866
1790958012854045000,4.179044921875,-0.4176800549030304,0.0879620760679245,0.6420431137084961
1790958012864056800,4.189056884765625,-0.5333504676818848,0.08555910736322403,0.5075702667236328
1790958012874069000,4.199069091796875,-0.8459861278533936,-0.043163448572158813,0.31941553950309753
1790958012884082000,4.20908203125,-1.0685979127883911,-0.3395988345146179,0.15647642314434052
1790958012894094000,4.219093994140625,-0.9714465737342834,-0.46965110301971436,0.13321077823638916
1790958012904106000,4.22910595703125,-0.9187149405479431,-0.37532541155815125,0.21761780977249146
1790958012914118100,4.2391181640625,-0.9140365719795227,-0.19606724381446838,0.31485673785209656
1790958012924130000,4.249130126953125,-0.8241114616394043,-0.13464383780956268,0.34098368883132935
1790958012934142000,4.259141845703125,-0.7426640391349792,-0.23978835344314575,0.3018975257873535
1790958012944154000,4.269154052734375,-0.7231523394584656,-0.3508315086364746,0.2964654862880707
1790958012954166000,4.279166015625,-0.711150586605072,-0.37132906913757324,0.3491651713848114
1790958012964178000,4.289177978515625,-0.6292831301689148,-0.24275831878185272,0.4022590219974518
1790958012974190000,4.299190185546875,-0.47996607422828674,-0.15443217754364014,0.4362598657608032
1790958012984202000,4.309201904296875,-0.267861545085907,-0.1435166895389557,0.45161324739456177
1790958012994215000,4.31921484375,-0.07781197130680084,-0.05276094749569893,0.4318635165691376
1790958013004226800,4.329226806640625,-0.02209305204451084,0.11564910411834717,0.3804149925708771
1790958013014238700,4.33923876953125,-0.08063039928674698,0.1585366427898407,0.2842903137207031
1790958013024251000,4.3492509765625,-0.16834214329719543,0.1164107620716095,0.08398091793060303
1790958013034262800,4.3592626953125,-0.2007991522550583,0.06886108964681625,-0.11937246471643448
1790958013044275000,4.36927490234375,-0.24633626639842987,0.06732471287250519,-0.3131547272205353
1790958013054286800,4.379286865234375,-0.32098519802093506,0.0596739836037159,-0.43702179193496704
1790958013064298800,4.389298828125,-0.3548382520675659,0.13110928237438202,-0.5001760125160217
1790958013074311000,4.399310791015625,-0.28715720772743225,0.13550962507724762,-0.5150516033172607
1790958013084322800,4.40932275390625,-0.18551313877105713,0.07564762234687805,-0.4547235667705536
1790958013094334700,4.419334716796875,-0.03749065101146698,0.08663476258516312,-0.30214813351631165
1790958013104347000,4.429346923828125,0.12247105687856674,0.14273370802402496,-0.138093963265419
1790958013114359800,4.43935986328125,0.2536937892436981,0.07465026527643204,0.030002374202013016
1790958013124372000,4.4493720703125,0.3599267601966858,0.012409797869622707,0.26083052158355713
1790958013134383900,4.4593837890625,0.4965471923351288,0.04953506216406822,0.5831952691078186
1790958013144395800,4.469395751953125,0.6183255314826965,0.15717338025569916,0.9240697622299194
1790958013154408000,4.479407958984375,0.6870095133781433,0.28389936685562134,1.1364434957504272
1790958013164419800,4.489419921875,0.7343006134033203,0.33254680037498474,1.186285376548767
1790958013174432000,4.499431884765625,0.7556301355361938,0.33442139625549316,1.1053510904312134
1790958013184444000,4.50944384765625,0.7097387909889221,0.3793438673019409,0.9393656253814697
1790958013194455800,4.519455810546875,0.641523003578186,0.3063916265964508,0.6901994943618774
1790958013204468000,4.529468017578125,0.5332463383674622,0.14624881744384766,0.4168028235435486
1790958013214480000,4.53947998046875,0.38199344277381897,0.013861753046512604,0.22294652462005615
1790958013224491800,4.54949169921875,0.22872692346572876,0.02544863522052765,0.1198212057352066
1790958013234504000,4.55950390625,0.08630000054836273,0.02100488357245922,0.029351497069001198
1790958013244516900,4.569516845703125,0.017523866146802902,-0.06277922540903091,-0.033670876175165176
1790958013254529000,4.579529052734375,0.010967962443828583,-0.036977458745241165,-0.08023811131715775
1790958013264541000,4.589541015625,0.06077147275209427,-0.020667461678385735,-0.06501442193984985
1790958013274552800,4.599552734375,0.1809745728969574,0.034585140645504,-0.009854494594037533
1790958013284565000,4.60956494140625,0.2687545120716095,0.026284068822860718,-0.020676782354712486
1790958013294577000,4.619576904296875,0.3341710567474365,-0.06576117128133774,-0.013636183924973011
1790958013304589000,4.629589111328125,0.41044479608535767,-0.12413366883993149,0.04469103738665581
1790958013314601000,4.63960107421875,0.5730893611907959,-0.21672537922859192,0.16043388843536377
1790958013324612900,4.64961279296875,0.6966502070426941,-0.19109325110912323,0.27732613682746887
1790958013334625000,4.659625,0.7621908187866211,-0.049856506288051605,0.37387850880622864
1790958013344637000,4.669636962890625,0.8007821440696716,0.01558002457022667,0.3871719539165497
1790958013354648800,4.67964892578125,0.8009137511253357,0.015915583819150925,0.31635236740112305
1790958013364662000,4.689662109375,0.7652348279953003,0.01708444394171238,0.1637953221797943
1790958013374674000,4.699673828125,0.718183696269989,-0.0002937466779258102,-0.026610838249325752
1790958013384686000,4.70968603515625,0.6224696636199951,0.030007965862751007,-0.2310025840997696
1790958013394698000,4.719697998046875,0.4445390999317169,0.07509128749370575,-0.45693159103393555
1790958013404710100,4.729710205078125,0.2703350782394409,0.05215214937925339,-0.5804175734519958
1790958013414722000,4.73972216796875,0.21834272146224976,0.00812344066798687,-0.556717038154602
1790958013424734000,4.74973388671875,0.1517445147037506,0.03657745197415352,-0.42445114254951477
1790958013434746000,4.75974609375,0.08976636826992035,0.07127311080694199,-0.264872670173645
1790958013444758000,4.769758056640625,0.04164411500096321,0.11520648002624512,-0.15402445197105408
1790958013454770000,4.77977001953125,-0.016626646742224693,0.13508112728595734,-0.15657976269721985
1790958013464782000,4.789781982421875,-0.10274475067853928,0.14370816946029663,-0.2707228362560272
1790958013474794800,4.799794677734375,-0.2673155963420868,0.09553930908441544,-0.3776274621486664
1790958013484807000,4.809806884765625,-0.3773512840270996,-0.03409858047962189,-0.3214195668697357
1790958013494818800,4.81981884765625,-0.4457916021347046,-0.05058940872550011,-0.07714884728193283
1790958013504830700,4.829830810546875,-0.5059020519256592,-0.049016810953617096,0.1812416911125183
1790958013514843000,4.8398427734375,-0.5276952385902405,-0.09411557763814926,0.344671368598938
1790958013524854800,4.849854736328125,-0.534295916557312,-0.17117547988891602,0.42046892642974854
1790958013534867000,4.859866943359375,-0.569356381893158,-0.23663277924060822,0.41452422738075256
1790958013544878800,4.86987890625,-0.6828957796096802,-0.24831047654151917,0.3556137681007385
1790958013554890800,4.879890869140625,-0.9134288430213928,-0.23283910751342773,0.20546022057533264
1790958013564903000,4.88990283203125,-1.216753602027893,-0.23643676936626434,-0.04155756160616875
1790958013574914800,4.899914794921875,-1.4721118211746216,-0.24507074058055878,-0.3521535098552704
1790958013584926700,4.9099267578125,-1.4921926259994507,-0.25973889231681824,-0.6137020587921143
1790958013594939000,4.91993896484375,-1.1707810163497925,-0.27519455552101135,-0.7275652289390564
1790958013604951800,4.929951904296875,-0.8031643629074097,-0.10701513290405273,-0.7649070024490356
1790958013614964000,4.9399638671875,-0.3508773446083069,0.021644841879606247,-0.7556599974632263
1790958013624978200,4.949978271484375,0.10227390378713608,-0.05855518952012062,-0.6578497886657715
1790958013634990300,4.959990234375,0.3919411301612854,-0.11422058194875717,-0.5591163039207458
1790958013645002200,4.970002197265625,0.5600531697273254,-0.05657779052853584,-0.4500819444656372
1790958013655014400,4.980014404296875,0.6533421277999878,-0.04014821723103523,-0.3454386293888092
1790958013665026300,4.9900263671875,0.6859365701675415,-0.08340167999267578,-0.24632641673088074
1790958013675038500,5.00003857421875,0.6638733148574829,-0.08667390793561935,-0.13863776624202728
1790958013685050400,5.01005029296875,0.5888648629188538,-0.08333856612443924,-0.033370740711688995
1790958013695062300,5.020062255859375,0.4867211878299713,-0.0944303646683693,0.06191849336028099
1790958013705074400,5.030074462890625,0.36144953966140747,-0.09397682547569275,0.14024445414543152
1790958013715086300,5.04008642578125,0.23413127660751343,-0.09344925731420517,0.18757042288780212
1790958013725099300,5.050099365234375,0.10238096863031387,-0.09258425980806351,0.20816464722156525
1790958013735111200,5.060111083984375,-0.017557421699166298,-0.08030842244625092,0.20430147647857666
1790958013745123300,5.070123291015625,-0.07972625643014908,-0.062178418040275574,0.17824484407901764
1790958013755135200,5.08013525390625,-0.05799059942364693,-0.05443394556641579,0.13386298716068268
1790958013765147400,5.0901474609375,-0.009138104505836964,-0.04501061886548996,0.080937460064888
1790958013775159300,5.1001591796875,0.005738579668104649,-0.03526025265455246,0.023602796718478203
1790958013785171200,5.110171142578125,-0.0059993029572069645,-0.025908030569553375,-0.022429142147302628
1790958013795183400,5.120183349609375,-0.02822897396981716,-0.015185344032943249,-0.0626111850142479
1790958013805195300,5.1301953125,-0.04605085030198097,-0.0097463708370924,-0.0882054939866066
1790958013815207200,5.140207275390625,-0.04060761258006096,-0.004294879734516144,-0.09475500136613846
1790958013825219300,5.15021923828125,-0.03386155888438225,-0.0035867453552782536,-0.0777864083647728
1790958013835231200,5.160231201171875,-0.03351162001490593,-0.005104214418679476,-0.05097716301679611
1790958013845244400,5.170244384765625,-0.03473694249987602,-0.0011134676169604063,-0.02292049489915371
1790958013855256300,5.18025634765625,-0.031562454998493195,0.0006780407857149839,0.0043595945462584496
1790958013865268500,5.1902685546875,-0.03302159905433655,0.0049252500757575035,0.017224792391061783
1790958013875280400,5.2002802734375,-0.02829129248857498,0.010600978508591652,0.014086790382862091
1790958013885292300,5.210292236328125,-0.024945296347141266,0.014882010407745838,-0.001103880233131349
1790958013895304400,5.220304443359375,-0.023141805082559586,0.020021911710500717,-0.015806393697857857
1790958013905316400,5.23031640625,-0.017911355942487717,0.02063976414501667,-0.02779514528810978
1790958013915328300,5.240328369140625,-0.015055914409458637,0.016926253214478493,-0.03672978654503822
1790958013925340400,5.25034033203125,-0.011803396046161652,0.0180000402033329,-0.03683577850461006
1790958013935352300,5.260352294921875,-0.016620256006717682,0.018271947279572487,-0.03646400198340416
1790958013945364200,5.2703642578125,-0.015453524887561798,0.016573917120695114,-0.029701435938477516
1790958013955376400,5.28037646484375,-0.01263776421546936,0.015387478284537792,-0.01810416951775551
1790958013965389300,5.290389404296875,-0.008974320255219936,0.015898272395133972,-0.009378587827086449
1790958013975401500,5.3004013671875,-0.0059905145317316055,0.015417572110891342,-0.006135656964033842
1790958013985413400,5.310413330078125,0.0011464908020570874,0.009564477019011974,-0.0011925635626539588
1790958013995425500,5.320425537109375,-0.05143629387021065,0.026855049654841423,0.009347961284220219
1790958014005437400,5.3304375,-0.29737550020217896,0.07688279449939728,-0.06538353115320206
1790958014015449300,5.340449462890625,-0.20722109079360962,-0.2215057611465454,0.002067678142338991
1790958014025461500,5.35046142578125,-0.17756786942481995,-0.26988181471824646,0.020788636058568954
1790958014035473400,5.360473388671875,-0.2766190767288208,0.0008612662786617875,0.045889195054769516
1790958014045485300,5.3704853515625,-0.2959304451942444,0.018076471984386444,0.03509220853447914
1790958014055497500,5.38049755859375,-0.35799410939216614,0.038177479058504105,-0.18382681906223297
1790958014065509400,5.39050927734375,-0.4766317903995514,-0.007711981888860464,-0.4718969762325287
1790958014075521500,5.400521484375,-0.538196861743927,-0.05331355333328247,-0.6208334565162659
1790958014085534200,5.4105341796875,-0.49838343262672424,-0.033249031752347946,-0.5764111280441284
1790958014095546400,5.42054638671875,-0.3750188946723938,0.007287740241736174,-0.3861207962036133
1790958014105558300,5.430558349609375,-0.22951841354370117,0.04980430752038956,-0.14223331212997437
1790958014115570400,5.4405703125,-0.12951432168483734,0.040465932339429855,0.05770617350935936
1790958014125582300,5.450582275390625,-0.09322608262300491,0.04995877295732498,0.16808541119098663
1790958014135594200,5.46059423828125,-0.09833109378814697,0.05190953612327576,0.2680889666080475
1790958014145606400,5.4706064453125,-0.11997620761394501,0.09094588458538055,0.35836294293403625
1790958014155618300,5.480618408203125,-0.10005389899015427,0.10166990011930466,0.43464332818984985
1790958014165630500,5.49063037109375,-0.09143484383821487,0.05885772407054901,0.5224288702011108
1790958014175642400,5.500642333984375,-0.10101449489593506,0.081394724547863,0.6538691520690918
1790958014185654500,5.510654541015625,-0.11395985633134842,0.11317609250545502,0.7906177043914795
1790958014195666400,5.52066650390625,-0.1426873803138733,0.1770181804895401,0.8537663221359253
1790958014205678300,5.53067822265625,-0.17858704924583435,0.21657279133796692,0.8228456377983093
1790958014215691300,5.540691162109375,-0.19297851622104645,0.16478468477725983,0.7946465015411377
1790958014225703200,5.550703125,-0.20673426985740662,0.13828836381435394,0.8549732565879822
1790958014235715300,5.56071533203125,-0.22613753378391266,0.25408074259757996,0.8524948954582214
1790958014245727200,5.570727294921875,-0.2446688711643219,0.24621589481830597,0.773623526096344
1790958014255739400,5.580739501953125,-0.28103166818618774,0.19001761078834534,0.6863088607788086
1790958014265751300,5.590751220703125,-0.34807196259498596,0.20082896947860718,0.5897000432014465
1790958014275763200,5.60076318359375,-0.3719501197338104,0.18673047423362732,0.48124173283576965
1790958014285775400,5.610775390625,-0.37720879912376404,0.1576402336359024,0.43639835715293884
1790958014295787300,5.620787353515625,-0.3743988871574402,0.13582228124141693,0.4191248416900635
1790958014305799200,5.630799072265625,-0.3933829665184021,0.13495461642742157,0.3818967640399933
1790958014315811300,5.640811279296875,-0.41186025738716125,0.1400953233242035,0.31618407368659973
1790958014325823200,5.6508232421875,-0.40460634231567383,0.11573965102434158,0.2535129487514496
1790958014335836400,5.66083642578125,-0.36103516817092896,0.10809078067541122,0.25434359908103943
1790958014345848300,5.670848388671875,-0.27615249156951904,0.12043347209692001,0.27102988958358765
1790958014355860200,5.680860107421875,-0.18426650762557983,0.12347187101840973,0.24781273305416107
1790958014365872400,5.690872314453125,-0.08706912398338318,0.11690797656774521,0.18597306311130524
1790958014375884300,5.70088427734375,0.017498832195997238,0.10342732071876526,0.12547296285629272
1790958014385896400,5.710896484375,0.12530651688575745,0.09723227471113205,0.07007868587970734
1790958014395908400,5.720908447265625,0.22547785937786102,0.10205473005771637,-0.005368666257709265
1790958014405920300,5.730920166015625,0.3075719475746155,0.11948565393686295,-0.11841879040002823
1790958014415932400,5.740932373046875,0.39365407824516296,0.12851136922836304,-0.2703404128551483
1790958014425944300,5.7509443359375,0.4582248330116272,0.12952949106693268,-0.4130147397518158
1790958014435956200,5.760956298828125,0.48327717185020447,0.1023697778582573,-0.49342861771583557
1790958014445968400,5.770968505859375,0.500907301902771,0.0853726863861084,-0.5271676778793335
1790958014455980300,5.780980224609375,0.5114619731903076,0.09222633391618729,-0.5519492030143738
1790958014465993500,5.790993408203125,0.5356615781784058,0.07612672448158264,-0.5858799815177917
1790958014476005400,5.80100537109375,0.546632707118988,0.045527536422014236,-0.6083126068115234
1790958014486017500,5.811017578125,0.5562408566474915,0.030967237427830696,-0.6030256748199463
1790958014496029400,5.821029541015625,0.5572097301483154,0.04673581197857857,-0.5427666306495667
1790958014506041300,5.831041259765625,0.5138369798660278,0.06298748403787613,-0.47511911392211914
1790958014516053500,5.841053466796875,0.44505763053894043,0.07353706657886505,-0.4623468518257141
1790958014526065400,5.8510654296875,0.35596078634262085,0.044126980006694794,-0.4660071134567261
1790958014536077300,5.861077392578125,0.25261279940605164,0.04529371112585068,-0.4499565064907074
1790958014546089500,5.87108935546875,0.17013923823833466,0.04073651134967804,-0.4343266785144806
1790958014556101400,5.881101318359375,0.08462487161159515,0.04218260571360588,-0.44568052887916565
1790958014566113300,5.89111328125,-0.01560985203832388,0.01275520958006382,-0.48708975315093994
1790958014576125400,5.90112548828125,-0.12134240567684174,-0.021201426163315773,-0.5342892408370972
1790958014586138400,5.911138427734375,-0.20071206986904144,-0.05041230842471123,-0.5763245820999146
1790958014596150300,5.921150390625,-0.244382843375206,-0.0666341558098793,-0.5568041205406189
1790958014606162400,5.931162353515625,-0.26680800318717957,-0.07978297770023346,-0.441584050655365
1790958014616174300,5.94117431640625,-0.26629000902175903,-0.06395527720451355,-0.2444305121898651
1790958014626183200,5.95118310546875,-0.23217305541038513,-0.04956355690956116,-0.05542118102312088
1790958014636195300,5.9611953125,-0.20943337678909302,-0.03215021267533302,0.09012110531330109
1790958014646207200,5.971207275390625,-0.19036008417606354,-0.03352360427379608,0.15511368215084076
1790958014656219100,5.98121923828125,-0.17509858310222626,-0.027946945279836655,0.19489145278930664
1790958014666231300,5.991231201171875,-0.14386315643787384,-0.01281832717359066,0.22606082260608673
1790958014676243200,6.0012431640625,-0.08992882072925568,0.0164231825619936,0.3101687729358673
1790958014686255000,6.011255126953125,-0.01570546068251133,0.058646801859140396,0.4114575982093811
1790958014696267300,6.021267333984375,0.052562277764081955,0.08052679896354675,0.4347621202468872
1790958014706279200,6.031279052734375,0.08469437807798386,0.06700992584228516,0.34278053045272827
1790958014716292400,6.041292236328125,0.08764276653528214,0.06083511933684349,0.19786381721496582
1790958014726304300,6.05130419921875,0.06042952090501785,0.05552744120359421,-0.006126069463789463
1790958014736316200,6.061316162109375,0.03075098805129528,0.04724980518221855,-0.2176782637834549
1790958014746328300,6.071328369140625,0.024454742670059204,0.03157443925738335,-0.3860430419445038
1790958014756340200,6.08134033203125,0.003936951048672199,0.04394801706075668,-0.4949559271335602
1790958014766352400,6.091352294921875,0.0009912285022437572,0.04723116010427475,-0.5893226861953735
1790958014776364300,6.1013642578125,-0.008970857597887516,0.02545422688126564,-0.710491955280304
1790958014786376200,6.111376220703125,-0.017711885273456573,-0.007635282818228006,-0.8342442512512207
1790958014796388400,6.121388427734375,-0.007595335599035025,-0.05143203213810921,-0.8902233839035034
1790958014806400300,6.131400146484375,0.006788397673517466,-0.08208741247653961,-0.8730430603027344
1790958014816412200,6.141412109375,0.022346317768096924,-0.10241292417049408,-0.7489139437675476
1790958014826424300,6.15142431640625,0.07477304339408875,-0.07246328145265579,-0.5460899472236633
1790958014836436200,6.161436279296875,0.13601669669151306,-0.029500100761651993,-0.31925761699676514
1790958014846449400,6.171449462890625,0.19573888182640076,-0.00455746753141284,-0.16028182208538055
1790958014856461300,6.18146142578125,0.2569415271282196,-0.00008442220860160887,-0.07134874910116196
1790958014866473200,6.19147314453125,0.296438068151474,0.020807810127735138,0.02364913746714592
1790958014876485400,6.2014853515625,0.31010591983795166,0.0449640117585659,0.10337699204683304
1790958014886497300,6.211497314453125,0.315788596868515,0.045999716967344284,0.14449140429496765
1790958014896509400,6.221509521484375,0.2965957224369049,0.02942979335784912,0.1667972356081009
1790958014906521300,6.231521240234375,0.2685917913913727,0.008713596500456333,0.18958857655525208
1790958014916533200,6.241533203125,0.23534300923347473,-0.02653094381093979,0.20703227818012238
1790958014926545400,6.25154541015625,0.1764722317457199,-0.0489150770008564,0.1937156766653061
1790958014936557300,6.261557373046875,0.08037073910236359,-0.08382166177034378,0.17067188024520874
1790958014946569200,6.2715693359375,-0.013619406148791313,-0.09427856653928757,0.07104514539241791
1790958014956581400,6.281581298828125,-0.06417392939329147,-0.10552802681922913,-0.08318037539720535
1790958014966593300,6.29159326171875,-0.1457825005054474,-0.12158102542161942,-0.2859435975551605
1790958014976605400,6.30160546875,-0.23979075253009796,-0.1389211267232895,-0.47087112069129944
1790958014986618400,6.311618408203125,-0.29129308462142944,-0.1610834300518036,-0.612157940864563
1790958014996630300,6.32163037109375,-0.30433619022369385,-0.18141692876815796,-0.6639100909233093
1790958015006642400,6.331642333984375,-0.30070337653160095,-0.20719818770885468,-0.6379069685935974
1790958015016654300,6.341654296875,-0.2607690095901489,-0.18943437933921814,-0.5487134456634521
1790958015026666500,6.35166650390625,-0.2010958194732666,-0.1822212040424347,-0.43126004934310913
1790958015036678400,6.361678466796875,-0.15505322813987732,-0.16353806853294373,-0.3463355600833893
1790958015046690300,6.371690185546875,-0.12491024285554886,-0.15255944430828094,-0.33725979924201965
1790958015056702500,6.381702392578125,-0.09693879634141922,-0.1524214893579483,-0.33838602900505066
1790958015066714400,6.39171435546875,-0.0573439821600914,-0.16364724934101105,-0.32250213623046875
1790958015076726300,6.401726318359375,0.0023212111555039883,-0.20139382779598236,-0.27238836884498596
1790958015086738400,6.411738525390625,0.07374586164951324,-0.21491895616054535,-0.1668931096792221
1790958015096750300,6.421750244140625,0.15980830788612366,-0.2591375708580017,0.010300574824213982
1790958015106762500,6.431762451171875,0.22404348850250244,-0.2164127230644226,0.20563678443431854
1790958015116775200,6.441775146484375,0.21310588717460632,-0.16258998215198517,0.3061490058898926
1790958015126787300,6.451787353515625,0.12742292881011963,-0.09510520845651627,0.19498120248317719
1790958015136799200,6.46179931640625,0.003469299990683794,-0.03229242563247681,-0.054657917469739914
1790958015146811100,6.47181103515625,-0.07530087977647781,-0.018311895430088043,-0.20244552195072174
1790958015156823300,6.4818232421875,-0.13232208788394928,-0.04887779429554939,-0.2635898292064667
1790958015166835200,6.491835205078125,-0.1102876216173172,-0.0723855197429657,-0.27876850962638855
1790958015176847000,6.50184716796875,-0.07270562648773193,-0.08597935736179352,-0.2227174937725067
1790958015186859300,6.511859375,-0.029695045202970505,-0.07432190328836441,-0.12002653628587723
1790958015196871200,6.52187109375,-0.05002002418041229,-0.06870982050895691,-0.15458744764328003
1790958015206883000,6.531883056640625,-0.06823418289422989,-0.05170447379350662,-0.16586007177829742
1790958015216895200,6.541895263671875,-0.08057793229818344,-0.05209729075431824,-0.21284915506839752
1790958015226907100,6.5519072265625,-0.09714865684509277,-0.04669133946299553,-0.2844056189060211
1790958015236919300,6.561919189453125,-0.05354205518960953,-0.021447235718369484,-0.35001713037490845
1790958015246931200,6.57193115234375,0.0024383901618421078,-0.010453972034156322,-0.336940199136734
1790958015256944400,6.5819443359375,0.061883341521024704,0.0025070998817682266,-0.3150045573711395
1790958015266956300,6.591956298828125,0.098159059882164,0.0014021543320268393,-0.24593733251094818
1790958015276968200,6.60196826171875,0.10529126971960068,-0.0006551376427523792,-0.17483386397361755
1790958015286980400,6.61198046875,0.056951966136693954,0.002435460686683655,-0.1593044400215149
1790958015296992300,6.6219921875,0.01363431941717863,0.0068211546167731285,-0.1896921694278717
1790958015307004200,6.632004150390625,-0.003091397462412715,-0.0007475492893718183,-0.1997794210910797
1790958015317016300,6.642016357421875,0.003153715282678604,-0.003775297198444605,-0.1584506332874298
1790958015327028200,6.6520283203125,0.003288471372798085,0.002755040070042014,-0.11358755081892014
1790958015337040400,6.662040283203125,0.002356364857405424,0.009637979790568352,-0.12062735110521317
1790958015347052300,6.67205224609375,-0.004285292699933052,0.01636379398405552,-0.19104531407356262
1790958015357064200,6.682064208984375,0.00836498849093914,0.015105449594557285,-0.23483194410800934
1790958015367076400,6.692076416015625,0.01974574103951454,0.009555688127875328,-0.23816277086734772
1790958015377088300,6.702088134765625,0.030833812430500984,-0.006201170384883881,-0.21745668351650238
1790958015387100200,6.71210009765625,0.04580104351043701,-0.027698205783963203,-0.18839521706104279
1790958015397113300,6.72211328125,0.059843361377716064,-0.044082239270210266,-0.19910378754138947
1790958015407125200,6.732125244140625,0.05224243178963661,-0.04652861878275871,-0.27146798372268677
1790958015417137400,6.742137451171875,0.04276717081665993,-0.0331646129488945,-0.37000522017478943
1790958015427149300,6.7521494140625,0.06234060600399971,-0.024165257811546326,-0.4380039870738983
1790958015437161200,6.7621611328125,0.08716738969087601,-0.0102004399523139,-0.47754737734794617
1790958015447173400,6.77217333984375,0.10308723896741867,-0.013427391648292542,-0.49360838532447815
1790958015457185300,6.782185302734375,0.07916699349880219,-0.05325150489807129,-0.4889121651649475
1790958015467197400,6.792197509765625,0.04212907701730728,-0.09282927215099335,-0.40878936648368835
1790958015477209300,6.802209228515625,-0.012795955874025822,-0.11288420855998993,-0.31340983510017395
1790958015487221200,6.81222119140625,-0.047743022441864014,-0.14015790820121765,-0.22483177483081818
1790958015497233400,6.8222333984375,-0.024687236174941063,-0.13321983814239502,-0.05934934318065643
1790958015507245300,6.832245361328125,-0.013530456461012363,-0.12864719331264496,0.14120852947235107
1790958015517257200,6.84225732421875,0.001612277701497078,-0.14194409549236298,0.29591742157936096
1790958015527269400,6.852269287109375,0.017352625727653503,-0.17537768185138702,0.402910441160202
1790958015537281300,6.86228125,0.03442322090268135,-0.2040463387966156,0.4909428358078003
1790958015547294500,6.87229443359375,0.04411446303129196,-0.23348519206047058,0.5324234366416931
1790958015557306400,6.882306396484375,0.029280656948685646,-0.26102495193481445,0.5158742666244507
1790958015567318300,6.892318359375,-0.011890214867889881,-0.26804450154304504,0.45538562536239624
1790958015577330400,6.902330322265625,-0.04758189991116524,-0.2342151552438736,0.37524792551994324
1790958015587342300,6.91234228515625,-0.08840975910425186,-0.18059560656547546,0.289718896150589
1790958015597354500,6.9223544921875,-0.1103302389383316,-0.13405287265777588,0.20891433954238892
1790958015607366400,6.932366455078125,-0.12119939178228378,-0.11831838637590408,0.1631377935409546
1790958015617378300,6.94237841796875,-0.12827327847480774,-0.1198214739561081,0.1344291865825653
1790958015627390000,6.952389892578125,-0.12511077523231506,-0.11691543459892273,0.12346414476633072
1790958015637402000,6.962402099609375,-0.16104693710803986,-0.06814496219158173,0.14501285552978516
1790958015647414000,6.9724140625,-0.170207679271698,-0.11690611392259598,0.11928831040859222
1790958015657426000,6.982426025390625,-0.13405899703502655,-0.06234699860215187,0.08550531417131424
1790958015667438000,6.99243798828125,-0.09655103832483292,-0.07068748772144318,0.06702271103858948
1790958015677450000,7.002449951171875,-0.046365901827812195,-0.07854247838258743,0.05904893949627876
1790958015687462100,7.012462158203125,0.010003099218010902,-0.09067557752132416,0.08318809419870377
1790958015697475000,7.02247509765625,0.052507415413856506,-0.07591979950666428,0.10999973863363266
1790958015707487000,7.032487060546875,0.08693436533212662,-0.07051810622215271,0.1362537145614624
1790958015717499100,7.0424990234375,0.08743051439523697,-0.06907840073108673,0.15472327172756195
1790958015727511000,7.052510986328125,0.06459923088550568,-0.07114528119564056,0.17068731784820557
1790958015737523200,7.062523193359375,0.057075005024671555,-0.07797922194004059,0.18684205412864685
1790958015747535000,7.07253515625,0.05756209418177605,-0.079134501516819,0.17020103335380554
1790958015757547000,7.082547119140625,0.11169643700122833,-0.03767174482345581,0.01985013671219349
1790958015767559200,7.09255908203125,0.1517421305179596,0.004857872147113085,-0.013250291347503662
1790958015777571000,7.102571044921875,0.11724886298179626,0.0884941816329956,-0.13308002054691315
1790958015787583000,7.1125830078125,0.06474251300096512,0.06311771273612976,-0.23486045002937317
1790958015797595100,7.12259521484375,0.05428560823202133,0.03340775892138481,-0.25544774532318115
1790958015807607000,7.13260693359375,0.1007726863026619,0.02472318895161152,-0.2472769021987915
1790958015817619200,7.142619140625,0.18759572505950928,0.013889716938138008,-0.2646220624446869
1790958015827631000,7.152631103515625,0.2538341283798218,0.0433349572122097,-0.3044922649860382
1790958015837643000,7.16264306640625,0.22195103764533997,0.061892926692962646,-0.2774758040904999
1790958015847655200,7.1726552734375,0.1372516006231308,0.062239937484264374,-0.19033345580101013
1790958015857667800,7.182667724609375,0.06519205123186111,0.046910516917705536,-0.08113133907318115
1790958015867680000,7.192679931640625,0.03190387040376663,0.03307406231760979,0.006747917737811804
1790958015877692000,7.20269189453125,0.034694597125053406,0.039030224084854126,0.025305623188614845
1790958015887703800,7.212703857421875,0.05883428826928139,0.0478985495865345,-0.007505320478230715
1790958015897716000,7.222716064453125,0.048230111598968506,0.048293497413396835,-0.0350370779633522
1790958015907728000,7.232727783203125,0.02948944829404354,0.050391536206007004,-0.0316559299826622
1790958015917739800,7.24273974609375,0.02708541415631771,0.05428081378340721,-0.019406987354159355
1790958015927752000,7.252751953125,0.023554595187306404,0.044323522597551346,-0.011255051009356976
1790958015937763800,7.262763916015625,0.024400681257247925,0.04434855654835701,-0.019328424707055092
1790958015947776000,7.27277587890625,0.023872043937444687,0.05068288370966911,-0.028594892472028732
1790958015957788000,7.282787841796875,0.02635144628584385,0.05350716784596443,-0.026745326817035675
1790958015967799800,7.2927998046875,0.034989941865205765,0.04872386157512665,-0.01643090508878231
1790958015977812000,7.30281201171875,0.023920247331261635,0.03462295979261398,-0.017526263371109962
1790958015987823900,7.312823974609375,0.017018398270010948,0.027400199323892593,-0.025078987702727318
1790958015997835800,7.322835693359375,0.0195515975356102,0.026211896911263466,-0.03489566594362259
1790958016007848000,7.332847900390625,0.018078336492180824,0.021762553602457047,-0.024292556568980217
1790958016017860900,7.34286083984375,0.018570221960544586,0.015603993088006973,-0.013592241331934929
1790958016027873000,7.352873046875,0.016658606007695198,0.011608452536165714,-0.01353684812784195
1790958016037885000,7.362885009765625,0.014448980800807476,0.006385727785527706,-0.023605993017554283
1790958016047896800,7.372896728515625,0.00897032581269741,0.003337739733979106,-0.03208203613758087
1790958016057909000,7.382908935546875,0.011677960865199566,0.004831240512430668,-0.049552105367183685
1790958016067921000,7.3929208984375,0.01569693721830845,0.0329880453646183,-0.037088245153427124
1790958016077933000,7.40293310546875,0.02485421672463417,0.06675639003515244,-0.049673814326524734
1790958016087945000,7.412945068359375,0.0248454287648201,0.09231315553188324,-0.029144836589694023
1790958016097956900,7.422956787109375,0.031015707179903984,0.07098682224750519,-0.035283155739307404
1790958016107969000,7.432968994140625,0.03280481696128845,0.036138564348220825,-0.026553314179182053
1790958016117981000,7.44298095703125,0.02479802444577217,0.001219461439177394,-0.022011293098330498
1790958016127992800,7.452992919921875,0.0306942630559206,0.010458233766257763,-0.007303719408810139
1790958016138005000,7.4630048828125,0.029469475150108337,0.022424615919589996,-0.0012591425329446793
1790958016148017000,7.473016845703125,0.028796494007110596,0.03394917771220207,-0.014348579570651054
1790958016158029000,7.483029052734375,0.02376578375697136,0.03430311381816864,-0.020561201497912407
1790958016168041000,7.493041015625,0.011683288030326366,0.021459752693772316,-0.012462262064218521
1790958016178052900,7.503052978515625,0.010448113083839417,0.01564154401421547,-0.0041587925516068935
1790958016188066000,7.513066162109375,0.005607818253338337,0.01715927943587303,0.009283512830734253
1790958016198078000,7.523077880859375,-0.003579554846510291,0.007862983271479607,0.05721988156437874
1790958016208090000,7.533090087890625,-0.002691923175007105,-0.003088201628997922,0.08080004155635834
1790958016218102000,7.54310205078125,0.01769058033823967,-0.01326893363147974,0.06364449113607407
1790958016228114000,7.553114013671875,0.05030524730682373,-0.019956130534410477,0.029586920514702797
1790958016238126000,7.5631259765625,0.06678888201713562,-0.02136494405567646,0.012047874741256237
1790958016248138000,7.573137939453125,0.0895003229379654,-0.029097432270646095,0.01866130158305168
1790958016258150000,7.58314990234375,0.10945671796798706,-0.03050437942147255,0.02364727295935154
1790958016268162000,7.593162109375,0.09944616258144379,-0.020023243501782417,-0.0044320328161120415
1790958016278174000,7.603174072265625,0.05579828470945358,-0.005335643421858549,-0.03782780468463898
1790958016288186000,7.61318603515625,0.009435580112040043,0.004729241598397493,-0.036009132862091064
1790958016298198000,7.623197998046875,0.023611852899193764,0.012654276564717293,-0.02995896339416504
1790958016308210000,7.6332099609375,0.018510567024350166,0.016476711258292198,-0.037646979093551636
1790958016318222000,7.64322216796875,0.016164854168891907,0.020419254899024963,-0.07551313191652298
1790958016328234000,7.65323388671875,0.01122389268130064,0.01888367533683777,-0.07098469138145447
1790958016338246000,7.663245849609375,0.015964850783348083,0.008975385688245296,-0.03224928304553032
1790958016348259000,7.673259033203125,0.02099130116403103,0.0019140138756483793,0.0009763148264028132
1790958016358271000,7.68327099609375,0.022239258512854576,-0.00478330347687006,-0.0020642161834985018
1790958016368283100,7.693283203125,0.019654661417007446,-0.006040581967681646,-0.012379171326756477
1790958016378295000,7.703294921875,0.022545255720615387,0.003163569141179323,-0.005848567932844162
1790958016388307200,7.71330712890625,0.024419588968157768,0.014754178933799267,0.005250155925750732
1790958016398319000,7.723319091796875,0.03104526735842228,0.02449522353708744,0.0009432916413061321
1790958016408331000,7.7333310546875,0.028268922120332718,0.040656883269548416,-0.012782640755176544
1790958016418343200,7.74334326171875,0.023665381595492363,0.03792101517319679,-0.010171943344175816
1790958016428355000,7.75335498046875,0.0272649098187685,0.04855368658900261,-0.014701981097459793
1790958016438367000,7.763366943359375,-0.00765925133600831,0.03996951878070831,-0.005697034299373627
1790958016448379100,7.773379150390625,-0.24533279240131378,0.03864992409944534,0.15227343142032623
1790958016458391000,7.78339111328125,-0.15479996800422668,-0.023974042385816574,0.19503207504749298
1790958016468403000,7.79340283203125,0.036375585943460464,-0.024473119527101517,0.1951705515384674
1790958016478415000,7.8034150390625,0.10540179163217545,-0.039195604622364044,0.1387924998998642
1790958016488427000,7.813427001953125,0.12101004272699356,-0.010689661838114262,0.0526307187974453
1790958016498439200,7.823439208984375,0.11005619913339615,0.014782141894102097,-0.004534031730145216
1790958016508451000,7.833451171875,0.10836082696914673,0.016685236245393753,-0.014977085404098034
1790958016518464000,7.843464111328125,0.12382101267576218,0.008795355446636677,-0.001207477180287242
1790958016528476000,7.853475830078125,0.12108035385608673,0.007601726800203323,-0.022660305723547935
1790958016538487800,7.86348779296875,0.09922325611114502,0.016108928248286247,-0.06375128030776978
1790958016548500000,7.8735,0.0805470421910286,0.01836276240646839,-0.08937834948301315
1790958016558511900,7.883511962890625,0.08217956125736237,0.018807776272296906,-0.10260520130395889
1790958016568523800,7.893523681640625,0.11530075967311859,0.009555155411362648,-0.1028619334101677
1790958016578536000,7.903535888671875,0.15146063268184662,-0.00683074165135622,-0.11711730062961578
1790958016588547800,7.9135478515625,0.17830155789852142,-0.019000856205821037,-0.1420958936214447
1790958016598560000,7.92356005859375,0.2005472183227539,-0.028146948665380478,-0.13340573012828827
1790958016608572000,7.933572021484375,0.2302505075931549,-0.026878751814365387,-0.08314947783946991
1790958016618583800,7.943583740234375,0.29821863770484924,-0.0475454144179821,0.04364814609289169
1790958016628596200,7.95359619140625,0.37187182903289795,-0.07975848019123077,0.20072804391384125
1790958016638608400,7.9636083984375,0.32205793261528015,-0.10332212597131729,0.26378265023231506
1790958016648620300,7.973620361328125,0.23555153608322144,-0.08310473710298538,0.18532192707061768
1790958016658632200,7.983632080078125,0.13945803046226501,-0.06635798513889313,0.10929186642169952
1790958016668644400,7.993644287109375,0.04686577618122101,-0.03789784759283066,-0.022599851712584496
1790958016678656300,8.00365625,0.018561434000730515,-0.017139039933681488,-0.11284985393285751
1790958016688669400,8.01366943359375,0.02545715682208538,-0.044565603137016296,-0.1309066116809845
1790958016698681300,8.023681396484376,0.03455984219908714,-0.05472130328416824,-0.12912362813949585
1790958016708693200,8.033693359375,0.03363386169075966,-0.08320380747318268,-0.14638809859752655
1790958016718705400,8.043705322265625,0.03340030089020729,-0.10587237030267715,-0.13846386969089508
1790958016728717300,8.05371728515625,0.014272146858274937,-0.13330106437206268,-0.09669884294271469
1790958016738729200,8.063729248046876,0.004588892683386803,-0.12934520840644836,-0.05471863970160484
1790958016748741400,8.073741455078125,-0.0020687435753643513,-0.11885607987642288,-0.004510063212364912
1790958016758753300,8.083753173828125,-0.00041758365114219487,-0.10864391922950745,0.00038988678716123104
1790958016768765400,8.093765380859375,0.03127562999725342,-0.10057800263166428,0.0028751487843692303
1790958016778777300,8.10377734375,0.05768406763672829,-0.1357884556055069,0.027306722477078438
1790958016788789200,8.113789306640625,0.04000041261315346,-0.1567041277885437,0.041655033826828
1790958016798801400,8.123801513671875,0.002514024032279849,-0.18767055869102478,0.061115019023418427
1790958016808813300,8.133813232421875,-0.03783632814884186,-0.21797095239162445,0.09539496153593063
1790958016818825200,8.1438251953125,-0.054188136011362076,-0.2732991874217987,0.15343376994132996
1790958016828837400,8.15383740234375,-0.0453118197619915,-0.3446825444698334,0.18465720117092133
1790958016838849300,8.163849365234375,-0.02612454444169998,-0.37045902013778687,0.16644783318042755
1790958016848861400,8.173861328125,-0.0002210423699580133,-0.3702760636806488,0.15052558481693268
1790958016858874400,8.183874267578124,0.01932576112449169,-0.3475601077079773,0.14510951936244965
1790958016868886500,8.193886474609375,0.0470452718436718,-0.3303062617778778,0.15263214707374573
1790958016878898400,8.2038984375,0.04693661630153656,-0.3329981863498688,0.13943353295326233
1790958016888910300,8.213910400390626,0.018153702840209007,-0.3492072522640228,0.0956394374370575
1790958016898922500,8.223922607421875,-0.019633622840046883,-0.37005528807640076,0.034142255783081055
1790958016908934400,8.233934326171875,-0.04031147062778473,-0.38668298721313477,-0.05582864582538605
1790958016918946300,8.2439462890625,-0.020899422466754913,-0.40006086230278015,-0.15420740842819214
1790958016928958500,8.25395849609375,0.029278526082634926,-0.4013357162475586,-0.2198607176542282
1790958016938970400,8.263970458984375,0.10307338833808899,-0.3984363377094269,-0.21628649532794952
1790958016948982300,8.273982177734375,0.15509264171123505,-0.38260409235954285,-0.17316165566444397
1790958016958994400,8.283994384765625,0.1660235971212387,-0.3255362808704376,-0.10321027785539627
1790958016969006300,8.29400634765625,0.12896676361560822,-0.23553875088691711,0.0002769687562249601
1790958016979018500,8.3040185546875,0.12036342918872833,-0.23880033195018768,0.12429052591323853
1790958016989030400,8.314030517578125,0.09888023883104324,-0.22187647223472595,0.15507906675338745
1790958016999042300,8.324042236328125,0.04843411222100258,-0.1877746880054474,0.09974949806928635
1790958017009054500,8.334054443359374,0.013538445346057415,-0.19025303423404694,0.07600129395723343
1790958017019067400,8.3440673828125,-0.0034844798501580954,-0.19576497375965118,0.09685810655355453
1790958017029079600,8.35407958984375,0.0008647284121252596,-0.1932283192873001,0.1160951778292656
1790958017039091500,8.364091552734376,0.024095483124256134,-0.18302547931671143,0.1327306181192398
1790958017049103400,8.374103271484374,0.04566522315144539,-0.16755810379981995,0.1689583957195282
1790958017059115500,8.384115478515625,0.048880722373723984,-0.14474999904632568,0.23204495012760162
1790958017069127400,8.39412744140625,0.022815033793449402,-0.1132035180926323,0.2896997332572937
1790958017079139600,8.4041396484375,-0.013860953971743584,-0.08222270011901855,0.35594692826271057
1790958017089151500,8.4141513671875,-0.06064097583293915,-0.06105989217758179,0.4488648772239685
1790958017099163400,8.424163330078125,-0.0914316475391388,-0.07055512815713882,0.48707911372184753
1790958017109175600,8.434175537109375,-0.09920168668031693,-0.0747048631310463,0.38696157932281494
1790958017119187500,8.4441875,-0.08372871577739716,-0.06979958713054657,0.2258586883544922
1790958017129199400,8.454199462890625,-0.04571369290351868,-0.08628881722688675,0.08381660282611847
1790958017139211500,8.46421142578125,0.013998373411595821,-0.10036548227071762,-0.007155381143093109
1790958017149223400,8.474223388671875,0.06408844143152237,-0.10979680716991425,-0.02942153811454773
1790958017159235300,8.4842353515625,0.08791787177324295,-0.09852124750614166,-0.01148914359509945
1790958017169247500,8.49424755859375,0.08751893043518066,-0.07346942275762558,0.01985200121998787
1790958017179259400,8.50425927734375,0.06674600392580032,-0.051663994789123535,0.031864188611507416
1790958017189272300,8.514272216796876,0.0521090067923069,-0.041127730160951614,0.00532605592161417
1790958017199284200,8.5242841796875,0.026140790432691574,-0.02329067513346672,-0.039139412343502045
1790958017209296400,8.53429638671875,0.023849673569202423,-0.01453073974698782,-0.09142418950796127
1790958017219308300,8.544308349609375,0.017121728509664536,-0.014819692820310593,-0.12573662400245667
1790958017229320200,8.5543203125,0.00501073757186532,-0.007809187285602093,-0.1378294974565506
1790958017239332400,8.564332275390624,-0.011027351021766663,0.00888084340840578,-0.13592614233493805
1790958017249344300,8.57434423828125,-0.0042144525796175,0.02256523072719574,-0.13658393919467926
1790958017259356200,8.584356201171875,0.042639072984457016,0.034382473677396774,-0.14967072010040283
1790958017269368300,8.594368408203126,0.09693959355354309,0.02821486070752144,-0.179399311542511
1790958017279380200,8.604380126953124,0.15202388167381287,0.009679791517555714,-0.2365827113389969
1790958017289392400,8.614392333984375,0.18471871316432953,0.0219697467982769,-0.27858981490135193
1790958017299404300,8.624404296875,0.10386434942483902,0.036434706300497055,-0.2813587188720703
1790958017309416200,8.634416259765626,0.06888639181852341,0.0380893275141716,-0.26318448781967163
1790958017319428400,8.644428466796874,0.06054989621043205,0.019115904346108437,-0.19934771955013275
1790958017329440300,8.654440185546875,0.020590495318174362,-0.03133874759078026,-0.025767682120203972
1790958017339452200,8.6644521484375,0.023436350747942924,-0.06790581345558167,0.09432437270879745
1790958017349464300,8.67446435546875,0.04909564182162285,-0.08116409182548523,0.0679798498749733
1790958017359476200,8.684476318359375,0.040774062275886536,-0.10599593818187714,-0.008509332314133644
1790958017369489400,8.694489501953125,0.014117949642241001,-0.12309103459119797,-0.027420172467827797
1790958017379501300,8.704501220703126,0.024540496990084648,-0.1391131430864334,-0.0005406216951087117
1790958017389513200,8.71451318359375,0.01920272223651409,-0.13483211398124695,0.022518359124660492
1790958017399525400,8.724525390625,0.020901020616292953,-0.13296763598918915,0.0065468489192426205
1790958017409537300,8.734537353515625,0.015168566256761551,-0.13009728491306305,-0.022655244916677475
1790958017419549400,8.744549560546876,0.023509586229920387,-0.13785693049430847,-0.022792397066950798
1790958017429561300,8.754561279296874,0.032352615147829056,-0.1500195860862732,-0.00130947632715106
1790958017439573200,8.7645732421875,0.03946005925536156,-0.15870283544063568,0.011299792677164078
1790958017449585400,8.77458544921875,0.04530409723520279,-0.16243524849414825,0.004759601317346096
1790958017459597300,8.784597412109376,0.05534634739160538,-0.15638534724712372,0.0035747610963881016
1790958017469609200,8.794609130859374,0.06444210559129715,-0.14509940147399902,0.026189526543021202
1790958017479621400,8.804621337890625,0.07053408771753311,-0.12893827259540558,0.04148459434509277
1790958017489633300,8.81463330078125,0.07914727926254272,-0.10275327414274216,0.037942055612802505
1790958017499645400,8.8246455078125,0.08937089145183563,-0.07226141542196274,0.03407301381230354
1790958017509657300,8.8346572265625,0.10223928838968277,-0.032827720046043396,0.019944678992033005
1790958017519669200,8.844669189453125,0.10405982285737991,0.009242233820259571,0.004883971065282822
1790958017529681400,8.854681396484375,0.09864934533834457,0.03436889126896858,-0.00024234765442088246
1790958017539694300,8.8646943359375,0.10253462940454483,0.0518147274851799,-0.000523577444255352
1790958017549706500,8.87470654296875,0.11254971474409103,0.07013381272554398,0.0006870955694466829
1790958017559718400,8.884718505859375,0.11639904975891113,0.08862414211034775,-0.00042796999332495034
1790958017569730300,8.894730224609376,0.12335282564163208,0.11206661909818649,-0.0031292142812162638
1790958017579742500,8.904742431640624,0.13195990025997162,0.13133618235588074,-0.0016263924771919847
1790958017589754400,8.91475439453125,0.15477067232131958,0.14253690838813782,0.008876316249370575
1790958017599766300,8.924766357421875,0.15769588947296143,0.1340150535106659,0.018727881833910942
1790958017609778400,8.9347783203125,0.12277145683765411,0.11595616489648819,0.011116034351289272
1790958017619790300,8.944790283203124,0.07348247617483139,0.10329123586416245,-0.000523843802511692
1790958017629802200,8.95480224609375,0.06546396017074585,0.08474285155534744,0.010582337155938148
1790958017639814100,8.964814208984375,0.05787261947989464,0.0631648525595665,0.015548067167401314
1790958017649826300,8.974826416015626,0.055455002933740616,0.04633314535021782,-0.004459463059902191
1790958017659838200,8.984838134765624,0.0543961301445961,0.011485148221254349,-0.0011688614031299949
1790958017669850000,8.99485009765625,0.0521678626537323,-0.028617262840270996,0.016111325472593307
1790958017679862300,9.0048623046875,0.04378210008144379,-0.05752401426434517,0.008565524592995644
1790958017689874200,9.014874267578126,0.04060548171401024,-0.07525906711816788,0.0075484635308384895
1790958017699886000,9.024885986328124,0.03760223463177681,-0.08788032084703445,0.02870621345937252
1790958017709898200,9.034898193359375,0.0312894806265831,-0.09680484235286713,0.018485533073544502
1790958017719911200,9.0449111328125,0.028609540313482285,-0.0989747866988182,0.016861271113157272
1790958017729923300,9.05492333984375,0.031071366742253304,-0.10943887382745743,0.031561389565467834
1790958017739935200,9.064935302734375,0.036254409700632095,-0.10663989186286926,0.027628963813185692
1790958017749947100,9.074947021484375,0.03989388793706894,-0.10414877533912659,0.017249559983611107
1790958017759959300,9.084959228515626,0.044315531849861145,-0.0950881689786911,0.009049154818058014
1790958017769971200,9.09497119140625,0.04559917747974396,-0.07611873745918274,0.0062696137465536594
1790958017779983400,9.1049833984375,0.047153931111097336,-0.06868185847997665,0.014867096208035946
1790958017789995300,9.114995361328125,0.052385974675416946,-0.06136428937315941,0.005560413934290409
1790958017800007200,9.125007080078126,0.06299387663602829,-0.04710652679204941,-0.0037417414132505655
1790958017810019300,9.135019287109374,0.07010398805141449,-0.034326281398534775,0.002978213131427765
1790958017820031200,9.14503125,0.07144222408533096,-0.014913968741893768,-0.0038104509003460407
1790958017830043100,9.155043212890625,0.07143663614988327,0.004822185728698969,-0.0021755362395197153
1790958017840055300,9.16505517578125,0.06606050580739975,0.017420269548892975,0.01167343370616436
1790958017850067200,9.175067138671874,0.06081115081906319,0.034937210381031036,0.0060328589752316475
1790958017860079400,9.185079345703125,0.057621218264102936,0.054551124572753906,-0.011363175697624683
1790958017870091300,9.19509130859375,0.05584488809108734,0.06982062757015228,-0.0022093583829700947
1790958017880103200,9.205103271484376,0.05065146088600159,0.0691087618470192,-0.00170761882327497
1790958017890115300,9.215115234375,0.0487358458340168,0.07253678143024445,-0.031869783997535706
1790958017900127200,9.225127197265625,0.05042562261223793,0.0613698847591877,-0.02815254218876362
1790958017910140200,9.23514013671875,0.048467665910720825,0.03502935543656349,-0.013127519749104977
1790958017920152000,9.245152099609374,0.04956755414605141,0.014938735403120518,-0.034572623670101166
1790958017930164200,9.255164306640625,0.04857179522514343,0.004309260752052069,-0.04420554265379906
1790958017940176100,9.265176025390625,0.04788656532764435,0.0009984191274270415,-0.02737543173134327
1790958017950188000,9.27518798828125,0.04701144993305206,0.009259277954697609,-0.026703782379627228
1790958017960200200,9.2852001953125,0.04795847088098526,0.028804218396544456,-0.03309962898492813
1790958017970212000,9.295212158203125,0.04186595603823662,0.038730084896087646,-0.02683774009346962
1790958017980224300,9.305224365234375,0.028807146474719048,0.0322016105055809,-0.012733371928334236
1790958017990236200,9.315236083984376,0.011934956535696983,0.00806272029876709,-0.018759839236736298
1790958018000248300,9.325248291015624,-0.005285841878503561,-0.014787201769649982,-0.0397077314555645
1790958018010260200,9.33526025390625,-0.013902765698730946,-0.03626879304647446,-0.04049469530582428
1790958018020272000,9.345272216796875,-0.009783121757209301,-0.052566271275281906,-0.02743588574230671
1790958018030284300,9.3552841796875,-0.0005914880894124508,-0.06494197994470596,-0.025441976264119148
1790958018040296200,9.365296142578124,0.020968930795788765,-0.07534641772508621,-0.040709879249334335
1790958018050308400,9.375308349609375,0.040521860122680664,-0.07026537507772446,-0.038300249725580215
1790958018060320300,9.3853203125,0.05314337834715843,-0.0708555281162262,-0.01540585421025753
1790958018070332400,9.39533251953125,0.054370030760765076,-0.05856770649552345,-0.00387356779538095
1790958018080344300,9.40534423828125,0.055814530700445175,-0.03218669816851616,-0.0009970874525606632
1790958018090357200,9.415357177734375,0.055859003216028214,-0.011236675083637238,0.01944160833954811
1790958018100369200,9.425369140625,0.055333029478788376,-0.0029345371294766665,0.03104846365749836
1790958018110381000,9.435381103515626,0.06053764745593071,0.0038016624748706818,0.02430081181228161
1790958018120393200,9.445393310546875,0.0741242915391922,0.011549063958227634,0.02293141558766365
1790958018130405000,9.455405029296875,0.08867500722408295,0.012012721039354801,0.03520539030432701
1790958018140417000,9.4654169921875,0.10260067880153656,0.005991845857352018,0.02913072146475315
1790958018150429200,9.47542919921875,0.11518171429634094,0.004797418136149645,0.020834708586335182
1790958018160441000,9.485441162109375,0.12435311079025269,0.0005289037944748998,0.02480095438659191
1790958018170453000,9.495452880859375,0.12748844921588898,0.009878995828330517,0.023379890248179436
1790958018180465200,9.505465087890625,0.13261982798576355,0.03596119582653046,0.017111875116825104
1790958018190477000,9.51547705078125,0.13774241507053375,0.07269444316625595,0.023433420807123184
1790958018200489200,9.5254892578125,0.1443294882774353,0.11516626924276352,0.020677048712968826
1790958018210501000,9.535501220703125,0.15324680507183075,0.15757551789283752,0.01587803289294243
1790958018220513000,9.545512939453126,0.1583920419216156,0.19172921776771545,0.02117639221251011
1790958018230525200,9.555525146484374,0.16579695045948029,0.21755921840667725,0.02201635204255581
1790958018240537000,9.565537109375,0.16790324449539185,0.2468092441558838,0.00606348505243659
1790958018250549000,9.575549072265625,0.16939222812652588,0.2849137485027313,-0.006885869428515434
1790958018260561200,9.58556103515625,0.17380374670028687,0.3259653151035309,-0.012046010233461857
1790958018270573000,9.595572998046874,0.17301759123802185,0.3774873614311218,-0.013316870667040348
1790958018280585200,9.605585205078125,0.16783614456653595,0.4250660836696625,-0.012879845686256886
1790958018290598100,9.61559814453125,0.17703522741794586,0.4629386067390442,-0.018198179081082344
1790958018300610300,9.6256103515625,0.17931196093559265,0.493991881608963,-0.014303038828074932
1790958018310622200,9.635622314453125,0.18481779098510742,0.4995059669017792,-0.00872211903333664
1790958018320634000,9.645634033203125,0.17224234342575073,0.47316649556159973,-0.004512726329267025
1790958018330646300,9.655646240234375,0.14379657804965973,0.43535733222961426,0.0021824603900313377
1790958018340658200,9.665658203125,0.14112409949302673,0.40249258279800415,0.004797950852662325
1790958018350670000,9.675670166015625,0.14112542569637299,0.37809908390045166,-0.0013014868600293994
1790958018360682200,9.68568212890625,0.14847148954868317,0.3454127907752991,0.00014141385327093303
1790958018370694100,9.695694091796875,0.14335688948631287,0.31317415833473206,0.01236558984965086
1790958018380706000,9.7057060546875,0.1402423232793808,0.2885742783546448,0.00669358903542161
1790958018390718200,9.71571826171875,0.13763029873371124,0.26378265023231506,0.006741792429238558
1790958018400730000,9.725730224609375,0.12395070493221283,0.23923975229263306,0.017041834071278572
1790958018410742300,9.7357421875,0.10963248461484909,0.21842847764492035,0.021146297454833984
1790958018420754200,9.745754150390624,0.09857238084077835,0.1985120326280594,0.019632823765277863
1790958018430766000,9.75576611328125,0.09818568825721741,0.1873091757297516,0.02034681662917137
1790958018440778200,9.7657783203125,0.11260271072387695,0.17941370606422424,0.028450017794966698
1790958018450790100,9.7757900390625,0.11355426162481308,0.16194681823253632,0.03160106763243675
1790958018460802000,9.785802001953124,0.08368371427059174,0.14360004663467407,0.00947792362421751
1790958018470814200,9.795814208984375,0.0894545167684555,0.1533975452184677,0.0070701600052416325
1790958018480827100,9.8058271484375,0.09380611777305603,0.15699094533920288,0.01224335003644228
1790958018490839300,9.81583935546875,0.09194643795490265,0.1591385155916214,0.018624549731612206
1790958018500851200,9.825851318359375,0.0836232602596283,0.13596263527870178,0.015164039097726345
1790958018510863400,9.83586328125,0.05337507277727127,0.12095704674720764,0.002528671408072114
1790958018520875300,9.845875244140625,0.03110652044415474,0.11557240039110184,0.006162820849567652
1790958018530887200,9.85588720703125,0.049785397946834564,0.11152706295251846,0.0013994910987094045
1790958018540899300,9.8658994140625,0.07660768926143646,0.12219648063182831,-0.0010932276491075754
1790958018550911200,9.8759111328125,0.08929712325334549,0.09676169604063034,-0.014937936328351498
1790958018560923100,9.885923095703125,0.08384004235267639,0.06221863254904747,-0.02713468112051487
1790958018570935300,9.895935302734374,0.06084737181663513,0.04692143574357033,-0.020617660135030746
1790958018580947200,9.905947265625,0.033851172775030136,0.06328362971544266,-0.014021809212863445
1790958018590959000,9.915958984375,0.03387514129281044,0.0934780165553093,-0.0254017636179924
1790958018600971300,9.92597119140625,0.02833816409111023,0.12832628190517426,-0.013776532374322414
1790958018610983200,9.935983154296874,0.05037821829319,0.12127555906772614,0.010298443958163261
1790958018620995300,9.945995361328125,0.06506528705358505,0.11366771161556244,0.010261958464980125
1790958018631007500,9.956007568359375,0.07744792103767395,0.10621325671672821,0.008754875510931015
1790958018641019600,9.96601953125,0.07831424474716187,0.09311769157648087,0.012912603095173836
1790958018651031600,9.976031494140624,0.07274264842271805,0.10491176694631577,-0.007771636825054884
1790958018661043500,9.98604345703125,0.060091033577919006,0.12389025092124939,-0.01387187372893095
1790958018671056400,9.996056396484375,0.05156252533197403,0.12784771621227264,0.000553404854144901
1790958018681068500,10.006068603515626,0.048590973019599915,0.12989674508571625,-0.015244998969137669
1790958018691080400,10.01608056640625,0.05429572984576225,0.13079316914081573,-0.019882362335920334
1790958018701092600,10.026092529296875,0.04024036228656769,0.11121067404747009,0.005294098053127527
1790958018711104500,10.0361044921875,0.04194239154458046,0.10175805538892746,-0.006907973438501358
1790958018721116400,10.046116455078124,0.04848524555563927,0.09874016046524048,0.011567173525691032
1790958018731128600,10.056128662109375,0.045521412044763565,0.10053326189517975,0.0064893243834376335
1790958018741140500,10.066140380859375,0.05319957062602043,0.10856881737709045,0.0062301987782120705
1790958018751152600,10.076152587890626,0.04854995757341385,0.0969529077410698,0.03008519858121872
1790958018761164500,10.08616455078125,0.054371628910303116,0.10680367797613144,0.02159743756055832
1790958018771176700,10.0961767578125,0.052020590752363205,0.09657686948776245,0.0026349315885454416
1790958018781188600,10.106188720703125,0.011295264586806297,0.096805639564991,0.005932191386818886
1790958018791200500,10.116200439453126,0.01503833755850792,0.10129226744174957,0.0018013621447607875
1790958018801212700,10.126212646484374,0.004624845460057259,0.10755069553852081,-0.01381248515099287
1790958018811224600,10.136224609375,0.004515389446169138,0.10014204680919647,-0.007278152741491795
1790958018821236500,10.146236572265625,-0.0038831550627946854,0.08628056198358536,-0.017256751656532288
1790958018831248600,10.15624853515625,-0.002669286448508501,0.08177529275417328,-0.005682386923581362
1790958018841260500,10.166260498046874,-0.012154134921729565,0.06865469366312027,-0.0006362291751429439
1790958018851272700,10.176272705078125,-0.008525311015546322,0.07158496975898743,-0.008649947121739388
1790958018861284600,10.18628466796875,-0.013648967258632183,0.06561709195375443,0.006385195069015026
1790958018871296500,10.196296630859376,-0.008870989084243774,0.06282876431941986,0.013742710463702679
1790958018881309400,10.206309326171874,-0.006701045669615269,0.07081904262304306,0.0032266860362142324
1790958018891321300,10.2163212890625,0.0024564997293055058,0.09113550186157227,0.006865629460662603
1790958018901333500,10.22633349609375,-0.0006095975404605269,0.10174207389354706,0.01272991020232439
1790958018911345400,10.236345458984376,0.004789162427186966,0.12143827974796295,-0.0052054147236049175
1790958018921357300,10.246357421875,0.004068777430802584,0.14603151381015778,-0.006470682565122843
1790958018931369500,10.256369384765625,0.005624063778668642,0.15186676383018494,-0.006714894436299801
1790958018941381400,10.26638134765625,0.016565393656492233,0.1699642688035965,-0.01203802041709423
1790958018951393300,10.276393310546876,0.019399531185626984,0.18637573719024658,-0.005408613942563534
1790958018961405400,10.286405517578125,0.03200400620698929,0.19317291676998138,-0.001588575541973114
1790958018971417300,10.296417236328125,0.03941984474658966,0.21462520956993103,-0.013185842894017696
1790958018981429500,10.306429443359375,0.04772011935710907,0.230614572763443,0.007922105491161346
1790958018991441400,10.31644140625,0.047695618122816086,0.23441170156002045,0.01774544082581997
1790958019001453300,10.326453369140625,0.05155986174941063,0.25064873695373535,-0.010666492395102978
1790958019011465500,10.336465576171875,0.05102936178445816,0.25910213589668274,-0.003364904085174203
1790958019021477400,10.346477294921876,0.05532184615731239,0.2616521120071411,0.00788668543100357
1790958019031489300,10.3564892578125,0.056294430047273636,0.2623373568058014,-0.0030133668333292007
1790958019041501400,10.36650146484375,0.058467838913202286,0.2572411298751831,-0.02221236191689968
1790958019051513300,10.376513427734375,0.06045402213931084,0.2516860365867615,-0.01661173440515995
1790958019061525500,10.386525390625,0.06205511465668678,0.23868846893310547,0.005053347907960415
1790958019071538400,10.396538330078124,0.06303196400403976,0.23787806928157806,-0.006041913293302059
1790958019081550300,10.40655029296875,0.06654120981693268,0.2531590163707733,-0.015661783516407013
1790958019091562500,10.4165625,0.07105180621147156,0.26381805539131165,0.025363147258758545
1790958019101574400,10.426574462890626,0.06844909489154816,0.2722991704940796,0.042998600751161575
1790958019111586600,10.436586669921875,0.07135221362113953,0.28663548827171326,0.002757703186944127
1790958019121598500,10.446598388671875,0.08321312814950943,0.3077849745750427,-0.00905448105186224
1790958019131610400,10.4566103515625,0.06526928395032883,0.29835179448127747,0.0009001484140753746
1790958019141622500,10.46662255859375,0.06326126307249069,0.3088585138320923,-0.014623683877289295
1790958019151634400,10.476634521484375,0.06639499962329865,0.3344903588294983,-0.026010295376181602
1790958019161646300,10.486646240234375,0.057492852210998535,0.34576672315597534,-0.0037734329234808683
1790958019171658500,10.496658447265625,0.06373796612024307,0.3429427146911621,0.011771970428526402
1790958019181670400,10.50667041015625,0.05643318220973015,0.35103100538253784,0.03947923332452774
1790958019191682600,10.5166826171875,0.0543346107006073,0.33157792687416077,0.03193289786577225
1790958019201694500,10.526694580078125,0.04820534586906433,0.346314013004303,0.009310677647590637
1790958019211706400,10.536706298828125,0.06132141500711441,0.3566848933696747,0.03633004426956177
1790958019221718500,10.546718505859374,0.06785760819911957,0.346422404050827,0.06449643522500992
1790958019231730400,10.55673046875,0.06344954669475555,0.3342517614364624,0.02094416320323944
1790958019241742300,10.566742431640625,-0.005899967160075903,0.3361002504825592,-0.03184714540839195
1790958019251754500,10.57675439453125,-0.011639878153800964,0.3109365701675415,-0.016145413741469383
1790958019261766400,10.586766357421874,-0.012205533683300018,0.2978686988353729,0.01733025349676609
1790958019271778600,10.596778564453125,-0.01991192251443863,0.29417702555656433,0.0521276481449604
1790958019281791500,10.60679150390625,-0.028150411322712898,0.26582103967666626,0.06556116789579391
1790958019291803400,10.616803466796876,-0.042935747653245926,0.2573290169239044,0.03628769889473915
1790958019301815600,10.626815673828125,-0.06112514063715935,0.25858041644096375,0.07706708461046219
1790958019311827500,10.636827392578125,-0.03693990781903267,0.22012783586978912,0.14821290969848633
1790958019321839600,10.646839599609375,-0.009190302342176437,0.19160644710063934,0.14829039573669434
1790958019331851500,10.6568515625,0.01242151577025652,0.19248715043067932,0.07826977223157883
1790958019341863400,10.666863525390625,-0.026679014787077904,0.17074324190616608,0.01739630103111267
1790958019351875600,10.67687548828125,-0.13939358294010162,0.144113227725029,0.01787540316581726
1790958019361887500,10.686887451171875,-0.14646746218204498,0.09304126352071762,0.0563943013548851
1790958019371899400,10.6968994140625,-0.16246560215950012,0.04068085178732872,0.08236997574567795
1790958019381911600,10.70691162109375,-0.17795614898204803,0.005661081522703171,0.03136457875370979
1790958019391923500,10.71692333984375,-0.18971826136112213,-0.0073500582948327065,-0.025428660213947296
1790958019401935600,10.726935546875,-0.20948106050491333,-0.02443290501832962,-0.02563692070543766
1790958019411947500,10.736947509765624,-0.2579766809940338,-0.03831436485052109,0.011908058077096939
1790958019421959400,10.74695947265625,-0.2583239674568176,-0.06079544126987457,-0.005804892163723707
1790958019431971600,10.7569716796875,-0.27195030450820923,-0.052256278693675995,-0.0189001876860857
1790958019441983500,10.7669833984375,-0.2718898355960846,-0.07065526396036148,-0.00015632755821570754
1790958019451995400,10.776995361328124,-0.27982285618782043,-0.0632849633693695,-0.024624919518828392
1790958019462007600,10.787007568359375,-0.2689398527145386,-0.0443408340215683,-0.02328534796833992
1790958019472019500,10.79701953125,-0.27399879693984985,-0.033422939479351044,-0.037930604070425034
1790958019482031600,10.807031494140626,-0.2680743336677551,0.004711132030934095,-0.05829766020178795
1790958019492044500,10.81704443359375,-0.2749732434749603,0.03564641252160072,-0.04478451609611511
1790958019502056400,10.827056396484375,-0.2847270667552948,0.07580528408288956,0.0024027039762586355
1790958019512068600,10.837068603515625,-0.2732722759246826,0.09779633581638336,0.07349978387355804
1790958019522080500,10.84708056640625,-0.29678240418434143,0.09914655983448029,0.08519905060529709
1790958019532092700,10.8570927734375,-0.30329835414886475,0.09869861602783203,0.02490348555147648
1790958019542104600,10.8671044921875,-0.27817970514297485,0.0889623612165451,-0.027650803327560425
1790958019552116500,10.877116455078125,-0.28403812646865845,0.07137405127286911,0.019836554303765297
1790958019562128600,10.887128662109374,-0.2567167282104492,-0.00010146643762709573,0.045290250331163406
1790958019572140500,10.897140625,-0.23696860671043396,0.007531419396400452,0.004198207054287195
1790958019582152400,10.90715234375,-0.2362021505832672,-0.003805124433711171,-0.005825931206345558
1790958019592164600,10.91716455078125,-0.2369459718465805,-0.05378147214651108,-0.05457323044538498
1790958019602176500,10.927176513671874,-0.24658581614494324,-0.023301860317587852,0.00951121374964714
1790958019612188700,10.937188720703125,-0.26972973346710205,-0.14353160560131073,0.11751864105463028
1790958019622200600,10.94720068359375,-0.2824077308177948,-0.2170470952987671,0.029094502329826355
1790958019632212500,10.95721240234375,-0.2887846529483795,-0.18718107044696808,-0.09003695100545883
1790958019642224400,10.967224365234374,-0.2784675657749176,-0.2215781956911087,-0.08044663816690445
1790958019652236500,10.977236572265625,-0.2680743336677551,-0.2699534595012665,-0.004403803031891584
1790958019662248400,10.98724853515625,-0.24362331628799438,-0.30727365612983704,0.04195224493741989
1790958019672260400,10.99726025390625,-0.25667068362236023,-0.29647907614707947,0.0884648859500885
1790958019682272500,11.0072724609375,-0.24083498120307922,-0.3160996437072754,0.11301097273826599
1790958019692284400,11.017284423828125,-0.24231542646884918,-0.28310254216194153,0.08017472922801971
1790958019702297300,11.02729736328125,-0.2253204733133316,-0.2527582347393036,0.05345257371664047
1790958019712309200,11.037309326171876,-0.2566448450088501,-0.21884366869926453,0.06421919912099838
1790958019722321200,11.047321044921874,-0.30776262283325195,-0.21506090462207794,0.06865016371011734
1790958019732333300,11.057333251953125,-0.3603893518447876,-0.23021535575389862,0.04796486347913742
1790958019742345200,11.06734521484375,-0.3500392436981201,-0.23703545331954956,-0.009350358508527279
1790958019752357000,11.077357177734376,-0.37877288460731506,-0.22386744618415833,-0.02323608100414276
1790958019762369300,11.087369384765625,-0.39169827103614807,-0.2774718105792999,-0.030073480680584908
1790958019772381200,11.097381103515625,-0.42280077934265137,-0.3373953402042389,-0.04855315387248993
1790958019782393300,11.107393310546875,-0.45545700192451477,-0.38780632615089417,-0.0742979347705841
1790958019792405200,11.1174052734375,-0.4902288317680359,-0.4509091079235077,-0.07468701899051666
1790958019802417200,11.127417236328125,-0.5182434320449829,-0.512865424156189,-0.08291831612586975
1790958019812429300,11.13742919921875,-0.5305671691894531,-0.586088240146637,-0.09135441482067108
1790958019822441200,11.147441162109375,-0.5415013432502747,-0.6804890632629395,-0.060926202684640884
1790958019832453400,11.157453369140624,-0.5303834676742554,-0.7958084344863892,-0.017587516456842422
1790958019842465300,11.16746533203125,-0.5583711266517639,-0.8623033165931702,0.05493861436843872
1790958019852477400,11.1774775390625,-0.5498687028884888,-0.9093778729438782,0.01990739442408085
1790958019862489300,11.1874892578125,-0.5938665270805359,-0.8701857328414917,0.015674300491809845
1790958019872501200,11.197501220703124,-0.5997153520584106,-0.8781094551086426,0.07635948807001114
1790958019882513400,11.207513427734375,-0.5828511714935303,-0.9502478241920471,0.09471585601568222
1790958019892525300,11.217525390625,-0.6137821674346924,-0.9942472577095032,0.019821908324956894
1790958019902537500,11.227537353515626,-0.7490004897117615,-1.0967051982879639,-0.11108284443616867
1790958019912550400,11.23755029296875,-0.8799853920936584,-1.1469331979751587,-0.17522402107715607
1790958019922562300,11.247562255859375,-0.8445786833763123,-1.2295204401016235,-0.0879165381193161
1790958019932574200,11.25757421875,-0.84850013256073,-1.3564523458480835,-0.005531119182705879
1790958019942586400,11.26758642578125,-0.8362213969230652,-1.3998669385910034,-0.0742926076054573
1790958019952598300,11.277598388671874,-0.7972822189331055,-1.386671781539917,-0.17374809086322784
1790958019962610200,11.287610107421875,-0.7664902210235596,-1.313682198524475,-0.09982086718082428
1790958019972622300,11.297622314453125,-0.7650193572044373,-1.3299472332000732,0.03136511147022247
1790958019982634200,11.30763427734375,-0.7934715151786804,-1.300450086593628,0.03910132870078087
1790958019992646400,11.317646484375,-0.8098496794700623,-1.2494115829467773,-0.05420198664069176
1790958020002658300,11.327658203125,-0.8331486582756042,-1.2521328926086426,-0.11630556732416153
1790958020012670200,11.337670166015625,-0.8365334868431091,-1.2898067235946655,-0.09289425611495972
1790958020022682400,11.347682373046876,-0.8519675731658936,-1.3542845249176025,-0.04061533510684967
1790958020032694300,11.3576943359375,-0.88017737865448,-1.4380462169647217,-0.09297893941402435
1790958020042706200,11.3677060546875,-0.8491235971450806,-1.451104760169983,-0.11049668490886688
1790958020052718300,11.37771826171875,-0.7915881276130676,-1.4395551681518555,-0.09661069512367249
1790958020062730200,11.387730224609374,-0.7297815084457397,-1.4417035579681396,-0.07275623083114624
1790958020072742400,11.397742431640625,-0.6371021866798401,-1.4115190505981445,0.02280677855014801
1790958020082754300,11.40775439453125,-0.5946849584579468,-1.4340901374816895,0.13766944408416748
1790958020092766200,11.41776611328125,-0.5047475695610046,-1.4071018695831299,0.10972916334867477
1790958020102778400,11.4277783203125,-0.47133076190948486,-1.3043653964996338,0.06395048648118973
1790958020112790300,11.437790283203125,-0.46382012963294983,-1.1986349821090698,0.08637004345655441
1790958020122802200,11.44780224609375,-0.4508680999279022,-1.0680817365646362,0.15230537950992584
1790958020132815400,11.4578154296875,-0.4516580104827881,-0.9532992839813232,0.13323049247264862
1790958020142827300,11.4678271484375,-0.42049580812454224,-0.8461139798164368,0.02678687311708927
1790958020152839400,11.47783935546875,-0.46347737312316895,-0.8102917671203613,-0.08160724490880966
1790958020162851300,11.487851318359375,-0.48619014024734497,-0.8242326378822327,-0.037278130650520325
1790958020172863200,11.49786328125,-0.42769327759742737,-0.8889152407646179,0.07706575840711594
1790958020182875400,11.50787548828125,-0.42473530769348145,-0.8837924003601074,-0.009644105099141598
1790958020192887300,11.51788720703125,-0.4135574996471405,-0.8243780732154846,-0.1153593510389328
1790958020202899500,11.5278994140625,-0.37670838832855225,-0.8233322501182556,-0.022472020238637924
1790958020212911400,11.537911376953126,-0.36151906847953796,-0.8497209548950195,0.06651431322097778
1790958020222923300,11.54792333984375,-0.3599472641944885,-0.8662858009338379,0.06776546686887741
1790958020232935400,11.557935302734375,-0.3434188663959503,-0.8941842913627625,0.03737267106771469
1790958020242947300,11.567947265625,-0.3645412027835846,-0.89130038022995,0.06291478127241135
1790958020252959200,11.577959228515626,-0.3682384788990021,-0.9008421897888184,0.10465557128190994
1790958020262971400,11.587971435546875,-0.35119637846946716,-0.8674144744873047,0.08389277011156082
1790958020272983300,11.5979833984375,-0.3500711917877197,-0.8057593703269958,0.06634919345378876
1790958020282995500,11.607995361328125,-0.37255704402923584,-0.8066642880439758,0.13201741874217987
1790958020293007400,11.61800732421875,-0.3933376967906952,-0.841906726360321,0.08719801902770996
1790958020303019300,11.628019287109375,-0.3533910810947418,-0.8084997534751892,-0.06101168692111969
1790958020313031400,11.638031494140625,-0.35416874289512634,-0.7223198413848877,-0.04508065804839134
1790958020323043300,11.648043212890625,-0.4037509262561798,-0.7685057520866394,0.034940142184495926
1790958020333055200,11.65805517578125,-0.4695184826850891,-0.7739647030830383,-0.012178102508187294
1790958020343067400,11.6680673828125,-0.4980374872684479,-0.6825641989707947,-0.1348656713962555
1790958020353079300,11.678079345703125,-0.5121738314628601,-0.6318943500518799,-0.1762421429157257
1790958020363092500,11.688092529296876,-0.4981458783149719,-0.5989087224006653,-0.08112414926290512
1790958020373104400,11.6981044921875,-0.4424450695514679,-0.5976825952529907,-0.016745956614613533
1790958020383116300,11.7081162109375,-0.3832224905490875,-0.5842986106872559,-0.015976302325725555
1790958020393128400,11.71812841796875,-0.2902209162712097,-0.5566651225090027,0.03206818923354149
1790958020403140400,11.728140380859376,-0.26820695400238037,-0.5777125954627991,0.03313957899808884
1790958020413152500,11.738152587890625,-0.2534165680408478,-0.5676681995391846,0.07245422899723053
1790958020423164400,11.748164306640625,-0.21265074610710144,-0.56366366147995,0.15470968186855316
1790958020433176300,11.75817626953125,-0.20320186018943787,-0.5505949854850769,0.22666749358177185
1790958020443188500,11.7681884765625,-0.20932047069072723,-0.5180237293243408,0.22043649852275848
1790958020453200400,11.778200439453125,-0.21529419720172882,-0.47040584683418274,0.19020110368728638
1790958020463212300,11.78821240234375,-0.19100484251976013,-0.4322182536125183,0.10175246000289917
1790958020473224400,11.798224365234375,-0.06788238137960434,-0.2994319796562195,0.009207612834870815
1790958020483236400,11.808236328125,0.06427246332168579,-0.21291333436965942,-0.0034700988326221704
1790958020493248500,11.81824853515625,0.03298191726207733,-0.19057926535606384,-0.02575702778995037
1790958020503260400,11.828260498046875,0.03725362941622734,-0.13670484721660614,-0.07226727157831192
1790958020513272300,11.838272216796875,0.012948289513587952,-0.0950908288359642,0.013941914774477482
1790958020523284500,11.848284423828124,0.008245413191616535,-0.17306391894817352,0.057671550661325455
1790958020533296400,11.85829638671875,0.016030631959438324,-0.15740320086479187,-0.0816115066409111
1790958020543308300,11.868308349609375,0.05692213773727417,-0.07305743545293808,-0.03646506741642952
1790958020553320400,11.878320556640626,0.06668075919151306,-0.15746286511421204,0.19362539052963257
1790958020563332400,11.888332275390624,0.10829585045576096,-0.21259668469429016,0.2573156952857971
1790958020573344500,11.898344482421875,0.11547040194272995,-0.13860368728637695,0.2833869755268097
1790958020583357400,11.908357421875,0.13543425500392914,-0.19412633776664734,0.37300607562065125
1790958020593369300,11.918369384765626,0.10878746956586838,-0.2312566637992859,0.3729807734489441
1790958020603381500,11.928381591796875,0.06139225512742996,-0.24205337464809418,0.32722312211990356
1790958020613393400,11.938393310546875,0.07544815540313721,-0.16707447171211243,0.21296393871307373
1790958020623405600,11.948405517578125,0.1635545790195465,-0.08046448230743408,0.12731029093265533
1790958020633420500,11.958420654296875,0.23777687549591064,-0.019112441688776016,0.027214843779802322
1790958020643432400,11.968432373046875,0.1991189569234848,0.04111414775252342,-0.013256949372589588
1790958020653444400,11.9784443359375,0.22133319079875946,0.07252293825149536,-0.07442630082368851
1790958020663456500,11.98845654296875,0.26246678829193115,0.11643792688846588,-0.12438692897558212
1790958020673468400,11.998468505859375,0.31660139560699463,0.1912921965122223,-0.10320495069026947
1790958020683480300,12.008480224609375,0.29719439148902893,0.2257351279258728,0.050286874175071716
1790958020693492500,12.018492431640626,0.3515005111694336,0.17660672962665558,0.05107543617486954
1790958020703504400,12.02850439453125,0.3427285850048065,0.3004271984100342,-0.008914665319025517
1790958020713516300,12.038516357421875,0.36375343799591064,0.42177972197532654,0.042390067130327225
1790958020723528400,12.048528564453125,0.37624233961105347,0.4709741771221161,0.21205393970012665
1790958020733540400,12.058540283203126,0.3787451684474945,0.4580237567424774,0.2911580801010132
1790958020743552500,12.068552490234374,0.3748026490211487,0.44337236881256104,0.2212117463350296
1790958020753564400,12.078564453125,0.3311518430709839,0.46720102429389954,0.11443230509757996
1790958020763576300,12.088576416015625,0.33370259404182434,0.49732083082199097,0.09965761750936508
1790958020773588500,12.09858837890625,0.3747411072254181,0.5507107973098755,0.17723096907138824
1790958020783600400,12.108600341796874,0.4277702569961548,0.5963946580886841,0.13436126708984375
1790958020793612300,12.1186123046875,0.5684091448783875,0.7345168590545654,0.00714712543413043
1790958020803625500,12.12862548828125,0.7157674431800842,0.8449349999427795,-0.07371443510055542
1790958020813637400,12.138637451171874,0.711606502532959,0.8697535395622253,-0.11652182042598724
1790958020823649300,12.148649169921875,0.7459719181060791,0.9559313058853149,-0.1310379058122635
1790958020833661400,12.158661376953125,0.7528934478759766,1.0329078435897827,-0.011913650669157505
1790958020843673300,12.16867333984375,0.7776105403900146,0.9741337299346924,0.06396353989839554
1790958020853685500,12.178685546875,0.7792031168937683,1.0424443483352661,-0.006658968050032854
1790958020863697400,12.188697509765625,0.8389554023742676,1.1556355953216553,-0.02292688749730587
1790958020873709600,12.19870947265625,0.8872318267822266,1.276779055595398,0.19001175463199615
1790958020883721500,12.208721435546876,0.8836589455604553,1.2656886577606201,0.3842776417732239
1790958020893733400,12.2187333984375,0.9390380382537842,1.2129396200180054,0.31565943360328674
1790958020903745500,12.22874560546875,0.929103672504425,1.205473780632019,0.07870546728372574
1790958020913757400,12.23875732421875,0.8707277178764343,1.299193024635315,-0.15599891543388367
1790958020923769300,12.248769287109376,0.8690725564956665,1.3541830778121948,-0.1140245720744133
