time,seconds_elapsed,z,y,x
1790958008731578600,0.05657861328125,0.1287878453731537,-0.3788855969905853,-0.38831162452697754
1790958008741590500,0.066590576171875,0.16835735738277435,-0.4994508922100067,-0.3091963231563568
1790958008751602700,0.076602783203125,0.18776142597198486,-0.6247379779815674,-0.22922185063362122
1790958008761614600,0.086614501953125,0.19492985308170319,-0.7307541370391846,-0.17408215999603271
1790958008771626800,0.096626708984375,0.19644145667552948,-0.7629046440124512,-0.13944509625434875
1790958008781638700,0.106638671875,0.06439874321222305,-1.1104480028152466,-0.1194910928606987
1790958008791650600,0.116650634765625,0.013481234200298786,-1.1960294246673584,0.0010140137746930122
1790958008801662700,0.126662841796875,0.09925632178783417,-1.036907434463501,0.17470857501029968
1790958008811674600,0.136674560546875,0.15573957562446594,-0.9913093447685242,0.26299768686294556
1790958008821686500,0.1466865234375,0.16632190346717834,-1.1225000619888306,0.2774072587490082
1790958008831699700,0.15669970703125,0.16921304166316986,-1.2503869533538818,0.274656742811203
1790958008841711600,0.166711669921875,0.17979536950588226,-1.2330958843231201,0.27062153816223145
1790958008851723800,0.176723876953125,0.1563081592321396,-1.1085020303726196,0.2491718977689743
1790958008861735700,0.186735595703125,0.07978249341249466,-0.9294075965881348,0.22329849004745483
1790958008871747600,0.19674755859375,-0.032415684312582016,-0.7689036726951599,0.2181716412305832
1790958008881759700,0.206759765625,-0.13656072318553925,-0.6234197020530701,0.2303934097290039
1790958008891771600,0.216771728515625,-0.2166457176208496,-0.49440473318099976,0.24479232728481293
1790958008901783800,0.22678369140625,-0.23853769898414612,-0.3626174330711365,0.2568069100379944
1790958008911795700,0.236795654296875,-0.20944026112556458,-0.2763105034828186,0.25544044375419617
1790958008921807600,0.2468076171875,-0.235017791390419,-0.2963941991329193,0.23529335856437683
1790958008931819800,0.25681982421875,-0.19901850819587708,-0.31137314438819885,0.21419739723205566
1790958008941831700,0.266831787109375,-0.17206385731697083,-0.23693859577178955,0.15850937366485596
1790958008951843600,0.276843505859375,-0.1657678782939911,-0.04518140107393265,0.08947969228029251
1790958008961855700,0.286855712890625,-0.2150781750679016,0.15046745538711548,0.041623760014772415
1790958008971867600,0.29686767578125,-0.31213176250457764,0.2942033112049103,0.047580718994140625
1790958008981879800,0.3068798828125,-0.37627315521240234,0.3838516175746918,0.10272634774446487
1790958008991891700,0.3168916015625,-0.38010066747665405,0.4149016737937927,0.16782145202159882
1790958009001903600,0.326903564453125,-0.3856522738933563,0.34970083832740784,0.2178388237953186
1790958009011915800,0.336915771484375,-0.38794100284576416,0.2718238830566406,0.2329258918762207
1790958009021927700,0.346927734375,-0.35730957984924316,0.26313158869743347,0.2137998640537262
1790958009031939600,0.356939697265625,-0.2894676923751831,0.3318643271923065,0.14580856263637543
1790958009041951700,0.36695166015625,-0.19958627223968506,0.46160686016082764,0.04583749920129776
1790958009051963600,0.376963623046875,-0.14155173301696777,0.5237549543380737,-0.032541725784540176
1790958009061976600,0.3869765625,-0.1283714771270752,0.4640417993068695,-0.06585468351840973
1790958009071988500,0.396988525390625,-0.12153727561235428,0.3868471384048462,-0.02553841657936573
1790958009082000400,0.40700048828125,-0.12390562891960144,0.3138112723827362,0.03221622854471207
1790958009092012500,0.417012451171875,-0.15445926785469055,0.23490527272224426,0.07027173042297363
1790958009102024400,0.4270244140625,-0.15829448401927948,0.18381305038928986,0.0992828756570816
1790958009112036600,0.43703662109375,-0.124350905418396,0.17441901564598083,0.10239291936159134
1790958009122048500,0.447048583984375,-0.07303791493177414,0.1803261786699295,0.053871192038059235
1790958009132060400,0.457060302734375,-0.03369024768471718,0.12740783393383026,0.003458616090938449
1790958009142072600,0.467072509765625,0.003826234955340624,0.046460796147584915,-0.022173510864377022
1790958009152084500,0.47708447265625,0.04529111832380295,-0.047540802508592606,-0.02787161059677601
1790958009162096400,0.487096435546875,0.0653655007481575,-0.1312761753797531,-0.030209867283701897
1790958009172108500,0.497108642578125,0.06753864139318466,-0.18159687519073486,-0.015477791428565979
1790958009182120400,0.507120361328125,0.08066589385271072,-0.21673887968063354,0.006579308304935694
1790958009192132600,0.517132568359375,0.09074036777019501,-0.24159230291843414,0.01267395168542862
1790958009202144500,0.52714453125,0.10302765667438507,-0.24133796989917755,-0.002539354842156172
1790958009212156400,0.537156494140625,0.10249049961566925,-0.2365994155406952,-0.022297346964478493
1790958009222168600,0.54716845703125,0.09018988907337189,-0.19937986135482788,-0.020685335621237755
1790958009232180500,0.557180419921875,0.07906772941350937,-0.11017727851867676,-0.004355897661298513
1790958009242192400,0.5671923828125,0.07638166844844818,0.05311816558241844,0.003690843703225255
1790958009252204500,0.57720458984375,0.08585239946842194,0.3267073631286621,-0.006131959613412619
1790958009262216400,0.587216552734375,0.10994681715965271,0.6621471643447876,-0.06079387292265892
1790958009272228600,0.597228515625,0.15976789593696594,0.8506451845169067,-0.15306814014911652
1790958009282241500,0.607241455078125,0.2143762856721878,0.8414623141288757,-0.23458270728588104
1790958009292253400,0.61725341796875,0.24571716785430908,0.6822444200515747,-0.2658415734767914
1790958009302265600,0.627265625,0.2588910162448883,0.4670964479446411,-0.23433317244052887
1790958009312277500,0.637277587890625,0.2646051049232483,0.28325098752975464,-0.15176798403263092
1790958009322289700,0.64728955078125,0.2360709309577942,0.12591354548931122,-0.06767202168703079
1790958009332301600,0.657301513671875,0.18748368322849274,0.016126591712236404,0.00951757375150919
1790958009342313500,0.6673134765625,0.14643798768520355,-0.013318914920091629,0.07672004401683807
1790958009352325600,0.67732568359375,0.1064213216304779,-0.008879957720637321,0.12935583293437958
1790958009362337500,0.687337646484375,0.06569839268922806,0.008269733749330044,0.15920107066631317
1790958009372349400,0.697349365234375,0.037148505449295044,0.04283063858747482,0.1671479493379593
1790958009382361600,0.707361572265625,0.028008801862597466,0.09929604828357697,0.1478874385356903
1790958009392373500,0.71737353515625,0.0414564348757267,0.16486039757728577,0.10555089265108109
1790958009402385700,0.7273857421875,0.05921732261776924,0.22532828152179718,0.054644305258989334
1790958009412397600,0.7373974609375,0.07285697013139725,0.23961560428142548,0.018728915601968765
1790958009422409500,0.747409423828125,0.08463986217975616,0.22067013382911682,0.012586334720253944
1790958009432421600,0.757421630859375,0.0976928099989891,0.1905905306339264,0.026857415214180946
1790958009442433500,0.76743359375,0.09744247794151306,0.1553446650505066,0.04667399823665619
1790958009452445400,0.777445556640625,0.09077897667884827,0.13580158352851868,0.07054869830608368
1790958009462457600,0.78745751953125,0.08103154599666595,0.14136573672294617,0.08640675991773605
1790958009472469500,0.797469482421875,0.0656438022851944,0.16178472340106964,0.08482404053211212
1790958009482482700,0.807482666015625,0.04423011839389801,0.19307446479797363,0.07614080607891083
1790958009492494600,0.81749462890625,0.025068672373890877,0.23950481414794922,0.07246031612157822
1790958009502506500,0.827506591796875,0.006338128354400396,0.30034369230270386,0.06906186044216156
1790958009512518700,0.8375185546875,-0.003662840463221073,0.34996315836906433,0.05792186036705971
1790958009522530600,0.847530517578125,-0.00377842178568244,0.38273710012435913,0.03043404035270214
1790958009532542700,0.857542724609375,0.009554694406688213,0.38803836703300476,-0.007149819750338793
1790958009542554600,0.8675546875,0.022512303665280342,0.36020806431770325,-0.03606588765978813
1790958009552566500,0.87756640625,0.024920601397752762,0.298989474773407,-0.04347001016139984
1790958009562578700,0.88757861328125,0.024939775466918945,0.2300276905298233,-0.02745402790606022
1790958009572590600,0.897590576171875,0.018807314336299896,0.17270421981811523,-0.0030157952569425106
1790958009582602500,0.9076025390625,0.012416260316967964,0.13635872304439545,0.005188871640712023
1790958009592614700,0.91761474609375,0.010283335112035275,0.12765657901763916,0.00037387665361166
1790958009602626600,0.92762646484375,0.01702752336859703,0.13666552305221558,-0.008207892999053001
1790958009612638700,0.937638671875,0.028258074074983597,0.1491227149963379,-0.028985345736145973
1790958009622650600,0.947650634765625,0.037401773035526276,0.1558765023946762,-0.054072052240371704
1790958009632662500,0.95766259765625,0.044246893376111984,0.16279591619968414,-0.07642636448144913
1790958009642674400,0.96767431640625,0.0518542155623436,0.14931952953338623,-0.08473995327949524
1790958009652686600,0.9776865234375,0.053214821964502335,0.11387259513139725,-0.07402206212282181
1790958009662698500,0.987698486328125,0.05575947463512421,0.08745403587818146,-0.049683164805173874
1790958009672710700,0.997710693359375,0.05722447857260704,0.07720406353473663,-0.03310205787420273
1790958009682722600,1.00772265625,0.05470645800232887,0.10516459494829178,-0.030323849990963936
1790958009692734500,1.017734375,0.05275276303291321,0.18557234108448029,-0.03131294623017311
1790958009702747600,1.02774755859375,0.04345380514860153,0.2861729860305786,-0.04695582017302513
1790958009712759600,1.037759521484375,0.03262965381145477,0.4060884714126587,-0.07207395881414413
1790958009722771700,1.047771728515625,0.025231657549738884,0.5631428360939026,-0.11292897909879684
1790958009732783600,1.05778369140625,0.022760244086384773,0.7136886715888977,-0.17032302916049957
1790958009742795500,1.06779541015625,0.012340093962848186,0.7821284532546997,-0.22090737521648407
1790958009752807700,1.0778076171875,-0.028606273233890533,0.7540419101715088,-0.24685776233673096
1790958009762819600,1.087819580078125,-0.09163503348827362,0.6629348993301392,-0.21369101107120514
1790958009772831700,1.097831787109375,-0.08067000657320023,0.590318500995636,-0.1463164985179901
1790958009782843600,1.10784375,-0.047876641154289246,0.46191179752349854,-0.10587906092405319
1790958009792855600,1.11785546875,-0.018252702429890633,0.3082932233810425,-0.09367086738348007
1790958009802867700,1.12786767578125,-0.0018241939833387733,0.2195896953344345,-0.08821191638708115
1790958009812879600,1.137879638671875,0.010622621513903141,0.20942094922065735,-0.08609550446271896
1790958009822891500,1.1478916015625,0.01762140914797783,0.18905416131019592,-0.08672427386045456
1790958009832903700,1.157903564453125,0.026978692039847374,0.1499863862991333,-0.09334356337785721
1790958009842915600,1.16791552734375,0.042459115386009216,0.10433581471443176,-0.10040812939405441
1790958009852927500,1.177927490234375,0.05224303528666496,0.05990629643201828,-0.10000572353601456
1790958009862939600,1.187939697265625,0.04062046855688095,0.012323598377406597,-0.07741706073284149
1790958009872951600,1.19795166015625,0.029589921236038208,0.019615864381194115,-0.03673886880278587
1790958009882963700,1.207963623046875,0.021584991365671158,0.035024382174015045,0.00509912334382534
1790958009892976600,1.2179765625,0.015021365135908127,0.03240169957280159,0.028229741379618645
1790958009902988800,1.22798876953125,0.010456440970301628,-0.003987731412053108,0.04715576395392418
1790958009913000700,1.238000732421875,0.015443742275238037,-0.011414221487939358,0.05726112797856331
1790958009923012600,1.2480126953125,0.018020084127783775,0.01371936034411192,0.05722730606794357
1790958009933024800,1.258024658203125,0.015210982412099838,0.0422079935669899,0.05461448058485985
1790958009943036700,1.26803662109375,0.015038142912089825,0.04829491302371025,0.05009962245821953
1790958009953048600,1.278048583984375,0.019455794245004654,0.04168707877397537,0.04626413807272911
1790958009963060700,1.288060791015625,0.018196385353803635,0.03800685703754425,0.04335197061300278
1790958009973072600,1.29807275390625,0.009112875908613205,0.03542998060584068,0.0437445230782032
1790958009983084800,1.308084716796875,0.019384542480111122,0.05194487050175667,0.05180405452847481
1790958009993096700,1.3180966796875,0.03778112679719925,0.046016938984394073,0.05620173364877701
1790958010003108600,1.328108642578125,0.04673866927623749,0.015530400909483433,0.05390448868274689
1790958010013120800,1.338120849609375,0.04333727806806564,0.0022750496864318848,0.0506647527217865
1790958010023132700,1.348132568359375,0.027393201366066933,0.06613312661647797,0.058350902050733566
1790958010033144600,1.35814453125,-0.019106123596429825,0.15637965500354767,0.0668458491563797
1790958010043156700,1.36815673828125,-0.029332662001252174,-0.022701140493154526,0.06786797940731049
1790958010053168600,1.378168701171875,0.0037267524749040604,-0.20409570634365082,0.1071767657995224
1790958010063180500,1.3881806640625,0.03295174986124039,-0.2935052216053009,0.12339328229427338
1790958010073192700,1.398192626953125,0.017369860783219337,-0.3501935303211212,0.10762311518192291
1790958010083204600,1.40820458984375,-0.003380957990884781,-0.3335722088813782,0.10792404413223267
1790958010093217500,1.418217529296875,-0.02834862470626831,-0.20584672689437866,0.09915852546691895
1790958010103229400,1.4282294921875,-0.05727534741163254,-0.06960926204919815,0.06767302751541138
1790958010113241600,1.43824169921875,-0.0571131594479084,-0.02399889938533306,0.02563397027552128
1790958010123253500,1.44825341796875,-0.03172391653060913,-0.07024601846933365,-0.018916454166173935
1790958010133265400,1.458265380859375,0.011347920633852482,-0.19454188644886017,-0.05004161596298218
1790958010143277600,1.468277587890625,0.05540619418025017,-0.3168044090270996,-0.052306100726127625
1790958010153289500,1.47828955078125,0.08152487874031067,-0.3768794536590576,-0.04495284706354141
1790958010163301400,1.48830126953125,0.07495299726724625,-0.38706207275390625,-0.036675743758678436
1790958010173313500,1.4983134765625,0.04941727593541145,-0.35247692465782166,-0.014447670429944992
1790958010183325400,1.508325439453125,0.01811847649514675,-0.32609882950782776,0.023586265742778778
1790958010193337600,1.518337646484375,-0.012387768365442753,-0.31539931893348694,0.061004478484392166
1790958010203349500,1.528349609375,-0.04145830124616623,-0.29764536023139954,0.08869628608226776
1790958010213361400,1.538361328125,-0.06356440484523773,-0.27463483810424805,0.09354084730148315
1790958010223373600,1.54837353515625,-0.07308999449014664,-0.2360118329524994,0.07614214718341827
1790958010233385500,1.558385498046875,-0.05561220273375511,-0.2228803038597107,0.05578148365020752
1790958010243397400,1.5683974609375,-0.022774362936615944,-0.2441760152578354,0.03775161877274513
1790958010253409500,1.578409423828125,0.0052831037901341915,-0.25815442204475403,0.028936821967363358
1790958010263421400,1.58842138671875,0.02082264982163906,-0.24648231267929077,0.024271229282021523
1790958010273434600,1.5984345703125,0.011519428342580795,-0.22854432463645935,0.029535500332713127
1790958010283446500,1.608446533203125,-0.015331893227994442,-0.22577330470085144,0.04351842775940895
1790958010293458400,1.61845849609375,-0.03861910477280617,-0.22490963339805603,0.05568454787135124
1790958010303470600,1.628470703125,-0.04753829911351204,-0.2282782793045044,0.061537906527519226
1790958010313482500,1.638482421875,-0.047017648816108704,-0.2209484577178955,0.06137199327349663
1790958010323494700,1.64849462890625,-0.049190789461135864,-0.19704924523830414,0.05634208023548126
1790958010333506600,1.658506591796875,-0.06165624409914017,-0.18339549005031586,0.04533709958195686
1790958010343518500,1.6685185546875,-0.07697741687297821,-0.25394394993782043,0.05639135092496872
1790958010353530600,1.678530517578125,-0.08673976361751556,-0.3106066882610321,0.09664422273635864
1790958010363542500,1.68854248046875,-0.08991558104753494,-0.3116399943828583,0.14819636940956116
1790958010373554400,1.698554443359375,-0.10665567964315414,-0.27542686462402344,0.17618858814239502
1790958010383566600,1.708566650390625,-0.12519820034503937,-0.25619858503341675,0.17691349983215332
1790958010393578500,1.71857861328125,-0.13254959881305695,-0.2591312527656555,0.16894932091236115
1790958010403590700,1.728590576171875,-0.15060663223266602,-0.30804795026779175,0.17154963314533234
1790958010413602600,1.7386025390625,-0.19993849098682404,-0.39126771688461304,0.1755630075931549
1790958010423614500,1.748614501953125,-0.22240199148654938,-0.49868738651275635,0.20632731914520264
1790958010433627600,1.758627685546875,-0.23362454771995544,-0.5461744666099548,0.23289181292057037
1790958010443639600,1.7686396484375,-0.2417312115430832,-0.5503420829772949,0.25012698769569397
1790958010453651700,1.778651611328125,-0.2687303423881531,-0.49669134616851807,0.29887697100639343
1790958010463663600,1.78866357421875,-0.31136009097099304,-0.38869884610176086,0.36801236867904663
1790958010473675500,1.798675537109375,-0.3504907190799713,-0.29734015464782715,0.40077322721481323
1790958010483687700,1.808687744140625,-0.3509354591369629,-0.24920645356178284,0.37844395637512207
1790958010493699600,1.818699462890625,-0.30572643876075745,-0.23090681433677673,0.3267227113246918
1790958010503711500,1.82871142578125,-0.24884584546089172,-0.19772222638130188,0.27134573459625244
1790958010513723600,1.8387236328125,-0.1933136135339737,-0.13678830862045288,0.21390694379806519
1790958010523735600,1.848735595703125,-0.14044053852558136,-0.06814292073249817,0.15110985934734344
1790958010533747700,1.858747802734375,-0.11169438064098358,-0.079064279794693,0.10533492267131805
1790958010543759600,1.868759521484375,-0.09116140753030777,-0.1493363231420517,0.08488105237483978
1790958010553771500,1.878771484375,-0.07265430688858032,-0.20525631308555603,0.07953634858131409
1790958010563783700,1.88878369140625,-0.05511845275759697,-0.24552783370018005,0.06702747941017151
1790958010573795600,1.898795654296875,-0.031259726732969284,-0.26401177048683167,0.04455386474728584
1790958010583807500,1.908807373046875,-0.0028651035390794277,-0.2308167964220047,0.01854570023715496
1790958010593819600,1.918819580078125,0.018809832632541656,-0.21651002764701843,-0.006333550438284874
1790958010603831600,1.92883154296875,0.029688846319913864,-0.2547314465045929,-0.012599969282746315
1790958010613844700,1.9388447265625,0.017008736729621887,-0.3066258132457733,0.012432413175702095
1790958010623855900,1.94885595703125,-0.001976140309125185,-0.3376484513282776,0.04598424956202507
1790958010633868000,1.958867919921875,-0.003855267073959112,-0.3405725955963135,0.05476229265332222
1790958010643880000,1.9688798828125,0.010570277459919453,-0.32401517033576965,0.036559589207172394
1790958010653892000,1.97889208984375,0.038605641573667526,-0.2574172616004944,-0.00925637036561966
1790958010663904000,1.988904052734375,0.07553436607122421,-0.14447471499443054,-0.05145628750324249
1790958010673916000,1.998916015625,0.10013371706008911,0.006193092558532953,-0.048094313591718674
1790958010683928000,2.008927978515625,0.08956336230039597,0.09890412539243698,0.008757517673075199
1790958010693940000,2.01893994140625,0.05452202260494232,0.12575437128543854,0.08036698400974274
1790958010703952000,2.028951904296875,0.02238219603896141,0.12469124794006348,0.11924861371517181
1790958010713964000,2.038964111328125,0.002542711328715086,0.10199152678251266,0.11712074279785156
1790958010723976000,2.048975830078125,0.0015461563598364592,0.0967128723859787,0.08142240345478058
1790958010733988000,2.058988037109375,0.006741451099514961,0.1284036785364151,0.04776670038700104
1790958010744000000,2.069,0.019938746467232704,0.15250955522060394,0.02852190099656582
1790958010754012000,2.079011962890625,0.02851705439388752,0.169448584318161,0.027910172939300537
1790958010764024000,2.089024169921875,0.05615214258432388,0.14794835448265076,0.026439575478434563
1790958010774037000,2.099037109375,0.06190270930528641,0.09877735376358032,0.021807271987199783
1790958010784049200,2.109049072265625,0.059059783816337585,0.018575459718704224,0.012524292804300785
1790958010794061000,2.11906103515625,0.06000946834683418,-0.05202946439385414,-0.005623019300401211
1790958010804073000,2.129072998046875,0.06596855819225311,-0.08908043056726456,-0.02882634475827217
1790958010814085000,2.139085205078125,0.07802202552556992,-0.1320555955171585,-0.05018915608525276
1790958010824097000,2.149096923828125,0.09132158011198044,-0.19541113078594208,-0.0576326884329319
1790958010834109000,2.15910888671875,0.06792198121547699,-0.2818720042705536,-0.05005919188261032
1790958010844121000,2.16912109375,-0.03052123263478279,-0.44541165232658386,0.005780103616416454
1790958010854133000,2.179133056640625,-0.16000013053417206,-0.5861698389053345,0.12946581840515137
1790958010864145200,2.189145263671875,-0.3579166829586029,-0.6426725387573242,0.2667568624019623
1790958010874157000,2.199156982421875,-0.5919392704963684,-0.6223012208938599,0.4611993134021759
1790958010884169000,2.2091689453125,-0.7910390496253967,-0.514632523059845,0.6468650102615356
1790958010894181000,2.21918115234375,-0.9842734932899475,-0.331119179725647,0.7597537636756897
1790958010904193000,2.229193115234375,-1.1299854516983032,-0.01851118914783001,0.8075122237205505
1790958010914205000,2.239204833984375,-1.3241138458251953,0.4533543288707733,0.8224714994430542
1790958010924217000,2.249217041015625,-1.3127752542495728,0.9524880051612854,0.7824894189834595
1790958010934229800,2.259229736328125,-1.1110999584197998,1.1687654256820679,0.6131798028945923
1790958010944242000,2.269241943359375,-0.8368105292320251,0.7110292911529541,0.3480543792247772
1790958010954253800,2.27925390625,-0.6646806001663208,0.20935392379760742,0.05694901570677757
1790958010964265700,2.289265625,-0.525696873664856,-0.5023921132087708,-0.1081366091966629
1790958010974278000,2.29927783203125,-0.3686867654323578,-0.9077300429344177,-0.15576697885990143
1790958010984289800,2.309289794921875,-0.20026984810829163,-1.0315320491790771,-0.11447688192129135
1790958010994302000,2.319302001953125,-0.06619513034820557,-0.9035961031913757,-0.06035558879375458
1790958011004313900,2.32931396484375,-0.10508900135755539,-0.2623676657676697,0.06694164127111435
1790958011014325800,2.33932568359375,-0.17526249587535858,0.2375614494085312,0.27270999550819397
1790958011024338000,2.349337890625,-0.2849578261375427,0.3851061761379242,0.41874441504478455
1790958011034349800,2.359349853515625,-0.4139064848423004,0.5530562996864319,0.4723120331764221
1790958011044361700,2.36936181640625,-0.5549035668373108,1.033323049545288,0.4831998348236084
1790958011054374000,2.379373779296875,-0.750644862651825,1.7158043384552002,0.4542315602302551
1790958011064385800,2.3893857421875,-0.9942457675933838,2.10914945602417,0.4140990674495697
1790958011074398000,2.39939794921875,-1.2333577871322632,1.9684760570526123,0.3951354920864105
1790958011084409900,2.409409912109375,-1.4103565216064453,0.8186879754066467,0.18306665122509003
1790958011094421800,2.419421875,-1.508792757987976,0.071138396859169,0.2220958024263382
1790958011104435000,2.42943505859375,-1.6109615564346313,-0.38765183091163635,0.26913973689079285
1790958011114446800,2.43944677734375,-1.7777819633483887,-0.13082216680049896,0.3086157739162445
1790958011124459000,2.449458984375,-1.7689671516418457,0.08063922077417374,0.29464590549468994
1790958011134471000,2.459470947265625,-1.4712382555007935,-0.02764384262263775,0.3575606942176819
1790958011144482800,2.46948291015625,-0.8757718801498413,-0.6201361417770386,0.49952369928359985
1790958011154495000,2.479494873046875,-0.32471296191215515,-1.0829325914382935,0.587911069393158
1790958011164507000,2.4895068359375,-0.06982555240392685,-1.1310365200042725,0.7163500189781189
1790958011174518800,2.499518798828125,-0.0356404185295105,-1.0755364894866943,0.9594425559043884
1790958011184531000,2.509531005859375,-0.14430378377437592,-1.0337836742401123,1.2275327444076538
1790958011194542800,2.51954296875,-0.2904130518436432,-1.2330970764160156,1.5940625667572021
1790958011204555000,2.529554931640625,-0.41672518849372864,-1.6776492595672607,2.0466415882110596
1790958011214567000,2.53956689453125,-0.505285382270813,-2.058499574661255,2.445977210998535
1790958011224578800,2.549578857421875,-0.5448671579360962,-2.172261953353882,2.689249277114868
1790958011234591000,2.559591064453125,-0.5328027606010437,-1.8969725370407104,2.7776405811309814
1790958011244603000,2.569602783203125,-0.4698496460914612,-1.4131786823272705,2.795879364013672
1790958011254614800,2.57961474609375,-0.37962523102760315,-0.885196328163147,2.7954394817352295
1790958011264627000,2.589626953125,-0.33874303102493286,-0.4061424136161804,2.7261123657226562
1790958011274640000,2.599639892578125,-0.4060392379760742,-0.06805997341871262,2.519066333770752
1790958011284652000,2.609652099609375,-0.5097352862358093,0.10046352446079254,2.169872760772705
1790958011294664000,2.619663818359375,-0.5448346734046936,0.17938895523548126,1.7357478141784668
1790958011304675800,2.62967578125,-0.4851306080818176,0.25082293152809143,1.2898651361465454
1790958011314688000,2.63968798828125,-0.35961049795150757,0.36333829164505005,0.8996061086654663
1790958011324700000,2.649699951171875,-0.17681992053985596,0.44212549924850464,0.6416200995445251
1790958011334712000,2.659712158203125,0.05244922637939453,0.31620272994041443,0.5679088830947876
1790958011344724000,2.669723876953125,0.2822243571281433,0.08179503679275513,0.6388245820999146
1790958011354735900,2.67973583984375,0.45128902792930603,-0.050308942794799805,0.7594830989837646
1790958011364748000,2.689748046875,0.5188677906990051,-0.009166298434138298,0.8941420912742615
1790958011374760000,2.699760009765625,0.46841129660606384,0.1107822135090828,1.0335038900375366
1790958011384771800,2.709771728515625,0.3487200438976288,0.24380390346050262,1.0878247022628784
1790958011394784000,2.719783935546875,0.2664240896701813,0.2845132648944855,1.017308235168457
1790958011404796000,2.7297958984375,0.2943260371685028,0.23044441640377045,0.8877699375152588
1790958011414808000,2.73980810546875,0.3786505162715912,0.21120494604110718,0.722161054611206
1790958011424820000,2.749820068359375,0.3804579973220825,0.2851620018482208,0.47474804520606995
1790958011434832000,2.759831787109375,0.28782498836517334,0.2949424684047699,0.22453978657722473
1790958011444845000,2.769844970703125,0.12570665776729584,0.2837049663066864,0.02993089333176613
1790958011454857000,2.77985693359375,-0.04359155148267746,0.3590191900730133,-0.08035220205783844
1790958011464869000,2.789869140625,-0.15608027577400208,0.5027119517326355,-0.08300337940454483
1790958011474881000,2.799881103515625,-0.20769180357456207,0.6028851270675659,-0.019905637949705124
1790958011484893000,2.809892822265625,-0.23565234243869781,0.6468057036399841,0.06121877580881119
1790958011494905000,2.819905029296875,-0.24522879719734192,0.6251803040504456,0.15940579771995544
1790958011504917000,2.8299169921875,-0.2362089455127716,0.5654919743537903,0.283136248588562
1790958011514929000,2.839928955078125,-0.25290828943252563,0.5402017831802368,0.39931824803352356
1790958011524941000,2.849941162109375,-0.27794918417930603,0.5181968808174133,0.46739184856414795
1790958011534953000,2.859952880859375,-0.2399032711982727,0.5319401025772095,0.44683945178985596
1790958011544965000,2.869965087890625,-0.08395388722419739,0.6640992164611816,0.327176958322525
1790958011554977000,2.87997705078125,0.1607424020767212,0.8318048715591431,0.16826879978179932
1790958011564989000,2.889989013671875,0.38460373878479004,0.8391565084457397,0.06020810827612877
1790958011575001000,2.9000009765625,0.48998209834098816,0.7163541913032532,0.017374355345964432
1790958011585013000,2.910012939453125,0.4564148187637329,0.557232677936554,0.009907917119562626
1790958011595025000,2.92002490234375,0.32877668738365173,0.4044247269630432,0.022742222994565964
1790958011605037000,2.930037109375,0.18079468607902527,0.2463914304971695,0.008809896185994148
1790958011615049700,2.9400498046875,0.08233442157506943,0.10417730361223221,-0.05207156389951706
1790958011625062100,2.950062255859375,0.08507055044174194,0.021855000406503677,-0.13367508351802826
1790958011635074300,2.96007421875,0.16812123358249664,0.039884600788354874,-0.19096606969833374
1790958011645086200,2.970086181640625,0.2409549504518509,0.10898032039403915,-0.17827263474464417
1790958011655098000,2.98009814453125,0.2308967262506485,-0.10878796130418777,-0.010357939638197422
1790958011665110300,2.9901103515625,0.18214330077171326,-0.15980933606624603,0.0764312818646431
1790958011675122200,3.0001220703125,0.17357325553894043,-0.16741107404232025,0.07287702709436417
1790958011685134300,3.01013427734375,0.20251035690307617,-0.17391610145568848,0.020456964150071144
1790958011695146200,3.020146240234375,0.2345987856388092,-0.1818493902683258,-0.04490712657570839
1790958011705158100,3.030158203125,0.24194751679897308,-0.20643889904022217,-0.13068728148937225
1790958011715170300,3.04017041015625,0.23137396574020386,0.02091836743056774,-0.34161442518234253
1790958011725182200,3.05018212890625,0.25668519735336304,0.20388871431350708,-0.4908007085323334
1790958011735194000,3.060194091796875,0.2726207375526428,0.36744967103004456,-0.4978141784667969
1790958011745206300,3.070206298828125,0.2832387685775757,0.43178898096084595,-0.3258165717124939
1790958011755218200,3.08021826171875,0.2703133821487427,0.4683762788772583,-0.10194138437509537
1790958011765230300,3.090230224609375,0.264833927154541,0.4374697804450989,0.10025405883789062
1790958011775243300,3.1002431640625,0.26128527522087097,0.326510488986969,0.21280483901500702
1790958011785255200,3.110255126953125,0.2645028829574585,0.19897091388702393,0.19078156352043152
1790958011795267300,3.120267333984375,0.27884534001350403,0.08581481128931046,0.08768393844366074
1790958011805279200,3.130279296875,0.2777467966079712,0.1137164831161499,0.007941172458231449
1790958011815291400,3.14029150390625,0.21008679270744324,0.2473810613155365,0.007185101509094238
1790958011825303300,3.15030322265625,0.0941479355096817,0.35555678606033325,0.05279732868075371
1790958011835315200,3.160315185546875,-0.010724417865276337,0.4040377736091614,0.05685305595397949
1790958011845327400,3.170327392578125,-0.04630930721759796,0.37230169773101807,0.014975912868976593
1790958011855339300,3.18033935546875,-0.03254582732915878,0.32805994153022766,-0.06819353997707367
1790958011865351200,3.19035107421875,-0.01887582242488861,0.3502344787120819,-0.1306164413690567
1790958011875363300,3.20036328125,-0.023102259263396263,0.38797813653945923,-0.10877452045679092
1790958011885375200,3.210375244140625,-0.02206868678331375,0.44141685962677,0.027036838233470917
1790958011895387400,3.220387451171875,-0.010905512608587742,0.44357985258102417,0.19445300102233887
1790958011905399300,3.2303994140625,0.013349226675927639,0.33709096908569336,0.2080060839653015
1790958011915412500,3.24041259765625,0.059940699487924576,0.20128227770328522,0.01586247980594635
1790958011925424400,3.25042431640625,0.13739660382270813,0.06658092886209488,-0.22286434471607208
1790958011935436300,3.260436279296875,0.23517057299613953,-0.0823931023478508,-0.38696807622909546
1790958011945448400,3.270448486328125,0.3588099479675293,-0.21506834030151367,-0.4530075192451477
1790958011955460400,3.28046044921875,0.4538957178592682,-0.20920592546463013,-0.40030863881111145
1790958011965472300,3.29047216796875,0.4930117130279541,-0.08889628201723099,-0.3053187429904938
1790958011975484400,3.300484375,0.473069429397583,0.09341121464967728,-0.23865395784378052
1790958011985496300,3.310496337890625,0.3969042897224426,0.23390647768974304,-0.21214410662651062
1790958011995508200,3.32050830078125,0.27963119745254517,0.2055736482143402,-0.2182302325963974
1790958012005520400,3.330520263671875,0.1812359094619751,0.12434536963701248,-0.25039854645729065
1790958012015532300,3.3405322265625,0.15036986768245697,0.07552030682563782,-0.25974568724632263
1790958012025544400,3.35054443359375,0.2048456221818924,0.08145063370466232,-0.2084641456604004
1790958012035556400,3.360556396484375,0.2518043518066406,0.14778970181941986,-0.1300353854894638
1790958012045568300,3.370568359375,0.2661729156970978,0.1669444888830185,-0.08554301410913467
1790958012055581400,3.38058154296875,0.31166234612464905,0.20409531891345978,-0.11505509912967682
1790958012065593300,3.39059326171875,0.42640119791030884,0.2860037684440613,-0.18442273139953613
1790958012075605500,3.40060546875,0.5981040000915527,0.3280143439769745,-0.15535831451416016
1790958012085617400,3.410617431640625,0.7694365978240967,0.2844330370426178,0.06855200976133347
1790958012095629300,3.42062939453125,0.7987430691719055,0.15229497849941254,0.3369821310043335
1790958012105641500,3.430641357421875,0.7272419929504395,0.13826251029968262,0.5287587642669678
1790958012115653400,3.4406533203125,0.6369664072990417,0.3458833396434784,0.7065045237541199
1790958012125665500,3.45066552734375,0.568790853023529,0.5656330585479736,0.8752517104148865
1790958012135677400,3.460677490234375,0.6038337349891663,0.5718448758125305,0.8457697033882141
1790958012145689300,3.470689453125,0.7859223484992981,0.5085964202880859,0.6258330941200256
1790958012155701500,3.480701416015625,0.8861932754516602,0.32617783546447754,0.42461851239204407
1790958012165713400,3.49071337890625,0.7927171587944031,0.12760373950004578,0.3677555024623871
1790958012175726300,3.500726318359375,0.6438597440719604,0.060042280703783035,0.4542880058288574
1790958012185738200,3.51073828125,0.5525684356689453,0.08380647003650665,0.5928466320037842
1790958012195750100,3.520750244140625,0.4878730773925781,0.2640462815761566,0.6859688758850098
1790958012205762300,3.53076220703125,0.41416609287261963,0.4492017328739166,0.7035550475120544
1790958012215774200,3.540774169921875,0.3426644802093506,0.47443121671676636,0.6531962752342224
1790958012225786000,3.5507861328125,0.2944397032260895,0.26138097047805786,0.5955209732055664
1790958012235798300,3.56079833984375,0.29549136757850647,-0.0025270897895097733,0.5570998191833496
1790958012245810200,3.57081005859375,0.2851963937282562,-0.18449610471725464,0.5630911588668823
1790958012255822300,3.580822265625,0.2697617709636688,-0.16345445811748505,0.5327824950218201
1790958012265834200,3.590834228515625,0.23117311298847198,-0.045024219900369644,0.457680344581604
1790958012275846100,3.60084619140625,0.2105589061975479,0.11779879033565521,0.4085697829723358
1790958012285858300,3.6108583984375,0.24423085153102875,0.12402978539466858,0.4781736135482788
1790958012295871200,3.620871337890625,0.3216899633407593,0.06177786365151405,0.6147588491439819
1790958012305883400,3.63088330078125,0.4255172908306122,0.018220532685518265,0.7181789875030518
1790958012315895300,3.640895263671875,0.5170525312423706,-0.010591674596071243,0.7436867356300354
1790958012325907200,3.6509072265625,0.5839375257492065,0.018322797492146492,0.6987462043762207
1790958012335919400,3.66091943359375,0.584796667098999,0.06450281292200089,0.6535667181015015
1790958012345931300,3.67093115234375,0.525016188621521,0.21334713697433472,0.6373816132545471
1790958012355943200,3.680943115234375,0.4520855247974396,0.4144056737422943,0.6106190085411072
1790958012365955300,3.690955322265625,0.4334748089313507,0.43753576278686523,0.6428759694099426
1790958012375967200,3.70096728515625,0.4668455421924591,0.3481893837451935,0.6801493167877197
1790958012385979400,3.7109794921875,0.4905295670032501,0.2956923544406891,0.5969207286834717
1790958012395991300,3.7209912109375,0.4492489695549011,0.27228662371635437,0.4768332540988922
1790958012406004500,3.73100439453125,0.3765960931777954,0.30657774209976196,0.3854873776435852
1790958012416016400,3.741016357421875,0.35200420022010803,0.38902363181114197,0.378484845161438
1790958012426028300,3.7510283203125,0.4007325768470764,0.42303991317749023,0.43702298402786255
1790958012436040400,3.76104052734375,0.4983872175216675,0.3012618124485016,0.42191994190216064
1790958012446052400,3.77105224609375,0.565433919429779,0.17058849334716797,0.2942788898944855
1790958012456064300,3.781064208984375,0.5020943284034729,0.14309321343898773,0.1898411512374878
1790958012466076400,3.791076416015625,0.3734990954399109,0.13823455572128296,0.16485829651355743
1790958012476088300,3.80108837890625,0.26706957817077637,0.05941883474588394,0.06718527525663376
1790958012486100200,3.811100341796875,0.17051801085472107,-0.05858370289206505,-0.09708835184574127
1790958012496112400,3.8211123046875,0.11419481784105301,-0.12597793340682983,-0.1406206488609314
1790958012506124300,3.831124267578125,0.1260267049074173,-0.11971176415681839,-0.10366901755332947
1790958012516136400,3.841136474609375,0.14766676723957062,-0.05364753305912018,0.04718094319105148
1790958012526149400,3.8511494140625,0.15812605619430542,0.07852994650602341,0.1708299070596695
1790958012536161500,3.86116162109375,0.15036506950855255,0.07779651135206223,0.1684626191854477
1790958012546173400,3.87117333984375,0.16469953954219818,0.029046548530459404,0.03940344601869583
1790958012556185300,3.881185302734375,0.19781355559825897,-0.01628977432847023,-0.13680115342140198
1790958012566197500,3.891197509765625,0.238437682390213,-0.17520566284656525,-0.22740401327610016
1790958012576209400,3.90120947265625,0.2883722186088562,-0.2969784438610077,-0.14899256825447083
1790958012586221300,3.91122119140625,0.3020259737968445,-0.2571955919265747,0.0861152932047844
1790958012596233500,3.9212333984375,0.33987241983413696,-0.19743852317333221,0.28119397163391113
1790958012606245400,3.931245361328125,0.4249838590621948,-0.1195242777466774,0.3378617763519287
1790958012616257500,3.941257568359375,0.5078206658363342,-0.07784394919872284,0.24864187836647034
1790958012626269700,3.951269775390625,0.6048969030380249,-0.0871996283531189,0.03939811885356903
1790958012636281900,3.96128173828125,0.7022082805633545,-0.0744665265083313,-0.17496956884860992
1790958012646294800,3.971294677734375,0.7490593791007996,-0.054585233330726624,-0.32734552025794983
1790958012656307000,3.981306884765625,0.8129252195358276,-0.037673093378543854,-0.3868711590766907
1790958012666318800,3.99131884765625,0.8256950378417969,0.010567673482000828,-0.3828364610671997
1790958012676331000,4.0013310546875,0.8056065440177917,0.1010296642780304,-0.4205628037452698
1790958012686343000,4.011343017578125,0.7667118906974792,0.17358961701393127,-0.4817553162574768
1790958012696354800,4.021354736328125,0.6754986047744751,0.24097637832164764,-0.5481953620910645
1790958012706367000,4.031366943359375,0.536077082157135,0.2739473879337311,-0.6264206767082214
1790958012716379000,4.04137890625,0.3626006245613098,0.3272119164466858,-0.7128567695617676
1790958012726390800,4.051390869140625,0.20042717456817627,0.3567999005317688,-0.8255236148834229
1790958012736403000,4.06140283203125,0.07477284222841263,0.3876608908176422,-0.9833271503448486
1790958012746414800,4.071414794921875,-0.006030927877873182,0.32299187779426575,-1.1583894491195679
1790958012756427000,4.081427001953125,-0.1431107521057129,0.16474391520023346,-1.2710752487182617
1790958012766440000,4.09143994140625,-0.4136839210987091,-0.045377086848020554,-1.2503737211227417
1790958012776451800,4.101451904296875,-0.7792872190475464,-0.17536838352680206,-1.0172549486160278
1790958012786464000,4.111464111328125,-1.0075371265411377,-0.2207411825656891,-0.5969644784927368
1790958012796476000,4.121475830078125,-1.1382131576538086,0.02078409120440483,-0.13216271996498108
1790958012806488000,4.131488037109375,-1.306014895439148,0.40304917097091675,0.2960200607776642
1790958012816500000,4.1415,-1.4666717052459717,0.6230896711349487,0.5449267625808716
1790958012826512000,4.151511962890625,-1.4165747165679932,0.5823779106140137,0.626259446144104
1790958012836524000,4.16152392578125,-1.0561957359313965,0.3837444484233856,0.6457809805870056
1790958012846536000,4.171535888671875,-0.5925902724266052,0.2081020474433899,0.6646925806999207
1790958012856547800,4.1815478515625,-0.4214491546154022,0.0716635212302208,0.6224101185798645
1790958012866560000,4.19156005859375,-0.6026051044464111,0.08992961049079895,0.4652157425880432
1790958012876572000,4.201572021484375,-0.9247578382492065,-0.12057889252901077,0.2815284729003906
1790958012886585000,4.211585205078125,-1.0657591819763184,-0.39463308453559875,0.13942565023899078
1790958012896597000,4.221596923828125,-0.9371005296707153,-0.4678865373134613,0.158219575881958
1790958012906609000,4.23160888671875,-0.9246305227279663,-0.329233855009079,0.2474120408296585
1790958012916621000,4.24162109375,-0.8953456282615662,-0.16057398915290833,0.3385060131549835
1790958012926633000,4.251633056640625,-0.7956528663635254,-0.1519181877374649,0.3392772674560547
1790958012936645000,4.26164501953125,-0.7334688305854797,-0.2710943818092346,0.29970455169677734
1790958012946657000,4.271656982421875,-0.7221493124961853,-0.37118980288505554,0.3137761652469635
1790958012956669000,4.2816689453125,-0.6961534023284912,-0.3465571701526642,0.3692367672920227
1790958012966681000,4.29168115234375,-0.5981565713882446,-0.2129642218351364,0.4173608720302582
1790958012976693000,4.30169287109375,-0.4297044277191162,-0.14779134094715118,0.4482452869415283
1790958012986705000,4.311704833984375,-0.21002960205078125,-0.13600537180900574,0.45735034346580505
1790958012996717800,4.3217177734375,-0.04878159612417221,-0.007403998635709286,0.42717859148979187
1790958013006729700,4.331729736328125,-0.028101617470383644,0.14090211689472198,0.37308260798454285
1790958013016742000,4.341741943359375,-0.10114280879497528,0.15658840537071228,0.24675609171390533
1790958013026753800,4.35175390625,-0.17518800497055054,0.10014722496271133,0.03695119917392731
1790958013036766000,4.361765869140625,-0.20835554599761963,0.0690164715051651,-0.1627909541130066
1790958013046777900,4.37177783203125,-0.2612120807170868,0.061228856444358826,-0.3459237515926361
1790958013056789800,4.381789794921875,-0.33621442317962646,0.07088707387447357,-0.45060089230537415
1790958013066802000,4.391802001953125,-0.3459027409553528,0.14633230865001678,-0.5023685097694397
1790958013076813800,4.401813720703125,-0.26211223006248474,0.12104105949401855,-0.503845751285553
1790958013086825700,4.41182568359375,-0.15019476413726807,0.055138472467660904,-0.41196000576019287
1790958013096838000,4.421837890625,0.002650702139362693,0.10506661981344223,-0.25298047065734863
1790958013106849800,4.431849853515625,0.16235487163066864,0.14143022894859314,-0.09377032518386841
1790958013116863000,4.441863037109375,0.2823087275028229,0.0456584207713604,0.08637706935405731
1790958013126875000,4.451875,0.3915310800075531,0.01582435891032219,0.3418157696723938
1790958013136886800,4.46188671875,0.5292572379112244,0.07008945941925049,0.6795107126235962
1790958013146899000,4.47189892578125,0.6419997811317444,0.1916143000125885,0.9991430044174194
1790958013156910800,4.481910888671875,0.6972667574882507,0.3065616488456726,1.1694884300231934
1790958013166923000,4.491923095703125,0.7485003471374512,0.3309522271156311,1.183282494544983
1790958013176935000,4.501934814453125,0.7456774115562439,0.34258171916007996,1.0774836540222168
1790958013186946800,4.51194677734375,0.6960754990577698,0.3754855990409851,0.8927931189537048
1790958013196959000,4.521958984375,0.6199333667755127,0.2709205746650696,0.6254006028175354
1790958013206971000,4.531970947265625,0.5001651644706726,0.10363144427537918,0.362008661031723
1790958013216982800,4.541982666015625,0.34368765354156494,0.00493549183011055,0.19872091710567474
1790958013226995000,4.551994873046875,0.19236764311790466,0.03163687512278557,0.10629698634147644
1790958013237006800,4.5620068359375,0.060942236334085464,0.006925672292709351,0.01352603267878294
1790958013247020000,4.57202001953125,0.011806650087237358,-0.0629386305809021,-0.04258384183049202
1790958013257032000,4.582031982421875,0.014934265986084938,-0.029989467933773994,-0.0770278349518776
1790958013267043800,4.5920439453125,0.0901390016078949,-0.015611594542860985,-0.04372793436050415
1790958013277056000,4.602055908203125,0.20872823894023895,0.04881506413221359,-0.0049762786366045475
1790958013287068000,4.61206787109375,0.28707924485206604,-0.0019876614678651094,-0.017521366477012634
1790958013297080000,4.622080078125,0.35786446928977966,-0.08439385890960693,0.005210578441619873
1790958013307092000,4.632092041015625,0.44008609652519226,-0.13353662192821503,0.07188761234283447
1790958013317103900,4.642103759765625,0.6085121035575867,-0.22586388885974884,0.19231228530406952
1790958013327116000,4.652115966796875,0.7188596725463867,-0.16266575455665588,0.3130080997943878
1790958013337128000,4.6621279296875,0.7773085832595825,-0.021445248275995255,0.3944270610809326
1790958013347139800,4.672139892578125,0.8047556281089783,0.020387152209877968,0.3846591114997864
1790958013357152000,4.682152099609375,0.7959653735160828,0.021024446934461594,0.28931981325149536
1790958013367165000,4.6921650390625,0.7561784982681274,0.013080503791570663,0.1227036565542221
1790958013377177000,4.702177001953125,0.7006012797355652,-0.0009873781818896532,-0.06796616315841675
1790958013387189000,4.71218896484375,0.586817741394043,0.03548141568899155,-0.28096842765808105
1790958013397201000,4.722200927734375,0.3930373787879944,0.084873728454113,-0.49952051043510437
1790958013407213000,4.732213134765625,0.25244536995887756,0.030854707583785057,-0.577957272529602
1790958013417225000,4.742224853515625,0.20874181389808655,0.01865982636809349,-0.5275343060493469
1790958013427237000,4.752237060546875,0.12994393706321716,0.03870224207639694,-0.378438264131546
1790958013437249000,4.7622490234375,0.08185604214668274,0.08603593707084656,-0.22324922680854797
1790958013447261000,4.772260986328125,0.029673531651496887,0.12055370211601257,-0.13607944548130035
1790958013457273000,4.782273193359375,-0.032983727753162384,0.1362549066543579,-0.16915670037269592
1790958013467285000,4.792284912109375,-0.13471195101737976,0.14714562892913818,-0.2978347837924957
1790958013477298000,4.8022978515625,-0.3042075037956238,0.05507562309503555,-0.37768086791038513
1790958013487309800,4.812309814453125,-0.3918457329273224,-0.04798018932342529,-0.2651178240776062
1790958013497321700,4.82232177734375,-0.46153080463409424,-0.05353474244475365,0.005125090945512056
1790958013507334000,4.832333984375,-0.5159152150154114,-0.054436489939689636,0.2345297783613205
1790958013517345800,4.842345703125,-0.524368405342102,-0.11198633164167404,0.3803304135799408
1790958013527357700,4.852357666015625,-0.5385007262229919,-0.1877703070640564,0.431353896856308
1790958013537369900,4.862369873046875,-0.5880562663078308,-0.24250705540180206,0.4153406023979187
1790958013547381800,4.8723818359375,-0.7263709902763367,-0.2406843900680542,0.3339399993419647
1790958013557394000,4.882393798828125,-0.984714925289154,-0.2348155826330185,0.1572411209344864
1790958013567405800,4.89240576171875,-1.2907975912094116,-0.24132195115089417,-0.11072481423616409
1790958013577417700,4.902417724609375,-1.5056960582733154,-0.24720673263072968,-0.420390784740448
1790958013587430000,4.912429931640625,-1.4318050146102905,-0.2589606046676636,-0.6504226922988892
1790958013597441800,4.92244189453125,-1.0724018812179565,-0.2472594678401947,-0.7315763831138611
1790958013607455000,4.932455078125,-0.6962458491325378,-0.06703697144985199,-0.766029953956604
1790958013617467000,4.942466796875,-0.22888559103012085,0.021472390741109848,-0.7329345941543579
1790958013627481300,4.9524814453125,0.1864841878414154,-0.08885571360588074,-0.6280529499053955
1790958013637493200,4.9624931640625,0.4454342722892761,-0.10322293639183044,-0.5248109698295593
1790958013647505400,4.97250537109375,0.5890382528305054,-0.04404164105653763,-0.4164455831050873
1790958013657517300,4.982517333984375,0.6690518856048584,-0.042218174785375595,-0.313506156206131
1790958013667529500,4.992529541015625,0.6860617399215698,-0.09478311240673065,-0.21228019893169403
1790958013677541400,5.002541259765625,0.6500057578086853,-0.08279622346162796,-0.10517904162406921
1790958013687553300,5.01255322265625,0.5675519108772278,-0.08692651987075806,-0.0008129593916237354
1790958013697565400,5.0225654296875,0.45638465881347656,-0.0959935188293457,0.09020323306322098
1790958013707577300,5.032577392578125,0.3329484760761261,-0.09348002821207047,0.158318892121315
1790958013717589500,5.042589599609375,0.20141519606113434,-0.09329067915678024,0.20047327876091003
1790958013727602200,5.052602294921875,0.07194508612155914,-0.08947223424911499,0.21623572707176208
1790958013737614300,5.0626142578125,-0.03976945951581001,-0.07606455683708191,0.2078891098499298
1790958013747626200,5.072626220703125,-0.08029425144195557,-0.05986427888274193,0.1759391725063324
1790958013757638400,5.082638427734375,-0.045132532715797424,-0.05156853049993515,0.12672209739685059
1790958013767650300,5.092650390625,0.0003997984458692372,-0.041431475430727005,0.07326047122478485
1790958013777662200,5.102662109375,0.004065906163305044,-0.031990304589271545,0.018591897562146187
1790958013787674400,5.11267431640625,-0.010482143610715866,-0.02700805850327015,-0.027802767232060432
1790958013797686300,5.122686279296875,-0.03503862023353577,-0.016501355916261673,-0.06332320719957352
1790958013807698200,5.1326982421875,-0.0441996306180954,-0.007500671315938234,-0.08705995976924896
1790958013817710300,5.14271044921875,-0.03662480041384697,-0.004549356177449226,-0.0853949561715126
1790958013827722200,5.15272216796875,-0.03166918829083443,-0.0055696130730211735,-0.0654207095503807
1790958013837734400,5.162734375,-0.03377947956323624,-0.003545877058058977,-0.037374429404735565
1790958013847747300,5.172747314453125,-0.031608205288648605,-0.0003594048030208796,-0.009848266839981079
1790958013857759200,5.18275927734375,-0.03197358921170235,0.001122377929277718,0.015550034120678902
1790958013867771400,5.192771484375,-0.032806627452373505,0.00487610325217247,0.024528348818421364
1790958013877783300,5.202783203125,-0.02766033262014389,0.013231505639851093,0.018022513017058372
1790958013887795500,5.21279541015625,-0.02445868030190468,0.017223849892616272,0.003707223804667592
1790958013897807400,5.222807373046875,-0.017872681841254234,0.018193241208791733,-0.01202113926410675
1790958013907819300,5.2328193359375,-0.015906203538179398,0.021988244727253914,-0.02255287580192089
1790958013917831400,5.24283154296875,-0.011422505602240562,0.015571359544992447,-0.029069097712635994
1790958013927843300,5.25284326171875,-0.010630215518176556,0.015427282080054283,-0.03225290775299072
1790958013937855200,5.262855224609375,-0.016421524807810783,0.01715007983148098,-0.02903634123504162
1790958013947867400,5.272867431640625,-0.014730684459209442,0.017011063173413277,-0.019940581172704697
1790958013957879300,5.28287939453125,-0.010877623222768307,0.014952173456549644,-0.009982755407691002
1790958013967892500,5.292892578125,-0.005304692313075066,0.01569945737719536,-0.0013170959427952766
1790958013977904400,5.302904296875,-0.0013706710888072848,0.01756526716053486,0.00015749642625451088
1790958013987916500,5.31291650390625,-0.00009177636820822954,0.010613685473799706,0.008263807743787766
1790958013997928400,5.322928466796875,-0.0901564210653305,0.0430603064596653,0.006099190562963486
1790958014007940400,5.3329404296875,-0.334798663854599,0.04623905569314957,-0.06272860616445541
1790958014017952500,5.342952392578125,-0.15070392191410065,-0.29998335242271423,0.027873994782567024
1790958014027964400,5.35296435546875,-0.21530981361865997,-0.18592999875545502,0.022778568789362907
1790958014037976300,5.362976318359375,-0.28459036350250244,0.011044851504266262,0.06678197532892227
1790958014047988500,5.372988525390625,-0.3002699911594391,0.02900121547281742,0.004333514720201492
1790958014058000400,5.38300048828125,-0.3831920325756073,0.03152668848633766,-0.25271880626678467
1790958014068012300,5.39301220703125,-0.5012699365615845,-0.02244253270328045,-0.5217505097389221
1790958014078024400,5.4030244140625,-0.535007119178772,-0.05291735380887985,-0.620392918586731
1790958014088037400,5.413037353515625,-0.47202417254447937,-0.02406999096274376,-0.5343384742736816
1790958014098049300,5.42304931640625,-0.3383989930152893,0.01942475512623787,-0.3186030089855194
1790958014108061400,5.4330615234375,-0.195936918258667,0.05238829553127289,-0.0774870440363884
1790958014118073300,5.4430732421875,-0.11339197307825089,0.038241319358348846,0.0968429446220398
1790958014128085200,5.453085205078125,-0.08880087733268738,0.048218317329883575,0.20016133785247803
1790958014138097400,5.463097412109375,-0.09994327276945114,0.06021053344011307,0.2987648546695709
1790958014148109300,5.473109375,-0.13505412638187408,0.10445708781480789,0.3905552327632904
1790958014158121500,5.48312158203125,-0.08720244467258453,0.0879976898431778,0.457042932510376
1790958014168133400,5.49313330078125,-0.09258496016263962,0.06082811951637268,0.5604303479194641
1790958014178145500,5.5031455078125,-0.10348128527402878,0.08537207543849945,0.6970195770263672
1790958014188157400,5.513157470703125,-0.11745116114616394,0.1259559988975525,0.8226755261421204
1790958014198169300,5.52316943359375,-0.15078647434711456,0.19272197782993317,0.8614506125450134
1790958014208181500,5.533181396484375,-0.1825164407491684,0.21090231835842133,0.815762996673584
1790958014218194200,5.543194091796875,-0.19246681034564972,0.1460692584514618,0.809772253036499
1790958014228206300,5.553206298828125,-0.20831875503063202,0.16898921132087708,0.8693900108337402
1790958014238218200,5.56321826171875,-0.232640340924263,0.26533597707748413,0.8442274332046509
1790958014248230400,5.57323046875,-0.24626372754573822,0.22839608788490295,0.7542852759361267
1790958014258242300,5.5832421875,-0.29765555262565613,0.1833641678094864,0.6732689738273621
1790958014268254200,5.593254150390625,-0.3553585410118103,0.20804394781589508,0.5670011639595032
1790958014278266400,5.603266357421875,-0.3732568323612213,0.17230458557605743,0.46874910593032837
1790958014288278300,5.6132783203125,-0.37582919001579285,0.15314288437366486,0.43631768226623535
1790958014298290200,5.623290283203125,-0.3766486346721649,0.13260723650455475,0.41630107164382935
1790958014308302300,5.63330224609375,-0.3979667127132416,0.1373109221458435,0.3748047649860382
1790958014318314200,5.643314208984375,-0.4121192693710327,0.13375772535800934,0.3034648001194
1790958014328326400,5.653326416015625,-0.3948444128036499,0.11144042760133743,0.25246235728263855
1790958014338339300,5.66333935546875,-0.3404719829559326,0.1145283654332161,0.2675352990627289
1790958014348351200,5.673351318359375,-0.2522028386592865,0.12172076851129532,0.2768198847770691
1790958014358363400,5.68336328125,-0.16091474890708923,0.12065336853265762,0.23898065090179443
1790958014368375300,5.693375244140625,-0.05961236357688904,0.11571001261472702,0.17654310166835785
1790958014378387500,5.703387451171875,0.04369884729385376,0.10064663738012314,0.11861775070428848
1790958014388399400,5.7133994140625,0.15378913283348083,0.0975073054432869,0.059664949774742126
1790958014398411300,5.723411376953125,0.24761122465133667,0.10688669234514236,-0.022429123520851135
1790958014408423400,5.73342333984375,0.32965683937072754,0.12405822426080704,-0.150150865316391
1790958014418435300,5.743435302734375,0.4134382903575897,0.13118217885494232,-0.3017289638519287
1790958014428447200,5.753447265625,0.4707396626472473,0.12385635077953339,-0.43359243869781494
1790958014438459400,5.76345947265625,0.48856446146965027,0.09668758511543274,-0.49574318528175354
1790958014448471300,5.77347119140625,0.503424346446991,0.08500216156244278,-0.5297287702560425
1790958014458483500,5.7834833984375,0.518592119216919,0.09088295698165894,-0.552470326423645
1790958014468496400,5.793496337890625,0.543918251991272,0.06814568489789963,-0.5890501737594604
1790958014478508300,5.80350830078125,0.5495186448097229,0.0386357307434082,-0.6036416292190552
1790958014488520400,5.8135205078125,0.5600247979164124,0.03620506450533867,-0.5825230479240417
1790958014498532400,5.823532470703125,0.5534169673919678,0.05131051316857338,-0.5202122330665588
1790958014508544500,5.83354443359375,0.49665939807891846,0.06382790207862854,-0.4603936970233917
1790958014518556400,5.843556396484375,0.4278491735458374,0.06335066258907318,-0.4577547609806061
1790958014528568300,5.853568359375,0.33033087849617004,0.035693470388650894,-0.458280473947525
1790958014538580500,5.86358056640625,0.2357441782951355,0.04582653194665909,-0.43811261653900146
1790958014548592400,5.87359228515625,0.14940716326236725,0.041960421949625015,-0.4295242130756378
1790958014558604300,5.883604248046875,0.06497777253389359,0.03983122482895851,-0.44769522547721863
1790958014568616400,5.893616455078125,-0.04325762391090393,0.005702816881239414,-0.49425312876701355
1790958014578628400,5.90362841796875,-0.14344415068626404,-0.031014449894428253,-0.5375257134437561
1790958014588641300,5.913641357421875,-0.2136695683002472,-0.05697787553071976,-0.5744454264640808
1790958014598653400,5.9236533203125,-0.2509322464466095,-0.06487494707107544,-0.5289652943611145
1790958014608665300,5.933665283203125,-0.2688974142074585,-0.07806532084941864,-0.3889259099960327
1790958014618677500,5.943677490234375,-0.2566679120063782,-0.05626148357987404,-0.18794991075992584
1790958014628686300,5.953686279296875,-0.22262445092201233,-0.04581363871693611,-0.004755587317049503
1790958014638698200,5.9636982421875,-0.20449338853359222,-0.03449786826968193,0.11708856374025345
1790958014648710100,5.973710205078125,-0.18461821973323822,-0.028877796605229378,0.17356009781360626
1790958014658722300,5.983722412109375,-0.16832765936851501,-0.022162368521094322,0.208419531583786
1790958014668734200,5.993734130859375,-0.13048280775547028,-0.005468078423291445,0.2478196769952774
1790958014678746000,6.00374609375,-0.07074437290430069,0.023991011083126068,0.3410297632217407
1790958014688758300,6.01375830078125,0.0014906739816069603,0.0612528920173645,0.4348478615283966
1790958014698770200,6.023770263671875,0.06448348611593246,0.07934081554412842,0.4257633090019226
1790958014708782000,6.033781982421875,0.08920108526945114,0.06509077548980713,0.3201601803302765
1790958014718795300,6.043795166015625,0.0820441022515297,0.06154690682888031,0.15964508056640625
1790958014728807200,6.05380712890625,0.0506741963326931,0.05211159214377403,-0.05604913830757141
1790958014738819300,6.0638193359375,0.0311199389398098,0.03632570430636406,-0.25847041606903076
1790958014748831200,6.073831298828125,0.021171966567635536,0.03718484193086624,-0.41053587198257446
1790958014758843400,6.083843505859375,0.0018619186012074351,0.0421212762594223,-0.5122265219688416
1790958014768855300,6.093855224609375,0.0038478379137814045,0.04757223650813103,-0.6101371049880981
1790958014778867200,6.1038671875,-0.012344980612397194,0.017547493800520897,-0.7408889532089233
1790958014788879400,6.11387939453125,-0.01294925156980753,-0.02245824597775936,-0.8490436673164368
1790958014798891300,6.123891357421875,-0.0028649261221289635,-0.06143281236290932,-0.8835965991020203
1790958014808903200,6.133903076171875,0.008727281354367733,-0.09177820384502411,-0.849614679813385
1790958014818915300,6.143915283203125,0.034036099910736084,-0.0995815321803093,-0.6981167197227478
1790958014828927200,6.15392724609375,0.08811211585998535,-0.05713074281811714,-0.48176395893096924
1790958014838939400,6.163939453125,0.15148203074932098,-0.024880124256014824,-0.263043612241745
1790958014848952300,6.173952392578125,0.21288494765758514,-0.002338065067306161,-0.13049061596393585
1790958014858964200,6.183964111328125,0.27313071489334106,0.008240809664130211,-0.03919292241334915
1790958014868976400,6.193976318359375,0.30087631940841675,0.026633400470018387,0.05286989361047745
1790958014878988300,6.20398828125,0.315433144569397,0.04770432785153389,0.12540267407894135
1790958014889000400,6.21400048828125,0.31561478972435,0.04351357743144035,0.15816356241703033
1790958014899012400,6.224012451171875,0.2917259633541107,0.024279166013002396,0.17912769317626953
1790958014909024300,6.234024169921875,0.25990599393844604,0.0007815617718733847,0.20214059948921204
1790958014919036400,6.244036376953125,0.2271357774734497,-0.032176122069358826,0.21132558584213257
1790958014929048300,6.25404833984375,0.15682193636894226,-0.06515111774206161,0.20181676745414734
1790958014939060200,6.264060302734375,0.05776805803179741,-0.08632830530405045,0.15925811231136322
1790958014949072400,6.274072265625,-0.03182600438594818,-0.09975756704807281,0.04575552046298981
1790958014959084300,6.284084228515625,-0.07871921360492706,-0.10779125243425369,-0.12460103631019592
1790958014969096400,6.294096435546875,-0.1720172017812729,-0.1303122639656067,-0.3286505937576294
1790958014979108400,6.3041083984375,-0.2546257972717285,-0.13978992402553558,-0.5037072896957397
1790958014989121300,6.314121337890625,-0.29503723978996277,-0.1630852073431015,-0.6285752058029175
1790958014999133400,6.324133544921875,-0.30457109212875366,-0.18999192118644714,-0.6531713604927063
1790958015009145300,6.334145263671875,-0.292473167181015,-0.20180197060108185,-0.6096103191375732
1790958015019157500,6.344157470703125,-0.2438792735338211,-0.1837308257818222,-0.5176577568054199
1790958015029169400,6.35416943359375,-0.18913772702217102,-0.1779608279466629,-0.3999401926994324
1790958015039181300,6.364181396484375,-0.14759215712547302,-0.15799403190612793,-0.3311728537082672
1790958015049193500,6.374193359375,-0.11796767264604568,-0.15298569202423096,-0.3316152095794678
1790958015059205400,6.384205322265625,-0.08862069994211197,-0.15429064631462097,-0.32827267050743103
1790958015069217300,6.39421728515625,-0.04130246117711067,-0.17365662753582,-0.30245837569236755
1790958015079229400,6.4042294921875,0.020240528509020805,-0.20184698700904846,-0.24236521124839783
1790958015089241300,6.414241455078125,0.09684662520885468,-0.22479410469532013,-0.112663134932518
1790958015099253500,6.42425341796875,0.1813897341489792,-0.2481929063796997,0.06750582903623581
1790958015109265400,6.434265380859375,0.22934260964393616,-0.2082604020833969,0.25022318959236145
1790958015119278000,6.444278076171875,0.20340102910995483,-0.14910733699798584,0.305853933095932
1790958015129290200,6.454290283203125,0.09287079423666,-0.07459715008735657,0.14167140424251556
1790958015139302100,6.46430224609375,-0.01632280834019184,-0.021328600123524666,-0.09804291278123856
1790958015149314300,6.474314208984375,-0.08987824618816376,-0.02591722644865513,-0.21603453159332275
1790958015159326200,6.484326171875,-0.13349604606628418,-0.05642000958323479,-0.26676270365715027
1790958015169338000,6.494338134765625,-0.10542605072259903,-0.07823210209608078,-0.2706024646759033
1790958015179350300,6.504350341796875,-0.06048174574971199,-0.08530465513467789,-0.18641352653503418
1790958015189362200,6.514362060546875,-0.02347952127456665,-0.071977399289608,-0.10706943273544312
1790958015199374000,6.5243740234375,-0.053958065807819366,-0.06179826334118843,-0.15528996288776398
1790958015209386200,6.53438623046875,-0.06969734281301498,-0.050932299345731735,-0.16255426406860352
1790958015219398100,6.544398193359375,-0.08683771640062332,-0.0539238303899765,-0.23220950365066528
1790958015229410300,6.554410400390625,-0.08543369919061661,-0.0529501773416996,-0.29395756125450134
1790958015239422200,6.564422119140625,-0.04231792315840721,-0.02219519391655922,-0.34483087062835693
1790958015249434000,6.57443408203125,0.02406509406864643,-0.005632729269564152,-0.32703697681427
1790958015259447300,6.584447265625,0.07335355132818222,0.0023764614015817642,-0.29521405696868896
1790958015269459200,6.594459228515625,0.10534077882766724,-0.006888675969094038,-0.2203025221824646
1790958015279471400,6.604471435546875,0.09906264394521713,0.00014819447824265808,-0.157961905002594
1790958015289483300,6.614483154296875,0.045985572040081024,0.0020771219860762358,-0.15698958933353424
1790958015299495200,6.6244951171875,0.0061113955453038216,0.005839369725435972,-0.19136939942836761
1790958015309507300,6.63450732421875,0.00027800712268799543,-0.0032694400288164616,-0.18709422647953033
1790958015319519200,6.644519287109375,0.007608624175190926,-0.0038529387675225735,-0.1422596424818039
1790958015329531100,6.65453125,0.0009778859093785286,0.002875005127862096,-0.10044269263744354
1790958015339543300,6.664543212890625,-0.00039603887125849724,0.012049861252307892,-0.12641756236553192
1790958015349555200,6.67455517578125,-0.00010202592238783836,0.017664603888988495,-0.20207904279232025
1790958015359567400,6.6845673828125,0.013461187481880188,0.01411460991948843,-0.2330891489982605
1790958015369579300,6.694579345703125,0.02436896227300167,0.006430591456592083,-0.2291570007801056
1790958015379591200,6.704591064453125,0.03423730656504631,-0.013574008829891682,-0.20271766185760498
1790958015389603300,6.714603271484375,0.05047938972711563,-0.03272267058491707,-0.17907065153121948
1790958015399616300,6.7246162109375,0.0623786598443985,-0.04637456685304642,-0.20613449811935425
1790958015409628400,6.73462841796875,0.050859689712524414,-0.04300886392593384,-0.29083049297332764
1790958015419640300,6.744640380859375,0.04820025712251663,-0.03214476630091667,-0.3860190510749817
1790958015429652200,6.75465234375,0.06805439293384552,-0.02172061800956726,-0.43873846530914307
1790958015439664400,6.764664306640625,0.09691906720399857,-0.004268658347427845,-0.47278696298599243
1790958015449676300,6.77467626953125,0.10143871605396271,-0.01749418117105961,-0.49272260069847107
1790958015459688400,6.7846884765625,0.07101156562566757,-0.06685774028301239,-0.46808624267578125
1790958015469700400,6.794700439453125,0.03210943937301636,-0.10052009671926498,-0.37662583589553833
1790958015479712300,6.804712158203125,-0.027779992669820786,-0.11837632209062576,-0.28727996349334717
1790958015489724400,6.814724365234375,-0.03839268907904625,-0.14184489846229553,-0.18483346700668335
1790958015499736300,6.824736328125,-0.021653924137353897,-0.13096268475055695,-0.0034998999908566475
1790958015509748200,6.834748291015625,-0.007640369236469269,-0.12789472937583923,0.19339372217655182
1790958015519760400,6.844760498046875,0.00600992888212204,-0.14990629255771637,0.3312793970108032
1790958015529772300,6.854772216796875,0.021669847890734673,-0.18440327048301697,0.4319325089454651
1790958015539784200,6.8647841796875,0.04008427634835243,-0.2134580910205841,0.5133948922157288
1790958015549797400,6.87479736328125,0.0452505424618721,-0.24118585884571075,0.5399250388145447
1790958015559809300,6.884809326171875,0.020411504432559013,-0.2681836485862732,0.511064350605011
1790958015569821400,6.894821533203125,-0.019172657281160355,-0.26295745372772217,0.44111135601997375
1790958015579833300,6.904833251953125,-0.057272639125585556,-0.21992026269435883,0.3605571389198303
1790958015589845500,6.914845458984375,-0.09615238755941391,-0.168280228972435,0.2732933461666107
1790958015599857400,6.924857421875,-0.1116597130894661,-0.12479960173368454,0.20111262798309326
1790958015609869300,6.934869384765625,-0.12378295511007309,-0.11994412541389465,0.1625061184167862
1790958015619881500,6.944881591796875,-0.12709219753742218,-0.11727377027273178,0.13629022240638733
1790958015629893000,6.95489306640625,-0.12424207478761673,-0.11726977676153183,0.12648233771324158
1790958015639905000,6.964905029296875,-0.17431111633777618,-0.07755538821220398,0.1574746072292328
1790958015649917000,6.9749169921875,-0.16513386368751526,-0.10697586089372635,0.11348637193441391
1790958015659929000,6.98492919921875,-0.12265244126319885,-0.06429418176412582,0.08777515590190887
1790958015669941000,6.99494091796875,-0.08319557458162308,-0.07061998546123505,0.06747360527515411
1790958015679953000,7.004952880859375,-0.030050870031118393,-0.0803554356098175,0.07008244097232819
1790958015689965000,7.014965087890625,0.021437620744109154,-0.08690334856510162,0.09631244838237762
1790958015699978000,7.02497802734375,0.06522185355424881,-0.07512099295854568,0.125107079744339
1790958015709990100,7.034990234375,0.09255148470401764,-0.0698239654302597,0.14703235030174255
1790958015720002000,7.045001953125,0.08126580715179443,-0.06887694448232651,0.16445501148700714
1790958015730014200,7.05501416015625,0.062309686094522476,-0.06457221508026123,0.1778792142868042
1790958015740026000,7.065026123046875,0.05674048140645027,-0.08952629566192627,0.1972358673810959
1790958015750038000,7.0750380859375,0.06447457522153854,-0.07384693622589111,0.1415046900510788
1790958015760050200,7.08505029296875,0.12758882343769073,-0.018560245633125305,0.008612156845629215
1790958015770062000,7.09506201171875,0.15375091135501862,0.012657861225306988,-0.005034413188695908
1790958015780074000,7.105073974609375,0.10302862524986267,0.0703565776348114,-0.15921412408351898
1790958015790086100,7.115086181640625,0.05867340415716171,0.058763835579156876,-0.24137984216213226
1790958015800098000,7.12509814453125,0.062480393797159195,0.027116429060697556,-0.24664996564388275
1790958015810110200,7.135110107421875,0.12088405340909958,0.02160661481320858,-0.23952707648277283
1790958015820122000,7.1451220703125,0.21313221752643585,0.009380575269460678,-0.2729031443595886
1790958015830134000,7.155134033203125,0.256468266248703,0.056358736008405685,-0.29825326800346375
1790958015840146200,7.165146240234375,0.2040441781282425,0.06306084990501404,-0.2527603507041931
1790958015850158000,7.175157958984375,0.1181657612323761,0.05951671302318573,-0.15802475810050964
1790958015860171000,7.1851708984375,0.053629644215106964,0.04085461050271988,-0.04935047775506973
1790958015870183000,7.195182861328125,0.030534179881215096,0.0338214673101902,0.024349842220544815
1790958015880194800,7.20519482421875,0.04013833776116371,0.04439927637577057,0.02660047635436058
1790958015890207000,7.21520703125,0.06089022010564804,0.04861266538500786,-0.011899243108928204
1790958015900219000,7.225218994140625,0.04234876111149788,0.04989231377840042,-0.031686265021562576
1790958015910230800,7.235230712890625,0.02898874692618847,0.050391655415296555,-0.022331643849611282
1790958015920243000,7.245242919921875,0.027749843895435333,0.05504286661744118,-0.011724273674190044
1790958015930254800,7.2552548828125,0.024983352050185204,0.044478639960289,-0.00495931226760149
1790958015940267000,7.26526708984375,0.02563369646668434,0.046598248183727264,-0.017042074352502823
1790958015950279000,7.27527880859375,0.02617564983665943,0.049980998039245605,-0.024082940071821213
1790958015960290800,7.285290771484375,0.030480116605758667,0.05272645130753517,-0.017060182988643646
1790958015970303000,7.295302978515625,0.03496301546692848,0.046782009303569794,-0.009815053083002567
1790958015980315000,7.30531494140625,0.02032601647078991,0.031072290614247322,-0.011711223982274532
1790958015990326800,7.315326904296875,0.01928742416203022,0.026129616424441338,-0.023006001487374306
1790958016000339000,7.3253388671875,0.01946745440363884,0.027250807732343674,-0.029146719723939896
1790958016010350800,7.335350830078125,0.02084377594292164,0.019418982788920403,-0.016625866293907166
1790958016020364000,7.345364013671875,0.018911652266979218,0.015893490985035896,-0.007220379542559385
1790958016030376000,7.3553759765625,0.019327105954289436,0.010247590020298958,-0.009700048714876175
1790958016040387800,7.365387939453125,0.013754707761108875,0.007212651427835226,-0.018550531938672066
1790958016050400000,7.37539990234375,0.011457464657723904,0.003102062502875924,-0.02712484449148178
1790958016060412000,7.385411865234375,0.014806389808654785,0.0102310786023736,-0.040583398193120956
1790958016070424000,7.395424072265625,0.020106879994273186,0.042312584817409515,-0.03778840973973274
1790958016080436000,7.40543603515625,0.02729262039065361,0.0777648463845253,-0.03170468285679817
1790958016090448000,7.41544775390625,0.03000318631529808,0.086576446890831,-0.026079289615154266
1790958016100460000,7.4254599609375,0.030069764703512192,0.06730128824710846,-0.024261681362986565
1790958016110472000,7.435471923828125,0.03523470088839531,0.023243814706802368,-0.018436282873153687
1790958016120483800,7.44548388671875,0.024868078529834747,-0.0003523237828630954,-0.01135946437716484
1790958016130496000,7.45549609375,0.03517637774348259,0.011377302929759026,-0.00015820935368537903
1790958016140508000,7.4655078125,0.027993032708764076,0.02559858188033104,0.004999002441763878
1790958016150520000,7.47552001953125,0.030810656026005745,0.03593937307596207,-0.012038571760058403
1790958016160532000,7.485531982421875,0.024776199832558632,0.03167298808693886,-0.012463079765439034
1790958016170543900,7.4955439453125,0.014241266995668411,0.018413107842206955,-0.006508516613394022
1790958016180556000,7.50555615234375,0.01068568043410778,0.01718405820429325,0.004501789808273315
1790958016190569000,7.51556884765625,0.007769785821437836,0.01516138855367899,0.024851536378264427
1790958016200581000,7.5255810546875,-0.004545203410089016,0.00663634343072772,0.07296580076217651
1790958016210593000,7.535593017578125,0.0005329122068360448,-0.006877867504954338,0.08454655855894089
1790958016220605000,7.54560498046875,0.024082446470856667,-0.016726769506931305,0.06085800752043724
1790958016230617000,7.5556171875,0.05683906003832817,-0.024188680574297905,0.029588766396045685
1790958016240629000,7.56562890625,0.07149763405323029,-0.021252812817692757,0.018653029575943947
1790958016250641000,7.575640869140625,0.09564877301454544,-0.029977329075336456,0.029110463336110115
1790958016260653000,7.585653076171875,0.11220750957727432,-0.02970249019563198,0.02541639283299446
1790958016270665000,7.5956650390625,0.09235258400440216,-0.016474302858114243,-0.00786699540913105
1790958016280677000,7.605677001953125,0.04530038312077522,-0.0054336353205144405,-0.03325358033180237
1790958016290689000,7.61568896484375,0.003742820117622614,0.00900096446275711,-0.027800757437944412
1790958016300701000,7.625700927734375,0.026882227510213852,0.011801544576883316,-0.021175876259803772
1790958016310713000,7.635713134765625,0.019843226298689842,0.01622691936790943,-0.037739407271146774
1790958016320725000,7.64572509765625,0.015481767244637012,0.020772933959960938,-0.07245264947414398
1790958016330737000,7.65573681640625,0.013555769808590412,0.015340087004005909,-0.056352242827415466
1790958016340749000,7.6657490234375,0.020449629053473473,0.00501288054510951,-0.01605701446533203
1790958016350762000,7.675761962890625,0.02240838296711445,0.0008154723909683526,0.00831517018377781
1790958016360774100,7.685774169921875,0.022489609196782112,-0.004943879786878824,-0.00001599639654159546
1790958016370786000,7.6957861328125,0.02170264534652233,-0.004907661117613316,-0.0071303644217550755
1790958016380798000,7.7057978515625,0.02489178068935871,0.0038770425599068403,0.004884219728410244
1790958016390810000,7.71581005859375,0.02916322462260723,0.01698911562561989,0.013358131982386112
1790958016400822000,7.725822021484375,0.03077603504061699,0.028750166296958923,0.0026972321793437004
1790958016410834200,7.735834228515625,0.029671089723706245,0.038640618324279785,-0.005305567290633917
1790958016420846000,7.74584619140625,0.02458498440682888,0.040078990161418915,-0.0011260020546615124
1790958016430858000,7.75585791015625,0.036400631070137024,0.045921433717012405,-0.010229485109448433
1790958016440870100,7.7658701171875,-0.07676773518323898,0.04480317234992981,0.04019960016012192
1790958016450882000,7.775882080078125,-0.24953711032867432,0.024432916194200516,0.17870154976844788
1790958016460894000,7.78589404296875,-0.10358230769634247,-0.029251350089907646,0.2052799016237259
1790958016470906000,7.795906005859375,0.06640886515378952,-0.037179045379161835,0.194400355219841
1790958016480918000,7.80591796875,0.11447466164827347,-0.03088972717523575,0.12269314378499985
1790958016490930200,7.81593017578125,0.1212175190448761,-0.000557919789571315,0.04129389300942421
1790958016500942000,7.825942138671875,0.10929135233163834,0.015212255530059338,-0.0036426889710128307
1790958016510954000,7.8359541015625,0.11183786392211914,0.01179888192564249,-0.005773750599473715
1790958016520967000,7.845966796875,0.12665675580501556,0.006463504396378994,0.0032751380931586027
1790958016530978800,7.855978759765625,0.11751492321491241,0.010369030758738518,-0.027703817933797836
1790958016540991000,7.865990966796875,0.09438590705394745,0.01621733047068119,-0.06417927145957947
1790958016551003000,7.8760029296875,0.08192577213048935,0.02108638919889927,-0.08655142039060593
1790958016561014800,7.886014892578125,0.08837541192770004,0.018034938722848892,-0.09668581187725067
1790958016571027000,7.89602685546875,0.12628737092018127,0.003391015576198697,-0.09619153290987015
1790958016581038800,7.906038818359375,0.1605105996131897,-0.01038072258234024,-0.11793970316648483
1790958016591050800,7.91605078125,0.18605376780033112,-0.023641135543584824,-0.13950811326503754
1790958016601063000,7.92606298828125,0.20727863907814026,-0.027337336912751198,-0.11894984543323517
1790958016611074800,7.93607470703125,0.2448241412639618,-0.03175898268818855,-0.052115682512521744
1790958016621087000,7.9460869140625,0.317656010389328,-0.056493621319532394,0.09010084718465805
1790958016631099400,7.956099365234375,0.3822576403617859,-0.09407269209623337,0.24025173485279083
1790958016641111300,7.966111328125,0.2882262170314789,-0.09218104928731918,0.2540477216243744
1790958016651123200,7.976123291015625,0.21780237555503845,-0.0854344591498375,0.17329826951026917
1790958016661135400,7.98613525390625,0.11536096036434174,-0.061442840844392776,0.08754287660121918
1790958016671147300,7.996147216796875,0.0357111394405365,-0.02771870046854019,-0.04571663960814476
1790958016681159200,8.0061591796875,0.02036946639418602,-0.021907949820160866,-0.11852213740348816
1790958016691172400,8.01617236328125,0.029831677675247192,-0.046869225800037384,-0.1235179603099823
1790958016701184300,8.026184326171874,0.034809660166502,-0.06354274600744247,-0.12708500027656555
1790958016711196400,8.036196533203125,0.03169376030564308,-0.08852985501289368,-0.1450038105249405
1790958016721208300,8.046208251953125,0.031831447035074234,-0.11497291177511215,-0.12166041135787964
1790958016731220200,8.05622021484375,0.01279490441083908,-0.13662254810333252,-0.0805092379450798
1790958016741232400,8.066232421875,0.0034946135710924864,-0.12691053748130798,-0.0359063521027565
1790958016751244300,8.076244384765625,-0.0022263890132308006,-0.1158650666475296,0.007867226377129555
1790958016761256400,8.08625634765625,0.005437389947474003,-0.10485609620809555,0.0032003032974898815
1790958016771268400,8.096268310546876,0.043871864676475525,-0.10948440432548523,0.01488492265343666
1790958016781280300,8.1062802734375,0.05783694609999657,-0.14280854165554047,0.038687724620103836
1790958016791292400,8.11629248046875,0.0351681187748909,-0.1643577665090561,0.05114865303039551
1790958016801304300,8.12630419921875,-0.007628877647221088,-0.1961897313594818,0.07670781016349792
1790958016811316200,8.136316162109376,-0.042836666107177734,-0.22843343019485474,0.11432016640901566
1790958016821328400,8.146328369140624,-0.05395989120006561,-0.29069918394088745,0.1709035485982895
1790958016831340300,8.15634033203125,-0.041936516761779785,-0.3561581075191498,0.19006818532943726
1790958016841352400,8.1663525390625,-0.016297467052936554,-0.37271496653556824,0.1691807508468628
1790958016851364400,8.1763642578125,0.00406319834291935,-0.3636796772480011,0.15450140833854675
1790958016861377300,8.186377197265625,0.02818824164569378,-0.3414097726345062,0.15142466127872467
1790958016871389400,8.196389404296875,0.052122604101896286,-0.33055099844932556,0.16015423834323883
1790958016881401300,8.2064013671875,0.04168114811182022,-0.33532285690307617,0.13614024221897125
1790958016891413500,8.21641357421875,0.009637993760406971,-0.3528698980808258,0.08943052589893341
1790958016901425400,8.22642529296875,-0.026767684146761894,-0.3750644028186798,0.020813118666410446
1790958016911437300,8.236437255859375,-0.040548745542764664,-0.3900066018104553,-0.07486999779939651
1790958016921449500,8.246449462890626,-0.008588680997490883,-0.40109333395957947,-0.1717110574245453
1790958016931461400,8.25646142578125,0.049047715961933136,-0.40198737382888794,-0.2198793888092041
1790958016941473300,8.266473388671875,0.1210303008556366,-0.3960304260253906,-0.20136429369449615
1790958016951485400,8.2764853515625,0.16390186548233032,-0.3703053295612335,-0.15270274877548218
1790958016961497300,8.286497314453126,0.17209161818027496,-0.3211311399936676,-0.06914792954921722
1790958016971509500,8.296509521484374,0.1222955659031868,-0.20514941215515137,0.029451880604028702
1790958016981521400,8.306521484375,0.12047209590673447,-0.2349882572889328,0.15013381838798523
1790958016991533300,8.316533203125,0.08576291799545288,-0.21181321144104004,0.14901210367679596
1790958017001545500,8.32654541015625,0.041096922010183334,-0.1869451403617859,0.09750629961490631
1790958017011557400,8.336557373046874,0.008366936817765236,-0.18849056959152222,0.08367890119552612
1790958017021570600,8.346570556640625,-0.001982373185455799,-0.20130863785743713,0.11171266436576843
1790958017031582500,8.35658251953125,0.008084908127784729,-0.18961548805236816,0.1255270093679428
1790958017041594400,8.366594482421876,0.03331702947616577,-0.17821529507637024,0.14475104212760925
1790958017051606500,8.3766064453125,0.05007896572351456,-0.16326697170734406,0.19006046652793884
1790958017061618400,8.386618408203125,0.04517208784818649,-0.13590140640735626,0.25282371044158936
1790958017071630300,8.39663037109375,0.015108996070921421,-0.10283505916595459,0.3107951283454895
1790958017081642500,8.406642578125,-0.0248235072940588,-0.07366066426038742,0.38373857736587524
1790958017091654400,8.416654296875,-0.06726444512605667,-0.061895087361335754,0.4765108525753021
1790958017101666600,8.42666650390625,-0.0949711725115776,-0.07500822097063065,0.4777654707431793
1790958017111678500,8.436678466796875,-0.0978388637304306,-0.07294613867998123,0.35455751419067383
1790958017121690400,8.4466904296875,-0.07582863420248032,-0.07404495775699615,0.19436520338058472
1790958017131702500,8.45670263671875,-0.029836907982826233,-0.08824066817760468,0.058953579515218735
1790958017141714400,8.46671435546875,0.02974652871489525,-0.10287660360336304,-0.011775716207921505
1790958017151726300,8.476726318359376,0.07281330227851868,-0.1117638424038887,-0.021458439528942108
1790958017161738500,8.486738525390624,0.09307702630758286,-0.09195764362812042,0.0042562466114759445
1790958017171750400,8.49675048828125,0.08393412828445435,-0.06600966304540634,0.0338737927377224
1790958017181762600,8.506762451171875,0.06436202675104141,-0.04803280159831047,0.035069819539785385
1790958017191775200,8.516775146484376,0.044940393418073654,-0.03619345277547836,0.003561427816748619
1790958017201787100,8.526787109375,0.027370989322662354,-0.020722348242998123,-0.04768658056855202
1790958017211799300,8.53679931640625,0.023581044748425484,-0.013896134681999683,-0.09586475789546967
1790958017221811200,8.546811279296875,0.015438961796462536,-0.015636509284377098,-0.1259414404630661
1790958017231823400,8.5568232421875,0.0006368457688950002,-0.006442478857934475,-0.13212689757347107
1790958017241835300,8.566835205078124,-0.008530020713806152,0.015024729073047638,-0.1281726360321045
1790958017251847200,8.57684716796875,0.003080828581005335,0.027360491454601288,-0.13268375396728516
1790958017261859300,8.586859375,0.05904023349285126,0.03271717205643654,-0.14809253811836243
1790958017271871200,8.596871337890626,0.10821603238582611,0.023020870983600616,-0.18522712588310242
1790958017281883100,8.606883056640624,0.1783599704504013,0.008200112730264664,-0.24465371668338776
1790958017291895300,8.616895263671875,0.16638879477977753,0.027749313041567802,-0.2751530408859253
1790958017301907200,8.6269072265625,0.09224771708250046,0.03507966175675392,-0.2727071940898895
1790958017311919400,8.63691943359375,0.06839218735694885,0.03777877613902092,-0.25010761618614197
1790958017321931300,8.64693115234375,0.054870523512363434,0.0023574037477374077,-0.15821334719657898
1790958017331943200,8.656943115234375,0.0176033116877079,-0.03950243070721626,0.02198624238371849
1790958017341955300,8.666955322265625,0.028763288632035255,-0.0734231099486351,0.10375460982322693
1790958017351967200,8.67696728515625,0.0538603849709034,-0.08869926631450653,0.05469571799039841
1790958017361979100,8.686979248046875,0.03066052496433258,-0.11236917227506638,-0.015045014210045338
1790958017371992300,8.696992431640625,0.01885925978422165,-0.12944696843624115,-0.015651416033506393
1790958017382004200,8.707004150390626,0.023716332390904427,-0.13753658533096313,0.01204679161310196
1790958017392016400,8.717016357421874,0.017736203968524933,-0.1362777054309845,0.028320036828517914
1790958017402028300,8.7270283203125,0.022258518263697624,-0.1330193281173706,0.005494083743542433
1790958017412040200,8.737040283203125,0.01795458421111107,-0.1312296837568283,-0.019674919545650482
1790958017422052400,8.74705224609375,0.029319357126951218,-0.14226102828979492,-0.012492372654378414
1790958017432064300,8.757064208984374,0.03485606983304024,-0.15328891575336456,0.011116815730929375
1790958017442076400,8.767076416015625,0.04300187900662422,-0.1614336520433426,0.017184562981128693
1790958017452088300,8.77708837890625,0.04823578894138336,-0.1639932245016098,0.006943642161786556
1790958017462100200,8.787100341796876,0.05906926468014717,-0.1547240912914276,0.013698218390345573
1790958017472112400,8.7971123046875,0.06802387535572052,-0.1414271891117096,0.03913566470146179
1790958017482124300,8.807124267578125,0.07406578212976456,-0.1235043853521347,0.04711955785751343
1790958017492136200,8.81713623046875,0.08212770521640778,-0.09492067992687225,0.04239910468459129
1790958017502148400,8.8271484375,0.09221097081899643,-0.06346341967582703,0.038201961666345596
1790958017512160300,8.83716015625,0.10407854616641998,-0.02365848422050476,0.024283219128847122
1790958017522172400,8.84717236328125,0.10466311126947403,0.017414385452866554,0.012019094079732895
1790958017532184300,8.857184326171875,0.09930989146232605,0.03717663511633873,0.0029707385692745447
1790958017542197500,8.867197509765624,0.10641307383775711,0.05546269938349724,0.007388656493276358
1790958017552209400,8.87720947265625,0.11493385583162308,0.07545238733291626,0.006970007438212633
1790958017562221300,8.88722119140625,0.12033820897340775,0.09571611881256104,0.003599510993808508
1790958017572233500,8.8972333984375,0.12744486331939697,0.11703445017337799,0.003221342107281089
1790958017582245400,8.907245361328124,0.1371432989835739,0.1353229135274887,0.005740426015108824
1790958017592257300,8.91725732421875,0.1579769402742386,0.1417435258626938,0.01932627707719803
1790958017602269400,8.92726953125,0.15270628035068512,0.13044080138206482,0.026059813797473907
1790958017612281300,8.93728125,0.11189838498830795,0.10993260145187378,0.01355440728366375
1790958017622293200,8.947293212890624,0.07061246782541275,0.09999635070562363,0.006760417018085718
1790958017632305200,8.95730517578125,0.06492288410663605,0.07738877087831497,0.02156306430697441
1790958017642317300,8.9673173828125,0.05729346722364426,0.05943773314356804,0.017691094428300858
1790958017652329200,8.9773291015625,0.05640184134244919,0.03646690398454666,-0.00023757154121994972
1790958017662341000,8.987341064453124,0.057576827704906464,0.0012894764076918364,0.009859271347522736
1790958017672353300,8.997353271484375,0.05230962857604027,-0.03766671195626259,0.021783839911222458
1790958017682365200,9.007365234375,0.0446743443608284,-0.0639965832233429,0.013002600520849228
1790958017692377000,9.017377197265626,0.0422159805893898,-0.07700718939304352,0.018837586045265198
1790958017702389200,9.02738916015625,0.037195123732089996,-0.09313609451055527,0.03580964356660843
1790958017712401200,9.037401123046875,0.03107091784477234,-0.09572335332632065,0.02355191484093666
1790958017722414300,9.047414306640626,0.03004932962357998,-0.10259271413087845,0.028927236795425415
1790958017732426200,9.05742626953125,0.032489050179719925,-0.1086234375834465,0.037836842238903046
1790958017742438100,9.067438232421875,0.03956187516450882,-0.10690943151712418,0.03204473480582237
1790958017752450300,9.0774501953125,0.04570472240447998,-0.10147365182638168,0.0229998417198658
1790958017762462200,9.087462158203126,0.04544959217309952,-0.08976346254348755,0.013144813477993011
1790958017772474400,9.097474365234374,0.048317547887563705,-0.07269100844860077,0.01472513284534216
1790958017782486300,9.107486328125,0.04890397563576698,-0.06770796328783035,0.01969459094107151
1790958017792498200,9.117498291015625,0.05611182376742363,-0.057745348662137985,0.007750580087304115
1790958017802510300,9.12751025390625,0.06553647667169571,-0.0436156801879406,0.004932689480483532
1790958017812522200,9.137522216796874,0.07147479802370071,-0.031223725527524948,0.011775415390729904
1790958017822534100,9.1475341796875,0.0729171633720398,-0.008838791400194168,0.0015600621700286865
1790958017832546300,9.15754638671875,0.07214058935642242,0.009439547546207905,0.008941013365983963
1790958017842558200,9.16755810546875,0.06866223365068436,0.02051670104265213,0.022909291088581085
1790958017852570400,9.1775703125,0.0608660988509655,0.03957854211330414,0.007925283163785934
1790958017862582300,9.187582275390625,0.058733172714710236,0.05746139958500862,-0.007122375071048737
1790958017872594200,9.19759423828125,0.05549529939889908,0.06938304752111435,0.008781489916145802
1790958017882606300,9.2076064453125,0.0517578199505806,0.06809620559215546,-0.0029566586017608643
1790958017892618200,9.2176181640625,0.04984753578901291,0.07037880271673203,-0.03037203848361969
1790958017902630100,9.227630126953125,0.05071093142032623,0.05444004386663437,-0.015704412013292313
1790958017912643000,9.23764306640625,0.04871010035276413,0.027663294225931168,-0.00994106475263834
1790958017922655200,9.2476552734375,0.05139909312129021,0.012146650813519955,-0.035817138850688934
1790958017932667100,9.257667236328125,0.048914361745119095,0.0045862034894526005,-0.035284772515296936
1790958017942679000,9.267678955078125,0.04927149415016174,-0.0014831406297162175,-0.019746556878089905
1790958017952691200,9.277691162109376,0.048022471368312836,0.01435068342834711,-0.02237323299050331
1790958017962703000,9.287703125,0.04677717760205269,0.03244819492101669,-0.026724841445684433
1790958017972715300,9.29771533203125,0.04057760536670685,0.038403820246458054,-0.017812035977840424
1790958017982727200,9.30772705078125,0.02627190202474594,0.028324291110038757,-0.005905843339860439
1790958017992739300,9.3177392578125,0.007646901533007622,0.000029575559892691672,-0.018037965521216393
1790958018002751200,9.327751220703124,-0.009043928235769272,-0.019194984808564186,-0.0370422825217247
1790958018012763100,9.33776318359375,-0.014619789086282253,-0.039947133511304855,-0.032616905868053436
1790958018022775300,9.347775390625,-0.006979977712035179,-0.05699615925550461,-0.01879829727113247
1790958018032787200,9.357787109375,0.006536363624036312,-0.0674045979976654,-0.02254430018365383
1790958018042799400,9.36779931640625,0.028909048065543175,-0.07545346766710281,-0.03547501191496849
1790958018052811300,9.377811279296875,0.045684829354286194,-0.07094340026378632,-0.025758203119039536
1790958018062823200,9.3878232421875,0.054783519357442856,-0.07061876356601715,-0.004838805645704269
1790958018072835300,9.39783544921875,0.05655132606625557,-0.051251187920570374,0.0025480040349066257
1790958018082847200,9.40784716796875,0.0571148507297039,-0.027124812826514244,0.009407508186995983
1790958018092860200,9.417860107421875,0.057900749146938324,-0.008997209370136261,0.030040880665183067
1790958018102872000,9.4278720703125,0.05759848281741142,-0.0012370238546282053,0.03782210499048233
1790958018112884200,9.43788427734375,0.06428568065166473,0.0039044746663421392,0.029428886249661446
1790958018122896100,9.447896240234375,0.07763264328241348,0.013883072882890701,0.032739996910095215
1790958018132908000,9.457907958984375,0.09145551919937134,0.01090219710022211,0.04426455870270729
1790958018142920200,9.467920166015626,0.10910668224096298,0.005833402741700411,0.03121213987469673
1790958018152932000,9.47793212890625,0.12068957090377808,0.003651208244264126,0.02675640396773815
1790958018162944000,9.487944091796875,0.1273983269929886,-0.00091211823746562,0.0316462367773056
1790958018172956200,9.4979560546875,0.13016030192375183,0.014950468204915524,0.027735382318496704
1790958018182968000,9.507968017578126,0.13493773341178894,0.043513402342796326,0.024483129382133484
1790958018192980200,9.517980224609374,0.140890970826149,0.08210686594247818,0.029242198914289474
1790958018202992000,9.5279921875,0.14722716808319092,0.12687353789806366,0.024621348828077316
1790958018213004000,9.538004150390625,0.15812668204307556,0.16824068129062653,0.021975496783852577
1790958018223016200,9.54801611328125,0.16231396794319153,0.19967398047447205,0.029826495796442032
1790958018233028000,9.558028076171874,0.16758249700069427,0.22456148266792297,0.025262903422117233
1790958018243040000,9.5680400390625,0.16874204576015472,0.2570379376411438,0.008855700492858887
1790958018253052200,9.57805224609375,0.1709790974855423,0.29401540756225586,-0.0018568644300103188
1790958018263064000,9.58806396484375,0.17474587261676788,0.3398614525794983,-0.0016081249341368675
1790958018273076200,9.598076171875,0.17301268875598907,0.3888638913631439,-0.012338800355792046
1790958018283088100,9.608088134765625,0.1661720871925354,0.44138169288635254,-0.009047399275004864
1790958018293101000,9.61810107421875,0.17662526667118073,0.4787468910217285,-0.010113995522260666
1790958018303113200,9.62811328125,0.1833241879940033,0.5028761625289917,-0.005821778438985348
1790958018313125000,9.638125,0.18532608449459076,0.4984881281852722,-0.0002352655865252018
1790958018323137300,9.64813720703125,0.1663542538881302,0.46388301253318787,0.003488898742944002
1790958018333149200,9.658149169921876,0.14166808128356934,0.42445382475852966,0.007762207183986902
1790958018343161000,9.6681611328125,0.14247502386569977,0.394803524017334,0.008189111948013306
1790958018353173200,9.67817333984375,0.14143052697181702,0.3731991648674011,0.004818615037947893
1790958018363185200,9.68818505859375,0.14739814400672913,0.3413727879524231,0.009813906624913216
1790958018373197000,9.698197021484376,0.1462164968252182,0.30628857016563416,0.016965292394161224
1790958018383209200,9.708209228515624,0.1426561176776886,0.28293266892433167,0.012664553709328175
1790958018393221000,9.71822119140625,0.13302239775657654,0.2578211724758148,0.01598338410258293
1790958018403233300,9.7282333984375,0.12235670536756516,0.23227745294570923,0.023570731282234192
1790958018413245200,9.7382451171875,0.1054333820939064,0.21539488434791565,0.029139667749404907
1790958018423257000,9.748257080078124,0.0966809093952179,0.19746914505958557,0.026159057393670082
1790958018433269200,9.758269287109375,0.10038749128580093,0.18353761732578278,0.029079480096697807
1790958018443281200,9.76828125,0.1177973747253418,0.17202717065811157,0.038333430886268616
1790958018453293000,9.77829296875,0.11029152572154999,0.15520024299621582,0.03366464376449585
1790958018463305200,9.78830517578125,0.07982629537582397,0.1458277851343155,0.011457875370979309
1790958018473317000,9.798317138671875,0.09437886625528336,0.15487800538539886,0.01483582891523838
1790958018483330300,9.808330322265626,0.09502469003200531,0.1600503921508789,0.023292697966098785
1790958018493342200,9.81834228515625,0.09095857292413712,0.15474671125411987,0.025928694754838943
1790958018503354000,9.82835400390625,0.07824011147022247,0.13568860292434692,0.01675783284008503
1790958018513366300,9.8383662109375,0.04609708860516548,0.11760147660970688,0.012118073180317879
1790958018523378200,9.848378173828126,0.03164917230606079,0.11445601284503937,0.013378813862800598
1790958018533390300,9.858390380859374,0.05726718530058861,0.11682862788438797,0.008172067813575268
1790958018543402200,9.86840234375,0.08574116975069046,0.11791227012872696,-0.0006318101659417152
1790958018553414100,9.8784140625,0.0884874239563942,0.08996345847845078,-0.013239214196801186
1790958018563426300,9.88842626953125,0.08106439560651779,0.05985482782125473,-0.02121751196682453
1790958018573438200,9.898438232421874,0.053269512951374054,0.05129462853074074,-0.011088179424405098
1790958018583450000,9.9084501953125,0.031733062118291855,0.07198445498943329,-0.006718198768794537
1790958018593462300,9.918462158203125,0.03512406349182129,0.1014491394162178,-0.02152244560420513
1790958018603474200,9.92847412109375,0.03465268388390541,0.12971273064613342,-0.0015284968540072441
1790958018613486300,9.938486328125,0.052561379969120026,0.11870881915092468,0.0222383514046669
1790958018623498200,9.948498291015625,0.07323576509952545,0.11261923611164093,0.015959948301315308
1790958018633510700,9.9585107421875,0.08074774593114853,0.10113062709569931,0.017076080664992332
1790958018643522600,9.9685224609375,0.07966890186071396,0.09436006844043732,0.015522658824920654
1790958018653534500,9.978534423828124,0.07040296494960785,0.10979841649532318,-0.006613803096115589
1790958018663546600,9.988546630859375,0.05904697626829147,0.12537018954753876,-0.005943750962615013
1790958018673559600,9.9985595703125,0.05295605957508087,0.1273859292268753,0.005763504654169083
1790958018683571500,10.008571533203124,0.047797780483961105,0.1298387050628662,-0.01494789868593216
1790958018693583600,10.01858349609375,0.05630285292863846,0.13015401363372803,-0.0032566217705607414
1790958018703595500,10.028595458984375,0.0400751493871212,0.10473574697971344,0.008924410678446293
1790958018713607400,10.038607421875,0.04042082652449608,0.10682819038629532,0.001442792359739542
1790958018723619600,10.04861962890625,0.05439097061753273,0.09161914139986038,0.018849479034543037
1790958018733631500,10.058631591796875,0.04831470176577568,0.1074841246008873,0.007880983874201775
1790958018743643600,10.0686435546875,0.052621565759181976,0.10656160861253738,0.017828423529863358
1790958018753655600,10.078655517578126,0.050455350428819656,0.09529110789299011,0.03647454455494881
1790958018763667500,10.08866748046875,0.05789036303758621,0.10778772830963135,0.022753672674298286
1790958018773679600,10.0986796875,0.0412013977766037,0.09424927830696106,0.008245037868618965
1790958018783691500,10.10869140625,0.012972158379852772,0.09628819674253464,0.010810993611812592
1790958018793703700,10.11870361328125,0.011829395778477192,0.10423853248357773,0.003521655686199665
1790958018803715600,10.128715576171874,0.004563227295875549,0.1093137189745903,-0.0066678645089268684
1790958018813727500,10.1387275390625,0.005481751635670662,0.09339041262865067,-0.0016776332631707191
1790958018823739600,10.14873974609375,-0.003238236764445901,0.08678311109542847,-0.009550204500555992
1790958018833751600,10.15875146484375,0.0007658261456526816,0.07817018032073975,0.00401833513751626
1790958018843763700,10.168763671875,-0.013560382649302483,0.06943926960229874,0.003720593871548772
1790958018853775600,10.178775634765625,-0.005506451241672039,0.06880544126033783,-0.0016653835773468018
1790958018863787500,10.18878759765625,-0.010395748540759087,0.06294488906860352,0.014933567494153976
1790958018873799700,10.198799560546876,-0.008247110061347485,0.06244022026658058,0.019138164818286896
1790958018883812400,10.208812255859375,-0.0033077450934797525,0.07434508204460144,0.008789654821157455
1790958018893824500,10.218824462890625,0.0031725247390568256,0.0948847085237503,0.01833255961537361
1790958018903836400,10.22883642578125,0.001528821769170463,0.1030941754579544,0.014120504260063171
1790958018913848300,10.238848388671874,0.007797903381288052,0.12917424738407135,0.00048085814341902733
1790958018923860500,10.248860595703125,0.007432783953845501,0.14549089968204498,-0.0011878781951963902
1790958018933872400,10.258872314453125,0.005115566775202751,0.15895503759384155,-0.00025390787050127983
1790958018943884300,10.26888427734375,0.02237551473081112,0.1723579317331314,-0.007536854594945908
1790958018953896400,10.278896484375,0.02280375175178051,0.1906977891921997,0.003979719243943691
1790958018963908400,10.288908447265625,0.033000726252794266,0.19798606634140015,0.0005748681724071503
1790958018973920500,10.29892041015625,0.04272206500172615,0.22124823927879333,-0.006621259264647961
1790958018983932400,10.308932373046876,0.052306778728961945,0.22912374138832092,0.02217177301645279
1790958018993944300,10.3189443359375,0.04887581616640091,0.23667888343334198,0.01864508166909218
1790958019003956500,10.32895654296875,0.052041515707969666,0.25391271710395813,-0.006055736448615789
1790958019013968400,10.338968505859375,0.0554245263338089,0.25928884744644165,0.008624140173196793
1790958019023980300,10.348980224609376,0.056298039853572845,0.2632495164871216,0.014997882768511772
1790958019033992400,10.358992431640624,0.05964643508195877,0.26189422607421875,-0.0013456698507070541
1790958019044004400,10.36900439453125,0.060511693358421326,0.256274938583374,-0.017112381756305695
1790958019054016500,10.3790166015625,0.061295196413993835,0.25063571333885193,-0.003214676398783922
1790958019064028400,10.3890283203125,0.06434424966573715,0.23623307049274445,0.012203162536025047
1790958019074041300,10.399041259765625,0.06597330421209335,0.2415170520544052,-0.007382790092378855
1790958019084053500,10.409053466796875,0.06891103833913803,0.25666722655296326,-0.0008564474992454052
1790958019094065400,10.4190654296875,0.07227674126625061,0.2621573507785797,0.041249725967645645
1790958019104077600,10.42907763671875,0.06738398224115372,0.2748992443084717,0.042389292269945145
1790958019114089500,10.43908935546875,0.07847924530506134,0.2920851409435272,-0.00035923533141613007
1790958019124101400,10.449101318359375,0.08727992326021194,0.30581533908843994,-0.00003832438960671425
1790958019134113500,10.459113525390626,0.06044032424688339,0.30060139298439026,0.004802237264811993
1790958019144125400,10.46912548828125,0.06631072610616684,0.3187532424926758,-0.015475070104002953
1790958019154137300,10.479137451171875,0.0676039606332779,0.33912456035614014,-0.01660558208823204
1790958019164149500,10.4891494140625,0.05639471858739853,0.34470653533935547,0.0074843065813183784
1790958019174161400,10.499161376953126,0.0630696639418602,0.3464530408382416,0.024697115644812584
1790958019184173600,10.509173583984374,0.05778461694717407,0.3444753885269165,0.050518058240413666
1790958019194185500,10.519185546875,0.0528324693441391,0.33193135261535645,0.032396312803030014
1790958019204197400,10.529197265625,0.04754237085580826,0.3497210144996643,0.016280194744467735
1790958019214209500,10.53920947265625,0.05988664925098419,0.3402327001094818,0.05252821370959282
1790958019224221400,10.549221435546874,0.07349700480699539,0.3416050374507904,0.06939827650785446
1790958019234233300,10.5592333984375,0.05331210792064667,0.3317475914955139,0.00830482691526413
1790958019244245500,10.56924560546875,-0.014410214498639107,0.3428628444671631,-0.025839293375611305
1790958019254257400,10.57925732421875,-0.008573365397751331,0.3025825321674347,-0.001944615039974451
1790958019264269600,10.58926953125,-0.013131365180015564,0.29772573709487915,0.031149422749876976
1790958019274281500,10.599281494140625,-0.021509936079382896,0.2896832525730133,0.06879214197397232
1790958019284294400,10.60929443359375,-0.029671993106603622,0.2592907249927521,0.06545466929674149
1790958019294306600,10.619306640625,-0.0456477627158165,0.25993412733078003,0.04117435961961746
1790958019304318500,10.629318359375,-0.058559566736221313,0.25465789437294006,0.10608172416687012
1790958019314330600,10.63933056640625,-0.02706928551197052,0.21340125799179077,0.1630115807056427
1790958019324342500,10.649342529296876,-0.002382580889388919,0.19231541454792023,0.14114542305469513
1790958019334354400,10.6593544921875,0.01246480830013752,0.18742850422859192,0.0649193674325943
1790958019344366600,10.66936669921875,-0.05155305564403534,0.16475382447242737,0.017669832333922386
1790958019354378500,10.67937841796875,-0.15268127620220184,0.13508941233158112,0.034506071358919144
1790958019364390400,10.689390380859376,-0.1462681144475937,0.07596883177757263,0.07384256273508072
1790958019374402600,10.699402587890624,-0.16548468172550201,0.02876615896821022,0.0812125951051712
1790958019384414500,10.70941455078125,-0.17925189435482025,0.0005960405105724931,0.022297874093055725
1790958019394426600,10.719426513671875,-0.19034236669540405,-0.008615300990641117,-0.025102930143475533
1790958019404438500,10.7294384765625,-0.22003687918186188,-0.030157610774040222,-0.012666767463088036
1790958019414450400,10.739450439453124,-0.25895124673843384,-0.05040562525391579,0.020364418625831604
1790958019424462600,10.749462646484375,-0.2622394561767578,-0.06229690462350845,-0.008766835555434227
1790958019434474500,10.759474609375,-0.2704920470714569,-0.05222243443131447,-0.0038248063065111637
1790958019444486400,10.769486328125,-0.27182257175445557,-0.07783964276313782,0.00036194873973727226
1790958019454498600,10.77949853515625,-0.27932360768318176,-0.0521601140499115,-0.015717685222625732
1790958019464510500,10.789510498046875,-0.26521819829940796,-0.04674910381436348,-0.01889030821621418
1790958019474522600,10.799522705078125,-0.2730734348297119,-0.01878378354012966,-0.03609699383378029
1790958019484534500,10.809534423828126,-0.26471859216690063,0.012296905741095543,-0.050816550850868225
1790958019494547500,10.81954736328125,-0.2777624726295471,0.04300448298454285,-0.03020315058529377
1790958019504559600,10.8295595703125,-0.2805976867675781,0.08535514026880264,0.025821503251791
1790958019514571500,10.839571533203125,-0.2741363048553467,0.0971638634800911,0.09025189280509949
1790958019524583700,10.849583740234374,-0.29849785566329956,0.09884138405323029,0.0822344496846199
1790958019534595600,10.859595703125,-0.2975747883319855,0.09433531761169434,0.012607695534825325
1790958019544607500,10.869607421875,-0.2749115526676178,0.09170837700366974,-0.019039444625377655
1790958019554619600,10.87961962890625,-0.27903813123703003,0.0523601695895195,0.0409272164106369
1790958019564631600,10.889631591796874,-0.24707594513893127,-0.004767832346260548,0.04096077382564545
1790958019574643500,10.8996435546875,-0.23644009232521057,0.011556013487279415,0.007415064610540867
1790958019584655600,10.909655517578125,-0.23583555221557617,-0.020618967711925507,-0.01221509464085102
1790958019594667500,10.91966748046875,-0.2363966703414917,-0.05175824463367462,-0.05332045629620552
1790958019604679700,10.9296796875,-0.25344622135162354,-0.03401040658354759,0.05810300633311272
1790958019614691600,10.939691650390625,-0.26942571997642517,-0.1757795214653015,0.11524592339992523
1790958019624703500,10.949703369140625,-0.28712108731269836,-0.20616698265075684,0.0037183307576924562
1790958019634715400,10.95971533203125,-0.28154975175857544,-0.19400939345359802,-0.10084535926580429
1790958019644727600,10.9697275390625,-0.2806168496608734,-0.22978442907333374,-0.052560124546289444
1790958019654739500,10.979739501953125,-0.2567157745361328,-0.29091116786003113,0.011265462264418602
1790958019664751400,10.98975146484375,-0.24705278873443604,-0.3023340106010437,0.060619428753852844
1790958019674763500,10.999763427734376,-0.2523178458213806,-0.30083996057510376,0.11046075820922852
1790958019684775400,11.009775390625,-0.23825715482234955,-0.3089950978755951,0.11426401883363724
1790958019694787300,11.019787353515625,-0.24030832946300507,-0.26903489232063293,0.079950250685215
1790958019704800300,11.02980029296875,-0.22715337574481964,-0.25103458762168884,0.05325232446193695
1790958019714812200,11.039812255859376,-0.268802285194397,-0.21664945781230927,0.07015328109264374
1790958019724824300,11.04982421875,-0.32205164432525635,-0.21520096063613892,0.07479517161846161
1790958019734836200,11.059836181640625,-0.35460665822029114,-0.23400235176086426,0.03737908974289894
1790958019744848100,11.06984814453125,-0.35485008358955383,-0.23028990626335144,-0.006311666686087847
1790958019754860300,11.0798603515625,-0.37986114621162415,-0.23512966930866241,-0.016644731163978577
1790958019764872200,11.0898720703125,-0.39380866289138794,-0.29863274097442627,-0.028253981843590736
1790958019774884400,11.09988427734375,-0.4330713748931885,-0.3451823890209198,-0.04633365198969841
1790958019784896300,11.109896240234375,-0.46112245321273804,-0.40220412611961365,-0.07070263475179672
1790958019794908200,11.119908203125,-0.4980272054672241,-0.4632778763771057,-0.068504199385643
1790958019804920300,11.12992041015625,-0.5211762189865112,-0.5267425775527954,-0.08261575549840927
1790958019814932200,11.13993212890625,-0.5358105897903442,-0.6088204383850098,-0.08062770962715149
1790958019824944400,11.1499443359375,-0.5360299944877625,-0.7088378667831421,-0.04150507599115372
1790958019834956300,11.159956298828124,-0.5352965593338013,-0.8159789443016052,0.008329860866069794
1790958019844968200,11.16996826171875,-0.550029456615448,-0.8846597075462341,0.05968199670314789
1790958019854980400,11.17998046875,-0.5590895414352417,-0.898715615272522,0.01877105049788952
1790958019864992300,11.1899921875,-0.6001272201538086,-0.8685396313667297,0.03515321761369705
1790958019875004400,11.20000439453125,-0.5950501561164856,-0.8942609429359436,0.09005402028560638
1790958019885016300,11.210016357421875,-0.5825080275535583,-0.9689708948135376,0.08994243294000626
1790958019895028500,11.220028564453125,-0.6341310143470764,-1.0166702270507812,-0.0024090702645480633
1790958019905040400,11.230040283203126,-0.7971779704093933,-1.1108667850494385,-0.13051724433898926
1790958019915053300,11.24005322265625,-0.8778249025344849,-1.1675015687942505,-0.1605217456817627
1790958019925065200,11.250065185546875,-0.8393656611442566,-1.2560553550720215,-0.0516517199575901
1790958019935077400,11.260077392578125,-0.8475223779678345,-1.3751425743103027,0.003050942672416568
1790958019945089300,11.27008935546875,-0.8262607455253601,-1.3952600955963135,-0.10614585131406784
1790958019955101200,11.28010107421875,-0.7873349189758301,-1.374511480331421,-0.16401900351047516
1790958019965113300,11.29011328125,-0.7575682401657104,-1.3048509359359741,-0.0569617934525013
1790958019975125200,11.300125244140625,-0.7763424515724182,-1.3279231786727905,0.0579831637442112
1790958019985137400,11.310137451171874,-0.7932929396629333,-1.282673716545105,0.025863047689199448
1790958019995149300,11.3201494140625,-0.8107638955116272,-1.2425642013549805,-0.07221025973558426
1790958020005161200,11.3301611328125,-0.8374168276786804,-1.2617897987365723,-0.1166514977812767
1790958020015173400,11.34017333984375,-0.834915041923523,-1.3063011169433594,-0.06946134567260742
1790958020025185300,11.350185302734374,-0.8537198901176453,-1.3866889476776123,-0.04604790359735489
1790958020035197200,11.360197265625,-0.8833092451095581,-1.442383050918579,-0.08981215953826904
1790958020045209300,11.370209228515625,-0.8298614621162415,-1.4509416818618774,-0.10238813608884811
1790958020055221200,11.38022119140625,-0.7778350114822388,-1.4382069110870361,-0.08896128088235855
1790958020065233400,11.3902333984375,-0.707734227180481,-1.4327768087387085,-0.05268982797861099
1790958020075245300,11.400245361328125,-0.61793053150177,-1.4122179746627808,0.06901504099369049
1790958020085257200,11.41025732421875,-0.5766190886497498,-1.437767505645752,0.14693859219551086
1790958020095269400,11.420269287109376,-0.4854263365268707,-1.3831921815872192,0.09766612201929092
1790958020105281300,11.43028125,-0.4661756753921509,-1.2810921669006348,0.06775988638401031
1790958020115293200,11.440293212890625,-0.4620930552482605,-1.1642228364944458,0.11115770041942596
1790958020125305300,11.450305419921875,-0.447556734085083,-1.038834571838379,0.1654781848192215
1790958020135318300,11.460318359375,-0.44323867559432983,-0.9293372631072998,0.11565018445253372
1790958020145330400,11.470330322265625,-0.4210952818393707,-0.826732873916626,-0.0017909584566950798
1790958020155342300,11.48034228515625,-0.4774243235588074,-0.8148860335350037,-0.08536920696496964
1790958020165354200,11.490354248046875,-0.4781476557254791,-0.8348200917243958,0.008823602460324764
1790958020175366400,11.500366455078124,-0.41602623462677,-0.903176486492157,0.07927034050226212
1790958020185378300,11.51037841796875,-0.43136149644851685,-0.8611456751823425,-0.03837507218122482
1790958020195390500,11.520390380859375,-0.40240949392318726,-0.8162144422531128,-0.10044163465499878
1790958020205402400,11.53040234375,-0.36575639247894287,-0.8374693989753723,0.014132347889244556
1790958020215414300,11.540414306640624,-0.3609616458415985,-0.8591768145561218,0.07750013470649719
1790958020225426400,11.550426513671875,-0.35658472776412964,-0.8740500211715698,0.06614681333303452
1790958020235438300,11.560438232421875,-0.34163588285446167,-0.8981002569198608,0.03844967484474182
1790958020245450200,11.5704501953125,-0.3680746853351593,-0.8938647508621216,0.08411595970392227
1790958020255462400,11.58046240234375,-0.3676331341266632,-0.9070532917976379,0.09295259416103363
1790958020265474300,11.590474365234375,-0.3447059690952301,-0.8670991659164429,0.07626256346702576
1790958020275486500,11.600486572265625,-0.3514392375946045,-0.8159646391868591,0.0855998769402504
1790958020285498400,11.610498291015626,-0.3785763084888458,-0.82269686460495,0.13089464604854584
1790958020295510300,11.62051025390625,-0.38905373215675354,-0.853706419467926,0.06416408717632294
1790958020305522400,11.6305224609375,-0.34180206060409546,-0.7908585071563721,-0.0773451030254364
1790958020315534300,11.640534423828125,-0.3672863841056824,-0.7078989148139954,-0.0037880633026361465
1790958020325546200,11.650546142578126,-0.42290329933166504,-0.780327558517456,0.04037034511566162
1790958020335558400,11.660558349609374,-0.4757782518863678,-0.7493637800216675,-0.034411750733852386
1790958020345570300,11.6705703125,-0.5022692084312439,-0.665422797203064,-0.1441401243209839
1790958020355582200,11.680582275390625,-0.5135122537612915,-0.6231762766838074,-0.15527373552322388
1790958020365595400,11.690595458984374,-0.4860420525074005,-0.5875948667526245,-0.04328007996082306
1790958020375607300,11.700607177734375,-0.4216074049472809,-0.6088945269584656,-0.016766978427767754
1790958020385619500,11.710619384765625,-0.3650929927825928,-0.5700147747993469,0.006413441617041826
1790958020395631400,11.72063134765625,-0.27382487058639526,-0.5679164528846741,0.040258221328258514
1790958020405643500,11.7306435546875,-0.26532378792762756,-0.572700023651123,0.04557602107524872
1790958020415655400,11.740655517578125,-0.23984238505363464,-0.5631715059280396,0.09474330395460129
1790958020425667300,11.750667236328125,-0.20715874433517456,-0.5628306269645691,0.18644659221172333
1790958020435679500,11.760679443359376,-0.20193229615688324,-0.5496386885643005,0.23796623945236206
1790958020445691400,11.77069140625,-0.2127348780632019,-0.5041164755821228,0.21889373660087585
1790958020455703300,11.780703369140625,-0.21276123821735382,-0.4690125584602356,0.18170882761478424
1790958020465715500,11.790715576171875,-0.16881109774112701,-0.40468737483024597,0.078521728515625
1790958020475727400,11.800727294921876,-0.02436975948512554,-0.2660650610923767,0.005602775141596794
1790958020485739500,11.810739501953124,0.06505493074655533,-0.20428529381752014,0.006100253667682409
1790958020495751400,11.82075146484375,0.03070867247879505,-0.17979300022125244,-0.036217376589775085
1790958020505763300,11.830763427734375,0.03685817867517471,-0.12279948592185974,-0.05545658618211746
1790958020515775500,11.840775390625,0.010799146257340908,-0.1122477725148201,0.04605405777692795
1790958020525787400,11.850787353515624,0.00477800564840436,-0.17923958599567413,0.03955940902233124
1790958020535799300,11.86079931640625,0.03033396601676941,-0.13797177374362946,-0.09162124246358871
1790958020545811500,11.8708115234375,0.05771392583847046,-0.06149298697710037,0.028599703684449196
1790958020555823400,11.8808232421875,0.08294285088777542,-0.1859068125486374,0.22735780477523804
1790958020565835300,11.890835205078124,0.10774832963943481,-0.1903737336397171,0.267518550157547
1790958020575847400,11.900847412109375,0.12452305108308792,-0.14148156344890594,0.31213846802711487
1790958020585860400,11.9108603515625,0.13554880023002625,-0.2093932330608368,0.39104634523391724
1790958020595872500,11.92087255859375,0.10059907287359238,-0.23168575763702393,0.3692707419395447
1790958020605884400,11.930884521484375,0.05382651090621948,-0.23803552985191345,0.3076363801956177
1790958020615896600,11.940896484375,0.09551270306110382,-0.13526573777198792,0.1989368051290512
1790958020625908500,11.950908447265626,0.19035851955413818,-0.06576309353113174,0.11111854761838913
1790958020635923500,11.96092333984375,0.23886027932167053,-0.0038454020395874977,0.017331868410110474
1790958020645935400,11.970935302734375,0.1935276836156845,0.05531086027622223,-0.02059314213693142
1790958020655947500,11.980947509765626,0.23168545961380005,0.08445356786251068,-0.08261550217866898
1790958020665959400,11.99095947265625,0.27980104088783264,0.1309073567390442,-0.1259121149778366
1790958020675971300,12.000971435546875,0.3215567469596863,0.21001948416233063,-0.06152299791574478
1790958020685983500,12.0109833984375,0.30107197165489197,0.21240034699440002,0.07474935799837112
1790958020695995400,12.020995361328126,0.3548332154750824,0.19996045529842377,0.03950774669647217
1790958020706007300,12.03100732421875,0.3465427756309509,0.33830660581588745,-0.0036122947931289673
1790958020716019500,12.04101953125,0.3702246844768524,0.43734076619148254,0.08340596407651901
1790958020726031400,12.05103125,0.3761563301086426,0.4560801088809967,0.2583673894405365
1790958020736043500,12.06104345703125,0.38415834307670593,0.4536164104938507,0.29260870814323425
1790958020746055400,12.071055419921874,0.36533936858177185,0.4493417739868164,0.1970749944448471
1790958020756067300,12.0810673828125,0.32748520374298096,0.4645548164844513,0.10160733759403229
1790958020766079500,12.09107958984375,0.3425973057746887,0.5242658257484436,0.12620028853416443
1790958020776091400,12.10109130859375,0.383407860994339,0.5513813495635986,0.1867579072713852
1790958020786103300,12.111103271484374,0.4575231075286865,0.619796097278595,0.11157235503196716
1790958020796115500,12.121115478515625,0.6213157773017883,0.7807847261428833,-0.013591425493359566
1790958020806128400,12.13112841796875,0.7192652821540833,0.8445171117782593,-0.07852142304182053
1790958020816140300,12.141140380859374,0.721386194229126,0.8837158679962158,-0.12259220331907272
1790958020826152400,12.15115234375,0.7501509785652161,0.9872230887413025,-0.10597009211778641
1790958020836164400,12.161164306640625,0.7631120681762695,1.0212340354919434,0.03000478819012642
1790958020846176500,12.171176513671876,0.7774595618247986,0.9730188846588135,0.062044478952884674
1790958020856188400,12.1811884765625,0.7907711267471313,1.0692821741104126,-0.01915130764245987
1790958020866200300,12.191200439453125,0.8549945950508118,1.1887023448944092,0.012399694882333279
1790958020876212500,12.20121240234375,0.8837854862213135,1.2790557146072388,0.26694807410240173
1790958020886224400,12.211224365234376,0.8955627679824829,1.2522962093353271,0.3973284661769867
1790958020896236500,12.221236572265624,0.9486337304115295,1.2042869329452515,0.2691345512866974
1790958020906248400,12.23124853515625,0.91282057762146,1.2034951448440552,0.015608005225658417
1790958020916260400,12.24126025390625,0.8662791848182678,1.339660406112671,-0.1611049920320511
1790958020926272500,12.2512724609375,0.8850558400154114,1.357130765914917,-0.0701628252863884
1790958020936284400,12.261284423828124,0.9641362428665161,1.286131501197815,0.11875409632921219
1790958020946296600,12.271296630859375,0.9475902915000916,1.2561516761779785,0.09423011541366577
1790958020956308500,12.28130859375,0.878214955329895,1.292415976524353,-0.05745980888605118
1790958020966320400,12.2913203125,0.8876153826713562,1.2802988290786743,-0.16388612985610962
