time,seconds_elapsed,z,y,x
1789221662936047000,0.066047119140625,0.10361176564395427,-0.06264788709282874,0.18318448405265808
1789221662946126000,0.0761259765625,0.15804828923046588,-0.004396773654222488,0.10930822371989488
1789221662956205000,0.086205078125,0.22271569945216177,0.07040916874408722,0.04831124563924968
1789221662966285000,0.09628515625,0.27919278895556926,-0.030428456011414525,0.0715033937215805
1789221662976364000,0.106364013671875,0.24461188943982123,-0.00538052399456501,0.22759426527395843
1789221662986443000,0.116443115234375,0.1338052438557148,0.007666004583239555,0.16110000495128332
1789221662996522200,0.126522216796875,0.017263269490003584,-0.037438627034425735,0.014081789909675716
1789221663006602000,0.13660205078125,-0.04715454988479614,0.010301613783836365,0.00895282952338457
1789221663016681200,0.14668115234375,0.01153787758052349,-0.023051789763569832,0.09570786065161227
1789221663026760200,0.15676025390625,0.13117957152724266,-0.02369710192978382,0.08250548392497002
1789221663036839000,0.1668388671875,0.195840552008152,0.0029641105026006697,0.12686645756848156
1789221663046919200,0.176919189453125,0.2876484826117754,-0.03712356973588466,0.22672544655017554
1789221663056998000,0.186997802734375,0.3762959033578634,-0.07323124042749404,0.2774167922589928
1789221663067077000,0.1970771484375,0.2893383353948593,-0.06702770961225032,0.17095635918565094
1789221663077156000,0.207156005859375,0.32885961392223834,-0.037133506608009334,-0.007831351212784648
1789221663087236000,0.217236083984375,0.3940057475715875,-0.06034370180368423,-0.0986000749617815
1789221663097315000,0.227315185546875,0.25763737522959707,-0.06009878713190555,-0.1255266603320837
1789221663107394000,0.23739404296875,0.051039866885542864,0.12425240261256694,-0.16951741242371499
1789221663117473000,0.24747314453125,-0.09993979913294315,0.2819172454833984,-0.22241788554936645
1789221663127553000,0.257552978515625,-0.012086743634939194,0.21877309930622577,-0.36183190919756886
1789221663137632300,0.26763232421875,0.026088380980491637,0.0321767609834671,-0.42685492792390284
1789221663147711200,0.277711181640625,-0.09041384589672088,0.025199907708168028,-0.3109721115866676
1789221663157790200,0.287790283203125,-0.004917582657933235,0.07264438045024871,-0.21099059220384805
1789221663167870200,0.2978701171875,0.4329080174177885,0.12304770299792289,-0.40037612285371865
1789221663177949200,0.30794921875,0.7292050859093666,0.20495850896537302,-0.6115468208648264
1789221663188028400,0.3180283203125,0.48494390960335726,0.15768471661508082,-0.20148517029900104
1789221663198107100,0.328107177734375,0.4265595251739025,-0.03661562021374702,0.2634669581659138
1789221663208187400,0.3381875,0.3643663961112499,-0.3275450241923332,0.7938385207962244
1789221663218266400,0.348266357421875,0.8062403947949409,-0.4113964428335428,0.602418342513591
1789221663228345000,0.358344970703125,0.8111831118941306,-0.2707639833062887,0.05698580621052533
1789221663238424300,0.36842431640625,0.5111725758373737,-0.2205453696757555,0.2128730814822018
1789221663248504000,0.378504150390625,0.3896726868033409,-0.3792752114295959,0.3263880361769348
1789221663258583300,0.388583251953125,0.598719049604237,-0.4662888934940099,0.3746716996895149
1789221663268662300,0.398662353515625,0.4677089894250035,-0.35080607279241083,0.4860317413726821
1789221663278741200,0.4087412109375,0.20393354983180761,-0.4072323088914156,0.7425953864235431
1789221663288821200,0.4188212890625,0.3035200054824352,-0.4683037404477596,0.7838901774294674
1789221663298900500,0.428900390625,-0.08648001357913017,-0.39746494811475275,0.44438028241619465
1789221663308979200,0.438979248046875,-0.3262006238460541,-0.2540875737935305,0.20289785010851918
1789221663319058200,0.44905810546875,0.07449263866543769,-0.2681283741056919,-0.1289538035028614
1789221663329137400,0.459137451171875,0.20066461116373538,-0.2686567818939686,-0.36943463928624987
1789221663339217200,0.469217041015625,0.049876083803176874,-0.06474748972058296,-0.09915582741471007
1789221663349296400,0.47929638671875,-0.05094868147075176,0.03746960669457912,0.052345551789784804
1789221663359375400,0.489375244140625,-0.27453619532138107,-0.1659212145626545,-0.22845563134364782
1789221663369455400,0.499455322265625,-0.754728818744421,-0.3205611566543579,-0.5459384399985894
1789221663379534300,0.509534423828125,-0.9402411612227558,-0.09093933107554912,-0.9606311113659292
1789221663389613000,0.519613037109375,-1.0403940185844898,-0.09579086275994778,-1.2417147555693984
1789221663399692300,0.5296923828125,-1.6725620410650968,-0.8555991767257451,-1.121680043717101
1789221663409772000,0.53977197265625,-1.4711200157880782,-0.6947288158118724,-1.386261612061411
1789221663419851300,0.549851318359375,0.8839467348098754,0.010815993046760558,0.07569125559916719
1789221663429930200,0.55993017578125,1.7140692327126859,-0.5812076505720615,0.8152603712704032
1789221663440009500,0.570009521484375,1.403709444338083,-0.5074450797468424,0.6462894868135451
1789221663450088200,0.580088134765625,1.3630267208158968,-0.41107729388177394,0.35434641228038816
1789221663460168400,0.59016845703125,0.7199497663080692,-0.5980629237830638,0.07309668166185729
1789221663470247200,0.6002470703125,0.2019102273106575,-1.009902434208989,-0.09020616709594614
1789221663480326100,0.610326171875,0.32515812905579805,-1.2852496536523104,-0.1785655920803547
1789221663490405400,0.6204052734375,0.7651198643773793,-1.353440561825037,-0.21313355904929338
1789221663500485000,0.630485107421875,1.2169924022451042,-1.3019891915291546,0.28686997251994906
1789221663510564400,0.640564453125,0.8761459979310631,-1.0114607695668936,0.1573241762069985
1789221663520643300,0.650643310546875,-0.11155308003723621,-0.7749000846356153,-0.36522067485302684
1789221663530722000,0.66072216796875,-0.9084878863483666,-1.2926163830280304,0.10357750718132593
1789221663540802300,0.67080224609375,-0.7346142514765263,-2.71606337801516,0.9221066618561744
1789221663550881000,0.680881103515625,-0.21477584636360406,-3.605875789988041,0.8466990272376685
1789221663560960300,0.690960205078125,-0.44601066009700296,-3.629236207309365,0.44497086872048675
1789221663571039200,0.701039306640625,-0.5941483806878328,-2.6522756732374426,0.3922311756471172
1789221663581119200,0.711119140625,-0.790492206043005,-1.879483959057927,0.44401291040852664
1789221663591198200,0.7211982421875,-1.0184943214654922,-1.1142372534304856,0.9803927004776894
1789221663601277400,0.73127734375,-0.6118547177702188,0.5328735355138778,0.6543221327520906
1789221663611356200,0.741356201171875,-0.7216513095289468,2.584327926170826,-0.3227850797815248
1789221663621436400,0.7514365234375,-0.6467185258805751,3.8193425995796915,-1.1259349977478383
1789221663631515400,0.761515380859375,0.2307034833356738,3.352935048142075,-1.3749825315475463
1789221663641594000,0.771593994140625,1.0349389680489898,2.896408839249611,-0.48783462607618416
1789221663651673300,0.78167333984375,0.5044283622741699,2.9108634810596703,-0.3338618061237037
1789221663661753000,0.791753173828125,0.1090180086016655,3.0883389398157597,0.09228581378106027
1789221663671832300,0.801832275390625,-0.18999971702545881,2.3770710771352053,0.2797138171549886
1789221663681911300,0.811911376953125,-0.29298604424744845,0.7619675378262997,0.4734202066786587
1789221663691990000,0.821989990234375,0.37012247541993853,-0.6887953341096639,0.26424627197533845
1789221663702070300,0.8320703125,0.7378506030492484,-1.7108534855365751,-0.20204305991008878
1789221663712149200,0.842149169921875,1.0493635069817304,-1.9831629447191952,0.44704738273359834
1789221663722228200,0.852228271484375,0.41805122454762456,-1.1177087289333343,-0.04021525214090943
1789221663732307200,0.86230712890625,0.07117489241957664,-0.9168757754653691,-0.7494763781089335
1789221663742387200,0.87238720703125,0.9000091040775179,-0.8818442095726728,-0.7967986127108335
1789221663752466200,0.882466064453125,0.5514370739474892,-0.4796370353668928,-0.6560978371877223
1789221663762545400,0.89254541015625,0.3652371875964105,0.6323486397445202,-1.5951653515212236
1789221663772624100,0.9026240234375,-0.6716232500344514,1.3217156362622975,-1.801021247717738
1789221663782704400,0.912704345703125,-1.5919690396979451,0.45668169171512124,-0.5371672141198068
1789221663792783400,0.922783447265625,-1.1788564405962825,-0.5874205337375402,0.7032715301644057
1789221663802862000,0.932862060546875,0.4796608546338975,-1.2047627430081367,0.8636785844154655
1789221663812941300,0.94294140625,1.1716605377428233,-1.1414859103620052,0.6539466505032032
1789221663823021000,0.95302099609375,0.8964116641074419,-0.25876316438913344,1.218954934489727
1789221663833100300,0.963100341796875,0.0013297872990369797,0.363176309543848,0.33930165909007187
1789221663843179300,0.97317919921875,-0.7704238160043955,1.1612351514488457,0.35674350001737476
1789221663853258500,0.983258544921875,-0.08968494710028171,1.3933289200991392,-0.08097703224867582
1789221663863338200,0.993338134765625,-0.26592940275669097,1.2404559876799583,-0.2927615147765726
1789221663873417200,1.003417236328125,-0.5508429074466228,1.4063117357909678,-0.39734146786555646
1789221663883496200,1.01349609375,-1.164345392423868,1.3102262739986181,-1.2066016488730906
1789221663893575200,1.0235751953125,-1.7486460405752062,0.7927163118332624,-1.2203547913502901
1789221663903655200,1.0336552734375,-1.8818841520674525,0.10317571231424807,-0.5825055083628744
1789221663913734100,1.043734130859375,-0.9065262308865785,-1.2023708794355392,0.14844854010567068
1789221663923813400,1.0538134765625,1.2380202849656343,-2.120994375351071,0.40458460739422586
1789221663933892400,1.063892333984375,2.2087986232712864,-1.752277382814884,0.4438313432965427
1789221663943972400,1.073972412109375,1.16606710164994,-0.36376667665243145,0.5311304912388325
1789221663954051300,1.08405126953125,0.4152309064298868,1.02866266425848,0.23891963261496274
1789221663964130000,1.094130126953125,-0.10992927822768687,1.6869208212852478,-0.29972496058102693
1789221663974209300,1.104209228515625,-0.6117693775743246,1.5494932952791451,0.17831099626477806
1789221663984289300,1.114289306640625,0.399433910100162,0.9517962821990251,-0.5937028288774192
1789221663994368300,1.1243681640625,0.7023344685100018,0.3532745087325573,-0.8661289001770317
1789221664004447200,1.134447265625,1.535204073163867,-0.22158289602994918,-0.8747934873435645
1789221664014526500,1.1445263671875,1.247495092536509,-0.6243067875862122,0.09426957147680222
1789221664024606200,1.154606201171875,0.02762625807225704,-0.2937655041873455,0.273350894526951
1789221664034685400,1.164685546875,-0.9933014280200004,0.47778819262981415,0.20292313068024814
1789221664044764200,1.17476416015625,-1.3743015635460614,0.960519102358818,0.3381183310570195
1789221664054843100,1.184843017578125,-1.2703846774756908,0.42362054911255836,0.2621085292942822
1789221664064923400,1.19492333984375,-0.058172787505388256,-0.08544073365926742,0.2837481507049873
1789221664075002000,1.205002197265625,-0.4685501164242625,0.12247545606791972,0.8477608112502842
1789221664085081300,1.215081298828125,-0.6657447133898735,0.7773305266529321,0.6491650422498584
1789221664095160300,1.225160400390625,0.02721592370569706,1.1405834085643292,-0.4458373493567109
1789221664105240300,1.235240234375,-0.05042962603271007,0.3957096288800239,-0.32511147690247744
1789221664115319300,1.2453193359375,-0.10916823072731495,-0.24843115546703337,-0.7422403624407946
1789221664125398300,1.255398193359375,0.82675711312294,0.7203133389234543,-0.916026611290127
1789221664135477200,1.265477294921875,1.1570537741109728,1.0310580349624157,-0.16844514354970305
1789221664145557500,1.2755576171875,1.2866466609686613,0.7772370031505823,0.2547974756285548
1789221664155636200,1.28563623046875,0.8572115803584456,0.6142699622184038,0.33226434433180835
1789221664165715500,1.295715576171875,0.3176677733004093,0.6408470034986734,0.16984408709481358
1789221664175794400,1.30579443359375,-0.09333616308420896,0.25233517716825005,0.38104817591886964
1789221664185873200,1.315873046875,-0.5953130405530334,-0.5453074851512909,-0.6782185566462576
1789221664195953400,1.325953369140625,0.33557284782528873,0.1254606093585491,-1.053774163030833
1789221664206032400,1.336032470703125,0.5396779548317193,0.05740297217667102,0.2613425864230841
1789221664216111400,1.346111328125,1.4160466556027531,0.14438742814660072,-0.19390801304299382
1789221664226191400,1.35619140625,1.0346540136277675,1.3137339898586273,0.41208124675992874
1789221664236270300,1.366270263671875,0.32809242894202467,1.6346879452228544,0.060474817370064556
1789221664246349300,1.376349365234375,0.24444997687637804,1.268886547872424,0.9239502438962459
1789221664256428300,1.38642822265625,0.08143091349601746,-0.22996844705939293,1.3219707800671459
1789221664266507300,1.39650732421875,-0.02726400063112378,-0.49270577577650543,1.5073346539855002
1789221664276587300,1.406587158203125,-0.6629957069426775,-0.28110008388161656,1.4864417958214877
1789221664286666500,1.41666650390625,-0.8055287393942475,-0.3968669822216034,0.7185328852474689
1789221664296745200,1.4267451171875,-0.4037394983395934,-0.556141013854742,0.16104973606877027
1789221664306824400,1.436824462890625,0.39109409790858624,-0.7369803960859775,-0.6801582194719463
1789221664316904200,1.446904296875,0.6057656071148813,-0.031928923702239986,-0.3547692773349583
1789221664326983400,1.4569833984375,0.5913730707556009,0.2871013701230287,0.23976642217002808
1789221664337062400,1.4670625,-0.24802199014425277,0.17189561279714108,-0.4468914615195244
1789221664347141400,1.477141357421875,-0.7513292394340038,0.259140765529871,-0.6803292651899159
1789221664357221400,1.487221435546875,0.3923023046545684,-0.07954290779232978,0.24737324391193685
1789221664367300400,1.49730029296875,0.3317649799749255,-0.593870148268342,0.6478959721621126
1789221664377379300,1.50737939453125,-0.01564253642037511,-0.5311527030706406,1.0490891470197587
1789221664387458300,1.517458251953125,-0.7014058093577623,-0.3649193538188934,0.810745158868283
1789221664397538300,1.527538330078125,-0.9216881441831588,0.1428670867115259,0.3515430818300694
1789221664407617300,1.5376171875,-0.5751970119804144,0.19250877723693846,0.24728205849714577
1789221664417696300,1.5476962890625,-0.10417889800742268,-0.3029296383738518,-0.20397344345077872
1789221664427775500,1.557775390625,0.08855725824460386,0.005413841742277145,-0.28289588125720616
1789221664437855200,1.567855224609375,0.33047523242533206,0.18359832555055616,-0.21828232011459767
1789221664447934500,1.5779345703125,0.20304595334231854,0.14959084200859069,0.0008544979374855757
1789221664458013200,1.58801318359375,-0.24842794059664008,-0.13093933303058147,0.19479250425994396
1789221664468092400,1.598092529296875,-0.1290560035020113,-0.24602350980341434,0.0693836250886321
1789221664478172400,1.60817236328125,0.5603630154639482,-0.12834347131848334,-0.32144320018589495
1789221664488251400,1.61825146484375,0.6134481244415044,-0.042431028494238854,-0.8661950972810387
1789221664498330400,1.628330322265625,0.16327859109938145,-0.4544704454064369,-1.3336784612566233
1789221664508409300,1.638409423828125,0.19036533546745776,-0.2954290534853935,-0.518435771773383
1789221664518489300,1.6484892578125,-0.11331892066597937,0.6280383753299713,0.16770575989186762
1789221664528568300,1.658568359375,-0.7401539115555584,-0.09016542409360408,-0.035301322744786735
1789221664538647300,1.668647216796875,-0.6916603681519627,0.013530512702465056,0.4949744513608515
1789221664548726300,1.678726318359375,-0.18454481262043118,-0.4437678496062755,0.6463284305844456
1789221664558806500,1.688806640625,-0.020420272216200828,-0.37336218799352644,0.3400253702547401
1789221664568885200,1.69888525390625,-0.42548868107199667,-0.16773440146446228,0.1750977698393166
1789221664578964200,1.708964111328125,-0.5236860204517841,-0.09788929634392261,0.18438830688446758
1789221664589043500,1.71904345703125,-0.07058744792044162,0.10901450147032737,-0.17836780448593198
1789221664599123200,1.729123291015625,0.5743985550791025,0.0697124186515808,-0.32266309736967086
1789221664609202400,1.739202392578125,0.8894704666674137,0.1528057124018669,0.25573015336878596
1789221664619281400,1.749281494140625,0.6522890194892883,0.15782733995616435,0.5760692647702992
1789221664629360400,1.7593603515625,0.3302957842051983,-0.11784838078916073,-0.17142777608968315
1789221664639440400,1.7694404296875,0.17555413530468938,-0.12444061866104603,-0.26465492584146555
1789221664649519400,1.779519287109375,-0.5566103849321603,-0.024185177707672117,0.33358408516086635
1789221664659598300,1.789598388671875,-0.6799491798311471,0.0534650482058525,0.7098337382242084
1789221664669677300,1.79967724609375,0.21269231808781622,0.01981061588525772,0.708952644540742
1789221664679757300,1.80975732421875,0.47811128710433837,-0.002183189257979393,1.1214912431467323
1789221664689836300,1.819836181640625,-0.20855945606678722,0.021979776617884635,0.6927627764359117
1789221664699915500,1.82991552734375,-0.948400210019946,-0.14958324322402478,-0.34075689939968284
1789221664709994200,1.839994140625,-1.9972206961661576,-0.12518062337338923,-1.0254008129183203
1789221664720074500,1.850074462890625,-1.3245429686427115,0.44485506032109257,0.463849756713584
1789221664730153200,1.8601533203125,-0.15370324576348066,0.5601935041159392,1.4439309800893068
1789221664740232200,1.870232177734375,0.9407707380548119,-0.17570377290844916,0.7692316836103796
1789221664750311400,1.8803115234375,1.7078744697257875,-0.7773615063130855,-0.4189228562830016
1789221664760391200,1.89039111328125,1.0843921502649783,-0.21822364872992037,-1.2374737569987773
1789221664770470400,1.900470458984375,0.2919435494571924,0.15969196478426456,-0.543619751260057
1789221664780549400,1.91054931640625,-0.12840543063879012,0.4457914643883705,1.737468666870147
1789221664790628400,1.92062841796875,0.1528301161907613,0.22188860097825525,0.8824879873689263
1789221664800708400,1.930708251953125,-0.6663783351182937,0.4274573507964611,-0.3293887523628771
1789221664810787300,1.940787353515625,-1.9810209642544387,-0.04549976841509342,-0.04149765663426369
1789221664820866300,1.9508662109375,-0.45186961525827646,-0.23255554094314573,-0.10129683976508676
1789221664830945300,1.9609453125,0.6851233675986528,-0.04525368469953537,-0.13891480542179196
1789221664841025300,1.971025390625,1.4174787342324853,-0.09108663059175014,0.00694470457136631
1789221664851104300,1.981104248046875,1.3437503579378127,-0.041861704173684115,-0.05191898780763149
1789221664861183500,1.99118359375,1.0593465563356876,0.7149047578781843,0.8476152652997523
1789221664871262200,2.00126220703125,0.7245277417480945,-0.013466215294599532,1.24305930204615
1789221664881342500,2.011342529296875,0.048020519064366815,0.15151099641621113,-0.07065116080641747
1789221664891421400,2.02142138671875,-0.2864887911826372,-0.18628245006799696,-0.6627493309661746
1789221664901500200,2.031500244140625,0.8846186427220701,-0.125936410176754,0.3822247088849544
1789221664911579400,2.041579345703125,0.6099824941575527,-0.2562427060008049,0.6759436705168336
1789221664921659100,2.0516591796875,-0.6550298426300287,-0.42491526509821415,0.01685461562387645
1789221664931738400,2.06173828125,-1.5455883967950939,-0.06821604261398315,0.0775508571922779
1789221664941817300,2.0718173828125,-1.6117093668259679,0.14391454993784428,-0.3803693998744711
1789221664951896300,2.081896240234375,-0.4796648001566529,0.04398644124269485,-2.273504758068174
1789221664961976300,2.091976318359375,0.3363268810629845,0.5764256769925356,-2.506364688785374
1789221664972055600,2.1020556640625,-0.13124912963211535,1.5221698195457458,-1.4042442818671463
1789221664982134300,2.11213427734375,0.3307593100637197,0.7550204951673746,0.2720020006686449
1789221664992213200,2.122213134765625,0.23840134436190127,-0.7002040323525667,1.2924220294997095
1789221665002293200,2.132293212890625,0.786857356671989,-0.619743425193429,0.6259472482696176
1789221665012372200,2.142372314453125,0.46549160563647746,-0.16070143408775328,-0.20605182062741367
1789221665022451500,2.152451416015625,0.20655600728988646,-0.056799161064624785,0.41161092583443964
1789221665032530400,2.162530517578125,0.01339315005838871,0.003989361897110939,0.9237015298321842
1789221665042610400,2.1726103515625,-0.3296595321282744,0.06081424192488193,1.3012880575224757
1789221665052689400,2.182689453125,-0.554977230772376,0.15343407343327997,0.5946402193253859
1789221665062768000,2.19276806640625,-0.11156126334369182,0.20177695631980894,-0.06367872797790915
1789221665072848400,2.202848388671875,1.099459955537319,0.22870763334333896,-0.6296944719739258
1789221665082927000,2.212927001953125,1.605725470110774,0.2932166381329298,-0.7586089481133967
1789221665093006300,2.22300634765625,1.1851045412056147,-0.11649521261453628,-0.2851923033650033
1789221665103085300,2.233085205078125,0.7938326025120913,-0.2840396444648504,0.002426843554433435
1789221665113164500,2.24316455078125,0.10311959821283817,-0.12448621136844157,-0.5749298124115914
1789221665123244300,2.253244384765625,0.1967033063173294,-1.1668570829838514,0.8366923778124153
1789221665133323500,2.263323486328125,-0.0754904175311327,-1.39565823982954,-0.01722664325706428
1789221665143402200,2.27340234375,-0.4277572105258703,-0.23167466645538806,-1.428493026330322
1789221665153482500,2.283482421875,-0.336508667370677,-0.041319267860054965,-0.004371958873374387
1789221665163561500,2.2935615234375,-0.5539987411290407,-0.38242870702445503,0.7330453216593712
1789221665173640400,2.303640380859375,-0.09077011198848485,-0.9266051423192023,-0.49720860362108793
1789221665183719400,2.313719482421875,-0.05311214311495423,-0.5747796633511781,-1.436239256542921
1789221665193799400,2.32379931640625,-0.4402437671333551,-0.6461714133918285,-1.7757978130035101
1789221665203878400,2.33387841796875,-0.31810879506617784,-0.738148855343461,-1.0738609655089675
1789221665213957400,2.343957275390625,-0.4732888353839516,-0.7269517540246248,-0.8463653383038937
1789221665224036400,2.354036376953125,-0.7306589379794896,-0.48547290191352366,-0.551137579544261
1789221665234116400,2.364116455078125,0.021594576692581177,-0.48231823727488515,0.20949268179628996
1789221665244195600,2.374195556640625,0.4264348758809268,0.013606500548124312,0.10578651586715132
1789221665254274300,2.3842744140625,-0.29056816945075986,0.5357201571166516,-0.37127003801986574
1789221665264353300,2.394353271484375,-0.33950726466476916,0.4276040657907724,-0.6756685799024998
1789221665274433300,2.404433349609375,-0.17028262464255092,0.5700234087347984,-0.5502600660573691
1789221665284512300,2.41451220703125,-0.39977907027602194,0.885732449182868,-0.4997984374511987
1789221665294591500,2.424591552734375,-0.414337172460556,0.6085241120427847,0.9041790101733058
1789221665304670200,2.434670166015625,-0.9304631329216062,0.38804479334056374,1.2289373993217945
1789221665314750500,2.44475048828125,-0.3670402914956212,-0.45052959882616994,1.2064879593655466
1789221665324829400,2.454829345703125,0.5570961226224899,-0.3750841894805431,0.7490412015620619
1789221665334908400,2.464908447265625,-0.8778022407054901,-0.3045189533919096,0.2979914513193071
1789221665344987400,2.4749873046875,-0.34428280850350856,-0.44113165588378905,0.42252413217797874
1789221665355067400,2.4850673828125,0.6487415561407804,-0.051071431067585944,0.6538502774566411
1789221665365146400,2.495146484375,-0.03453413776457309,0.3689806119084358,0.08686419059112667
1789221665375225300,2.505225341796875,0.13244623046219348,-0.7263403441280126,0.24915311306603252
1789221665385304600,2.5153046875,0.44683688178807496,-0.06348784504830837,0.8618364636801182
1789221665395384300,2.52538427734375,-0.20454086807519195,-0.06754501148462295,0.8753038480184971
1789221665405463600,2.535463623046875,0.6570198474034666,0.5396475596934557,0.3565421322263777
1789221665415542300,2.545542236328125,0.4482084624022245,1.158308450347185,-1.1646055046647787
1789221665425621200,2.555621337890625,0.2370019989579916,1.1345423748344183,-0.527544011054188
1789221665435701200,2.565701171875,1.269604633013904,0.3826683609992265,-0.6958253058116882
1789221665445780200,2.5757802734375,1.2745268918469548,-0.022155717706680296,-0.5749546545919031
1789221665455859500,2.585859375,1.7856494910627603,-0.3964525562018156,-0.17282288370989263
1789221665465938400,2.5959384765625,0.9889724589049815,0.13788579116761684,0.40035694322921334
1789221665476018400,2.606018310546875,-0.08000789495557546,0.24813304930329322,0.22238617523685097
1789221665486097400,2.616097412109375,0.2589981421887875,0.23663433468937872,0.0016887568045407533
1789221665496176400,2.62617626953125,-0.11662030029892921,-0.08857494003176689,-0.03855586756132543
1789221665506255400,2.63625537109375,0.009743103118240833,-0.25834873836934563,0.13297076579295097
1789221665516335400,2.64633544921875,0.09622954643815755,-0.09556582183241843,0.394411040436849
1789221665526414300,2.656414306640625,-0.26321166823059317,-0.3664367726445198,0.9737463212657719
1789221665536493300,2.666493408203125,0.7430170459017157,-0.9037158496409654,1.2857993964895604
1789221665546572500,2.676572509765625,0.8104714564934372,-0.46966392288506026,0.5723278862848877
1789221665556652300,2.68665234375,0.6080857206255197,0.39846331150233744,-0.05042633809708059
1789221665566731500,2.6967314453125,0.5419795097723603,0.6173632520586252,-0.39354266010448335
1789221665576810200,2.706810302734375,-0.20112813702225685,0.42771863208115096,-0.20160233040526507
1789221665586889200,2.71688916015625,-0.37299160111546514,-0.23653204335868358,-0.002793795436993241
1789221665596969500,2.726969482421875,0.5146686012595891,-0.5573468825131654,0.5022766641329973
1789221665607048200,2.737048095703125,0.5464557784035802,-0.20549276197254657,0.9095167910046875
1789221665617127400,2.74712744140625,0.25935060888826844,0.43986791955828664,1.239331659825146
1789221665627207200,2.757207275390625,-0.2763394453510642,0.5759802713125943,1.0855170626416801
1789221665637286400,2.767286376953125,-0.13700637798458337,0.1071136362850666,0.622919424881041
1789221665647365400,2.777365478515625,0.7288473585128784,0.15761048233509062,0.39789376798607407
1789221665657444400,2.7874443359375,0.5075307122036814,0.17177461676597594,0.38575010653212666
1789221665667524400,2.7975244140625,-0.044452012927830215,0.2105675810188055,0.41597317616455254
1789221665677603600,2.807603515625,-0.15735563079118728,0.3709931207746267,0.23034765563532708
1789221665687682300,2.817682373046875,-0.6266039586126804,-0.24041443774998186,0.0924729703836143
1789221665697761300,2.82776123046875,-0.02843319054096937,-0.3297936799019575,-0.41238099689148366
1789221665707841300,2.83784130859375,1.1307818532571197,0.4046294329166412,-1.1068486775491386
1789221665717920300,2.847920166015625,1.254628597678244,0.2376245147705078,0.41354602208286523
1789221665727999500,2.85799951171875,1.2854080590844155,1.0621908398509026,1.2649509619891643
1789221665738078500,2.868078369140625,0.11689531784802674,0.09594926819205284,0.7014410268016159
1789221665748158500,2.878158447265625,-0.5678416807815432,0.8362918341875076,-0.03218132756073028
1789221665758237400,2.888237548828125,-0.274211785672605,1.5230021787166594,0.2957396903371438
1789221665768316200,2.898316162109375,-0.07801964374780654,1.0054618214130402,0.2776321885753423
1789221665778395400,2.9083955078125,0.11200140832662582,-0.06206219615936279,0.0351498585101217
1789221665788475400,2.918475341796875,0.26551731482446195,-0.77073244356215,0.061609374357946216
1789221665798554400,2.928554443359375,0.16171061113029717,-0.885754661014676,0.20810893582031129
1789221665808633300,2.93863330078125,0.3245104788020253,-0.9920867915332316,0.23874080544933676
1789221665818712600,2.948712646484375,0.9756883221790194,-0.5582528914421796,0.09877270984863862
1789221665828792300,2.958792236328125,1.4317349308609961,0.09740297413170337,0.13741866684621198
1789221665838871600,2.96887158203125,0.7124351528942584,-0.3452922778069973,-1.0199136136788873
1789221665848950300,2.9789501953125,0.10710136132538318,-0.30532267099022864,-2.304099364426732
1789221665859029200,2.989029296875,-0.06340045902580023,-0.3357622329175472,-0.8168954251263291
1789221665869109500,2.999109619140625,-1.8423507447108625,-0.7275269235640763,1.0868604400746524
1789221665879188200,3.009188232421875,-1.7301470918104052,-0.06088146194219589,0.005188490287493914
1789221665889267500,3.019267333984375,-1.2857280848190187,-0.009303834918141364,-1.1241405155465005
1789221665899346400,3.029346435546875,-1.0664885370448232,-0.13931962336301804,-1.2781512198239564
1789221665909426400,3.039426513671875,-0.6538441399767995,-0.4376286161988973,-0.9211115864042192
1789221665919505400,3.04950537109375,0.28944530290067194,-0.43552375287413597,-0.7928317549064755
1789221665929584400,3.05958447265625,0.6205088566079735,-0.029935704058408737,-0.8570571204490959
1789221665939664400,3.069664306640625,0.3765019473239779,-0.018732757520675658,-0.567752541193366
1789221665949743400,3.079743408203125,0.10607903254032135,0.015046762484312057,-0.23949809009004383
1789221665959822300,3.089822265625,0.2280550146535039,-0.014606032979488372,-0.4358712511375546
1789221665969901300,3.0999013671875,0.3814168996334076,-0.03404664650857448,-0.6134688019033521
1789221665979981300,3.109981201171875,0.19236147772073744,-0.010376432585716248,-0.4462097993982956
1789221665990060300,3.120060302734375,-0.04214344372451305,0.016480010157823563,-0.22365288897072896
1789221666000139500,3.130139404296875,0.08213117071986198,-0.046593993392586706,-0.24624573771934954
1789221666010218500,3.140218505859375,0.09632248541861772,0.012720949885249137,-0.2881827356189489
1789221666020298500,3.150298583984375,0.0056701545909047125,0.03866729204654693,-0.3050301908496767
1789221666030377500,3.16037744140625,0.013463000424206256,0.0491647206634283,-0.16261287546595557
1789221666040456200,3.170456298828125,0.14505115275233982,0.02716448577940464,-0.011748227828997187
1789221666050535400,3.180535400390625,0.14490589906275272,-0.020749358040094375,0.013872155472188024
1789221666060615400,3.190615478515625,-0.0255932909399271,-0.027561960664391517,-0.08226902655428275
1789221666070694400,3.2006943359375,-0.06176584356129169,-0.019356442376971244,-0.15252506882958114
1789221666080773400,3.2107734375,-0.025053192713856694,0.015820669466257094,-0.09230023503205738
1789221666090852400,3.220852294921875,0.04924421564042568,0.017622165930271147,0.05435127015558537
1789221666100932400,3.230932373046875,0.021291794353723525,0.03215630271732807,0.225803728595376
1789221666111011300,3.24101123046875,0.04895779991447925,0.00300853416621685,0.19806138812908902
1789221666121090300,3.25109033203125,0.021030805329978464,0.005523731857538223,0.07717403236967511
1789221666131169300,3.261169189453125,0.0165261873871088,0.013594225588440895,0.06482481100680307
1789221666141249300,3.271249267578125,-0.017265899838507175,-0.01496551394164562,0.1615190340809524
1789221666151328300,3.281328369140625,0.01113748008608818,-0.009653379008173943,0.23339067659303545
1789221666161407200,3.2914072265625,0.00613338818848133,0.0018465046495199202,0.3061962937532924
1789221666171486200,3.301486328125,0.06575666676312684,0.019812953972816467,0.2127103652011603
1789221666181566200,3.311566162109375,0.03780424547642469,-0.0022317045748233796,0.18917227149168028
1789221666191645200,3.321645263671875,0.01435293500125408,-0.0016840075641870497,0.19775097047304732
1789221666201724400,3.331724365234375,-0.004810322891175747,-0.005420856004953384,0.2514939953700639
1789221666211803100,3.34180322265625,0.04762216739654541,-0.009666238489747047,0.2475397778515704
1789221666221883400,3.35188330078125,0.06536357579231261,-0.009727613288164138,0.1825239377846941
1789221666231962000,3.361962158203125,-0.009325754489004611,0.000006429740786552429,0.1277575794556178
1789221666242041000,3.372041015625,-0.005486322456598282,0.012484218519926071,0.17965746070398017
1789221666252121000,3.38212109375,0.032329028935730454,0.032250995263457295,0.2467281509414315
1789221666262200000,3.392199951171875,0.039538521923124785,0.005503858113288879,0.2210909112619236
1789221666272279300,3.402279296875,0.0008458031743764876,0.01151741931438446,0.138599611125933
1789221666282358300,3.412358154296875,0.019988895061612128,0.004381576085090637,0.04991026006741449
1789221666292438300,3.422438232421875,0.03194850518554449,0.00532908606827259,0.030499267641745972
1789221666302517200,3.432517333984375,0.032441841660439966,0.012287819164991378,0.0402178596565267
1789221666312596200,3.44259619140625,0.038084231461584565,0.022931378254294393,0.05473311364660039
1789221666322675200,3.45267529296875,0.04946721074134111,0.022744915771484374,0.03521499160162639
1789221666332755200,3.462755126953125,0.017902444176375865,0.010181202274560928,-0.06652408007220365
1789221666342834200,3.472834228515625,0.017302432456612588,-0.0019318448454141615,-0.1302495606681332
1789221666352913200,3.4829130859375,0.0551297665476799,0.01300795013308525,-0.12085051261405459
1789221666362992400,3.492992431640625,0.09293371976315974,0.01175356615781784,-0.10329932042760774
1789221666373072100,3.503072021484375,0.04136632187217474,0.0212841955691576,-0.1172410077468492
1789221666383151400,3.5131513671875,0.03507598955631256,0.028205519264936446,-0.17592698720507322
1789221666393230000,3.52322998046875,0.05721504838913679,0.021661212188005447,-0.18247631751699372
1789221666403309000,3.53330908203125,0.02795738972276449,0.01644260075688362,-0.18066314888149498
1789221666413389300,3.543389404296875,0.003190612734854221,0.019645196190476416,-0.16734883621297775
1789221666423468000,3.553468017578125,-0.0148836808770895,0.02955167317688465,-0.17307514143791047
1789221666433547300,3.56354736328125,0.0038452772513031955,0.030740006178617475,-0.19659206449519842
1789221666443626200,3.573626220703125,-0.023636311653256414,0.04625906234979629,-0.20771701389327643
1789221666453706200,3.583706298828125,-0.0475485176384449,0.0034919337689876553,0.05937988913967274
1789221666463785200,3.59378515625,0.04053834661543369,-0.03402034302353859,0.3327615897968411
1789221666473864200,3.6038642578125,-0.028708208090066908,0.14560031106770038,0.6321371158856898
1789221666483943200,3.613943115234375,-0.2502797059431672,0.04886252284646034,0.10180299918893725
1789221666494023400,3.6240234375,0.010609949080646037,-0.12998890043795108,0.02492112273282837
1789221666504102100,3.63410205078125,-0.319561331962049,0.05991174012720585,-0.6381414708670229
1789221666514181000,3.64418115234375,0.08481441845446824,0.004335983377695083,0.1067342085134238
1789221666524261000,3.65426123046875,-0.2927408373147249,0.0029015666604042052,0.08207622566223144
1789221666534340000,3.664340087890625,0.3545969895079732,0.19061609535813331,0.5277748972006142
1789221666544419300,3.67441943359375,-0.16307663878649473,-0.15292612391114235,-0.18208958322172983
1789221666554498300,3.684498291015625,-0.4886602997779846,0.24257775326371192,0.15742690592911093
1789221666564578300,3.694578369140625,-0.08158756536245346,-0.17400924395024775,-0.48152913272380826
1789221666574657300,3.7046572265625,-0.16495616892278195,0.09374795875549316,0.1433863156795036
1789221666584736000,3.714736083984375,0.04867839845120907,0.054768532019853586,0.1891799981404096
1789221666594815200,3.724815185546875,-0.3919762875705957,0.23839433009922503,-0.029955541270039975
1789221666604895200,3.734895263671875,0.1930786860793829,-0.004690203642845153,0.021036888010893016
1789221666614974200,3.74497412109375,-0.39817894160300493,0.09495148932635783,-0.26242937701279295
1789221666625053200,3.75505322265625,0.020690613590180873,-0.03145429192781448,0.17425160133875905
1789221666635132400,3.76513232421875,-0.13966536806076765,-0.03983165965080261,0.010201989334262907
1789221666645212200,3.775212158203125,0.03183160080760717,0.030045594173669813,0.050251145926956085
1789221666655291400,3.78529150390625,0.11722732628136873,0.1313555126160383,-0.17048348097689447
1789221666665370000,3.7953701171875,-0.09287380626946687,0.019099252745509148,-0.23293007334396243
1789221666675449000,3.805448974609375,0.16508301017284394,0.11048223593533038,0.04174307819611858
1789221666685529300,3.815529296875,0.08533347389250993,0.0033154081583023068,0.042076972625870256
1789221666695608000,3.825608154296875,0.291325125297904,-0.17119944722652433,0.48945985265783964
1789221666705687300,3.835687255859375,0.027667759126424787,-0.1264332537829876,0.29493604580406096
1789221666715766300,3.845766357421875,0.16502981868088246,-0.11177870548665522,0.40138730919025833
1789221666725846300,3.85584619140625,0.15636866558045148,-0.04503156638145447,0.807556007438153
1789221666735925200,3.86592529296875,0.16269143886119125,-0.0287041164368391,0.49099572045560924
1789221666746004200,3.876004150390625,0.5735825625211,-0.022632103046774862,0.6180720579151063
1789221666756084200,3.886084228515625,0.2125543709218502,-0.1839151364147663,0.09606772520625963
1789221666766163200,3.8961630859375,0.3628454701542854,-0.10205284576416015,0.5210868342714384
1789221666776242200,3.9062421875,0.24390812508463858,-0.19937106422185896,0.49062312428355215
1789221666786321200,3.916321044921875,0.27064006466567514,-0.15082418319582938,0.675016034277901
1789221666796401200,3.926401123046875,0.2024099935263395,-0.07787059066593646,0.5431188160005956
1789221666806480100,3.936480224609375,0.11004325999617576,0.08212240289151668,-0.14991070334641263
1789221666816559400,3.946559326171875,0.22351269504874943,0.03938917658030987,-0.34060543516501784
1789221666826638300,3.956638427734375,0.19654285505861044,0.058091538962721824,-0.5350944994989782
1789221666836718300,3.96671826171875,0.47143648551553485,-0.038136546170711515,-0.24964422105122355
1789221666846797300,3.97679736328125,0.42914632679671044,-0.11608312468230723,-0.313425276892446
1789221666856876000,3.9868759765625,0.30885435224771496,-0.09308218832314014,-0.608410897459276
1789221666866955300,3.996955322265625,0.1519929347142577,0.04973696759343147,-0.6513269695241004
1789221666877035300,4.00703515625,0.28447131388038394,0.006508651241660118,-0.4238505950087681
1789221666887114200,4.0171142578125,0.3697650402843952,-0.036550153762102126,-0.3446800641927868
1789221666897193200,4.027193115234375,0.423751774276793,-0.08400631694197654,-0.053516929090139456
1789221666907272200,4.037272216796875,0.07268909637480973,-0.11323182690441608,-0.3035609585473314
1789221666917352200,4.047352294921875,0.3153089352145791,-0.09174830937087536,-0.2643698983550072
1789221666927431200,4.05743115234375,0.3394692707419395,-0.049230771636962885,-0.4289431689074263
1789221666937510100,4.06751025390625,0.28580343926697965,-0.03436813354790211,-0.357141449826397
1789221666947589000,4.077589111328125,0.06910393136441707,0.03182487880587578,-0.4286909111794084
1789221666957669400,4.08766943359375,0.15574293489754198,0.14468085813522338,-0.6004473347015679
1789221666967748000,4.097748046875,0.25700170767456293,0.15271978768408298,-0.7937902977403253
1789221666977827300,4.107827392578125,-0.05653904882371425,0.07837795566618443,-0.658705681598559
1789221666987907000,4.117906982421875,-0.028220424573123452,0.024409634113311766,-0.40258828247785566
1789221666997986300,4.127986328125,0.09579904606640338,-0.08289104917645454,-0.2063061059157364
1789221667008065300,4.138065185546875,0.08564093240648507,-0.0744014532506466,-0.13538081347621045
1789221667018144300,4.148144287109375,0.14659925897717474,-0.02679974412024021,-0.24473199042184277
1789221667028224300,4.158224365234375,0.05727087022960186,-0.0043599487751722335,-0.1322837607763242
1789221667038303200,4.16830322265625,0.03109218061715364,0.039033202749490736,-0.2427094168193638
1789221667048382200,4.17838232421875,-0.013383797708153724,0.03750935418307781,-0.2823784515206702
1789221667058461200,4.188461181640625,-0.009675298579037189,0.05909925470054149,-0.3461585392475128
1789221667068541200,4.198541259765625,-0.04392068253010511,0.04876023151576519,-0.41814182544052597
1789221667078620200,4.2086201171875,-0.17683160789459942,0.05020107797384262,-0.5433697950869798
1789221667088699100,4.21869921875,-0.2674702024579048,0.039481531038880344,-0.7147746286924928
1789221667098778400,4.2287783203125,-0.15640665950328111,0.0847182646036148,-0.7108200458478182
1789221667108858000,4.238858154296875,-0.10471680427640676,0.14098375718295572,-0.7621182714086026
1789221667118937300,4.248937255859375,-0.22343115424513815,0.10425883137583732,-0.5831906045502051
1789221667129016000,4.25901611328125,-0.15196838479489086,0.09764438167214393,-0.5312997833911329
1789221667139095300,4.26909521484375,-0.20746932274252175,0.06262275265157223,-0.46253896637596187
1789221667149174800,4.2791748046875,-0.27486528114527464,0.04887421328425407,-0.4616453420044854
1789221667159253500,4.28925341796875,-0.25576252126842736,0.08814531644284725,-0.43885191091615705
1789221667169332500,4.29933251953125,-0.28629297634959217,0.09397592229247093,-0.39962804443277417
1789221667179411700,4.30941162109375,-0.2883925789773464,0.11283376749753951,-0.2534165243978612
1789221667189491500,4.319491455078125,-0.1917854313984513,0.08728606926500797,-0.13622553893835282
1789221667199570700,4.32957080078125,-0.23250965597480533,0.02042670195698738,0.09224570096638053
1789221667209649700,4.339649658203125,-0.30823738939315076,-0.0039040217012166973,0.2684981389998458
1789221667219729700,4.349729736328125,-0.27243337782323357,-0.024797172126173973,0.5244700835015624
1789221667229808600,4.35980859375,-0.2499231475904584,-0.005786766707897186,0.8364759585827588
1789221667239887400,4.369887451171875,-0.33651714293807744,0.06635960109233856,1.182346620799601
1789221667249966600,4.379966552734375,-0.45738720963597296,0.163881817689538,1.576907371905446
1789221667260046600,4.390046630859375,-0.28895488903522487,0.2586690563648939,1.4597884744346141
1789221667270125600,4.40012548828125,-0.14307809911370276,0.1847387277573347,1.3255809333883226
1789221667280204500,4.41020458984375,-0.4076628092631697,0.08633563667237758,0.9288923034083097
1789221667290283800,4.42028369140625,-0.3050117053449154,-0.009568623334169387,0.7467570361476391
1789221667300363500,4.430363525390625,-0.3605819091364741,-0.09193126472234725,0.8224341353572905
1789221667310442800,4.44044287109375,-0.35944472180008885,-0.0065402154237031935,1.13140583037436
1789221667320521500,4.450521484375,-0.02924479918479919,0.11434826371371745,1.3102933478854595
1789221667330600400,4.460600341796875,0.015714286482334135,0.17039748319387435,1.369550277365744
1789221667340680700,4.4706806640625,-0.11070435425341128,0.1756155101031065,1.206164353434369
1789221667350759400,4.480759521484375,-0.1451420459061861,0.12110533675849437,0.8918045356381684
1789221667360838700,4.490838623046875,-0.038163141916692254,0.04928454765081405,0.6206972918521613
1789221667370917600,4.500917724609375,-0.11533113727122545,0.020152561190724373,0.3224731277555227
1789221667380997600,4.51099755859375,-0.12727730339169502,-0.013290858727693557,0.18563574966229499
1789221667391076600,4.52107666015625,-0.07398994984030723,-0.02985094838440418,0.036236703898757695
1789221667401155600,4.531155517578125,-0.02928454667329788,-0.009753332251310348,-0.012876907631941138
1789221667411235600,4.541235595703125,0.0776683460921049,0.049258828687667844,-0.078519556093961
1789221667421314600,4.551314453125,0.010036825367808342,0.04340133483111858,-0.12851079984256067
1789221667431393500,4.5613935546875,0.03712503104060888,0.1105599773466587,-0.20532204504813997
1789221667441472500,4.571472412109375,0.07878244481384754,0.11293956595957279,-0.28197862028181553
1789221667451552500,4.581552490234375,-0.14515256730020046,0.07256488547325134,-0.4403133252382278
1789221667461631500,4.591631591796875,0.05140636211037636,0.045747021174430844,-0.4838110696485266
1789221667471710700,4.601710693359375,-0.09598054011315106,-0.02526069798469543,-0.2477812401909381
1789221667481789700,4.611789794921875,-0.0856289497077465,-0.1233914018690586,-0.17632336611151694
1789221667491869700,4.62186962890625,-0.046618543311953545,-0.10620470474660396,-0.13370830455357208
1789221667501948700,4.63194873046875,0.02530044547319412,0.016367781955003737,-0.23982151335813104
1789221667512027400,4.64202734375,0.05569441469311714,0.1462006150484085,-0.3495677631691098
1789221667522106600,4.652106689453125,0.025171558396518228,0.05932897180318832,-0.1946187185956165
1789221667532186600,4.6621865234375,0.2101552008256316,0.04078676841855049,0.21474687599744646
1789221667542265600,4.672265625,0.14374270050227642,-0.12232289585471152,0.13141541697657666
1789221667552344600,4.682344482421875,-0.20729688878506422,-0.12788520615696905,0.22440661168117074
1789221667562423800,4.692423828125,0.07200082184970379,-0.12283610607385635,0.013692288268590345
1789221667572503600,4.702503662109375,0.3682952599927783,-0.07541676777303219,-0.07243825428574345
1789221667582582500,4.71258251953125,-0.024034371060132977,-0.01714110441505909,0.18062318219728768
1789221667592661500,4.72266162109375,0.12546703909933565,0.031043957561254498,0.24701374468347057
1789221667602740500,4.732740478515625,0.2479007018521428,-0.006077858608961105,0.35795996313504874
1789221667612820700,4.74282080078125,0.16197510728538037,0.06752455321848393,0.3809408796194941
1789221667622899500,4.7528994140625,0.17905483690202234,-0.021118775874376296,0.4722975593242794
1789221667632978700,4.762978759765625,0.05335457356870174,-0.11966565934419632,0.46713254124391823
1789221667643058400,4.773058349609375,0.07925912241488695,-0.1269113926887512,0.23669569122148676
1789221667653137700,4.7831376953125,-0.10316080700606108,-0.17161738037765026,0.18720464294683187
1789221667663216600,4.793216552734375,0.10369915166646242,-0.12694821756780147,0.09830216972744092
1789221667673295600,4.803295654296875,0.2148755073457956,-0.07848024699687957,0.32246070666536686
1789221667683375600,4.813375732421875,0.15977818176299333,0.038465047472715376,0.5174815397884697
1789221667693454600,4.82345458984375,0.0708741559073329,0.14072832111716269,0.6666741031944752
1789221667703533600,4.833533447265625,0.32385113811045885,0.11072831965088843,0.5785527886817231
1789221667713612500,4.843612548828125,0.19724632715284823,-0.026547815185785292,0.5439117564765736
1789221667723692500,4.853692626953125,-0.0907502382442355,-0.04391337600648403,0.16238312183069065
1789221667733771500,4.863771484375,0.00550122776478529,-0.08642974469661713,0.15884886502362786
1789221667743850500,4.8738505859375,0.08748568349033593,-0.1071440314233303,0.11691908231610432
1789221667753929700,4.8839296875,0.23721651849150657,-0.021877485287189483,0.09905366394817829
1789221667764009500,4.894009521484375,0.10991963361650704,0.09940729969143867,0.07286681386216078
1789221667774088700,4.904088623046875,0.07182429623901844,0.181871647888422,-0.13584313375833443
1789221667784167400,4.91416748046875,0.19356471603065728,0.15163140792548654,-0.35309012860897926
1789221667794247700,4.92424755859375,0.16578472870141267,-0.025862755531072614,-0.45347825603131203
1789221667804326700,4.93432666015625,-0.048103228911757466,-0.26422318336069583,-0.3418777931883931
1789221667814405600,4.944405517578125,-0.18455840275436639,-0.23367899201512335,-0.3279290185412392
1789221667824484600,4.954484619140625,-0.10330810652226209,-0.03574468259811401,-0.38868407762479035
1789221667834564600,4.964564697265625,0.18936931016743183,0.25759061347842216,-0.6953213748775422
1789221667844643600,4.9746435546875,0.11825199315398931,0.3610182547271251,-0.9705561469223349
1789221667854722600,4.98472265625,0.020176234327256678,0.22335750448703764,-0.8548514270983636
1789221667864801500,4.994801513671875,-0.00882131209820509,-0.030624855366349218,-0.7020350471720099
1789221667874881500,5.004881591796875,-0.31531156556308265,-0.18095453304350376,-0.22706660640435292
1789221667884960800,5.014960693359375,-0.18199001357108355,-0.35189737516045566,0.1784112417688593
1789221667895039500,5.02503955078125,0.0207286075130105,-0.019016835159063338,0.27522509090099484
1789221667905118700,5.03511865234375,-0.09168430422395467,0.38941257456243034,0.30330849988991393
1789221667915198500,5.045198486328125,-0.21478695227950811,0.5828285297721624,-0.21663217828739434
1789221667925277400,5.05527734375,0.21613310619145631,0.4446703514039516,-0.5975380231261253
1789221667935356700,5.065356689453125,0.31954408856630323,0.01087561427950859,-0.534422774249874
1789221667945435600,5.075435546875,-0.40326720465272664,-0.3432482047587633,-0.2881005189619027
1789221667955515600,5.085515625,-0.6543006515726447,-0.3256424054414034,0.2400977547499351
1789221667965594600,5.0955947265625,-0.2629375274643302,-0.07800795331001281,0.29561778099052605
1789221667975673600,5.105673583984375,0.14882161120176315,0.14104863911271096,0.12024724035812541
1789221667985753600,5.115753662109375,-0.12827186738699675,0.14672551570534706,-0.1863765215596184
1789221667995832600,5.12583251953125,0.013850246176123618,0.16200784051120282,-0.1431236552884802
1789221668005911600,5.13591162109375,-0.03129793232232332,0.15683891344070433,0.09290572664453647
1789221668015990500,5.145990478515625,-0.09291501506268977,0.2764268313735723,0.3760166845576837
1789221668026070500,5.156070556640625,-0.02721972309798002,0.15478256543278693,0.40625940873865035
1789221668036149500,5.1661494140625,-0.02028553992062807,-0.014742811101675033,0.09006930677536874
1789221668046228700,5.176228759765625,-0.19750848522037268,-0.37611470157206056,0.0060769635598175225
1789221668056307500,5.186307373046875,-0.5139250894159079,-0.4122475067049265,-0.0006846395296044647
1789221668066387700,5.1963876953125,0.10240063628852367,-0.003953706061840057,0.19855492553338408
1789221668076466700,5.206466796875,0.1995055042564869,0.28552023841142654,0.3804267560848966
1789221668086545700,5.216545654296875,0.16681144140064716,0.4968617264121771,0.4105079330286011
1789221668096624600,5.226624755859375,0.21087270144522188,0.41601708837151524,0.2430427038943395
1789221668106704400,5.236704345703125,-0.40909254980534315,0.11626491098999976,0.15559636603370308
1789221668116783600,5.24678369140625,-0.36885727778971195,-0.11277473078668117,0.005915178860537707
1789221668126862600,5.256862548828125,-0.3216103734463453,-0.2933972553968429,0.04887689843168482
1789221668136942600,5.266942626953125,-0.2324398056089878,-0.39282501335442066,0.08271365591608919
1789221668147021800,5.277021728515625,-0.15847557473182677,-0.25280747085511684,0.03426237161848694
1789221668157100800,5.287100830078125,0.2907604771524668,0.20094985784590244,0.09408124583046883
1789221668167179800,5.2971796875,0.3024775106921792,0.4539607423186302,0.06333048079581931
1789221668177259800,5.307259765625,-0.009524199670553207,0.41716801197230813,-0.06850825789305381
1789221668187338800,5.3173388671875,0.23214199170619249,0.18742986653745172,-0.004431096048932522
1789221668197417700,5.327417724609375,-0.5224845357075333,-0.2019271784454584,-0.037860186047898606
1789221668207496700,5.33749658203125,-0.48682782365381716,-0.06752221513092517,-0.04960273762135766
1789221668217576700,5.34757666015625,-0.6139905607551336,-0.16501345206797122,-0.10636337504019029
1789221668227655700,5.35765576171875,-0.24026421562433242,0.01191606324315071,-0.46920386762525884
1789221668237735000,5.36773486328125,0.8789850207492709,0.13738251782059668,-0.629561127917841
1789221668247813600,5.377813720703125,-1.0133262711778281,0.2406049918860197,0.015495045107929034
1789221668257894000,5.387893798828125,-0.4805824995234608,0.2892681927680969,0.4869855714987963
1789221668267972600,5.39797265625,1.000102047945559,0.06531155334413051,0.2860156207129359
1789221668278051800,5.4080517578125,0.1324295715883374,-0.11122808586657047,0.17889836769867687
1789221668288131800,5.4181318359375,-0.9369055870592594,-0.09352642495930194,-0.02927294756704941
1789221668298210800,5.4282109375,-0.5792655765935778,-0.06319850671291351,-0.1357282386743929
1789221668308289800,5.438289794921875,0.3212511847451329,0.12374386856853961,-0.06957460848293266
1789221668318368800,5.44836865234375,0.33695407305061814,0.2696048763990402,-0.07257421955717727
1789221668328448800,5.45844873046875,-0.47926060326993464,0.2336252160012722,-0.4585487276960164
1789221668338527700,5.46852783203125,-0.5905228836670517,0.13919570472240447,-0.47295478112399575
1789221668348606700,5.478606689453125,0.20769027201682327,-0.12806406985521315,-0.36478012801129367
1789221668358685700,5.488685791015625,0.1912774818763137,-0.27216742036342617,-0.27135880739428103
1789221668368766000,5.498765869140625,-0.6662897800520062,-0.23413608813285827,-0.06315003706184215
1789221668378844700,5.5088447265625,0.21846710209697484,-0.20552081902325153,0.12269276121356523
1789221668388923600,5.518923583984375,1.330116677121818,-0.03720364923477173,-0.013348014008719473
1789221668399003000,5.5290029296875,0.8838634404405951,-0.05348375290632248,-0.2275775881337933
1789221668409082600,5.53908251953125,0.2305617367774248,-0.07788754180073737,-0.9051320731144398
1789221668419161900,5.549161865234375,1.6783520226433872,0.022125322568416594,-1.6208857759721575
1789221668429240600,5.559240478515625,1.2540236175224184,-0.042670097947120664,-2.2667731117255983
1789221668439320800,5.56932080078125,0.016422434751689433,-0.12451017676591872,-1.7561951407805083
1789221668449399800,5.57939990234375,0.30295594185888763,-0.2899801404297352,-0.709111049972847
1789221668459478800,5.589478759765625,0.6542670415639877,-0.5849848310232162,-0.7844950845200568
1789221668469557800,5.599557861328125,0.8791627154037356,-0.7544587696313858,-0.9147108525164425
1789221668479637800,5.6096376953125,1.575982366015017,-0.5930635080605745,-1.5018563687048851
1789221668489716700,5.619716796875,0.5185743765264749,-0.19332710788249968,-1.4594498901300132
1789221668499795700,5.629795654296875,-0.016042787784337997,0.32940263475775716,-0.9745574184529483
1789221668509875000,5.639875,-0.09120850340574979,0.7234305941611529,-0.1923435402052477
1789221668519954700,5.64995458984375,0.7214435119971633,0.7723357871055603,-1.0379394650392233
1789221668530034000,5.660033935546875,1.7749460184797643,0.10101239680051803,-1.5387471525982022
1789221668540112600,5.670112548828125,1.5181056388467549,-0.6441752711385488,-1.7801782200448213
1789221668550191600,5.680191650390625,-0.12560732435286046,-0.9985516036331653,-0.601776464413479
1789221668560271600,5.690271728515625,0.6716998224020004,-0.8059247529745102,0.17683127910103646
1789221668570350600,5.7003505859375,1.0344807028874754,-0.7867004125446081,0.5772061598457395
1789221668580429800,5.710429931640625,1.4196391271367668,-0.011920739418268203,0.9201603500939906
1789221668590509600,5.720509521484375,0.9001996582135557,0.29412790775895115,0.31196152448281644
1789221668600588800,5.7305888671875,1.610719625136256,0.6190519357979297,0.6668730598326772
1789221668610667800,5.740667724609375,0.8708668884843588,-0.3240846546053886,1.6037757973477242
1789221668620746800,5.750746826171875,-0.2337988190025091,0.08108663010299205,0.6822883633684367
1789221668630826800,5.76082666015625,-1.042284362375736,-0.9353110113441944,1.1104624110668897
1789221668640906000,5.770906005859375,0.7533651291757821,-0.5186591322004794,-0.5377319353304804
1789221668650984700,5.780984619140625,-1.2585326193794608,-0.4373234957724809,0.09309442675020545
1789221668661063700,5.791063720703125,0.08949410070329904,0.8864642705887555,1.5682849433802066
1789221668671143700,5.801143798828125,3.1416373992830513,0.6085159287363291,1.7560170077346264
1789221668681222700,5.81122265625,2.0014754310011864,0.07766951513588428,1.1323460338339209
1789221668691302000,5.821302001953125,-0.49405543681979175,-0.3118850982457399,-0.680644322488457
1789221668701380600,5.831380615234375,-2.118518632887304,-0.5794979240447282,-1.144429927924648
1789221668711460900,5.8414609375,0.20527327400296924,-0.2784083605796099,-1.0065079694651067
1789221668721539800,5.851539794921875,2.9413781540498136,0.018894085562229157,0.2443983928196132
1789221668731618600,5.86161865234375,0.7117018701836466,-0.1667529892116785,0.3718105746373534
1789221668741698800,5.87169873046875,-1.6918097623705863,0.11783669035136698,0.5259648521039635
1789221668751777500,5.881777587890625,-0.11548106713593005,0.3162701814621687,0.2980341214172542
1789221668761856800,5.891856689453125,1.4701418184056878,0.18425532815456389,-0.3709736123565584
1789221668771935700,5.901935791015625,0.6244941268518567,-0.44287762276828285,-0.21079748078454286
1789221668782015700,5.912015625,0.4588222108751535,-1.0515513724148273,-0.37996666429247705
1789221668792094700,5.9220947265625,0.9436194054841994,-0.9124263948410749,0.04836651949044317
1789221668802174000,5.932174072265625,-1.0739026126936078,0.30076749190390106,0.19657120437026024
1789221668812252700,5.942252685546875,0.9388429848626255,0.23040099325776098,-0.06868124897293747
1789221668822333000,5.9523330078125,0.039890696361660954,0.4608399804383516,-0.6830758604843169
1789221668832411600,5.96241162109375,-0.9136837014257907,0.23474282185435294,0.9694250240005552
1789221668842490600,5.97249072265625,-0.5193848161265253,0.2510305243104696,0.8788041112244128
1789221668852569900,5.98256982421875,0.5936345859467983,0.053693011742830275,1.2719139328695832
1789221668862649600,5.992649658203125,2.0342448971807956,-0.06368716701269149,1.150979495698586
1789221668872728800,6.002728759765625,0.06471300292909145,-0.2866150479108095,0.9111647043421864
1789221668882807800,6.012807861328125,-1.6461393135637044,-0.38894729513823983,1.4267270395711062
1789221668892887800,6.0228876953125,-0.10216010553091764,0.025889059016108513,0.25650088201295584
1789221668902966800,6.032966796875,1.0790151334017515,0.3227051829457283,-0.5272946028703823
1789221668913045800,6.043045654296875,-0.02526215928941965,0.2834714891880751,-0.8348760491054504
1789221668923124700,6.053124755859375,-0.6881248875021934,0.07763093669116497,-0.5366415828105062
1789221668933204700,6.063204833984375,-0.2615893277257681,-0.15191314747631549,0.193146307955496
1789221668943283700,6.07328369140625,-0.19668898553103206,-0.22489012088179586,0.41702502330504354
1789221668953362700,6.08336279296875,-0.3740571845203638,-0.2836678885430097,0.31817236182168124
1789221668963442000,6.09344189453125,0.04251256929785013,-0.18008476447165012,-0.09687193599492311
1789221668973521700,6.103521728515625,0.4538163654118776,0.0530336710512638,-0.3084847152177244
1789221668983601000,6.113600830078125,0.27449235617965456,0.3215297094255686,-0.193391332225129
1789221668993680000,6.123679931640625,0.15268150150030851,0.4605909741133451,-0.20764455144526436
1789221669003758600,6.133758544921875,-0.13991466664671898,0.27242460999488827,-0.057753466114774346
1789221669013838800,6.1438388671875,-0.5301376808091998,-0.01736497629880905,0.0015074819535017012
1789221669023917600,6.15391748046875,-0.8339245205342769,-0.09668518125116825,-0.054812042368017136
1789221669033996800,6.163996826171875,-1.1322194848448037,-0.1733662698715925,-0.013036445575207471
1789221669044076800,6.174076904296875,-0.1671668307095766,-0.02338379819691181,-0.03796732708364725
1789221669054155800,6.18415576171875,0.27130291248857974,0.07327507956922054,0.5842822357118129
1789221669064234800,6.19423486328125,-0.520963317489624,0.3019908962190151,0.9618195904981345
1789221669074313700,6.204313720703125,-0.6585246990084648,0.25256314070522784,1.2481709459714592
1789221669084393700,6.214393798828125,0.19033552485108374,0.25431845993995666,0.38409938018303363
1789221669094472700,6.22447265625,0.09130582630038261,0.011379472148418427,0.09100593003835529
1789221669104551700,6.2345517578125,-0.9442927747011184,-0.15739654732346534,0.159218355923146
1789221669114630700,6.244630615234375,-1.009643491011858,-0.1835088937014341,0.6599762129910289
1789221669124711000,6.2547109375,-0.3053939826607704,0.018514146333932877,1.0114717293523252
1789221669134789600,6.26478955078125,-0.2956152237072587,0.24288228916823862,0.6097369218986481
1789221669144868900,6.274868896484375,-0.6066694240868091,0.4311123661726713,0.32697705157864837
1789221669154948900,6.284948974609375,-0.49463849740475413,0.39241058733463285,-0.18977383584771304
1789221669165027800,6.29502783203125,-0.24037761287093162,0.188768421664834,0.0833188096018508
1789221669175107000,6.305107177734375,-0.5787102807983756,0.004871989950537681,0.3033396439468488
1789221669185185800,6.315185791015625,-0.724869979314506,-0.10118015458285808,0.6181473881736398
1789221669195266000,6.32526611328125,-0.19924889914691446,-0.07912848177254199,0.37854901604689656
1789221669205345000,6.335344970703125,0.06302285788506269,0.11275661060810088,0.38033246539756654
1789221669215424000,6.345424072265625,-0.3787812904328108,0.24448913984298704,0.1561203899078071
1789221669225503000,6.3555029296875,-0.3954249667197466,0.36929625372886654,0.053556763343606144
1789221669235583000,6.3655830078125,-0.06706921066641808,0.32871056084036826,-0.25577894268026574
1789221669245662000,6.375661865234375,-0.5241974771052599,0.1158843872398138,-0.547698179680109
1789221669255741000,6.385740966796875,-0.7257868018984794,0.0121779290497303,-0.4052146123934537
1789221669265821000,6.395821044921875,-0.32987375940084457,-0.08072071940004825,-0.34573015776760874
1789221669275900000,6.40589990234375,-0.24773908154964447,-0.03771919754147529,-0.12502265633270143
1789221669285979100,6.415979248046875,-0.3725809744879603,0.10081482840180396,0.099747053039819
1789221669296057900,6.426057861328125,-0.3783814774602651,0.13670271886289118,0.1791513743453659
1789221669306138000,6.43613818359375,-0.1686526853531599,0.2594189979493618,0.14344495966471732
1789221669316216800,6.446216796875,0.2843640541136265,0.1378349377632141,-0.6288695654571056
1789221669326295800,6.4562958984375,-0.8119356838271021,-0.01485445478260517,-0.19990233982065692
1789221669336375000,6.466375,-0.22175153059512376,0.14542846163213252,-0.1432967285667546
1789221669346454800,6.476454833984375,-0.7344023622915148,-0.1426233410835266,0.2449938379621133
1789221669356534000,6.486533935546875,0.03630553135126829,0.17541209648549555,0.46536589689757674
1789221669366613000,6.496613037109375,0.4452002204969525,-0.03677168755829334,-0.06613200288154185
1789221669376692000,6.50669189453125,-0.7269336338460445,0.09727671740353107,-0.1507442680937238
1789221669386772000,6.51677197265625,0.054357320870459074,0.18637012835144995,-0.34243484254926443
1789221669396851000,6.526850830078125,-0.19362725987285376,0.06835282073616981,-0.059457073428574946
1789221669406930000,6.536929931640625,0.05854045177400112,0.06450257504880427,-0.22513039591107517
1789221669417010200,6.54701025390625,-0.5105407076746225,-0.0540361260920763,-0.2098597432767041
1789221669427089000,6.5570888671875,-0.4981009128183126,-0.09819207868278026,-0.22304204532969743
1789221669437167900,6.56716796875,-0.1977145291864872,0.1641810928970575,-0.33191651727482674
1789221669447247000,6.5772470703125,-0.019305296711623666,0.2482598905533552,-0.20855998578974977
1789221669457326800,6.587326904296875,0.002433072365820408,0.23057751886844632,-0.22044643934592603
1789221669467406000,6.597406005859375,-0.4931418291062116,0.06949673007428646,-0.02702354293875396
1789221669477485000,6.607485107421875,-0.4385053990334272,0.02800970443189144,0.02540870988694951
1789221669487563800,6.617563720703125,-0.11418693567216395,0.027761867150664327,0.025686503915023057
1789221669497644000,6.62764404296875,-0.1187704640701413,0.1491027662307024,-0.10335687756743281
1789221669507722800,6.63772265625,-0.4925529233023524,0.23660335502922533,-0.33738808055371045
1789221669517802000,6.647802001953125,-0.6138035137504338,0.2542629303604364,-0.28031739080501716
1789221669527882000,6.657882080078125,-0.28483985493183134,0.2071031197786331,-0.23894051100621
1789221669537961000,6.6679609375,-0.40725013680905103,0.11315876166820525,-0.007314853058010339
1789221669548040000,6.6780400390625,-0.37232875329256054,0.08935235414505005,-0.00033230069428682324
1789221669558119200,6.688119140625,-0.4562856781348586,-0.052826750302314755,-0.12482819320652633
1789221669568199000,6.698198974609375,-0.4252177551761269,0.0004874912559986114,-0.2692230922735296
1789221669578278100,6.708278076171875,-0.3583358837753534,0.1789525455713272,-0.39971645336858924
1789221669588356900,6.71835693359375,-0.6234431564942002,0.25662030714154244,-0.2012325837774202
1789221669598437000,6.72843701171875,-0.24208792392015455,0.3111778267592192,-0.235599566547852
1789221669608516000,6.73851611328125,-0.36512072160989045,0.21527356675267217,0.00413708153842017
1789221669618594800,6.7485947265625,-0.6382417894363402,0.1626654276371002,0.06056430401811376
1789221669628674000,6.758674072265625,-0.40378713687360285,-0.02163666226863861,0.07664115846883506
1789221669638753800,6.76875390625,-0.20659633930027485,-0.13061258529424666,0.13600405080793423
1789221669648833000,6.7788330078125,-0.3803369954422116,-0.05354688127040863,0.13249872783441097
1789221669658912000,6.788912109375,-0.3608230244159698,0.10852408760488033,0.07260788436476141
1789221669668991000,6.798990966796875,-0.18972469947636125,0.2328226674467325,-0.049500930347852405
1789221669679071000,6.809071044921875,-0.11863982342779636,0.2617448105484247,0.06102194812512025
1789221669689150000,6.81914990234375,-0.22084902879744767,0.2409136194437742,0.08894782846476883
1789221669699229000,6.82922900390625,-0.39757279240339993,0.062449734172225,0.14562036747504026
1789221669709309000,6.839308837890625,-0.2703887202531099,-0.07511047830283642,-0.043158575583808124
1789221669719388000,6.849387939453125,-0.01624210974872112,-0.121779290497303,-0.22634992776867002
1789221669729467000,6.859466796875,-0.16132599572688341,-0.0029629414588212967,-0.32863270983118564
1789221669739546000,6.869546142578125,0.26149171257019044,0.23995909519791603,-0.442873165788874
1789221669749625900,6.8796259765625,0.44996524294167756,0.42756256473660464,-0.3104877256032079
1789221669759705000,6.889705078125,0.4523047918051481,0.46365912951231,-0.38585210560187694
1789221669769784000,6.8997841796875,0.010438684166967869,0.34194121381342407,-0.5173206866709515
1789221669779864000,6.909864013671875,-0.008514145845174789,0.07852174805104732,-0.6980472927100956
1789221669789943000,6.919943115234375,-0.36328444609344,-0.3447919270694256,-0.7457926480948924
1789221669800021800,6.930021728515625,-0.4856964815363288,-0.5298410359501838,-0.7283103290267289
1789221669810101000,6.94010107421875,-0.2665793910980224,-0.3278858004540205,-0.7280849958382547
1789221669820181000,6.950180908203125,-0.1304731768235564,-0.0364858563542366,-0.5635163649283349
1789221669830260000,6.960260009765625,0.03259673996120691,0.21452245612442492,-0.5350902251826599
1789221669840339000,6.9703388671875,0.2367375028029084,0.3367904069215059,-0.40348117619697005
1789221669850418000,6.98041796875,0.1558773749321699,0.208958976778388,-0.36791364026404916
1789221669860498000,6.990497802734375,-0.4061436368718743,0.11428279726207255,-0.34010143116563557
1789221669870577000,7.000576904296875,-0.6445528722792864,0.006238602128624916,-0.281907052882947
1789221669880656100,7.01065625,-0.4096268028125167,-0.008713467809557915,-0.1871406377999112
1789221669890735900,7.02073583984375,-0.9938713368624448,-0.0255541279733181,0.012021386781148611
1789221669900815000,7.030815185546875,-0.3818216810420155,0.3278367006152868,-0.07179313391577452
1789221669910893800,7.040893798828125,-0.5325158081173896,0.29113924733698365,-0.04773870644830167
1789221669920973000,7.05097314453125,-0.7363090726956725,0.6345984644979238,-0.3006231880623847
1789221669931052800,7.061052734375,-1.1096510946840048,0.20391163026094436,-0.20415055358335374
1789221669941132000,7.071132080078125,-1.1514110920488834,0.10982114167809486,-0.5865515323506668
1789221669951211000,7.0812109375,-0.6226911690831184,-0.020807810229063032,-0.3981235946865752
1789221669961291000,7.091291015625,-1.378728147816658,0.18999474858939647,-0.42300822590049353
1789221669971370000,7.101369873046875,-1.0529214917242526,0.34500410851538177,-0.08350070550739765
1789221669981449000,7.111448974609375,-1.243531741863489,0.5213227984517812,0.2717280425654724
1789221669991528000,7.12152783203125,-1.5176391903787851,0.32681086469888687,0.6698194154828786
1789221670001608000,7.13160791015625,-1.2770821292877197,0.18396014460027216,0.3698430374240502
1789221670011687200,7.141687255859375,-1.4143635248214006,0.08978431582152843,-0.0837258195001632
1789221670021766000,7.151765869140625,-1.298001290936768,0.27104981451034543,-0.10194006957206875
1789221670031844900,7.161844970703125,-1.8858198840811848,0.09435410795509815,-0.04032930697463453
1789221670041924900,7.1719248046875,-1.943073218654096,1.4483780226260423,0.47030828520320356
1789221670052003800,7.18200390625,-0.9772177237033843,1.2416244469374418,0.4074028796853497
1789221670062083000,7.1920830078125,-2.0551222655147314,0.8176292192935943,-0.05090546338353306
1789221670072162800,7.202162841796875,-1.8541726999297736,0.4321645055741071,-0.3599890578098595
1789221670082242000,7.212241943359375,-1.6888421447366475,0.17903671672344207,-0.6302667189039289
1789221670092321000,7.222321044921875,-2.0297621988087893,0.20965572687089443,-0.6136438662093132
1789221670102400000,7.23239990234375,-2.3820944582551715,0.2696422857999802,-0.19600944230165332
1789221670112480000,7.24247998046875,-2.463083473202586,0.7660241197407245,-0.32707302276641126
1789221670122559000,7.25255908203125,-2.1966198174387217,1.0744096854329108,0.18074589526150375
1789221670132638000,7.262637939453125,-1.8706576785236595,1.2200842307806015,0.0228881966996938
1789221670142718000,7.272718017578125,-1.788880143547058,1.0187906740635633,-0.17603844822291284
1789221670152796700,7.282796630859375,-2.2884265789985654,0.6955307798445224,0.04982683783397078
1789221670162875600,7.292875732421875,-3.266422009076178,0.615588059079647,0.019572423215210438
1789221670172955000,7.302954833984375,-3.9947108569234606,0.7246241878598928,0.5351334432698786
1789221670183034600,7.31303466796875,-3.5888802315235138,0.37917350462079047,1.028098089178279
1789221670193113900,7.32311376953125,-2.8996769011348484,0.37359658127129075,0.47950296065844594
1789221670203192800,7.33319287109375,-3.309274185591936,0.8010299666702747,0.04784158230088651
1789221670213271600,7.343271484375,-3.776316527801752,0.13005202880203723,-0.20799977635741232
1789221670223351800,7.353351806640625,-4.683956272888183,-0.8857482312738895,-0.036277766561508176
1789221670233430500,7.363430419921875,-4.768997193574905,-0.8071458192020654,0.9876266703192144
1789221670243509800,7.373509765625,-2.2491765186280013,1.246338615977764,1.402686969422549
1789221670253589500,7.383589599609375,1.3290718442440033,1.6486328839451074,0.3840959826495498
1789221670263668700,7.393668701171875,-1.1092261472702025,0.9410878411799669,0.5545983144573867
1789221670273747700,7.403747802734375,-5.238530768078565,1.947435213255882,0.04938566993772983
1789221670283827000,7.413826904296875,-5.031899941986799,0.9606792613565921,-0.5388591127295047
1789221670293906700,7.42390673828125,-1.0685381630510091,0.31759996876120566,-0.01010499523319304
1789221670303985700,7.433985595703125,2.139516412730515,0.9940414327323436,0.5950860268641263
1789221670314064600,7.444064697265625,1.475446939076483,1.6797160044729709,0.6233924492202699
1789221670324144600,7.45414453125,-2.337148816591501,-0.06628887394368649,0.7113612400524317
1789221670334224000,7.464223876953125,-5.898330893850326,-0.5234855294436216,0.8241569405619055
1789221670344302600,7.474302490234375,-3.9582106797829266,-0.5094534969598055,-0.4630440663538873
1789221670354381800,7.4843818359375,-0.7901546446517109,-0.7648480616986751,0.7777354541920125
1789221670364461600,7.494461669921875,1.4235264899641276,0.3130582336783409,0.11778722518645227
1789221670374540800,7.504540771484375,0.9270183992952108,-0.7175731003046035,-1.8496616522461176
1789221670384619800,7.514619873046875,-0.1414163033813238,1.8210884687125681,-2.2557285706199703
1789221670394699800,7.52469970703125,2.0638442088916897,2.724359497195482,-2.8736300212085246
1789221670404778800,7.53477880859375,1.4095558322787285,-0.0277151053994894,-1.8838260799154638
1789221670414857700,7.544857666015625,2.8901261057183145,0.13245733637809753,-0.7556302245635539
1789221670424936700,7.554936767578125,5.728554172903299,-1.2888695977151392,-1.7530632724955677
1789221670435016700,7.5650166015625,6.432819463345408,-1.4738310283124445,-2.4001209672026333
1789221670445095700,7.575095703125,3.663878773884475,-1.60940678897202,-2.9182155973881483
1789221670455174700,7.585174560546875,-1.4804782112419603,-1.3834271192878485,-1.1821073321510105
1789221670465254000,7.59525390625,-1.2580045038521288,-1.4357009118825197,0.014270882740989326
1789221670475333600,7.605333740234375,3.716887602755427,-1.588077000695467,-0.2888672107517719
1789221670485412600,7.61541259765625,5.412786680266261,0.23253332911133764,0.2730842429473996
1789221670495491800,7.625491943359375,3.377628175371885,2.8206249917298556,0.18643946726061403
1789221670505571600,7.635571533203125,-0.6330798766285181,1.5682640467226505,0.1956805391408503
1789221670515650800,7.64565087890625,-2.998414338740706,0.3006330518692732,0.3787382550086826
1789221670525729500,7.6557294921875,-2.3262819701403377,-1.1520119805514812,0.5379456511463969
1789221670535808800,7.665808837890625,-0.6607824148073792,-1.7907962063014506,1.1492897890459746
1789221670545888800,7.675888671875,-0.8671908303201198,-2.64513807644248,1.8444274048544465
1789221670555967700,7.6859677734375,1.3046435054302215,0.8821779715716839,0.9966473043818026
1789221670566046700,7.696046630859375,1.608321624083817,2.2840350660413504,-1.3840502196222544
1789221670576126700,7.706126708984375,-2.034932294923067,0.8764140012174845,-0.5044205442938954
1789221670586205700,7.716205810546875,-1.8181226046442984,0.11316285332143305,-0.17470066028051076
1789221670596284700,7.72628466796875,-1.106332763916254,-1.4488842185825108,0.09018632075116038
1789221670606363600,7.73636376953125,-2.573106567193568,-1.7379723786085843,0.6347102543093264
1789221670616443600,7.746443603515625,-0.8373378361091017,-0.5885153432369232,-0.13031404073908925
1789221670626523000,7.75652294921875,-0.13883330115079878,-0.3282499575912952,-0.5427050475679338
1789221670636601600,7.7666015625,0.28431027809977527,0.753880092960596,-0.796686530638486
1789221670646681900,7.776681884765625,2.9159242715805767,2.864597404447198,-1.0518700829751788
1789221670656760600,7.786760498046875,1.4923998274430632,1.6002800641864536,-0.9131851773191243
1789221670666839600,7.796839599609375,-1.80567082708925,-0.24208617035448549,-0.5241963080614805
1789221670676918800,7.806918701171875,-0.1291682317048311,-1.6371815156042575,-1.3936034992568194
1789221670686998500,7.81699853515625,2.7632649819120765,-1.622170993477106,-1.8651381844498216
1789221670697077800,7.827077880859375,0.8330369240447878,-0.6163017603069544,-2.0415522975847122
1789221670707156700,7.83715673828125,-0.92003540854007,1.5007523529857396,-1.9405317174777388
1789221670717235700,7.847235595703125,-1.032193176472187,1.245154374629259,-1.489643806733191
1789221670727315700,7.857315673828125,-0.0063303720653057095,0.6016887130647898,-1.773870790463686
1789221670737394700,7.867394775390625,2.3874714751183985,0.5001373870819806,-1.642524776328355
1789221670747473700,7.8774736328125,0.8959653816446661,-0.6631728170752524,-1.3348027891114354
1789221670757554000,7.887553955078125,-2.3011574657559395,-1.480568812134862,-0.686968922400102
1789221670767632600,7.897632568359375,-0.8938800998032093,-1.0189005641788245,-0.15405059789642692
1789221670777711600,7.907711669921875,-0.1090828905314207,-1.8467741141110658,-0.6315518633436411
1789221670787790800,7.917790771484375,1.7990441024258732,0.5812374611884356,-0.9476737223763019
1789221670797870600,7.92787060546875,4.740582415473461,2.116618059962988,-1.4968842793807386
1789221670807949800,7.93794970703125,1.5838091141179202,1.1116507440686225,-1.1166392000056802
1789221670818028800,7.94802880859375,-2.05361361451745,0.5259750081717968,-1.526363764104247
1789221670828108800,7.95810888671875,-1.1134341203540563,-0.7776327244699001,-1.0594340884886682
1789221670838187800,7.968187744140625,0.5895511160254479,-0.6364736107200384,-1.4771902756124733
1789221670848266500,7.9782666015625,2.0370535248607395,-0.13765958119630814,-1.3065540152266621
1789221670858345700,7.988345703125,0.36121260825544593,0.7278413963407278,-0.822023289534077
1789221670868425700,7.99842578125,-1.7132269366696475,0.27757074071168897,-0.014499211604148148
1789221670878504700,8.008504638671875,-1.132782379424572,-0.10250585022866725,-0.5300694378785789
1789221670888583700,8.018583740234375,-1.6392399094387888,-1.251920800024271,-0.8610736626140773
1789221670898663000,8.028662841796875,-2.0576453542515636,-1.4205641330271959,-0.2162424117848277
1789221670908742700,8.03874267578125,-0.7254410572007298,-0.9427408690840006,-0.621551497528702
1789221670918822000,8.04882177734375,1.174217382618785,0.5538368285655975,0.48267136156149204
1789221670928900600,8.058900634765624,-0.4633315049931407,0.546053335082531,1.6099904340788722
1789221670938979600,8.0689794921875,0.3042158787921071,3.405195396733284,0.8761108535524457
1789221670949059800,8.079059814453124,3.04093859847635,3.356514075672626,-0.0340676892966032
1789221670959138600,8.089138671875,-0.27283231401294467,-0.19130992284119128,2.677025499090552
1789221670969217800,8.0992177734375,0.37205402800440784,-0.9160060068935155,2.4122075647071
1789221670979297500,8.109297607421874,1.851891310994327,-1.347103175497055,1.7957161270469426
1789221670989376800,8.119376708984374,-1.1835726554632187,-1.3218652738660572,3.155183986337483
1789221670999455700,8.129455810546874,1.306997959601879,2.324586856660247,1.9025322416901587
1789221671009534700,8.13953466796875,3.27118264760673,2.1353321127831935,2.4047379594787954
1789221671019614700,8.14961474609375,0.008703530937433243,0.5292945079833269,3.766541568240523
1789221671029693700,8.159693603515626,-0.022291326785087585,-0.591824321654439,2.620596340382099
1789221671039772700,8.169772705078126,0.0585065495043993,-2.1510838086664674,2.748595236046612
1789221671049852700,8.179852783203126,-3.1228344991356134,-3.3581869773209094,2.246802775233984
1789221671059931600,8.189931640625,-2.782186247742176,-1.0239788903564213,3.622889760892093
1789221671070010600,8.2000107421875,1.7624913183152675,1.815859335887432,3.0128862239465115
1789221671080089900,8.21008984375,4.605567503567039,2.60048995642066,2.587246151705086
1789221671090169600,8.220169677734376,1.5273741101905702,0.4393734140396118,3.449821304923296
1789221671100248800,8.230248779296875,-0.7126254147693515,-1.924180594396591,3.73777081630826
1789221671110327800,8.240327880859375,0.8031547037392854,-2.5856062755435705,3.61834510319978
1789221671120406500,8.250406494140625,-0.42313188881278035,0.36895313937962054,2.143460474181175
1789221671130486800,8.26048681640625,0.2969149081289768,-0.4115957647979259,0.9038692866370082
1789221671140565800,8.270565673828125,1.486730549634993,0.10410159498751163,2.4107455293305216
1789221671150645500,8.2806455078125,0.4064744762614369,-0.2559469379246235,1.2534914103418588
1789221671160724500,8.290724365234375,0.7298126964136957,-0.1718634640932083,1.750839458966255
1789221671170804200,8.30080419921875,0.4696843811511993,-0.3248655758500099,2.5159011634156108
1789221671180883500,8.310883544921875,0.29283085368573664,0.560827710366249,2.7845085532099008
1789221671190962400,8.32096240234375,-0.08530921623408794,-0.17034078457057475,2.3048943141967055
1789221671201042400,8.33104248046875,-2.551568689124286,-1.7572884889751672,3.587286824852228
1789221671211121400,8.341121337890625,-1.9306629421532153,-0.1255874506086111,2.9809073236227035
1789221671221200400,8.351200439453125,1.7754419853031633,0.33140345318615433,1.7892032380215823
1789221671231279400,8.361279296875,0.059952656659483905,-0.3979372418016195,3.2479496560573575
1789221671241359400,8.371359375,0.38137393727451563,0.16645137591660022,1.5788650818444787
1789221671251438300,8.381438232421875,2.0404107263341547,-1.262279112431407,0.4830029316034168
1789221671261517300,8.391517333984375,-1.7398501551792025,-2.5708202098220587,1.4303963757336138
1789221671271596500,8.401596435546875,-2.1791446587637067,-2.161356780877709,1.377478147755563
1789221671281676300,8.41167626953125,1.3841931352242827,0.09247428555786609,1.878623396705836
1789221671291755500,8.421755615234375,2.980445843590796,1.4776801049560309,0.44560346753560004
1789221671301834200,8.431834228515624,0.6457716004192828,1.0666185931652783,0.6063027827315032
1789221671311913500,8.44191357421875,-0.24189970787167547,-0.29820260985195635,-0.5205117743298411
1789221671321993500,8.451993408203125,0.9438581826761364,-2.156090238651633,1.0117147443279624
1789221671332072400,8.462072509765624,-0.45743514043092726,-3.6277363241404292,1.5414654716461895
1789221671342151400,8.4721513671875,-0.2884551228195429,-1.1387088468641042,1.6757469547115265
1789221671352230400,8.48223046875,5.495825028958916,2.6190175467580556,1.5510482696361838
1789221671362310400,8.492310302734374,6.971044881281256,4.383786162355542,-0.1084510223686695
1789221671372389400,8.502389404296874,0.8317343170136213,1.9511241309016942,0.53105340741463
1789221671382468400,8.51246826171875,-2.0376877311110495,-0.39807635801136493,0.31383714562896636
1789221671392547300,8.52254736328125,-1.6201526393920183,-4.092750375393033,-1.098109709972143
1789221671402627600,8.532627685546874,-2.553872582152486,-4.4013580594033,0.5231686455141753
1789221671412706300,8.542706298828126,-1.9155834464430808,-3.175204153320193,0.13699293398112058
1789221671422785300,8.552785400390626,1.784901887565851,2.0552298175424335,1.0806085400730372
1789221671432865300,8.562865234375,3.1243080788195132,3.0337808356761933,1.1484393827617168
1789221671442944300,8.5729443359375,-0.6694447369515896,0.5057020354717969,-1.9693739272110162
1789221671453023500,8.5830234375,-2.067236481678486,-0.049693712973594664,-2.324875902734697
1789221671463102500,8.5931025390625,-0.11524871968477964,-0.6319546719908714,-2.667846751856804
1789221671473182500,8.603182373046875,0.3662298518955707,-0.12824001094400883,-0.6951624579887836
1789221671483261400,8.613261474609375,-0.06525076306760311,0.3203606656461954,-1.4121933411754668
1789221671493340400,8.62334033203125,-1.7240210101455449,-1.4474375269055366,-1.5356351580575107
1789221671503419400,8.63341943359375,-1.3700667024552822,-0.7593307595819234,-0.7342365772705525
1789221671513499400,8.64349951171875,1.5550766483694314,1.3818342971384525,-2.050251444607973
1789221671523578400,8.653578369140625,3.2342543081820008,2.483342417377233,-0.2014783386994153
1789221671533657300,8.6636572265625,0.5471119042247533,-0.10415887813270092,-0.09162833625301718
1789221671543736600,8.673736572265625,-0.33885435371398925,0.7053431488066911,0.055054217093437906
1789221671553816300,8.68381640625,0.16122633474469183,-0.5282271710127592,-0.9886172157265245
1789221671563895600,8.6938955078125,-1.1674082871258258,0.3279185336798429,0.5364594311766326
1789221671573974300,8.703974365234375,0.8596341313302517,-0.02806640305519104,-0.6617299978557973
1789221671584053200,8.71405322265625,-1.2652812168568373,-1.7770482514560222,0.757097666767612
1789221671594133500,8.724133544921875,-0.5781172833412885,0.29211598341464995,1.4277540445312857
1789221671604212200,8.734212158203125,2.840247391566634,2.1442940023958683,1.1674081409953534
1789221671614291500,8.74429150390625,0.7115291439652442,0.7142378184020519,2.0973981034472584
1789221671624370400,8.754370361328125,-0.31794512893706556,-0.7541074719756842,0.6292294117454439
1789221671634450400,8.764450439453125,-0.6642734717935324,-2.5104390986174345,1.3801993894129991
1789221671644529400,8.774529296875,-3.2005639277651903,-2.4027777653217313,1.7544871678188443
1789221671654608400,8.7846083984375,-1.5760563080340624,0.9444161088198423,2.1381626600340007
1789221671664687400,8.794687255859374,2.4067113053783773,2.6270506310880184,1.9254522217676042
1789221671674767600,8.804767578125,3.1275673728764057,2.3097680577129123,0.8790021180145442
1789221671684846300,8.814846435546874,1.1195721847176552,1.8805700007289647,0.6254620220359415
1789221671694925300,8.82492529296875,-1.6397519506141542,-0.47468555043935773,0.4553828110110014
1789221671705004500,8.835004638671874,-3.3658921448707577,-0.6615799949258565,2.0578861772701145
1789221671715084300,8.845084228515624,-1.8816762084051966,0.2521680039077997,1.617441334606707
1789221671725163500,8.85516357421875,-0.1410375331968069,0.3242635183036327,1.626719742822647
1789221671735242200,8.8652421875,0.4043041464850306,0.04241057022809982,0.3260524475470185
1789221671745321200,8.8753212890625,-0.865571704685688,-0.06091828682124614,-0.8425128275942056
1789221671755401500,8.8854013671875,-3.237569716340303,-0.8119441593945026,1.0109132186867296
1789221671765480200,8.895480224609376,-4.242149201960862,-1.8697160137593745,0.7000973571076988
1789221671775559400,8.905559326171876,-1.2541677021682263,0.44831484538614746,0.48410607053972776
1789221671785638400,8.915638427734375,3.0876097487583753,2.4536381839871404,-0.3147814042091369
1789221671795718400,8.925718505859376,1.2622019555419683,1.9916987178742884,-0.5217757298510521
1789221671805797400,8.93579736328125,-0.8846715419530868,0.6641226651459932,-1.0013333433061837
1789221671815876600,8.945876708984375,-0.750308664214611,-0.28926234754920005,-0.3230012432828545
1789221671825956400,8.955956298828125,1.5715701025307178,1.0635182890623807,0.5306684266850352
1789221671836035600,8.96603564453125,-1.0166495703816414,-1.1955091769725084,-0.41721141272261736
1789221671846114300,8.9761142578125,-3.249090642786026,-1.108501924648881,0.4002764984041452
1789221671856193300,8.986193359375,0.8603992704838513,-0.7105342877089977,-0.17919804476499557
1789221671866273300,8.996273193359375,1.051732866461575,-0.3997106812149286,-0.3488067156687379
1789221671876352300,9.006352294921875,0.9234835031673312,1.471045781508088,0.20960721155405043
1789221671886431500,9.016431396484375,1.0820356502667068,1.4385031098216772,1.050984240051359
1789221671896510500,9.026510498046875,-2.481116265760362,-0.1688350561827421,0.550777148734033
1789221671906589200,9.036589111328125,0.4196805793151259,-0.17883564119338988,0.0933843861401081
1789221671916669400,9.04666943359375,3.1365234172701832,-0.15124971513152122,-0.5892854508265852
1789221671926748200,9.056748046875,-2.061682354682684,-1.6746768412619828,-0.8935517446316779
1789221671936827400,9.066827392578125,-3.841223884259164,0.6284434489995241,-0.8793570689320563
1789221671946907400,9.076907470703125,-0.8179597664222121,1.3885907856613398,-0.583723578915745
1789221671956986400,9.086986328125,0.4028925261214375,0.47741234505474567,0.1935283295430243
1789221671967065300,9.0970654296875,1.8336264632463455,-0.6155085641026496,-1.159566487584263
1789221671977144600,9.10714453125,2.1805767373934386,2.538305010664463,-1.9123054476857184
1789221671987224300,9.117224365234375,-0.45423663665056224,2.0498013627529144,-1.429085000874102
1789221671997303600,9.127303466796874,-4.876361589750648,-0.9105167618274688,0.8549047647207975
1789221672007382300,9.13738232421875,-4.525088776229322,-2.591205410724878,1.0519937093548477
1789221672017461200,9.147461181640624,-0.12864450009167194,0.46353462634980674,-0.42304333374649283
1789221672027541500,9.15754150390625,2.5539474009543657,2.9627175869375466,-1.16331604937613
1789221672037620200,9.1676201171875,-1.6997063608393073,0.3272439954191446,-0.946283656257391
1789221672047699500,9.177699462890626,-4.03713282532841,-0.6774643772780895,-0.1328426824338734
1789221672057778400,9.1877783203125,0.004846855509281158,0.8005524122864007,-0.5641227333236485
1789221672067858400,9.1978583984375,1.9424077404826878,0.0025946926683187484,0.2596194158922881
1789221672077937400,9.2079375,-1.3805512715905903,-0.28704817863106724,-0.14652897021993994
1789221672088016400,9.218016357421876,-2.135219300058484,0.13467092077434062,-0.22482443523444234
1789221672098095400,9.228095458984376,-1.0021829458728433,-0.6471838053047657,-0.16468297800458967
1789221672108175400,9.23817529296875,-0.3785311150640249,-0.696544340801239,-0.2614369867082685
1789221672118254300,9.24825439453125,2.0735776673987507,0.2890086650490761,-1.4838563093729316
1789221672128333300,9.258333251953125,0.0284057180121541,0.42113633108139037,-1.2570439882569013
1789221672138412500,9.26841259765625,-2.057317729732394,0.009579144728183745,-1.7191636332422493
1789221672148492300,9.2784921875,-2.458857672201097,0.22128654343187806,-1.361868198430538
1789221672158571300,9.2885712890625,0.35080636505335566,-0.7640437595784664,-1.4316130580469966
1789221672168650500,9.298650390625,0.5485860684305429,1.0193243425488472,-1.0232076867882163
1789221672178729200,9.308729248046875,2.652433494147658,3.3466187046021223,-1.6628993097066878
1789221672188809500,9.3188095703125,0.8510206167638301,0.6792120977282524,-0.9506976002421229
1789221672198888200,9.32888818359375,-2.2807447923243043,-1.2272270882725715,-1.4832707645699381
1789221672208967400,9.338967529296875,-0.209095170378685,0.39821488969922064,-2.3352006051331755
1789221672219046400,9.34904638671875,-0.35707185518890616,-1.0193903935223818,-1.0597603978335857
1789221672229126400,9.35912646484375,-2.0348641981229183,-1.384216808360815,-1.3631594072848559
1789221672239205400,9.369205322265625,-0.03259089474231004,-0.9618237552165985,-1.5958292222574353
1789221672249284400,9.379284423828125,1.658589045292139,2.7914059115082024,-1.3441612768262623
1789221672259363300,9.38936328125,1.2661688133463262,3.4142017100095745,-2.720128435496986
1789221672269443300,9.399443359375,-2.039427268254757,1.3457201967060566,-0.93852705078125
1789221672279522300,9.409522216796875,1.3340858730137348,2.150357832479477,-2.13027512165457
1789221672289601300,9.419601318359375,3.4621789744541047,0.14215104739665985,-2.3549080529049036
1789221672299680300,9.42968017578125,-3.300195391601324,-3.555347964277863,-0.6633153673510999
1789221672309760300,9.43976025390625,-5.950773613271116,-3.676096742683649,-1.5816940216600894
1789221672319839200,9.449839111328124,-2.8870886377185583,-1.7138421459585427,-1.6213775050118564
1789221672329918500,9.45991845703125,1.8578531420081852,1.1647709243595599,-0.6845579888008535
1789221672339997200,9.4699970703125,2.1020850922197103,1.4063497297137975,-2.411311492650211
1789221672350077400,9.480077392578124,0.28603812480568885,1.6408792010784148,-2.6762688355043527
1789221672360156400,9.490156494140624,0.18365911582708358,0.20770400828123092,-1.630797513655573
1789221672370235400,9.5002353515625,0.32001199833899735,-0.7850017919331789,-2.011974320922792
1789221672380314400,9.510314453125,-1.187042669661343,-2.3535931709140536,-2.136276115635037
1789221672390394400,9.520394287109376,-1.1915788517862558,-0.16655074463784694,-1.9875141256660223
1789221672400473300,9.530473388671876,2.129405353082716,0.9380559261381626,-2.768123527859151
1789221672410552300,9.54055224609375,0.3120949416041374,-0.501103017243743,-0.8543419432062656
1789221672420631300,9.55063134765625,-1.6717822888642548,0.4992588506817817,-2.266194142793864
1789221672430711300,9.560711181640626,3.5920901334807276,2.8772721771031615,-2.8435476021558044
1789221672440790500,9.57079052734375,1.154487138493359,-1.7126672569602728,-1.31356579368487
1789221672450869200,9.580869140625,-3.583657528439164,-1.9161586159825323,-1.1071481719523668
1789221672460948200,9.5909482421875,0.4657990641504526,0.32913317016661164,-2.561360015298426
1789221672471028200,9.6010283203125,2.5274627141326667,0.027346272087097168,-1.48986460987702
1789221672481107200,9.611107177734375,-1.1911954054266214,-1.3706050471156834,-1.8695541011959314
1789221672491186400,9.6211865234375,0.5093190569251775,0.5087181684225798,-2.18216386045441
1789221672501265400,9.631265380859375,3.7399718334838745,1.045462992411852,-0.628547055504471
1789221672511345400,9.641345458984375,-1.3812611734256148,-1.7661428265601395,-0.9904193697776645
1789221672521424400,9.65142431640625,-5.038624281805753,-3.314527283814549,-1.379051534552127
1789221672531503400,9.66150341796875,-1.1418214259266852,-0.16657120290398597,-0.5260692623265087
1789221672541582300,9.671582275390625,3.1891102213367817,0.32077392262220383,-1.7676748584330082
1789221672551662300,9.681662353515625,2.2708114273309707,0.17186638670265675,-1.207177402934432
1789221672561741300,9.6917412109375,0.8974199643671512,-0.009193944802880287,-0.6471285679861902
1789221672571820300,9.7018203125,1.5137036044955252,1.033327148938179,-0.6984110845211893
1789221672581899500,9.7118994140625,-1.6271303694501518,-2.0866887856453658,-1.0428905846405774
1789221672591979300,9.721979248046875,-3.0907649979189036,-3.4370424873709675,0.6426726845558732
1789221672602058500,9.73205859375,2.570084589023888,0.897784121504426,-1.5680769997179507
1789221672612137200,9.74213720703125,3.1563793336018917,0.37404607860445976,-1.456267606832087
1789221672622216200,9.75221630859375,-0.6877338423579931,1.6784931846797466,1.3143207037054
1789221672632296400,9.76229638671875,2.3621669379919767,2.677632232812047,-1.0476089183993638
1789221672642375200,9.772375244140624,1.7016358675971626,0.4350847769349813,-0.3906461349453777
1789221672652454400,9.782454345703124,-1.6311258688271044,-1.1790578083872794,-0.36473661766313015
1789221672662533400,9.792533447265624,-1.8560089754462241,-2.1129946087688207,-0.3410926341600716
1789221672672613400,9.80261328125,-0.7055003851950168,-1.2085843471229076,0.6033865299586206
1789221672682692400,9.8126923828125,0.6938710299387574,-0.4314753542661667,-0.14028021202348173
1789221672692771300,9.822771240234376,1.327474053658545,1.580104122120142,-0.6768374775514007
1789221672702850300,9.832850341796876,2.059600579972565,0.838946732610464,-0.5064053614355624
1789221672712930600,9.8429306640625,0.47960167179256674,0.8278811487168073,-0.08034092630222439
1789221672723009300,9.85300927734375,1.3274369365185499,1.5585352643907069,-1.5792805307775735
1789221672733088300,9.863088134765626,-2.5815952863365412,-1.5534183597683906,0.5305133822537959
1789221672743167500,9.87316748046875,-2.9612074746355415,-1.573516560423374,0.17506116415597497
1789221672753247200,9.883247314453126,1.773437659743428,0.004162964898347854,-1.5999708521068094
1789221672763326500,9.893326416015626,4.772343289132416,3.0621470984607932,-0.5400445231217891
1789221672773405400,9.903405517578125,0.9942074369490146,-0.9447866956979035,-0.2617723561424762
1789221672783484200,9.913484130859375,-4.9457098512649535,-1.9023603922545909,0.9767858350921421
1789221672793564400,9.923564453125,-2.9401217242479323,-0.5679495250701904,0.049801265001296995
1789221672803643100,9.93364306640625,0.8604998082488775,0.14403379240334033,0.31125432606153186
1789221672813722400,9.943722412109375,3.0217879078045486,0.801344439446926,-0.19457089739851652
1789221672823801300,9.95380126953125,2.4287647317543626,0.35254911706745623,0.46831535782031714
1789221672833881300,9.96388134765625,-1.7231588403582572,-0.8760223715513944,0.7035415062122047
1789221672843960300,9.973960205078125,-5.077053088921308,-2.6072832698225974,0.8215579370446503
1789221672854039600,9.98403955078125,-2.0321163607195016,0.7668857050061225,1.7300830866634844
1789221672864118300,9.9941181640625,3.6639810652151703,0.590153173571825,-0.03789323893412947
1789221672874198500,10.004198486328125,3.3419504205301402,1.1150970851302147,1.854332566666603
1789221672884277200,10.01427734375,1.335905781917274,2.191173242470622,1.39344845482558
1789221672894356200,10.024356201171875,-0.911786343371868,0.4474737183868885,1.791865150707215
1789221672904435500,10.034435546875,-2.442600657144189,-1.1612041717886925,1.8424368155591189
1789221672914515200,10.04451513671875,0.8241191658347845,-0.5382417845487595,0.5745544032279402
1789221672924594400,10.054594482421875,2.279313005955517,-0.5890110177993774,1.4066120339117942
1789221672934673400,10.06467333984375,-2.3039508958667514,-1.24028472276628,1.8032840780831871
1789221672944752400,10.07475244140625,-2.114116890797019,0.3515659512490034,1.7266257858164606
1789221672954832400,10.084832275390625,1.116073821207881,-0.16647709487974643,1.235275370171666
1789221672964911000,10.0949111328125,0.6603022300750017,1.0745938098281622,1.8192350959308445
1789221672974990300,10.104990234375,0.5856582002401352,1.2291817294716834,1.5821959798328578
1789221672985069300,10.1150693359375,-0.9765008076056837,-0.7100128941833973,2.882387620420754
1789221672995149300,10.1251494140625,0.5935112518280744,0.4288660485506057,1.5879463600531218
1789221673005228300,10.135228271484374,1.634661057215929,0.2889519664257765,1.3766978110328316
1789221673015307500,10.1453076171875,-1.4993860330685973,-2.238012735056877,2.0347797347098586
1789221673025386200,10.15538623046875,-1.8080492466583846,-2.588445298361778,1.3277958329588173
1789221673035466500,10.165466552734374,-1.1738126012101768,-0.9719523505210876,1.8741434748128056
1789221673045545200,10.175545166015626,1.2343272756665944,0.8740174614697694,1.3108563885957
1789221673055624200,10.185624267578126,0.0501604537025094,0.23692484206855297,2.3221334721587596
1789221673065703400,10.195703369140626,0.8474076869636774,1.3218857321321964,2.363682018730044
1789221673075783200,10.205783203125,2.2534321302458644,0.961087842157483,1.3224208619222044
1789221673085862400,10.2158623046875,-2.5662083321124314,-2.0800918715983627,2.0606530116349457
1789221673095941400,10.22594140625,-3.07846256570667,-0.2267711123228073,1.4259385195419192
1789221673106020400,10.236020263671875,1.0269137747645378,-1.0216910716801881,1.0703238774240016
1789221673116100400,10.246100341796875,1.300110538175702,-0.17069968101084232,2.2177517450556157
1789221673126179600,10.2561796875,1.3244231416553258,1.7438088296771048,1.0414927005413919
1789221673136258300,10.26625830078125,1.5286404768645763,0.8549638014316558,1.1980777122862636
1789221673146337300,10.276337158203125,-1.2634569240391254,-1.303572076806426,1.4569208100438118
1789221673156416800,10.286416748046875,-1.6308759857192634,-0.9473749586254357,0.9800769125267863
1789221673166495700,10.296495849609375,-0.6729410546347498,-0.8838502886980771,1.1576169609516858
1789221673176575000,10.306574951171875,-0.8859545675009488,-1.0757114156812428,1.6651918045580387
1789221673186654000,10.316654052734375,-0.4632876658514142,0.1484796658962965,0.5732557051869109
1789221673196734000,10.32673388671875,0.9596317981302738,1.3261620942771435,0.8071898044742644
1789221673206813000,10.33681298828125,-0.6279860606208443,0.4696469717502594,0.34412875045295804
1789221673216891600,10.3468916015625,0.06125760177820921,2.1762691033273933,1.12013668673262
1789221673226971000,10.356970947265625,2.5473268137708307,0.21205635827183722,0.7947386114411056
1789221673237051000,10.36705078125,0.6501882478177547,-0.36712183229923245,1.0320050334889441
1789221673247129900,10.3771298828125,0.10168342792987822,1.2652116587519644,0.38129363857991994
1789221673257208800,10.387208740234374,-1.859470514076948,-1.3235609718680381,0.2861830131690949
1789221673267287800,10.397287841796874,-3.803340728327632,-3.2305846797585485,0.768473850980401
1789221673277367800,10.407367919921874,-3.9918317943558095,-2.949199933716655,-0.24312665585074572
1789221673287446800,10.41744677734375,-2.4367992773890492,-1.0258283176153897,0.09721614632271229
1789221673297525800,10.42752587890625,1.5289166634574531,1.5940426311016083,0.23865405874764545
1789221673307604700,10.437604736328124,5.0938054862797255,2.4737527512550352,-0.349798649315536
1789221673317685000,10.44768505859375,4.123303042306006,1.7525561997562646,0.003694233141746372
1789221673327763700,10.457763671875,-2.890699813953042,-2.5085551845669745,0.8585674519468098
1789221673337843000,10.467843017578126,-6.7275640416979785,-3.187642194610834,1.2850149681136012
1789221673347922000,10.477921875,-1.1532277860820292,-1.542569048973918,-0.7324552468117326
1789221673358002000,10.488001953125,2.4111966340988875,-1.1240332557797432,-0.5604875186264514
1789221673368081000,10.498080810546876,0.5811421841204166,0.053173956304788585,-0.9810380857091396
1789221673378159900,10.508159912109376,0.10305062462985515,0.669956778126955,-1.1352134059637784
1789221673388238800,10.51823876953125,-0.02483867318034172,4.286559129312634,0.2497842505764216
1789221673398318800,10.52831884765625,1.462435189551115,3.9574674602001902,-1.0429342776518316
1789221673408397800,10.538397705078125,0.4161889378070831,-0.9672194767802953,-1.0207543022867291
1789221673418476800,10.548476806640625,4.744629645037651,4.039234473782778,0.15497180439457298
1789221673428555800,10.5585556640625,2.051522779718041,2.2578689436495303,-1.794953472111374
1789221673438635800,10.5686357421875,-6.409872887521982,-3.6343981201171873,0.471943923581019
1789221673448714800,10.57871484375,-7.274670685225725,-4.4679526382952925,0.3628408670444041
1789221673458794000,10.5887939453125,-3.9616871237218376,-5.229136332267522,-2.2768520226694644
1789221673468872700,10.598872802734375,-1.6862746323361992,-2.223387412855029,-1.3219928457684813
1789221673478953000,10.608952880859375,1.271056000865996,2.5017770687341687,0.48094172475729136
1789221673489031700,10.61903173828125,5.202018023717403,5.940311255967616,0.3410150023465976
1789221673499111000,10.62911083984375,3.8320866380795833,3.9170653071850534,-1.8686719115339219
1789221673509190000,10.63918994140625,1.8987772730708121,3.424973863914609,-0.5039314090700819
1789221673519270000,10.649269775390625,0.7894114250689744,-1.6033593255013225,-1.482553702341765
1789221673529348900,10.659348876953125,-4.730140808697045,-5.589989751821756,-1.3849964144311844
1789221673539427800,10.669427734375,-7.144639699211716,-2.826573086479306,0.16693987181959674
1789221673549506800,10.6795068359375,-3.5694641679137944,-0.4703174183577299,-0.49106812810469413
1789221673559586800,10.6895869140625,2.588075880527496,0.7476818228423595,-0.793747554577142
1789221673569665800,10.699665771484375,4.812382161793113,2.792702965581417,0.24440007332004604
1789221673579744800,10.709744873046875,1.1077248027965425,2.340214633902907,-0.1252244259824976
1789221673589825000,10.719824951171875,-1.1841367190867662,1.7698896118730305,0.928976255364716
1789221673599903700,10.72990380859375,0.14501023622006176,-0.7480231836259364,0.8003725987400859
1789221673609982700,10.739982666015624,-2.854155213148892,-4.805085575044155,0.2511228787690401
1789221673620062000,10.75006201171875,-4.74365144765526,-3.115297089368105,0.9863987359594553
1789221673630141700,10.7601416015625,-0.40879561268538234,1.2203893512070179,-0.13027293241056612
1789221673640221000,10.770220947265624,2.1306074223488567,3.0474153932750223,0.08486927218055353
1789221673650300000,10.7802998046875,3.5909807109341023,4.351187376567721,1.1575001296389846
1789221673660379000,10.79037890625,5.229098922866583,3.0238264278948304,0.07906243993216194
1789221673670459000,10.800458984375,-0.032927871611714364,-2.1726748782277108,0.4319643798921257
1789221673680537900,10.810537841796876,-5.6657490494221445,-3.100277799412608,2.535434715925157
1789221673690616800,10.820616943359376,-4.082774048040807,-2.649638310471177,0.6071094960045069
1789221673700695800,10.83069580078125,0.8516375796183944,-1.1154577351361512,-0.16668361376989632
1789221673710775800,10.84077587890625,0.8272001807153224,-0.5407885464221239,0.3931132191786542
1789221673720854800,10.850854736328126,-1.2721703918486833,1.8926748645424842,0.8003553553443402
1789221673730934000,10.86093408203125,2.3808713462010025,5.78545328721106,0.7325581957295536
1789221673741012700,10.8710126953125,4.887954412388801,1.5066501788526772,0.30790899768900126
1789221673751093000,10.881093017578126,1.5153931650176644,1.8215403041332958,2.0341263853676614
1789221673761171700,10.891171630859375,-0.3830731424078345,0.2937164043486118,0.6272236248809844
1789221673771250700,10.901250732421875,1.2609887803599238,-0.8003232797056437,0.9404705860644579
1789221673781330000,10.911329833984375,-1.071460772499442,-3.2065579074829813,-0.013551715320697984
1789221673791409700,10.92140966796875,-4.014107046788931,-1.9358301156580446,-0.14477955100303516
1789221673801489000,10.931489013671875,-3.3364220124974846,-1.153242983651161,0.20589867589231578
1789221673811567900,10.94156787109375,0.3903647607207298,1.0680080016970634,0.3032924072716385
1789221673821646800,10.951646728515625,2.770439988107979,2.1508757188737393,-0.1891828111520037
1789221673831726800,10.961726806640625,2.3246230970174073,2.7027245884925124,-0.17853548920303583
1789221673841805800,10.971805908203125,-0.921859409096837,-0.9300491452932357,0.19871252724789082
1789221673851884800,10.981884765625,-1.2942422306641936,0.6874556099385023,1.066329766286537
1789221673861963800,10.9919638671875,2.98871858189553,1.2988438792407513,-1.0792086101472378
1789221673872043800,11.002043701171875,0.7491267609536647,-0.580028085398674,0.05984739705356769
1789221673882122800,11.012122802734375,-1.554023632185161,0.5593085379749536,-0.22546649599764496
1789221673892202000,11.022201904296875,0.47260172990262506,0.875226837259531,-1.6076615527398883
1789221673902280700,11.03228076171875,-0.5017480371490121,-2.69633167258501,-0.3262421614328399
1789221673912361000,11.04236083984375,-0.7922554163232445,0.32973288962543007,-0.23574299360653383
1789221673922440000,11.05243994140625,-0.6912801366627216,-0.11260580396056175,-1.0201679537661372
1789221673932518700,11.0625185546875,-3.8122090944379567,-1.5138509040117263,0.8314355532627552
1789221673942598000,11.072597900390624,1.554461731341481,3.3878274978250262,-0.19035013789832592
1789221673952677600,11.082677734375,7.439121242713928,2.4373212554365393,-1.9527213369652627
1789221673962756900,11.0927568359375,0.2815788073092699,-1.4349825344800948,-0.5487610231386497
1789221673972835800,11.1028359375,-5.674851808810233,-3.697098029658198,0.24158678773129358
1789221673982915800,11.112915771484374,-6.466790122008323,-4.233059009793401,-0.24282232087561859
1789221673992994800,11.122994873046874,-3.9478488602444526,-2.154363560989499,-0.00223275488759391
1789221674003074000,11.133073974609376,2.887845885826647,1.9955770206123589,-0.37956009278558195
1789221674013152800,11.14315283203125,5.981219020417332,2.73299814620316,-1.2846715615034103
1789221674023233000,11.15323291015625,1.0110393292844295,2.053517168405652,-1.1260524866476653
1789221674033311700,11.163311767578126,-0.8257622568666935,-0.14269874440729619,-0.7990775174282491
1789221674043390700,11.173390625,-1.433341197013855,-0.8372405132144689,-0.3862363191464916
1789221674053470000,11.183469970703126,-3.9270974563777443,-2.3803508294582367,-0.35364915073122827
1789221674063549700,11.1935498046875,-0.4738742340564728,-0.5471650957167148,-0.1859495465855114
1789221674073629000,11.20362890625,3.257853502695262,-0.1838461628317833,-1.9428918707378207
1789221674083708000,11.2137080078125,-1.590368911024928,-1.7966244740635156,-1.238996144260466
1789221674093787000,11.223786865234375,-2.294354215481877,0.9485919331997632,-0.8304770834941416
1789221674103867000,11.233866943359375,1.7471499567985533,2.2725299216866492,-1.7322203909531235
1789221674113945600,11.243945556640625,0.6230538649156689,1.8665151718914508,-0.6364254607293754
1789221674124024800,11.25402490234375,2.233946508531272,2.444723056125641,-2.1293949778191745
1789221674134103800,11.264103759765625,2.559522570738196,-0.8372638940900564,-2.2242649263419207
1789221674144183800,11.274183837890625,-2.512528764373064,-1.3708417784810065,-1.044425100731477
1789221674154263600,11.284263671875,-4.291431703785062,-2.371082650375366,-1.879519322632253
1789221674164342500,11.294342529296875,-1.7089502822637557,-0.4173801934182644,-0.8650710616871714
1789221674174421500,11.30442138671875,2.1290558089926837,1.2320610843002795,-2.219640335281193
1789221674184501800,11.314501708984375,-0.15811843185722826,-0.3803963244140148,-1.200309051534906
1789221674194580500,11.32458056640625,-0.38938480977267026,2.4240344883620737,-1.7038152574628591
1789221674204659700,11.33465966796875,1.7987381052166223,2.800981549105048,-2.703024448221922
1789221674214738700,11.34473876953125,1.0884668523579835,4.021161641475558,-1.1296265457421542
1789221674224818700,11.354818603515625,0.9933230553299188,0.25261048697829247,-3.2515549870729443
1789221674234897700,11.364897705078125,1.4470888595983384,-0.2725526202887297,-0.8087241744346916
1789221674244976600,11.3749765625,-0.002722410701215267,-1.3591051634579896,-3.3435619473800062
1789221674255056600,11.385056640625,-5.89470568909049,-5.056643338099121,-0.6991875487864017
1789221674265135600,11.395135498046875,-6.797717189854383,-2.3501158501923083,1.2452080045126377
1789221674275214600,11.405214599609375,-0.34703999825716014,0.44135728133320806,-1.8755154938183725
1789221674285293600,11.41529345703125,1.5387129580676555,0.10947978089451789,-1.2565893763571976
1789221674295373600,11.42537353515625,0.09748919111043214,2.2782009530603884,-1.118779207709059
1789221674305452500,11.43545263671875,2.987124006180465,4.196241145005822,-1.939897949618846
1789221674315531500,11.445531494140624,2.2482117652490734,1.2571440876305102,-0.8718746042221784
1789221674325610800,11.45561083984375,-1.7593652952492236,-2.7671348090827466,-1.1954779050514102
1789221674335690500,11.4656904296875,-5.61654107413888,-5.416176322704553,-1.0953276049729437
1789221674345769700,11.475769775390624,-3.7737206660896536,-0.7780196779608726,-1.3781709523253143
1789221674355848400,11.485848388671876,0.48555531949996944,-0.12846855900287626,-2.346037640967965
1789221674365927700,11.495927734375,3.6487992781743404,4.487143660977482,-0.2904272996753454
1789221674376007700,11.506007568359376,4.4970866705819965,2.848928710672259,-1.0729751225851476
1789221674386086700,11.516086669921876,1.8847125073611735,1.2483879497230053,-0.5320374500159174
1789221674396165600,11.52616552734375,-1.1550608467280865,-1.0733172140210867,-0.7884804278291762
1789221674406244600,11.53624462890625,1.3289637076944112,2.0122136826366184,-1.9310224231153725
1789221674416324600,11.54632470703125,1.5509510928720236,0.11768471466004848,-3.2536683259651062
1789221674426403600,11.556403564453126,-2.4063465637192127,-1.4971248101383448,-0.24992585100419817
1789221674436482600,11.566482666015625,1.9215198507547377,2.660591081640124,-2.2878509710676966
1789221674446562600,11.5765625,2.936307134395838,-0.4429939426243305,-2.327807280011475
1789221674456641800,11.586641845703125,-3.8508819394424556,-0.6808598649352788,0.04771780979074537
1789221674466720500,11.596720458984375,-1.2657900431618094,-0.8932084841519594,-2.2503346026219426
1789221674476799500,11.606799560546875,1.0157283638834953,-0.10480652838647365,-1.251191316705942
1789221674486879500,11.61687939453125,-1.5118582688897848,0.9675263507723808,-2.3915298105984926
1789221674496958500,11.62695849609375,0.1417132405012846,1.4280541965216398,-1.2034176850747316
1789221674507037700,11.63703759765625,1.7503402772724628,2.3711942940562962,-1.883578388764709
1789221674517116700,11.64711669921875,-0.28071722204387184,-2.042263952985406,-3.3178236950114366
1789221674527196700,11.65719677734375,-5.317327825939655,-5.248274163457751,-0.687895316530019
1789221674537275600,11.667275634765625,-7.2167375516951076,-4.299858171346783,-1.6047332442030309
1789221674547354600,11.677354736328125,-4.116341094338893,-2.3697785820394754,-1.7166874523870645
1789221674557433600,11.68743359375,1.3439534792944787,4.283486297738552,-1.1232711853660642
1789221674567513600,11.697513671875,7.430124281787872,7.921070062154531,-1.61001746821627
1789221674577592600,11.707592529296875,8.233262618914246,3.15368731803894,-2.930468637500703
1789221674587671600,11.717671630859375,0.3763318514540791,-1.6410329303354023,-1.9226205054730177
1789221674597750800,11.727750732421875,-4.184050064213574,-3.12159063655436,-1.0256025460354983
1789221674607830500,11.73783056640625,-6.040946051627397,-3.289529036158323,-2.292885458103567
1789221674617909800,11.74790966796875,-3.462454576525092,-1.5587112054795025,-2.0643179638832807
1789221674627988500,11.757988525390624,2.3113906904786825,1.4534890820294617,-1.8621409023299813
1789221674638068700,11.76806884765625,5.8533770688802,5.086575535026192,-1.9179175884790718
1789221674648147500,11.7781474609375,5.414609804040193,2.826083257135749,-2.2315730573982
1789221674658226400,11.788226318359374,-1.270630176669359,-5.171629899716377,-1.838173312895745
1789221674668305700,11.7983056640625,-4.608892848597467,-3.3732179577142,-0.5268555903986096
1789221674678385400,11.808385498046874,0.5078416778489947,2.534664023813605,-3.2651284621343013
1789221674688464600,11.818464599609374,1.3562126568868755,-2.7981828582972286,-3.608393325766921
1789221674698543600,11.828543701171874,-5.498183574783802,-5.47550938616097,0.21505349426120518
1789221674708622600,11.83862255859375,-3.6529657502040265,0.8838906207084655,0.3144059950254857
1789221674718702600,11.84870263671875,6.011582594498992,6.288046835273504,-2.1810520998202265
1789221674728781800,11.85878173828125,10.26875897746086,8.147367127224802,-2.247932948307693
1789221674738860500,11.868860595703126,3.931430809406936,-1.8538959288150072,-2.4662974668130278
1789221674748939500,11.878939453125,-2.846435432551801,-6.686301472461223,0.4691616724513471
1789221674759019500,11.88901953125,-1.3521458458393811,1.736988043746352,0.8662541339918971
1789221674769098500,11.899098388671876,2.4908035470381376,2.793174674746394,-3.5222155100047585
1789221674779177700,11.909177734375,-3.107000970187783,-5.103637144464254,-2.1461608191810546
1789221674789257500,11.919257568359376,-6.9692919001340865,-3.6043624628156423,1.30242699842453
1789221674799336700,11.929336669921875,-0.011317805089056492,5.368832972249388,1.6651693004652857
1789221674809415700,11.939415771484375,10.79156003177166,10.64220884373784,-1.049643346836418
1789221674819494400,11.949494384765625,9.971916550046204,5.557501440671086,-1.8629614249326287
1789221674829574700,11.95957470703125,2.3018264510586857,1.376594642919302,2.570190679746866
1789221674839653400,11.9696533203125,-0.47601972165256734,-2.1927368385255335,2.136952553591877
1789221674849732600,11.979732666015625,-3.0667642368674275,-3.239135065960884,-1.477571383884549
1789221674859811600,11.9898115234375,-5.220248676934838,-1.9365648596733807,-0.2597195883311331
1789221674869891600,11.9998916015625,-0.8286959722310304,2.6528917593091723,0.7274683252446353
1789221674879970600,12.009970458984375,1.2026657707288861,-0.33965865583419796,-0.33314635133072734
1789221674890049800,12.0200498046875,0.8588616856530308,0.6367132646948098,2.435916795466095
1789221674900128500,12.03012841796875,0.3680731416746974,-1.0928519355744122,-0.5571861389935017
1789221674910208800,12.040208740234375,-1.645406907635927,0.32544132991135116,0.7227848436035216
1789221674920287500,12.05028759765625,0.7194739654898643,-0.6633470045983791,-0.616063859897852
1789221674930366500,12.060366455078125,2.7462165242165324,1.6386936737328768,0.7379572782941162
1789221674940445700,12.07044580078125,3.2291604921743273,0.7331611300587654,-1.0909100077264011
1789221674950525400,12.080525390625,1.305645960471034,-1.3892477882653473,0.5712976664543151
1789221674960604700,12.090604736328125,-2.2381167799532413,-2.498593178001046,-0.2231384549088776
1789221674970683600,12.10068359375,-5.2510594102621075,-4.274584613880515,-0.23393632777705786
1789221674980763600,12.110763671875,-0.7742559415131807,2.909897850897908,1.486204479934275
1789221674990842600,12.120842529296874,3.650836336959898,3.9024978526502845,-1.6947785490483045
1789221675000921600,12.130921630859374,4.462381852425635,6.780805218020081,1.8252908888384698
1789221675011000600,12.14100048828125,7.2601651900112625,2.366628593575954,1.4679494229279457
1789221675021080600,12.15108056640625,1.4196020099967717,-4.730028872755169,0.3867515386596322
1789221675031159600,12.16115966796875,-6.050921502196789,-4.7700931721180675,0.7869166856437921
1789221675041238500,12.171238525390624,-8.24479932745099,-4.577779040670395,0.15166735602170228
1789221675051317800,12.18131787109375,-6.480365058374405,-4.906674894949793,1.0615955043062566
1789221675061397500,12.1913974609375,0.6021484395310283,4.908585112485289,0.6765443398237228
1789221675071476700,12.201476806640626,7.256568626824021,5.643361276525258,-0.7465818987764418
1789221675081555700,12.2115556640625,6.263502761125564,-0.02951543281972408,1.0447658039279282
1789221675091634400,12.221634521484376,-0.472874117103219,-3.267673178181052,3.919684549772739
1789221675101714700,12.231714599609376,-4.154891482007503,-4.570900971594453,2.6922318360507487
1789221675111793400,12.24179345703125,-6.223173673346638,-3.4554508352428672,0.28574264899045226
1789221675121872600,12.25187255859375,-2.3955402152836323,2.2021236755520106,0.3572070258758962
1789221675131952600,12.26195263671875,3.802355516682565,6.741100399619341,0.7424541513219476
1789221675142031600,12.272031494140625,7.834211278390884,7.497647081440687,2.6242747366338968
1789221675152110000,12.282110107421875,5.043529589504003,-1.9616437713503836,2.4472534513860937
1789221675162189000,12.29218896484375,-2.6801374936312437,-5.965895779079198,3.9437873098939655
1789221675172269000,12.30226904296875,-6.6266399077028035,-3.487736317297816,4.147643118314445
1789221675182348000,12.31234814453125,-5.609129921099544,-1.5379776295304297,0.914282982493192
1789221675192427300,12.32242724609375,1.0478545637235044,3.0624732616752386,0.3944214887656271
1789221675202506000,12.332506103515625,5.063009950521588,0.757293116274476,1.4791342492870985
1789221675212586200,12.342586181640625,-0.5902700779497623,-5.095407660779356,3.775883981603384
1789221675222665000,12.3526650390625,-6.3856748503327365,-4.16618035326302,4.801128361850977
1789221675232744000,12.362743896484375,-7.309485978019237,-6.250618145111202,2.776691157457232
1789221675242824200,12.37282421875,-1.0691086564153431,0.7131821718692779,1.5878350086331368
1789221675252903000,12.38290283203125,6.610954262793063,7.3925605670690535,1.1245382826924324
1789221675262982100,12.392982177734375,10.08983448894024,6.647248980489373,2.492192371048033
1789221675273061000,12.40306103515625,7.092718957838415,-0.8721949222177267,4.381868053774536
1789221675283141000,12.41314111328125,-0.17878186517953873,-5.522797791558504,5.974780511802434
1789221675293220000,12.42322021484375,-4.213138211531937,-5.206715241622924,4.4945863781988615
1789221675303299000,12.433299072265624,-7.415124281054735,-5.297002246269583,1.1011845873728394
1789221675313378000,12.4433779296875,-6.73802464543581,-3.283962049680948,2.1296580126695335
1789221675323458300,12.453458251953125,1.032657579113543,3.426489529174566,3.350699544174969
1789221675333537000,12.463537109375,8.903995057588816,6.436394983744621,3.15645707501322
1789221675343616000,12.473615966796874,6.726502549946308,-0.3770329854607582,1.309940296664089
1789221675353696000,12.483696044921874,0.3483651093810797,-4.927898884764313,5.082721197685599
1789221675363775000,12.49377490234375,-3.744469437164068,-6.753432057926059,5.063023394525051
1789221675373854200,12.503854248046874,-5.281290882396697,-2.519689742043614,1.40523051642552
1789221675383933200,12.51393310546875,2.076708366639912,5.882349480864406,0.42498285044170914
1789221675394013200,12.52401318359375,9.0458386464715,6.219430979686975,1.1443929569151252
1789221675404092200,12.534092041015626,6.49217999933064,1.5777964296996592,4.2203848216593265
1789221675414171000,12.5441708984375,0.7363701552331448,-1.4095973333328962,6.651816434535384
1789221675424250000,12.55425,-0.8267930612191557,-4.171675443547964,1.8717673933312295
1789221675434330000,12.564330078125,-4.912027946415543,-6.09987579497993,-0.8361514028035104
1789221675444409000,12.5744091796875,-5.805133554714918,-4.657192184603214,0.39142617940716445
1789221675454488000,12.584488037109375,3.1963360809370873,0.8564724524289369,1.0524261824879795
1789221675464568000,12.594568115234376,9.195737531515956,3.6512294279307125,1.0783904256321488
