time,seconds_elapsed,z,y,x
1789221662936047000,0.066047119140625,-0.03674260899424553,-0.009678635746240616,0.048544131219387054
1789221662946126000,0.0761259765625,-0.03205469995737076,-0.009460238739848137,0.060843124985694885
1789221662956205000,0.086205078125,-0.033047523349523544,-0.003781847422942519,0.09132114052772522
1789221662966285000,0.09628515625,-0.04641302675008774,0.005905814468860626,0.10709250718355179
1789221662976364000,0.106364013671875,-0.05707312747836113,0.016236484050750732,0.11674433201551437
1789221662986443000,0.116443115234375,-0.062028151005506516,0.02805805765092373,0.11488218605518341
1789221662996522200,0.126522216796875,-0.0593269057571888,0.02939549647271633,0.10444392263889313
1789221663006602000,0.13660205078125,-0.06547220051288605,0.03836832195520401,0.09971323609352112
1789221663016681200,0.14668115234375,-0.07483454793691635,0.038811467587947845,0.10963217914104462
1789221663026760200,0.15676025390625,-0.090400829911232,0.057001613080501556,0.12697647511959076
1789221663036839000,0.1668388671875,-0.11744203418493271,0.08343082666397095,0.15122509002685547
1789221663046919200,0.176919189453125,-0.1468745917081833,0.10488403588533401,0.19169649481773376
1789221663056998000,0.186997802734375,-0.16567784547805786,0.13980047404766083,0.22565898299217224
1789221663067077000,0.1970771484375,-0.16754542291164398,0.1615566909313202,0.26558518409729004
1789221663077156000,0.207156005859375,-0.17203737795352936,0.17794205248355865,0.30497679114341736
1789221663087236000,0.217236083984375,-0.17195992171764374,0.2291213721036911,0.3368492126464844
1789221663097315000,0.227315185546875,-0.1604396253824234,0.30409201979637146,0.3580860495567322
1789221663107394000,0.23739404296875,-0.13967666029930115,0.3873828649520874,0.36980509757995605
1789221663117473000,0.24747314453125,-0.10950836539268494,0.3771882653236389,0.36525535583496094
1789221663127553000,0.257552978515625,-0.07237239927053452,0.32631930708885193,0.3543524146080017
1789221663137632300,0.26763232421875,-0.053714558482170105,0.2512514293193817,0.329485148191452
1789221663147711200,0.277711181640625,-0.04373164847493172,0.17647990584373474,0.3204723000526428
1789221663157790200,0.287790283203125,-0.014085340313613415,0.02617190033197403,0.3467097878456116
1789221663167870200,0.2978701171875,0.0364639088511467,-0.1240328922867775,0.38371041417121887
1789221663177949200,0.30794921875,0.04724358767271042,-0.17439433932304382,0.43031227588653564
1789221663188028400,0.3180283203125,0.02269754745066166,-0.1610686033964157,0.48762834072113037
1789221663198107100,0.328107177734375,0.07435062527656555,-0.2468082755804062,0.5331047177314758
1789221663208187400,0.3381875,0.05617353692650795,-0.19236724078655243,0.670417845249176
1789221663218266400,0.348266357421875,0.013414887711405754,-0.07337533682584763,0.8170062303543091
1789221663228345000,0.358344970703125,-0.017051303759217262,0.044148415327072144,0.8795855045318604
1789221663238424300,0.36842431640625,-0.03803381696343422,0.047469913959503174,0.9112874865531921
1789221663248504000,0.378504150390625,-0.07114452123641968,0.06110747903585434,0.9727465510368347
1789221663258583300,0.388583251953125,-0.11803160607814789,0.13143835961818695,1.025783658027649
1789221663268662300,0.398662353515625,-0.2186252772808075,0.23440271615982056,1.043576955795288
1789221663278741200,0.4087412109375,-0.3548470437526703,0.3061826527118683,1.0358577966690063
1789221663288821200,0.4188212890625,-0.46432119607925415,0.3821158707141876,0.9447175860404968
1789221663298900500,0.428900390625,-0.517903208732605,0.4170123338699341,0.8346286416053772
1789221663308979200,0.438979248046875,-0.5024997591972351,0.43153491616249084,0.8341315388679504
1789221663319058200,0.44905810546875,-0.4632039964199066,0.38099372386932373,0.8722102046012878
1789221663329137400,0.459137451171875,-0.4443478286266327,0.3322373032569885,0.8522392511367798
1789221663339217200,0.469217041015625,-0.43717485666275024,0.3449871838092804,0.8285608291625977
1789221663349296400,0.47929638671875,-0.41173067688941956,0.3927081227302551,0.7798565626144409
1789221663359375400,0.489375244140625,-0.37433508038520813,0.3969116806983948,0.6923901438713074
1789221663369455400,0.499455322265625,-0.28634440898895264,0.3477988541126251,0.587451696395874
1789221663379534300,0.509534423828125,-0.17045320570468903,0.30444952845573425,0.4623947739601135
1789221663389613000,0.519613037109375,-0.09387071430683136,0.42823606729507446,0.26978933811187744
1789221663399692300,0.5296923828125,0.08030454814434052,0.37903016805648804,0.1613989621400833
1789221663409772000,0.53977197265625,0.06994517147541046,0.178322434425354,0.28177526593208313
1789221663419851300,0.549851318359375,-0.011544098146259785,0.06633678823709488,0.4111865162849426
1789221663429930200,0.55993017578125,-0.0682532861828804,-0.041785828769207,0.4851329028606415
1789221663440009500,0.570009521484375,-0.09486865252256393,-0.22610187530517578,0.5908854007720947
1789221663450088200,0.580088134765625,-0.1100618839263916,-0.25754913687705994,0.6443427801132202
1789221663460168400,0.59016845703125,-0.14711150527000427,-0.15142564475536346,0.7171714305877686
1789221663470247200,0.6002470703125,-0.13381418585777283,-0.15264800190925598,0.7896376252174377
1789221663480326100,0.610326171875,-0.08937162160873413,-0.20993098616600037,0.915805459022522
1789221663490405400,0.6204052734375,-0.05329484865069389,-0.19580185413360596,1.0539110898971558
1789221663500485000,0.630485107421875,-0.027693668380379677,-0.17677399516105652,1.158239483833313
1789221663510564400,0.640564453125,-0.008482259698212147,-0.14268043637275696,1.175085186958313
1789221663520643300,0.650643310546875,-0.11153673380613327,-0.07123234868049622,1.1335276365280151
1789221663530722000,0.66072216796875,-0.23967772722244263,-0.02208351343870163,1.1018669605255127
1789221663540802300,0.67080224609375,-0.27690204977989197,0.04309522360563278,1.1601576805114746
1789221663550881000,0.680881103515625,-0.2266232818365097,-0.08510106056928635,1.1396113634109497
1789221663560960300,0.690960205078125,-0.24455194175243378,-0.31008225679397583,1.048599123954773
1789221663571039200,0.701039306640625,-0.338868111371994,-0.4184798002243042,0.8461877107620239
1789221663581119200,0.711119140625,-0.5559862852096558,-0.5103902816772461,0.4436386823654175
1789221663591198200,0.7211982421875,-0.7404437065124512,-0.365202933549881,0.12548820674419403
1789221663601277400,0.73127734375,-0.7187448143959045,0.04082686826586723,0.171980082988739
1789221663611356200,0.741356201171875,-0.5699183344841003,0.22820644080638885,0.20904973149299622
1789221663621436400,0.7514365234375,-0.39326927065849304,0.10352655500173569,0.21652628481388092
1789221663631515400,0.761515380859375,-0.37329304218292236,-0.036563560366630554,0.2791920602321625
1789221663641594000,0.771593994140625,-0.3743412494659424,-0.08688132464885712,0.30647188425064087
1789221663651673300,0.78167333984375,-0.3874070346355438,-0.021368172019720078,0.28549516201019287
1789221663661753000,0.791753173828125,-0.37404170632362366,0.07171623408794403,0.23831087350845337
1789221663671832300,0.801832275390625,-0.3947261571884155,0.04109838604927063,0.1907375007867813
1789221663681911300,0.811911376953125,-0.4023619592189789,0.0008010282181203365,0.2095106542110443
1789221663691990000,0.821989990234375,-0.3521466553211212,-0.07422114163637161,0.28175634145736694
1789221663702070300,0.8320703125,-0.3890010714530945,-0.09101157635450363,0.37182098627090454
1789221663712149200,0.842149169921875,-0.34235620498657227,-0.025892794132232666,0.3899148106575012
1789221663722228200,0.852228271484375,-0.24581289291381836,-0.04692137986421585,0.38919416069984436
1789221663732307200,0.86230712890625,-0.12077908217906952,0.0010787206701934338,0.46977731585502625
1789221663742387200,0.87238720703125,-0.010146043263375759,-0.008130490779876709,0.5167317986488342
1789221663752466200,0.882466064453125,0.19067755341529846,-0.019369982182979584,0.5379195213317871
1789221663762545400,0.89254541015625,0.42128756642341614,-0.03125407174229622,0.4534462094306946
1789221663772624100,0.9026240234375,0.4589765965938568,0.02773442305624485,0.2746044099330902
1789221663782704400,0.912704345703125,0.3747099041938782,0.18988098204135895,0.1301926076412201
1789221663792783400,0.922783447265625,0.2673337161540985,0.31529107689857483,0.12812867760658264
1789221663802862000,0.932862060546875,0.18711744248867035,0.38141897320747375,0.2088024765253067
1789221663812941300,0.94294140625,0.03459181636571884,0.43092384934425354,0.2778531610965729
1789221663823021000,0.95302099609375,0.006328484509140253,0.515053927898407,0.24778205156326294
1789221663833100300,0.963100341796875,-0.05398087576031685,0.4258823096752167,0.1646430343389511
1789221663843179300,0.97317919921875,-0.02690771408379078,0.3992786407470703,0.14788402616977692
1789221663853258500,0.983258544921875,0.002622803207486868,0.2566952109336853,0.11451054364442825
1789221663863338200,0.993338134765625,0.05446656048297882,0.1338353306055069,0.05907604843378067
1789221663873417200,1.003417236328125,0.185185045003891,0.05532103031873703,-0.059649474918842316
1789221663883496200,1.01349609375,0.2974833548069,-0.005203833803534508,-0.23779870569705963
1789221663893575200,1.0235751953125,0.31562480330467224,-0.009099590592086315,-0.44939449429512024
1789221663903655200,1.0336552734375,0.27086585760116577,0.046426787972450256,-0.5685786604881287
1789221663913734100,1.043734130859375,0.20272666215896606,0.023819327354431152,-0.4738682508468628
1789221663923813400,1.0538134765625,0.15514422953128815,-0.03255872428417206,-0.2752249538898468
1789221663933892400,1.063892333984375,0.1123732179403305,-0.09106123447418213,-0.13565313816070557
1789221663943972400,1.073972412109375,0.09415613114833832,-0.05813630670309067,-0.07146324217319489
1789221663954051300,1.08405126953125,0.10264457762241364,-0.023133017122745514,-0.07485374808311462
1789221663964130000,1.094130126953125,0.04147416725754738,0.006612627767026424,-0.1590155065059662
1789221663974209300,1.104209228515625,0.04892371967434883,0.05344453454017639,-0.15492083132266998
1789221663984289300,1.114289306640625,0.09982791543006897,0.003316383808851242,-0.11824856698513031
1789221663994368300,1.1243681640625,0.14898821711540222,0.03564423695206642,0.017002565786242485
1789221664004447200,1.134447265625,0.130437433719635,0.10218304395675659,0.12630082666873932
1789221664014526500,1.1445263671875,0.09004207700490952,0.19692963361740112,0.1060589924454689
1789221664024606200,1.154606201171875,0.040343765169382095,0.20246288180351257,0.026622219011187553
1789221664034685400,1.164685546875,-0.006525744684040546,0.20835459232330322,-0.11703307181596756
1789221664044764200,1.17476416015625,-0.04396233335137367,0.11119315773248672,-0.2713414430618286
1789221664054843100,1.184843017578125,-0.0668950229883194,0.004757236689329147,-0.297435998916626
1789221664064923400,1.19492333984375,-0.1036522388458252,-0.09644394367933273,-0.3361210823059082
1789221664075002000,1.205002197265625,-0.14948779344558716,-0.09867028892040253,-0.41554951667785645
1789221664085081300,1.215081298828125,-0.09462055563926697,-0.05018318444490433,-0.44090092182159424
1789221664095160300,1.225160400390625,-0.045105837285518646,0.07507161796092987,-0.4704053997993469
1789221664105240300,1.235240234375,0.025604018941521645,0.19780738651752472,-0.5083602070808411
1789221664115319300,1.2453193359375,0.08798206597566605,0.1966279000043869,-0.4293883144855499
1789221664125398300,1.255398193359375,0.10278844833374023,0.17780707776546478,-0.3264837861061096
1789221664135477200,1.265477294921875,0.0832795649766922,0.1366797685623169,-0.21868622303009033
1789221664145557500,1.2755576171875,0.057077787816524506,0.1195622980594635,-0.15004831552505493
1789221664155636200,1.28563623046875,0.02705213613808155,0.11664023250341415,-0.13514147698879242
1789221664165715500,1.295715576171875,-0.036710865795612335,0.15312206745147705,-0.15509840846061707
1789221664175794400,1.30579443359375,-0.013686557300388813,0.1648576557636261,-0.19730296730995178
1789221664185873200,1.315873046875,0.037480756640434265,0.1426871120929718,-0.14281202852725983
1789221664195953400,1.325953369140625,-0.02292921021580696,0.1112993136048317,-0.08938539028167725
1789221664206032400,1.336032470703125,-0.010600906796753407,0.03064734861254692,0.058159057050943375
1789221664216111400,1.346111328125,-0.06888286024332047,0.02198551595211029,0.14179688692092896
1789221664226191400,1.35619140625,-0.12219375371932983,-0.051822662353515625,0.15971755981445312
1789221664236270300,1.366270263671875,-0.24719209969043732,-0.10514511168003082,0.15431877970695496
1789221664246349300,1.376349365234375,-0.33009815216064453,-0.24507105350494385,0.15733879804611206
1789221664256428300,1.38642822265625,-0.4499088227748871,-0.15858131647109985,0.20500460267066956
1789221664266507300,1.39650732421875,-0.5399566888809204,-0.13161708414554596,0.16674457490444183
1789221664276587300,1.406587158203125,-0.551638126373291,-0.039106763899326324,0.10780471563339233
1789221664286666500,1.41666650390625,-0.502856433391571,-0.012105507776141167,0.07694613933563232
1789221664296745200,1.4267451171875,-0.35622772574424744,-0.002215826418250799,0.11444474011659622
1789221664306824400,1.436824462890625,-0.23926247656345367,-0.0011108811013400555,0.16366901993751526
1789221664316904200,1.446904296875,-0.18773995339870453,0.014013678766787052,0.21901783347129822
1789221664326983400,1.4569833984375,-0.06313996016979218,0.06070448458194733,0.19839298725128174
1789221664337062400,1.4670625,0.04593097046017647,0.01367860846221447,0.13902781903743744
1789221664347141400,1.477141357421875,0.09336906671524048,-0.0020774509757757187,0.17213810980319977
1789221664357221400,1.487221435546875,0.08177823573350906,0.019668133929371834,0.2128981053829193
1789221664367300400,1.49730029296875,0.03302134945988655,-0.03676052391529083,0.21867451071739197
1789221664377379300,1.50737939453125,-0.006715249735862017,-0.06676232814788818,0.1518389880657196
1789221664387458300,1.517458251953125,-0.008444706909358501,-0.07064441591501236,0.057116735726594925
1789221664397538300,1.527538330078125,0.00048748336848802865,-0.08308961987495422,0.0005642238538712263
1789221664407617300,1.5376171875,0.05201618745923042,-0.07840059697628021,-0.010737964883446693
1789221664417696300,1.5476962890625,0.1007329672574997,-0.06831150501966476,0.003585086204111576
1789221664427775500,1.557775390625,0.14376990497112274,-0.06715808808803558,0.03151578828692436
1789221664437855200,1.567855224609375,0.1683574914932251,-0.05019781365990639,0.05208798125386238
1789221664447934500,1.5779345703125,0.16108493506908417,-0.0580807700753212,0.037908513098955154
1789221664458013200,1.58801318359375,0.15250641107559204,-0.06013462692499161,0.02471109665930271
1789221664468092400,1.598092529296875,0.17042282223701477,-0.044717855751514435,0.07198406755924225
1789221664478172400,1.60817236328125,0.2112366110086441,-0.035345930606126785,0.1361837238073349
1789221664488251400,1.61825146484375,0.26136717200279236,-0.003063626354560256,0.15878304839134216
1789221664498330400,1.628330322265625,0.26827341318130493,0.0050421953201293945,0.16006311774253845
1789221664508409300,1.638409423828125,0.24182580411434174,0.013487078249454498,0.14902964234352112
1789221664518489300,1.6484892578125,0.20334728062152863,-0.015223003923892975,0.05963399261236191
1789221664528568300,1.658568359375,0.12149528414011002,-0.01332843117415905,-0.017582232132554054
1789221664538647300,1.668647216796875,0.012848968617618084,-0.0044571757316589355,-0.04443967714905739
1789221664548726300,1.678726318359375,-0.04101772606372833,0.017933085560798645,-0.04110300540924072
1789221664558806500,1.688806640625,-0.05899246037006378,0.005935092456638813,-0.07365971803665161
1789221664568885200,1.69888525390625,-0.07233249396085739,0.017761923372745514,-0.12013161182403564
1789221664578964200,1.708964111328125,-0.060427431017160416,0.03524897247552872,-0.1413547843694687
1789221664589043500,1.71904345703125,-0.028174949809908867,0.05964725837111473,-0.09304691106081009
1789221664599123200,1.729123291015625,-0.03574242442846298,0.060654670000076294,-0.029476014897227287
1789221664609202400,1.739202392578125,-0.06810728460550308,0.05977422744035721,0.028609124943614006
1789221664619281400,1.749281494140625,-0.033768124878406525,0.05710012838244438,0.06805072724819183
1789221664629360400,1.7593603515625,0.004095900803804398,0.020467016845941544,0.08683932572603226
1789221664639440400,1.7694404296875,0.01212150976061821,0.004488510079681873,0.03568589314818382
1789221664649519400,1.779519287109375,-0.004687830340117216,-0.02883429080247879,-0.02672821655869484
1789221664659598300,1.789598388671875,-0.0033173197880387306,-0.04038407653570175,-0.025863418355584145
1789221664669677300,1.79967724609375,-0.024296903982758522,-0.07754795998334885,0.015583091415464878
1789221664679757300,1.80975732421875,-0.026927947998046875,-0.10099244117736816,-0.00393840204924345
1789221664689836300,1.819836181640625,0.035590026527643204,-0.0927203968167305,-0.09395138174295425
1789221664699915500,1.82991552734375,0.1660224348306656,-0.07309869676828384,-0.27330347895622253
1789221664709994200,1.839994140625,0.19312462210655212,-0.10690353065729141,-0.410563588142395
1789221664720074500,1.850074462890625,0.11790294945240021,-0.12349754571914673,-0.4469274580478668
1789221664730153200,1.8601533203125,0.059221792966127396,-0.13270702958106995,-0.3643377721309662
1789221664740232200,1.870232177734375,0.05575675889849663,-0.16298308968544006,-0.21182717382907867
1789221664750311400,1.8803115234375,0.10452084243297577,-0.15230408310890198,-0.0827043429017067
1789221664760391200,1.89039111328125,0.11651996523141861,-0.12849061191082,-0.03361228108406067
1789221664770470400,1.900470458984375,-0.02175348438322544,-0.14571887254714966,-0.04560422897338867
1789221664780549400,1.91054931640625,-0.0860581174492836,-0.17417432367801666,-0.04891084134578705
1789221664790628400,1.92062841796875,-0.05999056622385979,-0.18715298175811768,-0.10916725546121597
1789221664800708400,1.930708251953125,-0.04395146295428276,-0.3399645984172821,-0.31731006503105164
1789221664810787300,1.940787353515625,-0.014829264022409916,-0.41582128405570984,-0.37238451838493347
1789221664820866300,1.9508662109375,0.020625781267881393,-0.40037801861763,-0.30872637033462524
1789221664830945300,1.9609453125,0.037122998386621475,-0.2341861128807068,-0.1434606909751892
1789221664841025300,1.971025390625,0.03928244113922119,-0.151198148727417,0.00006200955249369144
1789221664851104300,1.981104248046875,-0.058840133249759674,-0.04418168216943741,0.10698738694190979
1789221664861183500,1.99118359375,-0.1659088432788849,0.007076445966959,0.1634819209575653
1789221664871262200,2.00126220703125,-0.15750497579574585,-0.040668703615665436,0.15585356950759888
1789221664881342500,2.011342529296875,-0.08576420694589615,-0.09663112461566925,0.12409946322441101
1789221664891421400,2.02142138671875,-0.11460410803556442,-0.06658054888248444,0.22143401205539703
1789221664901500200,2.031500244140625,-0.15571042895317078,-0.03410378098487854,0.2956903278827667
1789221664911579400,2.041579345703125,-0.1311182677745819,-0.06606597453355789,0.2387671321630478
1789221664921659100,2.0516591796875,-0.10139728337526321,-0.10562920570373535,0.085364930331707
1789221664931738400,2.06173828125,-0.04080105200409889,-0.1570758819580078,-0.08401717245578766
1789221664941817300,2.0718173828125,0.1559356153011322,-0.20745079219341278,-0.1523786336183548
1789221664951896300,2.081896240234375,0.38880133628845215,-0.09981220215559006,-0.1363285630941391
1789221664961976300,2.091976318359375,0.5392095446586609,0.0384179949760437,-0.1311250478029251
1789221664972055600,2.1020556640625,0.5374385714530945,0.21674832701683044,-0.0768948346376419
1789221664982134300,2.11213427734375,0.4191366136074066,0.23261474072933197,-0.05275724455714226
1789221664992213200,2.122213134765625,0.3387776017189026,0.13373157382011414,0.012113897129893303
1789221665002293200,2.132293212890625,0.30938923358917236,0.09347259998321533,0.05215714871883392
1789221665012372200,2.142372314453125,0.24287332594394684,0.0108126075938344,0.06967249512672424
1789221665022451500,2.152451416015625,0.15102584660053253,-0.08165248483419418,0.05678439885377884
1789221665032530400,2.162530517578125,0.05135039612650871,-0.21627101302146912,-0.0005958008114248514
1789221665042610400,2.1726103515625,0.02801055647432804,-0.31882244348526,-0.07950416207313538
1789221665052689400,2.182689453125,0.03645144775509834,-0.252469003200531,-0.09545809775590897
1789221665062768000,2.19276806640625,0.1002320870757103,-0.1383238136768341,0.022688928991556168
1789221665072848400,2.202848388671875,0.22735008597373962,-0.137058287858963,0.17368723452091217
1789221665082927000,2.212927001953125,0.3178626298904419,-0.12368856370449066,0.2881206274032593
1789221665093006300,2.22300634765625,0.3778380751609802,-0.14908872544765472,0.3625229597091675
1789221665103085300,2.233085205078125,0.5016396641731262,-0.23065735399723053,0.364951491355896
1789221665113164500,2.24316455078125,0.7360577583312988,-0.10968832671642303,0.38981980085372925
1789221665123244300,2.253244384765625,0.5589675903320312,-0.2413562387228012,0.31403452157974243
1789221665133323500,2.263323486328125,0.41254910826683044,-0.14751896262168884,0.26598525047302246
1789221665143402200,2.27340234375,0.3306889235973358,-0.07413716614246368,0.23575973510742188
1789221665153482500,2.283482421875,0.35190287232398987,-0.19763727486133575,0.16678892076015472
1789221665163561500,2.2935615234375,0.5069575309753418,-0.2078815996646881,0.12406403571367264
1789221665173640400,2.303640380859375,0.5944458246231079,-0.11573703587055206,0.09557806700468063
1789221665183719400,2.313719482421875,0.6578854918479919,-0.04007740691304207,0.04055607691407204
1789221665193799400,2.32379931640625,0.6589102745056152,0.11348498612642288,-0.0013367796782404184
1789221665203878400,2.33387841796875,0.6693827509880066,0.233939990401268,-0.047448042780160904
1789221665213957400,2.343957275390625,0.6524698138237,0.2637426555156708,-0.11776720732450485
1789221665224036400,2.354036376953125,0.6152629256248474,0.12338992953300476,-0.12105569988489151
1789221665234116400,2.364116455078125,0.5926675796508789,0.017385728657245636,-0.12297184020280838
1789221665244195600,2.374195556640625,0.570759654045105,0.012091771699488163,-0.16381195187568665
1789221665254274300,2.3842744140625,0.577022910118103,0.1035979837179184,-0.20856158435344696
1789221665264353300,2.394353271484375,0.5567676424980164,0.14342977106571198,-0.24243800342082977
1789221665274433300,2.404433349609375,0.533864438533783,0.1259320080280304,-0.29527750611305237
1789221665284512300,2.41451220703125,0.4209907650947571,0.03679656982421875,-0.34105435013771057
1789221665294591500,2.424591552734375,0.296142578125,-0.0019212649203836918,-0.4314228594303131
1789221665304670200,2.434670166015625,0.16521720588207245,-0.013803631998598576,-0.47607821226119995
1789221665314750500,2.44475048828125,0.07854169607162476,-0.030484074726700783,-0.46113255620002747
1789221665324829400,2.454829345703125,0.014872662723064423,-0.05594246834516525,-0.546650767326355
1789221665334908400,2.464908447265625,-0.01751590333878994,-0.008284933865070343,-0.5669994354248047
1789221665344987400,2.4749873046875,-0.08569496870040894,-0.05360783636569977,-0.5306649208068848
1789221665355067400,2.4850673828125,-0.11516258120536804,-0.03368845582008362,-0.5259737968444824
1789221665365146400,2.495146484375,-0.14222528040409088,0.005530370399355888,-0.511440634727478
1789221665375225300,2.505225341796875,-0.2441423237323761,0.1078663319349289,-0.4806544780731201
1789221665385304600,2.5153046875,-0.3149077892303467,0.076337069272995,-0.4919988811016083
1789221665395384300,2.52538427734375,-0.3538924753665924,0.004707358777523041,-0.4578923285007477
1789221665405463600,2.535463623046875,-0.2123325914144516,-0.04239094257354736,-0.4344745874404907
1789221665415542300,2.545542236328125,-0.1552080512046814,-0.05332641676068306,-0.4228685200214386
1789221665425621200,2.555621337890625,-0.07936163991689682,-0.046303972601890564,-0.32403364777565
1789221665435701200,2.565701171875,-0.006297286134213209,-0.0530787855386734,-0.2171330451965332
1789221665445780200,2.5757802734375,0.04614434391260147,-0.07684224843978882,-0.04988296329975128
1789221665455859500,2.585859375,0.029930485412478447,-0.11934444308280945,0.026295695453882217
1789221665465938400,2.5959384765625,0.024883700534701347,-0.15062955021858215,0.017889289185404778
1789221665476018400,2.606018310546875,0.025151347741484642,-0.14202220737934113,0.013651934452354908
1789221665486097400,2.616097412109375,0.02681565098464489,-0.1417897343635559,-0.019676808267831802
1789221665496176400,2.62617626953125,0.02644680254161358,-0.14269068837165833,-0.027999453246593475
1789221665506255400,2.63625537109375,0.0014319508336484432,-0.0898558646440506,-0.02151344157755375
1789221665516335400,2.64633544921875,-0.06701795011758804,-0.12067316472530365,-0.05478910356760025
1789221665526414300,2.656414306640625,-0.16671156883239746,-0.23715777695178986,-0.012834119610488415
1789221665536493300,2.666493408203125,-0.19372907280921936,-0.2728766202926636,0.04298653453588486
1789221665546572500,2.676572509765625,-0.1508224606513977,-0.2697664797306061,0.07741761207580566
1789221665556652300,2.68665234375,-0.06292562186717987,-0.21357083320617676,0.11354684829711914
1789221665566731500,2.6967314453125,-0.0008257181034423411,-0.17853021621704102,0.06736131012439728
1789221665576810200,2.706810302734375,0.04356997460126877,-0.1892678141593933,0.025581378489732742
1789221665586889200,2.71688916015625,0.049302808940410614,-0.18315155804157257,0.06524617224931717
1789221665596969500,2.726969482421875,0.020130274817347527,-0.19455201923847198,0.10319515317678452
1789221665607048200,2.737048095703125,-0.038133833557367325,-0.17377260327339172,0.10322529822587967
1789221665617127400,2.74712744140625,-0.10103797167539597,-0.16751018166542053,0.033037688583135605
1789221665627207200,2.757207275390625,-0.11986726522445679,-0.14269183576107025,-0.008443109691143036
1789221665637286400,2.767286376953125,-0.13362514972686768,-0.1173502653837204,0.024845870211720467
1789221665647365400,2.777365478515625,-0.14916831254959106,-0.10393383353948593,0.044537972658872604
1789221665657444400,2.7874443359375,-0.1591988503932953,-0.06461519747972488,0.02892146445810795
1789221665667524400,2.7975244140625,-0.16819970309734344,-0.04968243092298508,-0.007236402481794357
1789221665677603600,2.807603515625,-0.17730584740638733,0.007655163295567036,-0.08547394722700119
1789221665687682300,2.817682373046875,-0.15294203162193298,0.0486944280564785,-0.09074508398771286
1789221665697761300,2.82776123046875,-0.07072384655475616,0.11972146481275558,0.010842523537576199
1789221665707841300,2.83784130859375,-0.10108830034732819,0.1605139523744583,0.11404421925544739
1789221665717920300,2.847920166015625,-0.21911534667015076,0.2939811944961548,0.23173463344573975
1789221665727999500,2.85799951171875,-0.2701333463191986,0.24772684276103973,0.20529334247112274
1789221665738078500,2.868078369140625,-0.2981007993221283,0.2555956542491913,0.12634606659412384
1789221665748158500,2.878158447265625,-0.35167592763900757,0.29668542742729187,0.07764939963817596
1789221665758237400,2.888237548828125,-0.39126408100128174,0.2815954089164734,0.04728750139474869
1789221665768316200,2.898316162109375,-0.3954930901527405,0.24520550668239594,0.05786125361919403
1789221665778395400,2.9083955078125,-0.39041924476623535,0.189836785197258,0.09679827094078064
1789221665788475400,2.918475341796875,-0.4083234369754791,0.16858673095703125,0.12329328805208206
1789221665798554400,2.928554443359375,-0.43738704919815063,0.15931174159049988,0.1700647920370102
1789221665808633300,2.93863330078125,-0.4492620825767517,0.11997038125991821,0.2849549651145935
1789221665818712600,2.948712646484375,-0.4716041386127472,0.06910640001296997,0.44461360573768616
1789221665828792300,2.958792236328125,-0.3771551251411438,-0.025975201278924942,0.525815486907959
1789221665838871600,2.96887158203125,-0.17712165415287018,-0.0920381098985672,0.5469268560409546
1789221665848950300,2.9789501953125,-0.12885937094688416,-0.04730915650725365,0.548862874507904
1789221665859029200,2.989029296875,-0.24226155877113342,0.03464669734239578,0.363331139087677
1789221665869109500,2.999109619140625,-0.28308728337287903,0.05712244287133217,0.19319932162761688
1789221665879188200,3.009188232421875,-0.23014391958713531,0.05234153941273689,0.054120540618896484
1789221665889267500,3.019267333984375,-0.1480361521244049,0.05670243129134178,-0.06708787381649017
1789221665899346400,3.029346435546875,-0.10683092474937439,0.03323625400662422,-0.13462084531784058
1789221665909426400,3.039426513671875,-0.07559976726770401,0.03291400894522667,-0.10328368842601776
1789221665919505400,3.04950537109375,-0.03981886804103851,0.03027508407831192,-0.05778118595480919
1789221665929584400,3.05958447265625,-0.02003471553325653,0.031223498284816742,-0.03140531852841377
1789221665939664400,3.069664306640625,-0.028368279337882996,0.04228760302066803,-0.03741047903895378
1789221665949743400,3.079743408203125,-0.028752470389008522,0.061307333409786224,-0.023274648934602737
1789221665959822300,3.089822265625,-0.013193751685321331,0.07274588197469711,0.0035716129932552576
1789221665969901300,3.0999013671875,0.0033635415602475405,0.08839882165193558,0.016463767737150192
1789221665979981300,3.109981201171875,0.004807241261005402,0.0956554040312767,0.004904318600893021
1789221665990060300,3.120060302734375,0.008345036767423153,0.09528973698616028,0.005221521016210318
1789221666000139500,3.130139404296875,0.012429527007043362,0.10368402302265167,0.011791273020207882
1789221666010218500,3.140218505859375,0.01816118136048317,0.10949743539094925,0.0068604303523898125
1789221666020298500,3.150298583984375,0.017220553010702133,0.11591938138008118,0.0025498378090560436
1789221666030377500,3.16037744140625,0.01632823795080185,0.11125810444355011,0.009771205484867096
1789221666040456200,3.170456298828125,0.015722103416919708,0.10552751272916794,0.014635469764471054
1789221666050535400,3.180535400390625,0.01808655820786953,0.09942014515399933,0.008779266849160194
1789221666060615400,3.190615478515625,0.02042960748076439,0.09790800511837006,0.00905064307153225
1789221666070694400,3.2006943359375,0.02085358090698719,0.09906727075576782,0.0050433846190571785
1789221666080773400,3.2107734375,0.025916043668985367,0.0891776904463768,0.006651589181274176
1789221666090852400,3.220852294921875,0.018888434395194054,0.07766105234622955,0.00532248429954052
1789221666100932400,3.230932373046875,0.009142597205936909,0.07346764206886292,0.004028720315545797
1789221666111011300,3.24101123046875,0.011592713184654713,0.06454293429851532,0.005677118431776762
1789221666121090300,3.25109033203125,0.01004328578710556,0.06376076489686966,0.0062070875428617
1789221666131169300,3.261169189453125,0.006319010630249977,0.05738697201013565,0.005351739935576916
1789221666141249300,3.271249267578125,0.007725425995886326,0.043207235634326935,0.003481667721644044
1789221666151328300,3.281328369140625,0.000848127412609756,0.03363964334130287,0.001056928071193397
1789221666161407200,3.2914072265625,-0.0032265090849250555,0.028171107172966003,0.003482268890365958
1789221666171486200,3.301486328125,-0.007416500244289637,0.02431352064013481,0.0026647767517715693
1789221666181566200,3.311566162109375,-0.009588840417563915,0.02100321277976036,0.002035737968981266
1789221666191645200,3.321645263671875,-0.014551528729498386,0.011021995916962624,0.00016134398174472153
1789221666201724400,3.331724365234375,-0.013392787426710129,0.0023925555869936943,0.0007001014892011881
1789221666211803100,3.34180322265625,-0.016379158943891525,-0.008478137664496899,0.003123136702924967
1789221666221883400,3.35188330078125,-0.019936343654990196,-0.013157311826944351,0.002159871393814683
1789221666231962000,3.361962158203125,-0.024480236694216728,-0.016873832792043686,-0.0008627172792330384
1789221666242041000,3.372041015625,-0.03026888333261013,-0.019917558878660202,0.000002543732989579439
1789221666252121000,3.38212109375,-0.03344794735312462,-0.026494845747947693,0.00022378333960659802
1789221666262200000,3.392199951171875,-0.03586450219154358,-0.033004410564899445,-0.0012420204002410173
1789221666272279300,3.402279296875,-0.0337945893406868,-0.03582765907049179,-0.0024816824588924646
1789221666282358300,3.412358154296875,-0.034193530678749084,-0.035728324204683304,-0.0005085463635623455
1789221666292438300,3.422438232421875,-0.03669503703713417,-0.03583378344774246,0.00003154273144900799
1789221666302517200,3.432517333984375,-0.03618903458118439,-0.03533950448036194,-0.0029533281922340393
1789221666312596200,3.44259619140625,-0.038911428302526474,-0.03480248153209686,0.0022060235496610403
1789221666322675200,3.45267529296875,-0.03651617839932442,-0.028131529688835144,0.000360719277523458
1789221666332755200,3.462755126953125,-0.03218076750636101,-0.019953511655330658,0.0014244054909795523
1789221666342834200,3.472834228515625,-0.03163188695907593,-0.01690605655312538,0.001890458632260561
1789221666352913200,3.4829130859375,-0.028843345120549202,-0.015315600670874119,0.002192707732319832
1789221666362992400,3.492992431640625,-0.028629226610064507,-0.006602004170417786,0.0004046614340040833
1789221666373072100,3.503072021484375,-0.024382606148719788,-0.00363513408228755,0.0036135336849838495
1789221666383151400,3.5131513671875,-0.01953192427754402,0.004034503363072872,0.004644176922738552
1789221666393230000,3.52322998046875,-0.019577885046601295,0.014237121678888798,0.006008721422404051
1789221666403309000,3.53330908203125,-0.01582415960729122,0.02246469259262085,0.004446777515113354
1789221666413389300,3.543389404296875,-0.016117215156555176,0.026840923354029655,0.002578313695266843
1789221666423468000,3.553468017578125,-0.012007159180939198,0.028893953189253807,0.006710208021104336
1789221666433547300,3.56354736328125,-0.006554860156029463,0.030164092779159546,0.009753035381436348
1789221666443626200,3.573626220703125,-0.013167222961783409,0.02996169403195381,-0.000050059985369443893
1789221666453706200,3.583706298828125,-0.012544206343591213,0.0033827824518084526,0.004107174929231405
1789221666463785200,3.59378515625,-0.0355864092707634,-0.013776496984064579,0.01823178119957447
1789221666473864200,3.6038642578125,-0.026030132547020912,-0.040961090475320816,-0.0028865826316177845
1789221666483943200,3.613943115234375,-0.03932223841547966,-0.030470632016658783,0.0030693109147250652
1789221666494023400,3.6240234375,-0.017766395583748817,-0.04665730893611908,-0.020562268793582916
1789221666504102100,3.63410205078125,-0.03446707874536514,-0.03163947910070419,0.003579818643629551
1789221666514181000,3.64418115234375,-0.02027466706931591,-0.05860652029514313,-0.03091316670179367
1789221666524261000,3.65426123046875,-0.04279675707221031,-0.08431561291217804,0.003010977292433381
1789221666534340000,3.664340087890625,-0.023416459560394287,-0.10463026911020279,0.006026554852724075
1789221666544419300,3.67441943359375,-0.05747535824775696,-0.11022024601697922,-0.013509063981473446
1789221666554498300,3.684498291015625,-0.025440938770771027,-0.10411079227924347,-0.008740170858800411
1789221666564578300,3.694578369140625,-0.038367122411727905,-0.11429125815629959,-0.017681466415524483
1789221666574657300,3.7046572265625,-0.05392877757549286,-0.12746982276439667,0.0016336905537173152
1789221666584736000,3.714736083984375,-0.04117303341627121,-0.1442061960697174,-0.029303187504410744
1789221666594815200,3.724815185546875,-0.047885846346616745,-0.1567443311214447,0.0020171659998595715
1789221666604895200,3.734895263671875,-0.0332440547645092,-0.16500306129455566,-0.026763083413243294
1789221666614974200,3.74497412109375,-0.05388972908258438,-0.1629818081855774,-0.012879562564194202
1789221666625053200,3.75505322265625,-0.050655853003263474,-0.17905238270759583,-0.02090020477771759
1789221666635132400,3.76513232421875,-0.04965173080563545,-0.17898991703987122,-0.02116386592388153
1789221666645212200,3.775212158203125,-0.04121297225356102,-0.18563157320022583,-0.005897296592593193
1789221666655291400,3.78529150390625,-0.03422855958342552,-0.17618730664253235,-0.022687247022986412
1789221666665370000,3.7953701171875,-0.04253016412258148,-0.17379792034626007,-0.016451722010970116
1789221666675449000,3.805448974609375,-0.03962813317775726,-0.1821756809949875,-0.027584383264183998
1789221666685529300,3.815529296875,-0.06839320808649063,-0.20721764862537384,-0.010578234679996967
1789221666695608000,3.825608154296875,-0.06722982227802277,-0.24890059232711792,-0.029348786920309067
1789221666705687300,3.835687255859375,-0.06568039208650589,-0.29905378818511963,-0.02444138005375862
1789221666715766300,3.845766357421875,-0.08209020644426346,-0.34222808480262756,-0.026087826117873192
1789221666725846300,3.85584619140625,-0.08625059574842453,-0.37155881524086,-0.04661121219396591
1789221666735925200,3.86592529296875,-0.10938739776611328,-0.3831758499145508,-0.025119952857494354
1789221666746004200,3.876004150390625,-0.10622622072696686,-0.383865088224411,-0.03698806092143059
1789221666756084200,3.886084228515625,-0.12537206709384918,-0.3949180245399475,-0.030453938990831375
1789221666766163200,3.8961630859375,-0.1222684234380722,-0.4306126534938812,-0.032551709562540054
1789221666776242200,3.9062421875,-0.13174904882907867,-0.46767914295196533,-0.02836102992296219
1789221666786321200,3.916321044921875,-0.1492987424135208,-0.5133009552955627,-0.030812203884124756
1789221666796401200,3.926401123046875,-0.1490081548690796,-0.5414954423904419,-0.04004301503300667
1789221666806480100,3.936480224609375,-0.15659523010253906,-0.5501200556755066,-0.0417221374809742
1789221666816559400,3.946559326171875,-0.14636416733264923,-0.5618486404418945,-0.05315988138318062
1789221666826638300,3.956638427734375,-0.14663048088550568,-0.5758829712867737,-0.03849438577890396
1789221666836718300,3.96671826171875,-0.1401091068983078,-0.5880569219589233,-0.029644832015037537
1789221666846797300,3.97679736328125,-0.12787321209907532,-0.5772194266319275,-0.02280716598033905
1789221666856876000,3.9868759765625,-0.11725687235593796,-0.5547989010810852,-0.03279437497258186
1789221666866955300,3.996955322265625,-0.11847367137670517,-0.5294389724731445,-0.034788284450769424
1789221666877035300,4.00703515625,-0.10979117453098297,-0.5238779187202454,-0.03512631729245186
1789221666887114200,4.0171142578125,-0.11373159289360046,-0.5291262269020081,-0.02250027284026146
1789221666897193200,4.027193115234375,-0.10532783716917038,-0.5355548858642578,-0.03570735827088356
1789221666907272200,4.037272216796875,-0.10424765944480896,-0.5369223952293396,-0.029844677075743675
1789221666917352200,4.047352294921875,-0.09727299213409424,-0.5382052063941956,-0.019838176667690277
1789221666927431200,4.05743115234375,-0.09139911830425262,-0.5251405239105225,-0.01110114436596632
1789221666937510100,4.06751025390625,-0.08756642043590546,-0.5095354318618774,-0.014648896642029285
1789221666947589000,4.077589111328125,-0.08104673773050308,-0.4853839874267578,-0.015879275277256966
1789221666957669400,4.08766943359375,-0.06207894906401634,-0.44962209463119507,-0.007866960018873215
1789221666967748000,4.097748046875,-0.048366330564022064,-0.418807715177536,-0.013752812519669533
1789221666977827300,4.107827392578125,-0.04177681729197502,-0.40268683433532715,-0.01819760724902153
1789221666987907000,4.117906982421875,-0.04658861830830574,-0.38577762246131897,-0.015145093202590942
1789221666997986300,4.127986328125,-0.04219350218772888,-0.38029393553733826,-0.014763954095542431
1789221667008065300,4.138065185546875,-0.030893176794052124,-0.3693222403526306,-0.0061004250310361385
1789221667018144300,4.148144287109375,-0.03264067322015762,-0.35581445693969727,-0.0072039044462144375
1789221667028224300,4.158224365234375,-0.024677559733390808,-0.3406783640384674,-0.0047724382020533085
1789221667038303200,4.16830322265625,-0.019324027001857758,-0.31611886620521545,-0.006113268900662661
1789221667048382200,4.17838232421875,-0.008655136451125145,-0.2873500883579254,-0.0023158672265708447
1789221667058461200,4.188461181640625,-0.00235766195692122,-0.25790560245513916,0.0008005230920389295
1789221667068541200,4.198541259765625,0.009359448216855526,-0.22072122991085052,0.00022794349933974445
1789221667078620200,4.2086201171875,0.022171538323163986,-0.1758590042591095,-0.004741720389574766
1789221667088699100,4.21869921875,0.03164706379175186,-0.13345961272716522,-0.0037305185105651617
1789221667098778400,4.2287783203125,0.052452415227890015,-0.09486914426088333,0.0021215914748609066
1789221667108858000,4.238858154296875,0.061238717287778854,-0.05969490855932236,-0.00027179133030585945
1789221667118937300,4.248937255859375,0.07650987058877945,-0.02971138060092926,0.0032949005253612995
1789221667129016000,4.25901611328125,0.08378110080957413,0.00176212377846241,0.00371940853074193
1789221667139095300,4.26909521484375,0.09289050102233887,0.03853610157966614,0.005503480322659016
1789221667149174800,4.2791748046875,0.10063151270151138,0.07506322115659714,0.0012400256237015128
1789221667159253500,4.28925341796875,0.1105009913444519,0.1056194007396698,0.0010848452802747488
1789221667169332500,4.29933251953125,0.12066467851400375,0.13613097369670868,-0.001768199261277914
1789221667179411700,4.30941162109375,0.1266554892063141,0.16352398693561554,0.0019361659651622176
1789221667189491500,4.319491455078125,0.13045209646224976,0.18697525560855865,0.00863321777433157
1789221667199570700,4.32957080078125,0.12773633003234863,0.20323513448238373,0.005162207409739494
1789221667209649700,4.339649658203125,0.12168269604444504,0.21141210198402405,0.0064900596626102924
1789221667219729700,4.349729736328125,0.11199240386486053,0.2014346867799759,0.014082209207117558
1789221667229808600,4.35980859375,0.09993920475244522,0.1683558225631714,0.009441650472581387
1789221667239887400,4.369887451171875,0.07283705472946167,0.12575581669807434,-0.0031696264632046223
1789221667249966600,4.379966552734375,0.05350543558597565,0.07446359843015671,-0.0047302390448749065
1789221667260046600,4.390046630859375,0.02909165434539318,0.030938778072595596,0.006363671272993088
1789221667270125600,4.40012548828125,0.01656201295554638,0.012723022140562534,-0.0010670807678252459
1789221667280204500,4.41020458984375,-0.0020394083112478256,-0.0015511643141508102,0.00205615209415555
1789221667290283800,4.42028369140625,-0.015501687303185463,-0.03155620023608208,0.00046810918138362467
1789221667300363500,4.430363525390625,-0.029781879857182503,-0.0845298245549202,-0.008464901708066463
1789221667310442800,4.44044287109375,-0.04287158325314522,-0.15705569088459015,-0.004189462400972843
1789221667320521500,4.450521484375,-0.060360562056303024,-0.22422221302986145,-0.0017073960043489933
1789221667330600400,4.460600341796875,-0.08491650223731995,-0.2688693106174469,-0.007282723672688007
1789221667340680700,4.4706806640625,-0.11404541879892349,-0.2932959794998169,-0.014095858670771122
1789221667350759400,4.480759521484375,-0.1361009180545807,-0.305992066860199,-0.010433745570480824
1789221667360838700,4.490838623046875,-0.14028513431549072,-0.3244616687297821,-0.010323429480195045
1789221667370917600,4.500917724609375,-0.1352352499961853,-0.3436031639575958,-0.011745557188987732
1789221667380997600,4.51099755859375,-0.12074188143014908,-0.3525570034980774,-0.00638151029124856
1789221667391076600,4.52107666015625,-0.12162205576896667,-0.34217122197151184,-0.008877958171069622
1789221667401155600,4.531155517578125,-0.12816134095191956,-0.32454726099967957,-0.006215554196387529
1789221667411235600,4.541235595703125,-0.1319749802350998,-0.3035130798816681,-0.003653859719634056
1789221667421314600,4.551314453125,-0.12071365118026733,-0.2875923216342926,-0.005854419432580471
1789221667431393500,4.5613935546875,-0.1082117110490799,-0.27470049262046814,0.0006058765575289726
1789221667441472500,4.571472412109375,-0.09614477306604385,-0.25256282091140747,-0.009688829071819782
1789221667451552500,4.581552490234375,-0.09435299783945084,-0.2157512754201889,-0.0015856284881010652
1789221667461631500,4.591631591796875,-0.09833218902349472,-0.1904936283826828,-0.006034398917108774
1789221667471710700,4.601710693359375,-0.08852482587099075,-0.171929270029068,-0.007411785889416933
1789221667481789700,4.611789794921875,-0.0739656537771225,-0.15816949307918549,-0.003609344596043229
1789221667491869700,4.62186962890625,-0.07137706130743027,-0.15033873915672302,-0.004083387088030577
1789221667501948700,4.63194873046875,-0.0585947260260582,-0.11765170097351074,-0.004203300457447767
1789221667512027400,4.64202734375,-0.05127156525850296,-0.09597703069448471,-0.010124307125806808
1789221667522106600,4.652106689453125,-0.06375960260629654,-0.08847874402999878,-0.005369529593735933
1789221667532186600,4.6621865234375,-0.0563802495598793,-0.07691716402769089,0.006315622478723526
1789221667542265600,4.672265625,-0.05973609909415245,-0.07254638522863388,-0.01149986032396555
1789221667552344600,4.682344482421875,-0.0602591447532177,-0.0702241063117981,-0.01856762357056141
1789221667562423800,4.692423828125,-0.04741916060447693,-0.058289963752031326,0.005850559566169977
1789221667572503600,4.702503662109375,-0.04901306331157684,-0.057203926146030426,-0.004695292096585035
1789221667582582500,4.71258251953125,-0.05133390054106712,-0.052342720329761505,-0.005867358762770891
1789221667592661500,4.72266162109375,-0.05727727711200714,-0.04696127027273178,-0.0013690136838704348
1789221667602740500,4.732740478515625,-0.06380125880241394,-0.04204001650214195,0.0015278016217052937
1789221667612820700,4.74282080078125,-0.07245546579360962,-0.042160920798778534,0.0031645805574953556
1789221667622899500,4.7528994140625,-0.08022408187389374,-0.05444149672985077,-0.00011154869571328163
1789221667632978700,4.762978759765625,-0.07261782884597778,-0.06895838677883148,-0.0001874487497843802
1789221667643058400,4.773058349609375,-0.07312621176242828,-0.08120742440223694,-0.007389485836029053
1789221667653137700,4.7831376953125,-0.07543250918388367,-0.08313768357038498,-0.007289617322385311
1789221667663216600,4.793216552734375,-0.08660761266946793,-0.07953134179115295,-0.001225097686983645
1789221667673295600,4.803295654296875,-0.09379015862941742,-0.08314737677574158,0.0071393586695194244
1789221667683375600,4.813375732421875,-0.10705273598432541,-0.09651342779397964,-0.003542971797287464
1789221667693454600,4.82345458984375,-0.10660319030284882,-0.12245980650186539,0.00016441461048088968
1789221667703533600,4.833533447265625,-0.11708136647939682,-0.1578255146741867,0.008096283301711082
1789221667713612500,4.843612548828125,-0.11230286210775375,-0.18363288044929504,-0.004134549759328365
1789221667723692500,4.853692626953125,-0.12594744563102722,-0.19380441308021545,-0.009133846499025822
1789221667733771500,4.863771484375,-0.13330842554569244,-0.20034781098365784,-0.009660620242357254
1789221667743850500,4.8738505859375,-0.14121803641319275,-0.20507562160491943,0.00038061352097429335
1789221667753929700,4.8839296875,-0.14268571138381958,-0.21410132944583893,-0.0014095633523538709
1789221667764009500,4.894009521484375,-0.13500773906707764,-0.22433722019195557,-0.005061422474682331
1789221667774088700,4.904088623046875,-0.12158966064453125,-0.22410206496715546,-0.0022342107258737087
1789221667784167400,4.91416748046875,-0.11447744816541672,-0.21431882679462433,0.003868891391903162
1789221667794247700,4.92424755859375,-0.11746738106012344,-0.20944978296756744,0.010143032297492027
1789221667804326700,4.93432666015625,-0.12125682830810547,-0.2058316171169281,0.00580590358003974
1789221667814405600,4.944405517578125,-0.1252094805240631,-0.20933793485164642,-0.004216636531054974
1789221667824484600,4.954484619140625,-0.11345317214727402,-0.20060952007770538,0.0043712276965379715
1789221667834564600,4.964564697265625,-0.0913686454296112,-0.18799440562725067,0.004222889430820942
1789221667844643600,4.9746435546875,-0.07410668581724167,-0.16801008582115173,0.001537419855594635
1789221667854722600,4.98472265625,-0.05791812762618065,-0.15478003025054932,0.008078143000602722
1789221667864801500,4.994801513671875,-0.04711943864822388,-0.14602439105510712,-0.0019819068256765604
1789221667874881500,5.004881591796875,-0.05435977503657341,-0.1446339637041092,0.0018631650600582361
1789221667884960800,5.014960693359375,-0.057939544320106506,-0.15261226892471313,0.016327079385519028
1789221667895039500,5.02503955078125,-0.0732836127281189,-0.15962916612625122,0.010860408656299114
1789221667905118700,5.03511865234375,-0.06902755051851273,-0.16453687846660614,-0.01085780281573534
1789221667915198500,5.045198486328125,-0.057757049798965454,-0.14244168996810913,-0.008761095814406872
1789221667925277400,5.05527734375,-0.051695313304662704,-0.11448723822832108,0.023179464042186737
1789221667935356700,5.065356689453125,-0.04256892949342728,-0.10959208756685257,0.01903904788196087
1789221667945435600,5.075435546875,-0.050208769738674164,-0.11774345487356186,-0.0030992398969829082
1789221667955515600,5.085515625,-0.04576608166098595,-0.1436794549226761,-0.007284664083272219
1789221667965594600,5.0955947265625,-0.04422210901975632,-0.15912221372127533,0.010414655320346355
1789221667975673600,5.105673583984375,-0.04082711413502693,-0.15238894522190094,-0.0011676985304802656
1789221667985753600,5.115753662109375,-0.04586956277489662,-0.13641811907291412,0.008428143337368965
1789221667995832600,5.12583251953125,-0.055287834256887436,-0.12068549543619156,0.009980767033994198
1789221668005911600,5.13591162109375,-0.06050863489508629,-0.12766024470329285,0.005400314461439848
1789221668015990500,5.145990478515625,-0.06350069493055344,-0.14540275931358337,0.0023075854405760765
1789221668026070500,5.156070556640625,-0.05573652312159538,-0.15815627574920654,0.0049071479588747025
1789221668036149500,5.1661494140625,-0.05740445852279663,-0.16275343298912048,0.008049678057432175
1789221668046228700,5.176228759765625,-0.06213913485407829,-0.16784366965293884,-0.016304919496178627
1789221668056307500,5.186307373046875,-0.0692250058054924,-0.18684852123260498,-0.001317448215559125
1789221668066387700,5.1963876953125,-0.06783606112003326,-0.2102314680814743,0.007279491983354092
1789221668076466700,5.206466796875,-0.07449422776699066,-0.22645410895347595,0.00768988486379385
1789221668086545700,5.216545654296875,-0.08378103375434875,-0.22332309186458588,0.023663965985178947
1789221668096624600,5.226624755859375,-0.09308771789073944,-0.21080783009529114,0.0025384402833878994
1789221668106704400,5.236704345703125,-0.09217531234025955,-0.1976364701986313,0.00018495260155759752
1789221668116783600,5.24678369140625,-0.08368328958749771,-0.1895894706249237,-0.009976338595151901
1789221668126862600,5.256862548828125,-0.07446994632482529,-0.19302630424499512,-0.005396551452577114
1789221668136942600,5.266942626953125,-0.06473688781261444,-0.19735154509544373,-0.01096602063626051
1789221668147021800,5.277021728515625,-0.0740373358130455,-0.1985420137643814,0.0024785706773400307
1789221668157100800,5.287100830078125,-0.08210059255361557,-0.19766902923583984,0.01802504062652588
1789221668167179800,5.2971796875,-0.08802248537540436,-0.1913936287164688,-0.006748576648533344
1789221668177259800,5.307259765625,-0.09386146068572998,-0.18521934747695923,0.025064481422305107
1789221668187338800,5.3173388671875,-0.0920281633734703,-0.18005280196666718,0.0010495794704183936
1789221668197417700,5.327417724609375,-0.08909442275762558,-0.17941658198833466,0.0023041944950819016
1789221668207496700,5.33749658203125,-0.08283927291631699,-0.16302135586738586,-0.010643492452800274
1789221668217576700,5.34757666015625,-0.06583978235721588,-0.14244604110717773,-0.03229206055402756
1789221668227655700,5.35765576171875,-0.03313495218753815,-0.1117696613073349,0.058974262326955795
1789221668237735000,5.36773486328125,-0.027869615703821182,-0.09622425585985184,-0.006546155549585819
1789221668247813600,5.377813720703125,-0.04821223393082619,-0.09582830220460892,-0.053877633064985275
1789221668257894000,5.387893798828125,-0.06631001085042953,-0.09323305636644363,0.014903824776411057
1789221668267972600,5.39797265625,-0.08448953181505203,-0.09515471011400223,0.041409898549318314
1789221668278051800,5.4080517578125,-0.08330975472927094,-0.10758182406425476,-0.006082786247134209
1789221668288131800,5.4181318359375,-0.06387583166360855,-0.12981434166431427,-0.03640013933181763
1789221668298210800,5.4282109375,-0.04374898597598076,-0.15271353721618652,-0.007412963081151247
1789221668308289800,5.438289794921875,-0.04955057427287102,-0.16001364588737488,0.028627585619688034
1789221668318368800,5.44836865234375,-0.04964378476142883,-0.14774632453918457,0.013655826449394226
1789221668328448800,5.45844873046875,-0.052947551012039185,-0.12477315217256546,-0.015638617798686028
1789221668338527700,5.46852783203125,-0.055889278650283813,-0.10919526219367981,-0.0024658236652612686
1789221668348606700,5.478606689453125,-0.04621896892786026,-0.10265066474676132,0.032378699630498886
1789221668358685700,5.488685791015625,-0.03220914304256439,-0.10343576222658157,-0.012979727238416672
1789221668368766000,5.498765869140625,-0.029903845861554146,-0.10980571806430817,-0.030837904661893845
1789221668378844700,5.5088447265625,-0.03169668838381767,-0.12760920822620392,0.005804797168821096
1789221668388923600,5.518923583984375,-0.045009687542915344,-0.13535328209400177,0.022329075261950493
1789221668399003000,5.5290029296875,-0.048930391669273376,-0.11198403686285019,-0.05277606099843979
1789221668409082600,5.53908251953125,-0.040156856179237366,-0.058223623782396317,0.00535180326551199
1789221668419161900,5.549161865234375,0.02612868696451187,0.010345850139856339,0.05930904299020767
1789221668429240600,5.559240478515625,0.0856618881225586,0.06032669544219971,0.013417228125035763
1789221668439320800,5.56932080078125,0.1001255214214325,0.0887676551938057,-0.01610391214489937
1789221668449399800,5.57939990234375,0.11236599087715149,0.11595212668180466,-0.027718203142285347
1789221668459478800,5.589478759765625,0.09842593967914581,0.1547250896692276,-0.029734482988715172
1789221668469557800,5.599557861328125,0.10988414287567139,0.18977443873882294,0.05881879851222038
1789221668479637800,5.6096376953125,0.13503369688987732,0.21186988055706024,0.05651836097240448
1789221668489716700,5.619716796875,0.15528187155723572,0.210536390542984,0.030329693108797073
1789221668499795700,5.629795654296875,0.13388842344284058,0.18574342131614685,-0.024231553077697754
1789221668509875000,5.639875,0.1442069113254547,0.23375771939754486,-0.04828978329896927
1789221668519954700,5.64995458984375,0.1562419980764389,0.25139182806015015,-0.029297979548573494
1789221668530034000,5.660033935546875,0.21984314918518066,0.28226086497306824,0.04087569937109947
1789221668540112600,5.670112548828125,0.24575330317020416,0.28869372606277466,-0.019405752420425415
1789221668550191600,5.680191650390625,0.2649320363998413,0.2666768431663513,-0.011662609875202179
1789221668560271600,5.690271728515625,0.25082075595855713,0.2770717144012451,-0.02473740093410015
1789221668570350600,5.7003505859375,0.18642759323120117,0.2935720384120941,0.036100998520851135
1789221668580429800,5.710429931640625,0.1842440664768219,0.3517623841762543,-0.007029692642390728
1789221668590509600,5.720509521484375,0.18926334381103516,0.3731108009815216,0.01732395961880684
1789221668600588800,5.7305888671875,0.14479893445968628,0.32518428564071655,0.033615585416555405
1789221668610667800,5.740667724609375,0.19653207063674927,0.28460609912872314,0.07420323044061661
1789221668620746800,5.750746826171875,0.13285481929779053,0.26197242736816406,-0.03179217875003815
1789221668630826800,5.76082666015625,0.17991186678409576,0.23353250324726105,0.06496421247720718
1789221668640906000,5.770906005859375,0.1979324221611023,0.23622016608715057,-0.06830782443284988
1789221668650984700,5.780984619140625,0.14885595440864563,0.18544140458106995,-0.15437400341033936
1789221668661063700,5.791063720703125,0.07061285525560379,0.12413674592971802,-0.0035122931003570557
1789221668671143700,5.801143798828125,-0.009089277125895023,0.07551750540733337,0.103817418217659
1789221668681222700,5.81122265625,-0.005620243493467569,0.047848328948020935,0.10143522173166275
1789221668691302000,5.821302001953125,0.0495007298886776,0.010212568566203117,-0.058268819004297256
1789221668701380600,5.831380615234375,0.13619302213191986,-0.05486629903316498,-0.11697367578744888
1789221668711460900,5.8414609375,0.1451999694108963,-0.11159399896860123,0.0647604838013649
1789221668721539800,5.851539794921875,0.13608023524284363,-0.14367257058620453,0.129653200507164
1789221668731618600,5.86161865234375,0.08476483821868896,-0.13220250606536865,-0.0092045022174716
1789221668741698800,5.87169873046875,0.03505241125822067,-0.10991823673248291,-0.056141119450330734
1789221668751777500,5.881777587890625,0.052562203258275986,-0.0864218920469284,0.00953010842204094
1789221668761856800,5.891856689453125,0.0605439655482769,-0.06530728936195374,0.015751520171761513
1789221668771935700,5.901935791015625,0.09494572132825851,-0.06712688505649567,-0.01601068116724491
1789221668782015700,5.912015625,0.11225014179944992,-0.04102657362818718,0.0798596516251564
1789221668792094700,5.9220947265625,0.08439284563064575,-0.04028511792421341,-0.025707025080919266
1789221668802174000,5.932174072265625,0.06611716747283936,0.02824121154844761,0.07966573536396027
1789221668812252700,5.942252685546875,0.1401831954717636,0.05751163884997368,0.06688626110553741
1789221668822333000,5.9523330078125,0.12081588804721832,0.06926417350769043,-0.019999902695417404
1789221668832411600,5.96241162109375,0.13452760875225067,0.06421857327222824,-0.08262178301811218
1789221668842490600,5.97249072265625,0.08949568122625351,0.07943587750196457,-0.09859515726566315
1789221668852569900,5.98256982421875,0.047383420169353485,0.04293183237314224,0.03806934133172035
1789221668862649600,5.992649658203125,0.035763781517744064,0.00973739754408598,0.07149095088243484
1789221668872728800,6.002728759765625,-0.013222979381680489,-0.047137949615716934,-0.03293619677424431
1789221668882807800,6.012807861328125,-0.011660502292215824,-0.09996441006660461,-0.03985375910997391
1789221668892887800,6.0228876953125,0.007477023638784885,-0.11255504935979843,0.027744747698307037
1789221668902966800,6.032966796875,0.03630707412958145,-0.10988976061344147,0.035990696400403976
1789221668913045800,6.043045654296875,0.056495171040296555,-0.11745376884937286,0.00015008615446276963
1789221668923124700,6.053124755859375,0.047118980437517166,-0.12272229790687561,-0.00018360791727900505
1789221668933204700,6.063204833984375,0.02748274616897106,-0.1302923560142517,0.009144134819507599
1789221668943283700,6.07328369140625,0.001448483089916408,-0.1360413134098053,0.0007644982542842627
1789221668953362700,6.08336279296875,0.0007716801483184099,-0.13904942572116852,-0.0019171333406120539
1789221668963442000,6.09344189453125,0.015339970588684082,-0.14123934507369995,0.01264982484281063
1789221668973521700,6.103521728515625,0.030372656881809235,-0.13588574528694153,0.01351005770266056
1789221668983601000,6.113600830078125,0.04504267871379852,-0.12308445572853088,0.02475685440003872
1789221668993680000,6.123679931640625,0.05131714418530464,-0.09293732047080994,0.032465074211359024
1789221669003758600,6.133758544921875,0.054764606058597565,-0.04910461604595184,0.022484879940748215
1789221669013838800,6.1438388671875,0.059223320335149765,0.013733184896409512,0.013659716583788395
1789221669023917600,6.15391748046875,0.04374289885163307,0.07784586399793625,-0.03413017466664314
1789221669033996800,6.163996826171875,0.048916928470134735,0.11815004795789719,-0.023611895740032196
1789221669044076800,6.174076904296875,0.04521193727850914,0.12599438428878784,0.016422605141997337
1789221669054155800,6.18415576171875,0.05449775233864784,0.09972889721393585,0.001289099222049117
1789221669064234800,6.19423486328125,0.033694200217723846,0.06430113315582275,-0.0294102244079113
1789221669074313700,6.204313720703125,0.03622414544224739,0.06098427250981331,-0.005068900063633919
1789221669084393700,6.214393798828125,0.021498465910553932,0.08108475059270859,0.03626282513141632
1789221669094472700,6.22447265625,0.010237087495625019,0.08592989295721054,0.013947582803666592
1789221669104551700,6.2345517578125,0.005418097134679556,0.04940198361873627,-0.01865030638873577
1789221669114630700,6.244630615234375,-0.0029420978389680386,0.01219841931015253,-0.00351875857450068
1789221669124711000,6.2547109375,-0.00190559565089643,-0.021742504090070724,0.011757666245102882
1789221669134789600,6.26478955078125,-0.01088688150048256,-0.01799897849559784,0.0056626806035637856
1789221669144868900,6.274868896484375,-0.0069033256731927395,0.006838992238044739,-0.00676496047526598
1789221669154948900,6.284948974609375,-0.013261206448078156,0.023241091519594193,0.004477638751268387
1789221669165027800,6.29502783203125,-0.015112369321286678,0.017130732536315918,0.0094327162951231
1789221669175107000,6.305107177734375,-0.03062380664050579,-0.007293330505490303,-0.015201941132545471
1789221669185185800,6.315185791015625,-0.02790898084640503,-0.03700302541255951,-0.014390209689736366
1789221669195266000,6.32526611328125,-0.04312655329704285,-0.06090107187628746,0.010879512876272202
1789221669205345000,6.335344970703125,-0.046193718910217285,-0.07580491900444031,0.0073063489980995655
1789221669215424000,6.345424072265625,-0.04854815825819969,-0.0831511914730072,-0.004964248277246952
1789221669225503000,6.3555029296875,-0.038815900683403015,-0.07338005304336548,0.007709468714892864
1789221669235583000,6.3655830078125,-0.017053142189979553,-0.050873737782239914,0.005568370223045349
1789221669245662000,6.375661865234375,-0.01216091588139534,-0.014198546297848225,-0.016112690791487694
1789221669255741000,6.385740966796875,-0.01243403647094965,0.022399097681045532,-0.00975717045366764
1789221669265821000,6.395821044921875,-0.014341126196086407,0.041973862797021866,-0.0009290581801906228
1789221669275900000,6.40589990234375,-0.012082296423614025,0.040307193994522095,-0.0027527075726538897
1789221669285979100,6.415979248046875,-0.006592456251382828,0.03446688503026962,-0.003265898674726486
1789221669296057900,6.426057861328125,-0.016315044835209846,0.037451356649398804,-0.017134234309196472
1789221669306138000,6.43613818359375,0.02018677443265915,0.06466113775968552,0.029830878600478172
1789221669316216800,6.446216796875,0.0010712858056649566,0.09986994415521622,-0.016682229936122894
1789221669326295800,6.4562958984375,0.0011722196359187365,0.11860129237174988,0.006675556302070618
1789221669336375000,6.466375,0.009858162142336369,0.12588858604431152,-0.0323743000626564
1789221669346454800,6.476454833984375,-0.00288053578697145,0.10662513226270676,-0.020827101543545723
1789221669356534000,6.486533935546875,0.008502562530338764,0.09621485322713852,0.029702631756663322
1789221669366613000,6.496613037109375,0.004014337435364723,0.10116486996412277,-0.021027125418186188
1789221669376692000,6.50669189453125,0.011402307078242302,0.10452105104923248,-0.0020770428236573935
1789221669386772000,6.51677197265625,-0.005751645192503929,0.0956583172082901,-0.012384808622300625
1789221669396851000,6.526850830078125,0.0011850529117509723,0.07767648249864578,0.02101057395339012
1789221669406930000,6.536929931640625,0.008844836615025997,0.060062069445848465,-0.008134794421494007
1789221669417010200,6.54701025390625,0.0143793486058712,0.040047381073236465,-0.01728661172091961
1789221669427089000,6.5570888671875,0.02099623903632164,0.04060158506035805,-0.013553924858570099
1789221669437167900,6.56716796875,0.010107074864208698,0.04443759843707085,-0.011637160554528236
1789221669447247000,6.5772470703125,0.01456893514841795,0.0455838218331337,0.013506275601685047
1789221669457326800,6.587326904296875,0.011777332052588463,0.03431664779782295,0.0020468824077397585
1789221669467406000,6.597406005859375,0.02059665508568287,0.018641550093889236,-0.011198615655303001
1789221669477485000,6.607485107421875,0.022461894899606705,0.005514122545719147,-0.003048934508115053
1789221669487563800,6.617563720703125,0.018551575019955635,0.006951962597668171,0.012839218601584435
1789221669497644000,6.62764404296875,0.018821608275175095,0.020962245762348175,0.009898393414914608
1789221669507722800,6.63772265625,0.022872542962431908,0.03849037364125252,-0.011867621913552284
1789221669517802000,6.647802001953125,0.029550692066550255,0.05434700474143028,-0.005153578240424395
1789221669527882000,6.657882080078125,0.029539773240685463,0.07098989188671112,-0.009367231279611588
1789221669537961000,6.6679609375,0.03266093507409096,0.0790962278842926,-0.0026732939295470715
1789221669548040000,6.6780400390625,0.03485085070133209,0.09607841074466705,-0.004369993694126606
1789221669558119200,6.688119140625,0.04022762551903725,0.1181357279419899,-0.002434522146359086
1789221669568199000,6.698198974609375,0.049844834953546524,0.13375383615493774,0.008700952865183353
1789221669578278100,6.708278076171875,0.04986755922436714,0.14353018999099731,-0.013620453886687756
1789221669588356900,6.71835693359375,0.06249041110277176,0.15004774928092957,-0.0047795576974749565
1789221669598437000,6.72843701171875,0.05771949887275696,0.15799455344676971,-0.00464613875374198
1789221669608516000,6.73851611328125,0.05025465786457062,0.1568259596824646,-0.019563568755984306
1789221669618594800,6.7485947265625,0.04637569189071655,0.15124426782131195,-0.01630292274057865
1789221669628674000,6.758674072265625,0.04240864887833595,0.14159724116325378,-0.0013772367965430021
1789221669638753800,6.76875390625,0.03693946823477745,0.11520633101463318,-0.001478907186537981
1789221669648833000,6.7788330078125,0.03613812103867531,0.08750386536121368,0.00006572622805833817
1789221669658912000,6.788912109375,0.03701825067400932,0.06096617877483368,-0.0015527496580034494
1789221669668991000,6.798990966796875,0.03573540598154068,0.03249059617519379,0.0008848417783156037
1789221669679071000,6.809071044921875,0.03093627095222473,0.005303500220179558,0.0027382494881749153
1789221669689150000,6.81914990234375,0.016981840133666992,-0.012955664657056332,-0.005754305049777031
1789221669699229000,6.82922900390625,0.009502812288701534,-0.026395926252007484,-0.009810817427933216
1789221669709309000,6.839308837890625,0.010751301422715187,-0.04118578881025314,0.006920491345226765
1789221669719388000,6.849387939453125,0.014762474223971367,-0.05882776901125908,-0.004449684172868729
1789221669729467000,6.859466796875,0.028459111228585243,-0.07775964587926865,0.00003507916699163616
1789221669739546000,6.869546142578125,0.031833235174417496,-0.09543608874082565,0.002711514476686716
1789221669749625900,6.8796259765625,0.03301567956805229,-0.10771778225898743,0.025778483599424362
1789221669759705000,6.889705078125,0.03479430451989174,-0.10584847629070282,0.011316678486764431
1789221669769784000,6.8997841796875,0.041150737553834915,-0.08539966493844986,0.016734879463911057
1789221669779864000,6.909864013671875,0.053618013858795166,-0.06789904832839966,0.005485612899065018
1789221669789943000,6.919943115234375,0.06116461381316185,-0.04602731019258499,0.0016322849551215768
1789221669800021800,6.930021728515625,0.07736340165138245,-0.02707797661423683,-0.0008380740182474256
1789221669810101000,6.94010107421875,0.08918464183807373,-0.008267536759376526,-0.004662106744945049
1789221669820181000,6.950180908203125,0.10512267798185349,0.017462223768234253,-0.006190613377839327
1789221669830260000,6.960260009765625,0.11220721900463104,0.04949925094842911,0.0044484492391347885
1789221669840339000,6.9703388671875,0.11687735468149185,0.08742460608482361,0.022335465997457504
1789221669850418000,6.98041796875,0.12044119834899902,0.12924955785274506,0.02097911760210991
1789221669860498000,6.990497802734375,0.12698495388031006,0.1657738834619522,0.00377828162163496
1789221669870577000,7.000576904296875,0.13907037675380707,0.1924174726009369,0.02859308384358883
1789221669880656100,7.01065625,0.13556784391403198,0.1993955671787262,-0.005267869681119919
1789221669890735900,7.02073583984375,0.14178073406219482,0.20139694213867188,0.017502157017588615
1789221669900815000,7.030815185546875,0.13541698455810547,0.2119210809469223,0.021249769255518913
1789221669910893800,7.040893798828125,0.14405281841754913,0.20278191566467285,0.03006563149392605
1789221669920973000,7.05097314453125,0.13488365709781647,0.2002030611038208,0.009255833923816681
1789221669931052800,7.061052734375,0.15065382421016693,0.19618940353393555,-0.011874218471348286
1789221669941132000,7.071132080078125,0.15495912730693817,0.20360885560512543,0.031108194962143898
1789221669951211000,7.0812109375,0.16869837045669556,0.21246279776096344,0.004593763034790754
1789221669961291000,7.091291015625,0.1786028891801834,0.23344896733760834,0.01992976665496826
1789221669971370000,7.101369873046875,0.17966149747371674,0.246902197599411,0.019293803721666336
1789221669981449000,7.111448974609375,0.15292046964168549,0.2574899196624756,0.0002493482315912843
1789221669991528000,7.12152783203125,0.1337054967880249,0.2603538930416107,0.006914974190294743
1789221670001608000,7.13160791015625,0.14126434922218323,0.2649436593055725,0.02421279065310955
1789221670011687200,7.141687255859375,0.1474066525697708,0.2614315152168274,0.06647316366434097
1789221670021766000,7.151765869140625,0.15884704887866974,0.2564241588115692,0.036664240062236786
1789221670031844900,7.161844970703125,0.14625322818756104,0.2538347542285919,-0.020685870200395584
1789221670041924900,7.1719248046875,0.13055257499217987,0.24508893489837646,0.025542987510561943
1789221670052003800,7.18200390625,0.13033632934093475,0.25766411423683167,-0.009714868851006031
1789221670062083000,7.1920830078125,0.12645278871059418,0.27753445506095886,-0.008219706825911999
1789221670072162800,7.202162841796875,0.13419859111309052,0.2976444959640503,0.016554616391658783
1789221670082242000,7.212241943359375,0.14674577116966248,0.3001995384693146,0.04065407067537308
1789221670092321000,7.222321044921875,0.14472097158432007,0.28898897767066956,0.043281543999910355
1789221670102400000,7.23239990234375,0.16568440198898315,0.2847936451435089,0.015179912559688091
1789221670112480000,7.24247998046875,0.14404621720314026,0.27045494318008423,-0.005820710211992264
1789221670122559000,7.25255908203125,0.14657306671142578,0.2610457241535187,0.004185871686786413
1789221670132638000,7.262637939453125,0.16055840253829956,0.2731969356536865,0.07021522521972656
1789221670142718000,7.272718017578125,0.15864349901676178,0.27010518312454224,0.13041774928569794
1789221670152796700,7.282796630859375,0.16509553790092468,0.2895670235157013,0.13615579903125763
1789221670162875600,7.292875732421875,0.1447451412677765,0.2900421917438507,0.05284158140420914
1789221670172955000,7.302954833984375,0.10214627534151077,0.2511104941368103,-0.023398863151669502
1789221670183034600,7.31303466796875,0.0818328782916069,0.217096209526062,0.029546208679676056
1789221670193113900,7.32311376953125,0.07966479659080505,0.19055886566638947,0.10394401103258133
1789221670203192800,7.33319287109375,0.09402186423540115,0.15765465795993805,0.13163608312606812
1789221670213271600,7.343271484375,0.1092948317527771,0.1431388407945633,0.008904040791094303
1789221670223351800,7.353351806640625,0.08505598455667496,0.12405063956975937,-0.15638604760169983
1789221670233430500,7.363430419921875,0.02892746776342392,0.09190921485424042,-0.23622281849384308
1789221670243509800,7.373509765625,0.029679646715521812,0.044210370630025864,0.029745785519480705
1789221670253589500,7.383589599609375,0.01648554764688015,0.05329228192567825,0.20929796993732452
1789221670263668700,7.393668701171875,0.012078238651156425,0.03346869349479675,0.01731700450181961
1789221670273747700,7.403747802734375,0.05285389721393585,0.09398050606250763,-0.2909494936466217
1789221670283827000,7.413826904296875,0.07044726610183716,0.11636766791343689,-0.3303026854991913
1789221670293906700,7.42390673828125,0.06362584978342056,0.10427771508693695,-0.07633539289236069
1789221670303985700,7.433985595703125,0.0513957142829895,0.07761301845312119,0.13299056887626648
1789221670314064600,7.444064697265625,0.027034185826778412,0.08519051223993301,0.2750398516654968
1789221670324144600,7.45414453125,-0.025568896904587746,0.053564250469207764,-0.04072553664445877
1789221670334224000,7.464223876953125,0.03335513919591904,0.02719496190547943,-0.19509699940681458
1789221670344302600,7.474302490234375,-0.02726474031805992,0.10856347531080246,-0.22800730168819427
1789221670354381800,7.4843818359375,-0.11934193968772888,0.12151443213224411,-0.10638607293367386
1789221670364461600,7.494461669921875,-0.1027023047208786,0.24279579520225525,0.0528060644865036
1789221670374540800,7.504540771484375,-0.04360250011086464,0.282416969537735,-0.10072916746139526
1789221670384619800,7.514619873046875,0.08697911351919174,0.21658632159233093,-0.12198017537593842
1789221670394699800,7.52469970703125,0.1520444005727768,0.26310455799102783,-0.2835909128189087
1789221670404778800,7.53477880859375,0.06129464507102966,0.308417409658432,-0.47681960463523865
1789221670414857700,7.544857666015625,-0.0012600782793015242,0.34827160835266113,-0.3362811505794525
1789221670424936700,7.554936767578125,0.031031956896185875,0.41054567694664,-0.000652941467706114
1789221670435016700,7.5650166015625,0.16398201882839203,0.3292343020439148,0.26554039120674133
1789221670445095700,7.575095703125,0.21873879432678223,0.3651967942714691,0.03518018126487732
1789221670455174700,7.585174560546875,0.20986753702163696,0.3252563178539276,-0.30778011679649353
1789221670465254000,7.59525390625,0.254479318857193,0.3057403564453125,-0.201380655169487
1789221670475333600,7.605333740234375,0.268784761428833,0.2942959666252136,0.08554618805646896
1789221670485412600,7.61541259765625,0.2660372257232666,0.2952083647251129,0.2393437623977661
1789221670495491800,7.625491943359375,0.2273731678724289,0.3683427572250366,0.18892373144626617
1789221670505571600,7.635571533203125,0.17108339071273804,0.4348943829536438,-0.033697422593832016
1789221670515650800,7.64565087890625,0.14620520174503326,0.4256258010864258,-0.17103157937526703
1789221670525729500,7.6557294921875,0.13879895210266113,0.4161739647388458,-0.07970087230205536
1789221670535808800,7.665808837890625,0.08491361141204834,0.29529044032096863,-0.10636311024427414
1789221670545888800,7.675888671875,0.02557452768087387,0.212621808052063,-0.018697001039981842
1789221670555967700,7.6859677734375,0.10466109216213226,0.1982617825269699,0.13971766829490662
1789221670566046700,7.696046630859375,0.10707417130470276,0.19690415263175964,0.019698306918144226
1789221670576126700,7.706126708984375,0.10056193917989731,0.15937355160713196,-0.04911218211054802
1789221670586205700,7.716205810546875,0.09531369060277939,0.1524219810962677,0.03242562711238861
1789221670596284700,7.72628466796875,0.05416705086827278,0.11093127727508545,-0.07872992008924484
1789221670606363600,7.73636376953125,0.055288031697273254,0.09592851251363754,-0.09074001014232635
1789221670616443600,7.746443603515625,0.0657806247472763,0.1142641082406044,-0.06546048820018768
1789221670626523000,7.75652294921875,0.07928841561079025,0.13145270943641663,-0.11854352056980133
1789221670636601600,7.7666015625,0.10369735211133957,0.1513180285692215,-0.021920574828982353
1789221670646681900,7.776681884765625,0.1338132917881012,0.19227872788906097,0.07798779755830765
1789221670656760600,7.786760498046875,0.10178506374359131,0.22392426431179047,-0.07537060230970383
1789221670666839600,7.796839599609375,0.10399660468101501,0.2730848789215088,-0.1629052311182022
1789221670676918800,7.806918701171875,0.11985412985086441,0.3408237099647522,0.04494038596749306
1789221670686998500,7.81699853515625,0.16248467564582825,0.37843605875968933,0.15026387572288513
1789221670697077800,7.827077880859375,0.22032135725021362,0.3813823163509369,0.0777934119105339
1789221670707156700,7.83715673828125,0.2437874674797058,0.39944878220558167,-0.03476826101541519
1789221670717235700,7.847235595703125,0.27767592668533325,0.43777912855148315,-0.12251302599906921
1789221670727315700,7.857315673828125,0.28288534283638,0.4850543737411499,0.011561369523406029
1789221670737394700,7.867394775390625,0.28944897651672363,0.5534976720809937,0.14586378633975983
1789221670747473700,7.8774736328125,0.2764575779438019,0.5822026133537292,-0.00906740128993988
1789221670757554000,7.887553955078125,0.2369261533021927,0.5694425702095032,-0.08014823496341705
1789221670767632600,7.897632568359375,0.24010230600833893,0.5706418752670288,-0.12011570483446121
1789221670777711600,7.907711669921875,0.2507981061935425,0.552699863910675,-0.13668270409107208
1789221670787790800,7.917790771484375,0.2960547208786011,0.5320154428482056,0.11007139831781387
1789221670797870600,7.92787060546875,0.3193075954914093,0.5529880523681641,0.1964118778705597
1789221670807949800,7.93794970703125,0.3522743284702301,0.5637190937995911,0.0042390297167003155
1789221670818028800,7.94802880859375,0.32202693819999695,0.6018497347831726,-0.07194016128778458
1789221670828108800,7.95810888671875,0.3219277262687683,0.6446822285652161,-0.07008767873048782
1789221670838187800,7.968187744140625,0.33244961500167847,0.6487597823143005,0.07841657102108002
1789221670848266500,7.9782666015625,0.34926703572273254,0.6552764773368835,0.13158844411373138
1789221670858345700,7.988345703125,0.32194405794143677,0.6315093636512756,0.04797210916876793
1789221670868425700,7.99842578125,0.3371519148349762,0.6276482939720154,0.053994644433259964
1789221670878504700,8.008504638671875,0.3543146550655365,0.6370545625686646,0.017133299261331558
1789221670888583700,8.018583740234375,0.32560768723487854,0.678674578666687,-0.03377467393875122
1789221670898663000,8.028662841796875,0.3461478352546692,0.6924449801445007,-0.041144441813230515
1789221670908742700,8.03874267578125,0.3280644714832306,0.6983144283294678,0.07253186404705048
1789221670918822000,8.04882177734375,0.24968178570270538,0.6957242488861084,0.052362680435180664
1789221670928900600,8.058900634765624,0.22619467973709106,0.6599982976913452,-0.07390924543142319
1789221670938979600,8.0689794921875,0.32928749918937683,0.6063728928565979,0.09143363684415817
1789221670949059800,8.079059814453124,0.275341272354126,0.5646783709526062,0.01099460106343031
1789221670959138600,8.089138671875,0.2486010044813156,0.513293445110321,-0.01547988224774599
1789221670969217800,8.0992177734375,0.2370072305202484,0.5076594352722168,0.17382565140724182
1789221670979297500,8.109297607421874,0.11403309553861618,0.5384857654571533,0.06495935469865799
1789221670989376800,8.119376708984374,0.06829331815242767,0.5246660113334656,0.016359010711312294
1789221670999455700,8.129455810546874,0.02801753208041191,0.48855435848236084,0.1816241294145584
1789221671009534700,8.13953466796875,-0.051671937108039856,0.4051581919193268,0.11737736314535141
1789221671019614700,8.14961474609375,-0.048710767179727554,0.30022111535072327,0.09351277351379395
1789221671029693700,8.159693603515626,-0.0850580483675003,0.22635190188884735,0.2502652406692505
1789221671039772700,8.169772705078126,-0.0854514017701149,0.19146183133125305,0.1629372537136078
1789221671049852700,8.179852783203126,-0.202039435505867,0.09450127184391022,-0.11262338608503342
1789221671059931600,8.189931640625,-0.25322404503822327,0.06375321000814438,-0.1619430035352707
1789221671070010600,8.2000107421875,-0.25008073449134827,-0.02536877617239952,0.14206743240356445
1789221671080089900,8.21008984375,-0.28771305084228516,-0.06649331003427505,0.18548068404197693
1789221671090169600,8.220169677734376,-0.37603211402893066,-0.19606801867485046,0.00268649123609066
1789221671100248800,8.230248779296875,-0.4879362881183624,-0.25996553897857666,0.13533028960227966
1789221671110327800,8.240327880859375,-0.5210290551185608,-0.37934693694114685,0.07416853308677673
1789221671120406500,8.250406494140625,-0.4428578019142151,-0.3978990614414215,0.0021433455403894186
1789221671130486800,8.26048681640625,-0.508575439453125,-0.4323863983154297,0.044277045875787735
1789221671140565800,8.270565673828125,-0.5020243525505066,-0.45825207233428955,0.004061716143041849
1789221671150645500,8.2806455078125,-0.5305224061012268,-0.4458581805229187,0.025493621826171875
1789221671160724500,8.290724365234375,-0.5652657151222229,-0.4866524338722229,0.05525098368525505
1789221671170804200,8.30080419921875,-0.5617055296897888,-0.5586793422698975,0.06716105341911316
1789221671180883500,8.310883544921875,-0.5143781900405884,-0.6202556490898132,0.1425149291753769
1789221671190962400,8.32096240234375,-0.6090952754020691,-0.6512634754180908,0.05942458659410477
1789221671201042400,8.33104248046875,-0.706234872341156,-0.6937398314476013,-0.13037943840026855
1789221671211121400,8.341121337890625,-0.6859038472175598,-0.7114502787590027,0.03793885186314583
1789221671221200400,8.351200439453125,-0.7831233739852905,-0.7503105998039246,0.013402614742517471
1789221671231279400,8.361279296875,-0.7840285301208496,-0.803697943687439,-0.05735943838953972
1789221671241359400,8.371359375,-0.7323880195617676,-0.8191072344779968,0.13921847939491272
1789221671251438300,8.381438232421875,-0.7502791285514832,-0.8204264640808105,0.09999775141477585
1789221671261517300,8.391517333984375,-0.7208301424980164,-0.9004704356193542,-0.052037324756383896
1789221671271596500,8.401596435546875,-0.7374879717826843,-0.9493237137794495,-0.045221518725156784
1789221671281676300,8.41167626953125,-0.7041776776313782,-0.935676097869873,0.07672835886478424
1789221671291755500,8.421755615234375,-0.7535213232040405,-0.8709706664085388,0.06722521781921387
1789221671301834200,8.431834228515624,-0.6895021200180054,-0.8591097593307495,-0.06401988863945007
1789221671311913500,8.44191357421875,-0.7153350114822388,-0.8456099629402161,-0.05896465480327606
1789221671321993500,8.451993408203125,-0.736170768737793,-0.8472129106521606,-0.03837655484676361
1789221671332072400,8.462072509765624,-0.7677834630012512,-0.9174968004226685,-0.23548313975334167
1789221671342151400,8.4721513671875,-0.8058978319168091,-0.9315841197967529,-0.14762546122074127
1789221671352230400,8.48223046875,-0.7509694695472717,-0.9747958183288574,0.23211368918418884
1789221671362310400,8.492310302734374,-0.7561995983123779,-0.9285278916358948,0.22027885913848877
1789221671372389400,8.502389404296874,-0.7741066813468933,-0.9869412779808044,0.0339832566678524
1789221671382468400,8.51246826171875,-0.6972196102142334,-0.9106305241584778,0.02380598708987236
1789221671392547300,8.52254736328125,-0.7214416861534119,-0.8821113705635071,0.02731444500386715
1789221671402627600,8.532627685546874,-0.638725757598877,-0.9730266332626343,-0.112786203622818
1789221671412706300,8.542706298828126,-0.6217094659805298,-1.0148197412490845,-0.03216084465384483
1789221671422785300,8.552785400390626,-0.7025113701820374,-0.9852393865585327,0.14258353412151337
1789221671432865300,8.562865234375,-0.645162045955658,-0.8511855006217957,0.09465909749269485
1789221671442944300,8.5729443359375,-0.6127582788467407,-0.7191515564918518,-0.07335014641284943
1789221671453023500,8.5830234375,-0.5202918648719788,-0.6151195764541626,-0.03608047217130661
1789221671463102500,8.5931025390625,-0.5269274115562439,-0.5635809898376465,0.010902482084929943
1789221671473182500,8.603182373046875,-0.45001259446144104,-0.5325570702552795,0.04501568153500557
1789221671483261400,8.613261474609375,-0.4082065522670746,-0.5180931687355042,-0.002699911594390869
1789221671493340400,8.62334033203125,-0.44436243176460266,-0.48837482929229736,-0.10607679188251495
1789221671503419400,8.63341943359375,-0.35457128286361694,-0.49187153577804565,-0.09282384067773819
1789221671513499400,8.64349951171875,-0.3618455231189728,-0.5458199381828308,0.06839751452207565
1789221671523578400,8.653578369140625,-0.34945809841156006,-0.5253551602363586,0.0852111205458641
1789221671533657300,8.6636572265625,-0.3801850378513336,-0.5698208212852478,0.03823234140872955
1789221671543736600,8.673736572265625,-0.3130720555782318,-0.5499240756034851,0.0904470756649971
1789221671553816300,8.68381640625,-0.3738243579864502,-0.5333585739135742,-0.03501718118786812
1789221671563895600,8.6938955078125,-0.30217495560646057,-0.5331265926361084,0.07905399799346924
1789221671573974300,8.703974365234375,-0.3053155243396759,-0.548353374004364,0.05525544658303261
1789221671584053200,8.71405322265625,-0.32695290446281433,-0.5976689457893372,-0.08218204230070114
1789221671594133500,8.724133544921875,-0.3048986792564392,-0.6513490676879883,0.06027643382549286
1789221671604212200,8.734212158203125,-0.3743438124656677,-0.6631500720977783,0.05841834470629692
1789221671614291500,8.74429150390625,-0.3652649223804474,-0.6861453056335449,0.04768938198685646
1789221671624370400,8.754370361328125,-0.4014676511287689,-0.6709564924240112,0.14795179665088654
1789221671634450400,8.764450439453125,-0.3928629457950592,-0.7230459451675415,0.0508226677775383
1789221671644529400,8.774529296875,-0.38672757148742676,-0.8008323311805725,-0.11267171800136566
1789221671654608400,8.7846083984375,-0.4101356863975525,-0.8131860494613647,-0.06601116061210632
1789221671664687400,8.794687255859374,-0.4326782822608948,-0.7714402079582214,0.08582736551761627
1789221671674767600,8.804767578125,-0.46080446243286133,-0.7349867224693298,0.20007899403572083
1789221671684846300,8.814846435546874,-0.41834381222724915,-0.7165387868881226,0.2224961519241333
1789221671694925300,8.82492529296875,-0.43867596983909607,-0.7669506669044495,0.06312162429094315
1789221671705004500,8.835004638671874,-0.3964667320251465,-0.8149371147155762,-0.021134400740265846
1789221671715084300,8.845084228515624,-0.43815359473228455,-0.8275503516197205,0.010502208955585957
1789221671725163500,8.85516357421875,-0.4565669596195221,-0.7807140946388245,0.10862557590007782
1789221671735242200,8.8652421875,-0.39941900968551636,-0.7237465977668762,0.1877973973751068
1789221671745321200,8.8753212890625,-0.43490564823150635,-0.7086507081985474,0.16115540266036987
1789221671755401500,8.8854013671875,-0.4094284176826477,-0.72139972448349,-0.02575463056564331
1789221671765480200,8.895480224609376,-0.3878070116043091,-0.7544894814491272,-0.16689711809158325
1789221671775559400,8.905559326171876,-0.3535225987434387,-0.726875901222229,0.05500602722167969
1789221671785638400,8.915638427734375,-0.3661726117134094,-0.659261167049408,0.13469074666500092
1789221671795718400,8.925718505859376,-0.3428768813610077,-0.6129991412162781,0.0866374522447586
1789221671805797400,8.93579736328125,-0.3251335620880127,-0.5779908299446106,0.018304206430912018
1789221671815876600,8.945876708984375,-0.3262326121330261,-0.604902446269989,0.18397913873195648
1789221671825956400,8.955956298828125,-0.24967661499977112,-0.6093406081199646,0.2014787644147873
1789221671836035600,8.96603564453125,-0.25551244616508484,-0.6199833154678345,-0.07969433814287186
1789221671846114300,8.9761142578125,-0.2493400275707245,-0.5951208472251892,-0.0035561611875891685
1789221671856193300,8.986193359375,-0.22981849312782288,-0.5399540662765503,0.07365486025810242
1789221671866273300,8.996273193359375,-0.2257494479417801,-0.541541576385498,0.05749933421611786
1789221671876352300,9.006352294921875,-0.2524723410606384,-0.5370053052902222,0.1791895180940628
1789221671886431500,9.016431396484375,-0.2649244964122772,-0.5548679232597351,-0.053258106112480164
1789221671896510500,9.026510498046875,-0.2769772410392761,-0.5743050575256348,-0.10406447947025299
1789221671906589200,9.036589111328125,-0.266008198261261,-0.5502660274505615,0.24994394183158875
1789221671916669400,9.04666943359375,-0.2433343380689621,-0.5460683703422546,0.292940229177475
1789221671926748200,9.056748046875,-0.18568462133407593,-0.599831223487854,0.03335897997021675
1789221671936827400,9.066827392578125,-0.12045252323150635,-0.605743944644928,-0.04373389482498169
1789221671946907400,9.076907470703125,-0.1683766394853592,-0.6028863787651062,-0.08638548851013184
1789221671956986400,9.086986328125,-0.18027164041996002,-0.5354520678520203,0.08201705664396286
1789221671967065300,9.0970654296875,-0.12005410343408585,-0.4912196099758148,0.28861814737319946
1789221671977144600,9.10714453125,-0.005942231509834528,-0.49790921807289124,0.35431167483329773
1789221671987224300,9.117224365234375,-0.031652387231588364,-0.4798353910446167,0.120418481528759
1789221671997303600,9.127303466796874,-0.09891892969608307,-0.5053965449333191,-0.10682347416877747
1789221672007382300,9.13738232421875,-0.0984635278582573,-0.47935935854911804,-0.08609049767255783
1789221672017461200,9.147461181640624,-0.052485041320323944,-0.4166305661201477,0.19508221745491028
1789221672027541500,9.15754150390625,-0.012327768839895725,-0.33753812313079834,0.20077311992645264
1789221672037620200,9.1676201171875,-0.015735382214188576,-0.3163348138332367,-0.07798798382282257
1789221672047699500,9.177699462890626,0.03452672064304352,-0.3066137433052063,-0.08824275434017181
1789221672057778400,9.1877783203125,0.017100319266319275,-0.2709030508995056,0.14491784572601318
1789221672067858400,9.1978583984375,0.021674031391739845,-0.28672677278518677,0.1362529844045639
1789221672077937400,9.2079375,0.039133310317993164,-0.2826116979122162,0.02270819991827011
1789221672088016400,9.218016357421876,0.04782560095191002,-0.2850969731807709,-0.030897505581378937
1789221672098095400,9.228095458984376,0.018064675852656364,-0.2650214731693268,-0.10841470956802368
1789221672108175400,9.23817529296875,0.05316194146871567,-0.23638533055782318,0.0959155261516571
1789221672118254300,9.24825439453125,0.05111178383231163,-0.1850953996181488,0.16458916664123535
1789221672128333300,9.258333251953125,0.1081809252500534,-0.18418778479099274,0.1144181415438652
1789221672138412500,9.26841259765625,0.1417713761329651,-0.16854961216449738,-0.0820557177066803
1789221672148492300,9.2784921875,0.18950293958187103,-0.16383102536201477,0.015505990944802761
1789221672158571300,9.2885712890625,0.18289995193481445,-0.14685028791427612,-0.015493769198656082
1789221672168650500,9.298650390625,0.21966701745986938,-0.134607195854187,0.07888919115066528
1789221672178729200,9.308729248046875,0.18528471887111664,-0.05996275693178177,0.15360572934150696
1789221672188809500,9.3188095703125,0.1824798882007599,-0.03703294321894646,0.02954290248453617
1789221672198888200,9.32888818359375,0.2615448832511902,-0.0367332361638546,0.04574296623468399
1789221672208967400,9.338967529296875,0.2759464383125305,-0.028941094875335693,0.0662759393453598
1789221672219046400,9.34904638671875,0.3059317171573639,-0.03837532922625542,-0.03179685398936272
1789221672229126400,9.35912646484375,0.3233940601348877,-0.006457609590142965,0.02702624909579754
1789221672239205400,9.369205322265625,0.302347332239151,0.0334334671497345,0.09876563400030136
1789221672249284400,9.379284423828125,0.38874614238739014,0.08409024775028229,0.19081513583660126
1789221672259363300,9.38936328125,0.340554416179657,0.15460191667079926,-0.04388931393623352
1789221672269443300,9.399443359375,0.38305580615997314,0.18910850584506989,-0.06503640860319138
1789221672279522300,9.409522216796875,0.45082685351371765,0.2461547702550888,0.3471742272377014
1789221672289601300,9.419601318359375,0.4032031297683716,0.2862478494644165,0.3523751199245453
1789221672299680300,9.42968017578125,0.4302695095539093,0.2665169835090637,0.0018416522070765495
1789221672309760300,9.43976025390625,0.4888782501220703,0.278528094291687,-0.22739021480083466
1789221672319839200,9.449839111328124,0.4313271939754486,0.31808310747146606,-0.0629488080739975
1789221672329918500,9.45991845703125,0.4699779152870178,0.37220868468284607,0.09771063923835754
1789221672339997200,9.4699970703125,0.5285150408744812,0.4159132242202759,0.0024170097894966602
1789221672350077400,9.480077392578124,0.5257144570350647,0.4709056317806244,-0.031448811292648315
1789221672360156400,9.490156494140624,0.5364536046981812,0.4910254180431366,0.048872873187065125
1789221672370235400,9.5002353515625,0.553863525390625,0.5196970105171204,0.06910650432109833
1789221672380314400,9.510314453125,0.5676465630531311,0.5220494866371155,-0.09446077793836594
1789221672390394400,9.520394287109376,0.6569787859916687,0.5476451516151428,0.006162767764180899
1789221672400473300,9.530473388671876,0.5863453149795532,0.5746737718582153,0.11624621599912643
1789221672410552300,9.54055224609375,0.597873330116272,0.6120696067810059,-0.1357649862766266
1789221672420631300,9.55063134765625,0.652311384677887,0.6267489194869995,0.011030438356101513
1789221672430711300,9.560711181640626,0.6357083916664124,0.6947223544120789,0.2034752517938614
1789221672440790500,9.57079052734375,0.6046955585479736,0.6853150725364685,-0.06752388179302216
1789221672450869200,9.580869140625,0.6726386547088623,0.6503973007202148,-0.08762222528457642
1789221672460948200,9.5909482421875,0.6631745100021362,0.701657235622406,0.11064018309116364
1789221672471028200,9.6010283203125,0.6812970638275146,0.7310090065002441,-0.0167156383395195
1789221672481107200,9.611107177734375,0.7164866328239441,0.7438675165176392,-0.09960515052080154
1789221672491186400,9.6211865234375,0.657240092754364,0.7820186018943787,0.2354559302330017
1789221672501265400,9.631265380859375,0.647678792476654,0.7824673652648926,0.28372296690940857
1789221672511345400,9.641345458984375,0.6929402947425842,0.7617602348327637,-0.0693804919719696
1789221672521424400,9.65142431640625,0.6398215889930725,0.7550327777862549,-0.2674904763698578
1789221672531503400,9.66150341796875,0.6837666630744934,0.777225911617279,-0.049693964421749115
1789221672541582300,9.671582275390625,0.6710048913955688,0.7965184450149536,0.0743086114525795
1789221672551662300,9.681662353515625,0.6461567878723145,0.8138865232467651,0.03255956247448921
1789221672561741300,9.6917412109375,0.6509138941764832,0.8030145168304443,0.10569849610328674
1789221672571820300,9.7018203125,0.6760509610176086,0.8250409960746765,0.06732900440692902
1789221672581899500,9.7118994140625,0.543225109577179,0.8412566184997559,-0.20739950239658356
1789221672591979300,9.721979248046875,0.5770936012268066,0.7743510603904724,-0.09346867352724075
1789221672602058500,9.73205859375,0.6817441582679749,0.8059560656547546,0.16051723062992096
1789221672612137200,9.74213720703125,0.5671073198318481,0.7393306493759155,-0.058544278144836426
1789221672622216200,9.75221630859375,0.6062173843383789,0.7339957356452942,0.031567879021167755
1789221672632296400,9.76229638671875,0.5741902589797974,0.7554290890693665,0.1601434350013733
1789221672642375200,9.772375244140624,0.5361123085021973,0.7528685927391052,0.06270167976617813
1789221672652454400,9.782454345703124,0.5347397327423096,0.7400302886962891,-0.007816431112587452
1789221672662533400,9.792533447265624,0.48500001430511475,0.6939460039138794,-0.05162595212459564
1789221672672613400,9.80261328125,0.48395150899887085,0.6845656037330627,0.00025455589639022946
1789221672682692400,9.8126923828125,0.48554861545562744,0.6612266898155212,-0.009181289933621883
1789221672692771300,9.822771240234376,0.4760152995586395,0.6740543246269226,0.09263348579406738
1789221672702850300,9.832850341796876,0.43721118569374084,0.691206693649292,0.07164884358644485
1789221672712930600,9.8429306640625,0.5212027430534363,0.665950357913971,0.2660257816314697
1789221672723009300,9.85300927734375,0.4581949710845947,0.713278591632843,0.10124937444925308
1789221672733088300,9.863088134765626,0.3870435655117035,0.6765351891517639,-0.17819823324680328
1789221672743167500,9.87316748046875,0.4346793591976166,0.7056428790092468,-0.16265098750591278
1789221672753247200,9.883247314453126,0.4327224791049957,0.705937385559082,0.15603218972682953
1789221672763326500,9.893326416015626,0.46114909648895264,0.7254733443260193,0.41961032152175903
1789221672773405400,9.903405517578125,0.3801114857196808,0.678798496723175,0.11185037344694138
1789221672783484200,9.913484130859375,0.37999096512794495,0.6473110914230347,-0.11830467730760574
1789221672793564400,9.923564453125,0.34273120760917664,0.650279700756073,-0.13942673802375793
1789221672803643100,9.93364306640625,0.35484376549720764,0.6370686292648315,0.038147296756505966
1789221672813722400,9.943722412109375,0.3417745530605316,0.634872317314148,0.2530798316001892
1789221672823801300,9.95380126953125,0.33117005228996277,0.6247609257698059,0.3235742747783661
1789221672833881300,9.96388134765625,0.3117105960845947,0.648582935333252,0.009641122072935104
1789221672843960300,9.973960205078125,0.19865097105503082,0.5849233865737915,-0.2887362837791443
1789221672854039600,9.98403955078125,0.25724688172340393,0.613049328327179,-0.049828361719846725
1789221672864118300,9.9941181640625,0.19091500341892242,0.5498737096786499,0.17208704352378845
1789221672874198500,10.004198486328125,0.18303416669368744,0.4799984395503998,0.2051219642162323
1789221672884277200,10.01427734375,0.12977996468544006,0.4250948131084442,0.13469842076301575
1789221672894356200,10.024356201171875,0.05557656288146973,0.37394750118255615,-0.07366649806499481
1789221672904435500,10.034435546875,0.08044860512018204,0.32516050338745117,-0.03831828013062477
1789221672914515200,10.04451513671875,0.05674886703491211,0.29555201530456543,0.2333446592092514
1789221672924594400,10.054594482421875,0.017505204305052757,0.2573910057544708,0.11748230457305908
1789221672934673400,10.06467333984375,-0.03715217858552933,0.19916310906410217,-0.09124614298343658
1789221672944752400,10.07475244140625,-0.040938880294561386,0.20255835354328156,0.04049619659781456
1789221672954832400,10.084832275390625,-0.08102983981370926,0.15186242759227753,0.07421554625034332
1789221672964911000,10.0949111328125,-0.06858617067337036,0.09073620289564133,0.06608973443508148
1789221672974990300,10.104990234375,-0.1645505130290985,0.049503546208143234,-0.059848494827747345
1789221672985069300,10.1150693359375,-0.17264324426651,-0.023442059755325317,-0.03387810289859772
1789221672995149300,10.1251494140625,-0.1595095992088318,-0.0455513596534729,0.09735927730798721
1789221673005228300,10.135228271484374,-0.20623022317886353,-0.06788478791713715,0.008532258681952953
1789221673015307500,10.1453076171875,-0.2121642827987671,-0.10710702836513519,-0.01925356686115265
1789221673025386200,10.15538623046875,-0.2577141225337982,-0.1075311228632927,-0.09221915155649185
1789221673035466500,10.165466552734374,-0.2379090040922165,-0.14397993683815002,0.01585431955754757
1789221673045545200,10.175545166015626,-0.28546419739723206,-0.1639823317527771,-0.012968441471457481
1789221673055624200,10.185624267578126,-0.325109601020813,-0.2232680320739746,-0.04901246353983879
1789221673065703400,10.195703369140626,-0.31368544697761536,-0.2535857558250427,0.1610521674156189
1789221673075783200,10.205783203125,-0.35020139813423157,-0.2652567923069,0.08689645677804947
1789221673085862400,10.2158623046875,-0.36529138684272766,-0.3317282199859619,-0.19135859608650208
1789221673095941400,10.22594140625,-0.3460407257080078,-0.2932378351688385,-0.12013209611177444
1789221673106020400,10.236020263671875,-0.4168044626712799,-0.32642263174057007,-0.030533814802765846
1789221673116100400,10.246100341796875,-0.3859509527683258,-0.3560660183429718,-0.0427585244178772
1789221673126179600,10.2561796875,-0.3892348110675812,-0.3626754879951477,0.03400900214910507
1789221673136258300,10.26625830078125,-0.42396029829978943,-0.3861757516860962,0.0016177729703485966
1789221673146337300,10.276337158203125,-0.4074842035770416,-0.4149423837661743,-0.04152122139930725
1789221673156416800,10.286416748046875,-0.40291234850883484,-0.45450258255004883,-0.025340650230646133
1789221673166495700,10.296495849609375,-0.43952035903930664,-0.48613259196281433,-0.042277991771698
1789221673176575000,10.306574951171875,-0.41929417848587036,-0.5094762444496155,-0.09373185783624649
1789221673186654000,10.316654052734375,-0.44172558188438416,-0.512201726436615,-0.0039932518266141415
1789221673196734000,10.32673388671875,-0.4080459177494049,-0.48317965865135193,-0.013049597851932049
1789221673206813000,10.33681298828125,-0.43750321865081787,-0.5136494636535645,-0.14074115455150604
1789221673216891600,10.3468916015625,-0.42734378576278687,-0.5218416452407837,-0.01780378445982933
1789221673226971000,10.356970947265625,-0.4320301115512848,-0.5306858420372009,0.052621081471443176
1789221673237051000,10.36705078125,-0.41126731038093567,-0.5615295171737671,0.121402807533741
1789221673247129900,10.3771298828125,-0.38045641779899597,-0.5598507523536682,0.1085641086101532
1789221673257208800,10.387208740234374,-0.41080766916275024,-0.5476382970809937,0.017270945012569427
1789221673267287800,10.397287841796874,-0.36758002638816833,-0.5141395926475525,-0.06727948784828186
1789221673277367800,10.407367919921874,-0.36439064145088196,-0.48266395926475525,-0.25978583097457886
1789221673287446800,10.41744677734375,-0.3715420067310333,-0.4267633855342865,-0.3480946719646454
1789221673297525800,10.42752587890625,-0.33739522099494934,-0.38591131567955017,-0.11633012443780899
1789221673307604700,10.437604736328124,-0.30356624722480774,-0.39453616738319397,0.298106849193573
1789221673317685000,10.44768505859375,-0.3125416338443756,-0.4088035225868225,0.3361636996269226
1789221673327763700,10.457763671875,-0.3771376609802246,-0.4084751009941101,-0.27829477190971375
1789221673337843000,10.467843017578126,-0.3183004558086395,-0.459701269865036,-0.38239267468452454
1789221673347922000,10.477921875,-0.3070669174194336,-0.384209543466568,-0.04771620035171509
1789221673358002000,10.488001953125,-0.25935718417167664,-0.3572399914264679,0.008491413667798042
1789221673368081000,10.498080810546876,-0.19588635861873627,-0.3427443206310272,-0.002044984372332692
1789221673378159900,10.508159912109376,-0.23384040594100952,-0.30307281017303467,-0.14355550706386566
1789221673388238800,10.51823876953125,-0.22207634150981903,-0.27327051758766174,-0.13230669498443604
1789221673398318800,10.52831884765625,-0.22035621106624603,-0.14603321254253387,-0.24061505496501923
1789221673408397800,10.538397705078125,-0.27706432342529297,-0.19440171122550964,0.16799518465995789
1789221673418476800,10.548476806640625,-0.08314676582813263,-0.249853253364563,0.5714457631111145
1789221673428555800,10.5585556640625,-0.12443683296442032,-0.23274752497673035,0.26861390471458435
1789221673438635800,10.5686357421875,-0.2574862241744995,-0.1684473603963852,-0.16647976636886597
1789221673448714800,10.57871484375,-0.11289867758750916,-0.13503794372081757,-0.2606816589832306
1789221673458794000,10.5887939453125,-0.033417973667383194,-0.1743675023317337,-0.2508567273616791
1789221673468872700,10.598872802734375,-0.08776158839464188,-0.13309624791145325,-0.3829209804534912
1789221673478953000,10.608952880859375,-0.19244752824306488,-0.15854062139987946,-0.1816323697566986
1789221673489031700,10.61903173828125,-0.1076323539018631,-0.056581273674964905,0.10213363915681839
1789221673499111000,10.62911083984375,-0.1484423726797104,-0.08769232034683228,0.12814739346504211
1789221673509190000,10.63918994140625,-0.07506456226110458,-0.09977498650550842,0.32839319109916687
1789221673519270000,10.649269775390625,0.006989023648202419,0.009599443525075912,0.2747028172016144
1789221673529348900,10.659348876953125,0.0032546899747103453,-0.08186814188957214,-0.10581153631210327
1789221673539427800,10.669427734375,0.004718896001577377,-0.09635920077562332,-0.45501425862312317
1789221673549506800,10.6795068359375,0.04942804574966431,-0.031043043360114098,-0.3614824712276459
1789221673559586800,10.6895869140625,0.008398053236305714,-0.007758759893476963,0.013835235498845577
1789221673569665800,10.699665771484375,0.024352192878723145,0.02703794836997986,0.06979068368673325
1789221673579744800,10.709744873046875,-0.02364116534590721,-0.014057822525501251,-0.05591718107461929
1789221673589825000,10.719824951171875,-0.041199229657649994,-0.01956324838101864,0.11754649132490158
1789221673599903700,10.72990380859375,-0.019377553835511208,-0.051676977425813675,0.16211289167404175
1789221673609982700,10.739982666015624,-0.05373476445674896,-0.09386073797941208,-0.232000932097435
1789221673620062000,10.75006201171875,-0.008699914440512657,-0.13411813974380493,-0.253017783164978
1789221673630141700,10.7601416015625,0.00783554371446371,-0.08293099701404572,-0.16088706254959106
1789221673640221000,10.770220947265624,-0.05551599711179733,-0.08932631462812424,-0.18364110589027405
1789221673650300000,10.7802998046875,-0.030623283237218857,-0.15626411139965057,0.13407912850379944
1789221673660379000,10.79037890625,0.02646530233323574,-0.11882378906011581,0.351346492767334
1789221673670459000,10.800458984375,-0.11320400983095169,-0.14409129321575165,0.06682894378900528
1789221673680537900,10.810537841796876,-0.11512095481157303,-0.2170800268650055,-0.2319745272397995
1789221673690616800,10.820616943359376,-0.060603562742471695,-0.1977696418762207,-0.11407016217708588
1789221673700695800,10.83069580078125,-0.04900256544351578,-0.18503360450267792,0.06570173054933548
1789221673710775800,10.84077587890625,-0.06622673571109772,-0.19885370135307312,-0.11350151896476746
1789221673720854800,10.850854736328126,-0.0912356823682785,-0.21629580855369568,-0.26428622007369995
1789221673730934000,10.86093408203125,-0.04215552285313606,-0.1877204328775406,0.056049883365631104
1789221673741012700,10.8710126953125,-0.13661545515060425,-0.22212821245193481,0.12269815802574158
1789221673751093000,10.881093017578126,-0.1097797229886055,-0.24854367971420288,-0.017907779663801193
1789221673761171700,10.891171630859375,-0.16267354786396027,-0.26660415530204773,0.12919165194034576
1789221673771250700,10.901250732421875,-0.12732577323913574,-0.2523355484008789,0.23819659650325775
1789221673781330000,10.911329833984375,-0.08775733411312103,-0.28224977850914,0.08893946558237076
1789221673791409700,10.92140966796875,-0.0704670324921608,-0.25305795669555664,-0.13132865726947784
1789221673801489000,10.931489013671875,-0.0810035690665245,-0.2434018850326538,-0.1372145116329193
1789221673811567900,10.94156787109375,-0.06210603564977646,-0.20049357414245605,-0.038375016301870346
1789221673821646800,10.951646728515625,-0.052337996661663055,-0.18902309238910675,0.06889315694570541
1789221673831726800,10.961726806640625,-0.0617937333881855,-0.1451086699962616,0.04413227364420891
1789221673841805800,10.971805908203125,-0.14063608646392822,-0.15685240924358368,-0.12917587161064148
1789221673851884800,10.981884765625,-0.06530723720788956,-0.21421092748641968,0.05093316733837128
1789221673861963800,10.9919638671875,-0.086532361805439,-0.1630372256040573,0.13716259598731995
1789221673872043800,11.002043701171875,-0.08293872326612473,-0.20230118930339813,0.015287956222891808
1789221673882122800,11.012122802734375,0.003346096258610487,-0.22673462331295013,0.06704515963792801
1789221673892202000,11.022201904296875,0.014773114584386349,-0.15489017963409424,0.09506704658269882
1789221673902280700,11.03228076171875,-0.015173332765698433,-0.19343730807304382,0.035507578402757645
1789221673912361000,11.04236083984375,0.04677393659949303,-0.14228861033916473,0.12480729073286057
1789221673922440000,11.05243994140625,-0.04365023598074913,-0.10050494223833084,-0.16663680970668793
1789221673932518700,11.0625185546875,-0.0741514042019844,-0.10103420913219452,-0.3582771420478821
1789221673942598000,11.072597900390624,0.06717456132173538,-0.1500725895166397,0.30392053723335266
1789221673952677600,11.082677734375,0.10003248602151871,-0.07874554395675659,0.52137291431427
1789221673962756900,11.0927568359375,0.04929820075631142,-0.14050398766994476,0.28365465998649597
1789221673972835800,11.1028359375,0.05101104825735092,-0.09767898917198181,-0.019885024055838585
1789221673982915800,11.112915771484374,0.03841456398367882,-0.090004563331604,-0.4443526864051819
1789221673992994800,11.122994873046874,0.023702559992671013,-0.0878644734621048,-0.3667084276676178
1789221674003074000,11.133073974609376,0.08509082347154617,-0.015165502205491066,0.19597302377223969
1789221674013152800,11.14315283203125,0.09879324585199356,0.010200252756476402,0.15895943343639374
1789221674023233000,11.15323291015625,0.11935311555862427,0.013337989337742329,0.09489469230175018
1789221674033311700,11.163311767578126,0.12653453648090363,0.025340702384710312,0.1829923540353775
1789221674043390700,11.173390625,0.13682419061660767,0.015071818605065346,-0.093669593334198
1789221674053470000,11.183469970703126,0.07874375581741333,-0.0075478097423911095,-0.21466323733329773
1789221674063549700,11.1935498046875,0.13740494847297668,0.039325423538684845,0.17018964886665344
1789221674073629000,11.20362890625,0.15249204635620117,0.08846907317638397,0.14720697700977325
1789221674083708000,11.2137080078125,0.1372385174036026,0.05259761959314346,-0.1437138170003891
1789221674093787000,11.223786865234375,0.21510766446590424,0.0774560421705246,-0.018500668928027153
1789221674103867000,11.233866943359375,0.17862582206726074,0.1171102523803711,-0.06681946665048599
1789221674113945600,11.243945556640625,0.20822247862815857,0.1126718819141388,-0.06956478953361511
1789221674124024800,11.25402490234375,0.25599798560142517,0.1878071129322052,0.21832744777202606
1789221674134103800,11.264103759765625,0.21478815376758575,0.21710899472236633,0.1910184919834137
1789221674144183800,11.274183837890625,0.2648851275444031,0.1876685619354248,-0.0347917340695858
1789221674154263600,11.284263671875,0.23061735928058624,0.18566793203353882,-0.1729641705751419
1789221674164342500,11.294342529296875,0.3073965907096863,0.15599951148033142,0.04987344145774841
1789221674174421500,11.30442138671875,0.29536595940589905,0.18266290426254272,0.08586619794368744
1789221674184501800,11.314501708984375,0.28983911871910095,0.15402060747146606,-0.04436371475458145
1789221674194580500,11.32458056640625,0.3756452798843384,0.22492261230945587,0.036344725638628006
1789221674204659700,11.33465966796875,0.3206310272216797,0.2702653110027313,-0.003275387454777956
1789221674214738700,11.34473876953125,0.4176441729068756,0.33063215017318726,0.024592695757746696
1789221674224818700,11.354818603515625,0.3128666281700134,0.38236910104751587,0.1428261250257492
1789221674234897700,11.364897705078125,0.48035165667533875,0.39331236481666565,0.4134340286254883
1789221674244976600,11.3749765625,0.476934552192688,0.41624563932418823,0.3271090090274811
1789221674255056600,11.385056640625,0.319620817899704,0.3881966769695282,-0.248552605509758
1789221674265135600,11.395135498046875,0.38361871242523193,0.30919718742370605,-0.19091647863388062
1789221674275214600,11.405214599609375,0.40211835503578186,0.3840576112270355,0.0069310013204813
1789221674285293600,11.41529345703125,0.38023170828819275,0.3434228301048279,-0.17744389176368713
1789221674295373600,11.42537353515625,0.4191092550754547,0.3691607117652893,-0.04999355599284172
1789221674305452500,11.43545263671875,0.4066203832626343,0.41682571172714233,0.1630587875843048
1789221674315531500,11.445531494140624,0.397732138633728,0.4190523326396942,0.31237757205963135
1789221674325610800,11.45561083984375,0.4102146327495575,0.4830408990383148,0.015852153301239014
1789221674335690500,11.4656904296875,0.3997574746608734,0.4338786005973816,-0.2721693813800812
1789221674345769700,11.475769775390624,0.49743929505348206,0.5421339869499207,-0.333410382270813
1789221674355848400,11.485848388671876,0.41321393847465515,0.48823946714401245,-0.16944731771945953
1789221674365927700,11.495927734375,0.434893399477005,0.5106411576271057,0.0386158712208271
1789221674376007700,11.506007568359376,0.4107765853404999,0.47805917263031006,0.1036113053560257
1789221674386086700,11.516086669921876,0.3623006343841553,0.5085344910621643,-0.0418739952147007
1789221674396165600,11.52616552734375,0.3738195598125458,0.48826685547828674,-0.04300382360816002
1789221674406244600,11.53624462890625,0.5103209614753723,0.5598694086074829,0.17565101385116577
1789221674416324600,11.54632470703125,0.40705806016921997,0.5834928154945374,-0.09457248449325562
1789221674426403600,11.556403564453126,0.4472440779209137,0.5332147479057312,-0.14127233624458313
1789221674436482600,11.566482666015625,0.5365694761276245,0.5987057685852051,0.31208178400993347
1789221674446562600,11.5765625,0.4088138937950134,0.6056725978851318,0.025080375373363495
1789221674456641800,11.586641845703125,0.4408530592918396,0.5576558709144592,-0.05334673076868057
1789221674466720500,11.596720458984375,0.39680996537208557,0.6084631085395813,0.1304159015417099
1789221674476799500,11.606799560546875,0.4816846251487732,0.5589383840560913,-0.009255515411496162
1789221674486879500,11.61687939453125,0.447891503572464,0.5557923913002014,0.006401208229362965
1789221674496958500,11.62695849609375,0.4438164234161377,0.5491191148757935,0.11211362481117249
1789221674507037700,11.63703759765625,0.5477792620658875,0.604059636592865,0.3405366837978363
1789221674517116700,11.64711669921875,0.4405757486820221,0.6304329633712769,0.3072497844696045
1789221674527196700,11.65719677734375,0.4211397171020508,0.6448595523834229,-0.06131016090512276
1789221674537275600,11.667275634765625,0.45981648564338684,0.5864492654800415,-0.3269985616207123
1789221674547354600,11.677354736328125,0.44637951254844666,0.5997751951217651,-0.5271599292755127
1789221674557433600,11.68743359375,0.40818676352500916,0.5943673253059387,-0.3469420373439789
1789221674567513600,11.697513671875,0.4915176033973694,0.6062955856323242,0.38067111372947693
1789221674577592600,11.707592529296875,0.5101242065429688,0.6965420842170715,0.5524610877037048
1789221674587671600,11.717671630859375,0.4237384498119354,0.6698055863380432,0.40097275376319885
1789221674597750800,11.727750732421875,0.4554602801799774,0.7338113188743591,0.06344208866357803
1789221674607830500,11.73783056640625,0.48178747296333313,0.7192469835281372,-0.2684682011604309
1789221674617909800,11.74790966796875,0.4891713261604309,0.7159391641616821,-0.2803376019001007
1789221674627988500,11.757988525390624,0.5019267797470093,0.7226409912109375,-0.07475913316011429
1789221674638068700,11.76806884765625,0.5392417907714844,0.7180715799331665,0.2985694706439972
1789221674648147500,11.7781474609375,0.530086100101471,0.7987509965896606,0.3992721140384674
1789221674658226400,11.788226318359374,0.3719410300254822,0.8348435163497925,-0.03542455658316612
1789221674668305700,11.7983056640625,0.43624332547187805,0.797142744064331,-0.08622808754444122
1789221674678385400,11.808385498046874,0.624492347240448,0.8154175281524658,0.3246912360191345
1789221674688464600,11.818464599609374,0.5326029062271118,0.8351661562919617,0.0966639369726181
1789221674698543600,11.828543701171874,0.37029212713241577,0.789670467376709,-0.6091707944869995
1789221674708622600,11.83862255859375,0.40497687458992004,0.7357391119003296,-0.5772637128829956
1789221674718702600,11.84870263671875,0.46714988350868225,0.726301908493042,0.011470858007669449
1789221674728781800,11.85878173828125,0.6028238534927368,0.7712339758872986,0.4310164451599121
1789221674738860500,11.868860595703126,0.46914932131767273,0.8652425408363342,0.3156343400478363
1789221674748939500,11.878939453125,0.2662065923213959,0.7425355315208435,0.018817050382494926
1789221674759019500,11.88901953125,0.42519187927246094,0.6553699970245361,0.3296058773994446
1789221674769098500,11.899098388671876,0.6025800108909607,0.7745350003242493,0.44982123374938965
1789221674779177700,11.909177734375,0.45735087990760803,0.9076069593429565,-0.18970800936222076
1789221674789257500,11.919257568359376,0.24236825108528137,0.7867122292518616,-0.8738319873809814
1789221674799336700,11.929336669921875,0.2762414515018463,0.7489986419677734,-0.3100559413433075
1789221674809415700,11.939415771484375,0.520472526550293,0.7438880801200867,0.4274125099182129
1789221674819494400,11.949494384765625,0.3687482178211212,0.651015043258667,0.48504820466041565
1789221674829574700,11.95957470703125,0.17994260787963867,0.6209610104560852,0.5894560813903809
1789221674839653400,11.9696533203125,0.25627008080482483,0.6787941455841064,0.5901545882225037
1789221674849732600,11.979732666015625,0.2560487687587738,0.6783688068389893,0.14335978031158447
1789221674859811600,11.9898115234375,0.17932425439357758,0.5953428149223328,0.051033806055784225
1789221674869891600,11.9998916015625,0.2563159465789795,0.6448892951011658,0.13038961589336395
1789221674879970600,12.009970458984375,0.08311177790164948,0.5765955448150635,0.14970216155052185
1789221674890049800,12.0200498046875,0.14171090722084045,0.5860663056373596,0.23987147212028503
1789221674900128500,12.03012841796875,0.05556866526603699,0.5417171716690063,0.00410826038569212
1789221674910208800,12.040208740234375,0.10672105848789215,0.5501892566680908,-0.02113903872668743
1789221674920287500,12.05028759765625,0.029750853776931763,0.549027681350708,0.07525358349084854
1789221674930366500,12.060366455078125,0.11708789318799973,0.5149192214012146,0.18236298859119415
1789221674940445700,12.07044580078125,0.04923081398010254,0.5467451810836792,0.3400985598564148
1789221674950525400,12.080525390625,0.04876076430082321,0.5640336275100708,0.4623352587223053
1789221674960604700,12.090604736328125,0.0576048418879509,0.5784816741943359,0.07971817255020142
1789221674970683600,12.10068359375,-0.09148850291967392,0.47759073972702026,-0.11770302057266235
1789221674980763600,12.110763671875,0.08918486535549164,0.4977421760559082,0.03927813097834587
1789221674990842600,12.120842529296874,-0.01127223763614893,0.5049098134040833,-0.09688717126846313
1789221675000921600,12.130921630859374,-0.05115500092506409,0.32727310061454773,0.41334468126296997
1789221675011000600,12.14100048828125,-0.013080318458378315,0.3285282552242279,0.8876004219055176
1789221675021080600,12.15108056640625,-0.04660438373684883,0.37534478306770325,0.7888316512107849
1789221675031159600,12.16115966796875,-0.07503948360681534,0.42628705501556396,0.3243047595024109
1789221675041238500,12.171238525390624,-0.1731945276260376,0.39935415983200073,-0.2240082174539566
1789221675051317800,12.18131787109375,-0.24200981855392456,0.515232264995575,-0.4524669647216797
1789221675061397500,12.1913974609375,-0.16694748401641846,0.3979841470718384,-0.14642618596553802
1789221675071476700,12.201476806640626,-0.04271874576807022,0.39101144671440125,0.45999133586883545
1789221675081555700,12.2115556640625,-0.17286591231822968,0.26220253109931946,0.5731588006019592
1789221675091634400,12.221634521484376,-0.3121063709259033,0.2657243013381958,0.5782302021980286
1789221675101714700,12.231714599609376,-0.2927647531032562,0.29909729957580566,0.15197160840034485
1789221675111793400,12.24179345703125,-0.319053590297699,0.21711081266403198,-0.19333678483963013
1789221675121872600,12.25187255859375,-0.2967495024204254,0.2972792983055115,-0.23663820326328278
1789221675131952600,12.26195263671875,-0.3449420630931854,0.16895568370819092,0.02094540372490883
1789221675142031600,12.272031494140625,-0.24074271321296692,0.02797868475317955,0.6507620215415955
1789221675152110000,12.282110107421875,-0.30549293756484985,-0.07447897642850876,0.7441058158874512
1789221675162189000,12.29218896484375,-0.5338174700737,-0.0847107470035553,0.3462594449520111
1789221675172269000,12.30226904296875,-0.5796549916267395,-0.09355563670396805,-0.1470876932144165
1789221675182348000,12.31234814453125,-0.507637619972229,-0.0362720787525177,-0.28312042355537415
1789221675192427300,12.32242724609375,-0.40421536564826965,-0.1915024071931839,0.2886940836906433
1789221675202506000,12.332506103515625,-0.4177827835083008,-0.29297518730163574,0.6310838460922241
1789221675212586200,12.342586181640625,-0.5936477780342102,-0.3044624626636505,0.4357271194458008
