time,seconds_elapsed,z,y,x
1789309745429857800,0.05485791015625,0.3021837884426117,0.2842781293958425,-0.057015087103936817
1789309745439870000,0.064869873046875,0.15598258887231348,0.22987784616649148,-0.3848310919910669
1789309745449881900,0.0748818359375,-0.4785387187361717,0.920238529896736,-0.8420724634155631
1789309745459893800,0.084893798828125,-0.923275121113658,1.2305986105322837,-0.5312081961175427
1789309745469906000,0.094906005859375,-1.1230687946617604,1.3315367730528116,-0.47729635399226095
1789309745479918600,0.104918701171875,-1.3578946186244487,1.3235662325650452,-0.3124992115560919
1789309745489930800,0.1149306640625,-1.401149238461256,1.0354098004311323,-0.09025662777470424
1789309745499942700,0.124942626953125,-1.4293208554565906,0.5584335087060928,-0.22647174578374252
1789309745509954800,0.134954833984375,-1.2318705301642416,0.09479717554748057,-0.23907343493718652
1789309745519966700,0.144966796875,-0.9079092096775769,-0.17290215949118137,-0.1332848367108032
1789309745529979000,0.154978759765625,-0.5918500406175852,-0.3631523441463709,-0.07500161110088228
1789309745539990800,0.16499072265625,-0.21701661102771758,-0.5040437468707561,-0.021483444468304514
1789309745550002700,0.175002685546875,0.7424842541992663,-0.5408136808633804,-0.0629452626042068
1789309745560014800,0.185014892578125,2.2175351796954867,-0.48707741450071335,-0.1558199456565082
1789309745570027800,0.19502783203125,1.8651561584979295,-0.15016893415749072,0.2394748553449288
1789309745580039700,0.205039794921875,0.9978636213690042,0.06985387294888495,0.4268024305516854
1789309745590051800,0.2150517578125,0.3073661595165729,-0.19059154543876647,0.21678689392507075
1789309745600063700,0.225063720703125,-0.35169454606473444,-0.4615928446322679,0.3428284449767321
1789309745610075600,0.23507568359375,-0.36566637279391284,-0.7043804412543774,0.5841880911549553
1789309745620087800,0.245087890625,-0.25241525666713716,-0.779645233336091,0.7961294812776147
1789309745630099700,0.255099609375,-0.22234277448654174,-0.6350900474071502,0.8424635085597634
1789309745640111600,0.265111572265625,-0.24185236159861087,-0.6021300270915031,0.553417653305456
1789309745650123800,0.275123779296875,-0.41155601730942726,-0.6409200687348843,-0.04426100213406607
1789309745660135700,0.2851357421875,-0.3680138127028942,-0.3855021231204271,-0.041319884347985496
1789309745670148900,0.29514892578125,-0.13194704876840113,-0.06939677683115004,-0.20274291527513413
1789309745680160800,0.305160888671875,-0.11091887378692626,0.11445640026330947,-0.40013022180125113
1789309745690172700,0.315172607421875,0.10272270784974098,0.23882804534137247,0.05504987884503789
1789309745700184800,0.325184814453125,0.2438859132528305,0.2682984699755907,0.1355545626079198
1789309745710196700,0.33519677734375,0.33113457311689853,0.32638650180697437,0.2760905851565301
1789309745720209000,0.345208984375,0.6368330916821956,0.24342472548186778,0.5143712622808292
1789309745730220800,0.355220703125,0.9819698866665363,-0.005247837525606155,0.5780949984442443
1789309745740232700,0.365232666015625,0.6909206557005644,0.0563888266980648,0.40252193924337626
1789309745750244900,0.375244873046875,0.4344283588528633,-0.11594693108201026,-0.07098005940064321
1789309745760257800,0.3852578125,0.2886538602620363,-0.2356114213824272,-0.24542099559931083
1789309745770270000,0.39527001953125,0.050915363723039626,-0.015361819782853125,-0.20037804930731654
1789309745780281900,0.40528173828125,-0.0020446575701236723,0.21143267341554164,-0.24378851729296147
1789309745790293800,0.415293701171875,-0.27761633341908454,0.1838368104815483,-0.2535029423059896
1789309745800306000,0.425305908203125,-0.525959810602665,-0.028978841724991797,-0.31221670482028274
1789309745810317800,0.43531787109375,0.14148060078918934,-0.11734160031080246,-0.06408446836774237
1789309745820330000,0.445330078125,0.8338818504363298,0.0730851099550724,0.6174069450698793
1789309745830342000,0.455341796875,0.9421814816355705,0.14846914450228213,0.6098239060623571
1789309745840353800,0.465353759765625,0.29298692103028295,0.43592765749990936,-0.23710443641915915
1789309745850366700,0.47536669921875,-0.6402823553532362,0.7964654352337122,-0.961923781524971
1789309745860378600,0.485378662109375,-1.0517623848170041,0.6781149501413106,-1.113071497586742
1789309745870390800,0.495390869140625,-0.8282844688206911,0.2914174797564745,-0.9371284360297024
1789309745880402700,0.505402587890625,-0.05942775600254535,0.11023790578544139,-0.4546452174514532
1789309745890414600,0.51541455078125,0.3413508467048406,0.1977051768362522,-0.19118490822203457
1789309745900426800,0.5254267578125,0.6610019027769565,0.37768648093342777,0.061647592043061736
1789309745910438700,0.535438720703125,1.055283544680476,0.5805009636074304,0.31339557587392625
1789309745920450800,0.545450927734375,1.35498253057003,0.7456862651109695,0.24410478016790002
1789309745930462700,0.555462646484375,1.581622125467658,1.0518149917870758,0.04737447624579072
1789309745940476000,0.565475830078125,1.6007172865599393,1.3847142364889382,-0.10997070621661842
1789309745950487800,0.57548779296875,1.2439964367657899,1.4645955824553967,-0.1736490323357284
1789309745960499700,0.585499755859375,0.5983166062831878,0.8658785786777734,-0.17998524961993098
1789309745970512000,0.595511962890625,-0.11818681896328925,0.4549368938744068,-0.14241181722469626
1789309745980523800,0.605523681640625,-0.38869887333512304,0.5215139371097087,-0.10510222339741886
1789309745990536000,0.615535888671875,0.02005202342569828,0.4745633853644132,-0.23985490417107938
1789309746000547800,0.6255478515625,0.34028409425616263,0.25165070203542705,0.1789295665545389
1789309746010559700,0.635559814453125,0.4722556929439306,-0.32488018889725206,0.5352800121337175
1789309746020572000,0.645572021484375,0.5083142637968063,-0.8197375897496938,0.6102859340835363
1789309746030584800,0.655584716796875,0.5737684404820204,-1.2112830846875906,0.33650797325093296
1789309746040597000,0.665596923828125,0.500274749726057,-1.6776088030606506,0.047372174690850075
1789309746050609000,0.67560888671875,-0.7205535774201154,-2.4125918878495693,-0.16618344569541513
1789309746060620800,0.685620849609375,-0.9959013813853264,-2.77979146156013,0.07038162315003574
1789309746070633000,0.695633056640625,-1.1661655935883521,-2.901965888854861,0.33382680787555874
1789309746080644900,0.705644775390625,-0.9178782305061817,-2.8620173248261214,0.3969081179495901
1789309746090656800,0.71565673828125,-0.45031391024887557,-2.527738023942709,0.3103840460330248
1789309746100669000,0.7256689453125,0.1253138943642378,-2.254656411343813,0.19781817222405224
1789309746110680800,0.735680908203125,0.8380331248968839,-1.8934785821408033,-0.09104611591827123
1789309746120694000,0.745694091796875,1.2214771464437246,-1.815574089205265,0.19027411352004855
1789309746130706000,0.755705810546875,0.5019897369503975,-1.9468220497936009,0.46842353090252725
1789309746140718000,0.765718017578125,-0.5423945203140378,-2.09294667699635,-0.12029621233269572
1789309746150730000,0.77572998046875,-0.9360708898007869,-2.0311510228186846,-0.9620423664033413
1789309746160742000,0.785741943359375,-0.5630839648604392,-1.4626508781284093,-0.6934602571807801
1789309746170754000,0.795754150390625,0.14866788194477557,-0.9559645077943801,-0.23309973082244395
1789309746180766000,0.805765869140625,0.91530750323534,-0.5330114826798439,0.3602199439562857
1789309746190777900,0.81577783203125,1.3283984750270843,-0.48799979004263877,0.7098938709136098
1789309746200790800,0.825790771484375,1.1988140637367963,-0.48041795661151404,0.1774673485148698
1789309746210802700,0.835802734375,0.42595279145240783,-0.7284440384089946,-0.17266856993101537
1789309746220814800,0.84581494140625,0.05618658212423324,-1.3781488866239786,-0.14245967495441436
1789309746230826800,0.85582666015625,0.08407236791551112,-1.592494817137718,-0.09089607645571231
1789309746240838700,0.865838623046875,0.24335341381132602,-0.9802174900412559,0.11422522185593843
1789309746250850800,0.875850830078125,0.65359133425951,-0.42792496830821036,0.23021109670884907
1789309746260862700,0.88586279296875,0.9542501050919294,-0.3365080828487873,0.12717347769103943
1789309746270875000,0.895875,1.201940379063785,0.3681406539529562,0.25097134146913885
1789309746280886800,0.90588671875,1.1866563006922601,0.2394850479453802,0.8853986141186208
1789309746290899700,0.915899658203125,0.051742169936001295,-0.5867781441807747,0.17467976362295448
1789309746300911900,0.925911865234375,-1.4992413639009,-0.6286217281758785,-0.7690816076152026
1789309746310923800,0.935923828125,-2.0189725092470643,-0.34165947426259513,-0.7066911293495446
1789309746320936000,0.94593603515625,-1.724526037058234,-0.10190905337929725,-0.5561241357851773
1789309746330947800,0.95594775390625,-1.1835329079747199,0.3612637539207935,-0.10782295359820127
1789309746340959700,0.965959716796875,-0.3846681565143168,1.1389935090243817,0.653452364180237
1789309746350972000,0.975971923828125,-0.11082929580733179,0.7044663659721613,0.3102178226206451
1789309746360984800,0.98598486328125,-0.43911461697295306,-0.19259704004228115,-0.003802607153356075
1789309746370997000,0.9959970703125,-0.643090544641763,0.11566811414062976,-0.3266086931902915
1789309746381009000,1.0060087890625,-0.30811157105639575,0.9167489342153072,-0.6914931218262761
1789309746391020800,1.016020751953125,-0.09153963505625724,1.0634446393042802,-0.9527085016731173
1789309746401033000,1.026032958984375,0.3080079645514488,0.9369517642885447,-0.5978957505226135
1789309746411044900,1.036044921875,0.4051414740920067,0.8938888676315545,-0.05813683940917253
1789309746421057000,1.04605712890625,0.1959182934194803,0.5164426251947879,0.17617358237728475
1789309746431069000,1.05606884765625,0.21660861474871634,0.6395423506408929,0.05431662353388965
1789309746441081900,1.066081787109375,0.043267479318380354,0.4411830938100815,-0.13835012074373662
1789309746451094000,1.076093994140625,-0.16921134214922784,-0.020829437538981435,-0.3165890381529927
1789309746461106000,1.08610595703125,-0.1082680670171976,-0.42865620519220826,-0.18623663816489278
1789309746471118000,1.0961181640625,-0.0024380408018827436,-0.9554361000061035,-0.08847286789678037
1789309746481130000,1.1061298828125,-0.12098843238055705,-0.8055424756586551,0.4657018508536741
1789309746491142000,1.116141845703125,0.12813304343819618,-0.26973873191177844,1.0731574934147299
1789309746501154000,1.126154052734375,0.6575473784089088,1.7339923690617083,0.8343350010313093
1789309746511166000,1.136166015625,-0.39574462712816894,2.6477064656257627,0.9337362363081425
1789309746521179000,1.146178955078125,-0.40198213327825066,2.8004472960978744,0.3192528505347669
1789309746531190800,1.156190673828125,0.4181581555208191,1.9673305848151443,-0.17661175459884107
1789309746541202700,1.16620263671875,-0.2565617818873375,1.7938228606462479,0.32122721934765575
1789309746551214800,1.17621484375,-0.3723731769561767,1.770409251832962,-0.21937881011441349
1789309746561226800,1.186226806640625,-0.294566262643598,1.1003116039305925,-0.20249263030849396
1789309746571238700,1.19623876953125,-0.08841357545759529,0.2234375839859247,0.13739552343264222
1789309746581250800,1.206250732421875,0.23723171606063842,-0.6439192505508661,0.2232822472937405
1789309746591263700,1.216263671875,0.10474160992410034,0.6173901400655508,-0.0041029783394187684
1789309746601276000,1.22627587890625,0.4868739643504843,2.0917589285165072,0.09320062707103788
1789309746611287800,1.236287841796875,-0.19993626035656778,2.2032465421020984,-0.8326701365590095
1789309746621300000,1.246300048828125,-1.3145061432749032,0.9380167631715536,-1.613549003343284
1789309746631312000,1.256311767578125,-2.0725462785243987,-0.17050561974346637,-2.5487702905774117
1789309746641323800,1.26632373046875,-1.4457248777687548,0.06967617829442024,-2.494085052926838
1789309746651336000,1.2763359375,-0.5551642777770758,0.021880992418527603,-1.047164097241312
1789309746661348900,1.286348876953125,0.04553191711902618,-0.25671733777523037,-0.4037753003053367
1789309746671361000,1.296361083984375,0.41945926471464334,-0.201299401935935,-0.297222731969133
1789309746681373000,1.306373046875,0.32538580033183095,-0.3636117783516645,-0.7310190034635364
1789309746691384800,1.316384765625,0.24051552350427954,-0.2916822681725025,-0.5611188753325492
1789309746701397000,1.32639697265625,0.6382096407324075,0.12831366070210934,-0.18575652649775146
1789309746711409000,1.336408935546875,1.1764929263353348,0.37027240528464317,0.7359672735206783
1789309746721420800,1.3464208984375,1.2484808887034653,0.3525070314913988,1.360415661534667
1789309746731434000,1.35643408203125,0.8109270913064479,0.31523908484876156,0.8728445452328771
1789309746741446000,1.36644580078125,0.28435466523077335,-0.10074117864370345,0.7585841789983212
1789309746751458000,1.3764580078125,0.6282376972943544,-0.426603364315629,1.0022772730927914
1789309746761470000,1.386469970703125,0.9349860171735286,-0.3626227673143148,1.1332795883569866
1789309746771481900,1.39648193359375,1.0869196229159832,-0.19322306298613548,1.356063749935478
1789309746781494000,1.406493896484375,1.1760849300563334,0.25807985830008984,1.4377287644483148
1789309746791506700,1.416506591796875,1.0248837302416562,0.34177111794352527,1.2953729882597922
1789309746801518800,1.426518798828125,1.0774556290000676,0.30231004517078397,1.0173461743436754
1789309746811530800,1.43653076171875,0.863704741770029,-0.006680500677227973,0.7873787501975894
1789309746821543000,1.44654296875,0.81601476983428,0.28013854537308214,1.0117510577503592
1789309746831554800,1.456554931640625,0.7613000138282775,0.12181202372312545,0.9131799166221171
1789309746841566700,1.466566650390625,0.4111608805119991,-0.3655898004263639,0.7319979314982891
1789309746851580000,1.476579833984375,-1.211101298379898,-1.103503677970171,-0.2543416946850717
1789309746861591800,1.486591796875,-4.297321930867433,-1.36378543022871,-3.471564934697747
1789309746871604000,1.49660400390625,-2.6531775905132293,0.4728595040559768,-1.8784128226950763
1789309746881616000,1.506615966796875,-0.4743090818097815,0.8614800514578819,-0.788945122731477
1789309746891627800,1.516627685546875,0.9912111777424811,0.6017711306512356,0.7035644486963748
1789309746901640000,1.526639892578125,1.1610381675720214,-0.24943887120485303,1.0951675190404058
1789309746911652600,1.536652587890625,1.0043757797420025,-1.0077888030558824,1.581779069595039
1789309746921664800,1.546664794921875,0.47376902011632915,-1.642447473308444,1.878184274636209
1789309746931676700,1.5566767578125,0.15306180605478584,-1.941456138846278,1.3954128867663442
1789309746941688800,1.566688720703125,0.6570424245614558,-1.5324427917569874,1.1655556449964641
1789309746951700700,1.57670068359375,0.7405354582190513,-2.011360280677676,-0.0011574994720518587
1789309746961712600,1.586712646484375,-0.459502009832859,-2.519928811496496,-1.0482229586444793
1789309746971725800,1.596725830078125,-1.4861480735719204,-2.747819867759943,-1.1509943279415369
1789309746981737700,1.60673779296875,-1.2785703220188618,-1.9204659577876328,-0.6022295419432222
1789309746991750000,1.61675,-0.24499065962433814,0.6700432873666287,-0.38815351441204543
1789309747001761800,1.62676171875,-0.12002915889434515,1.0550351228773593,-0.05676365135982632
1789309747011773700,1.636773681640625,-0.14596315303072332,0.9756307467728853,1.1650512026056647
1789309747021785900,1.646785888671875,0.6100641810916364,1.8229840732008218,1.6968524327129124
1789309747031798500,1.656798583984375,2.1618938103638587,2.423056583240628,1.3773163813225924
1789309747041810700,1.666810791015625,0.8049593420084565,1.6872154203176497,0.8981208061128855
1789309747051822600,1.676822509765625,-1.0502829599142074,0.28219898503422736,-0.9694276543490589
1789309747061834500,1.68683447265625,-1.2762895176053046,0.015534253740310668,-3.3952927191391584
1789309747071846700,1.6968466796875,-1.6069510663829742,1.4203694872379302,-3.8046629168421027
1789309747081858600,1.706858642578125,-0.6090762660328298,2.0660113237977025,-2.8810423432916403
1789309747091871700,1.716871826171875,-0.4887384795807302,1.0627759462624788,-1.1044085178554057
1789309747101883600,1.726883544921875,-0.28825916185602546,1.7432237232655285,0.6779238114833831
1789309747111895600,1.7368955078125,0.27362434117347,1.0482470701724291,0.43121319619864223
1789309747121907700,1.74690771484375,-0.789463593647629,-0.12511106526851654,-0.513152643738687
1789309747131919600,1.756919677734375,-1.1261118156194687,0.5875351000279188,0.10848317107260226
1789309747141931800,1.766931884765625,-1.7305333146490156,1.4996651422709226,-0.18410744411647317
1789309747151943700,1.776943603515625,-1.6470938378095625,0.5478945790350437,-0.7545359265208244
1789309747161956600,1.78695654296875,-1.0318426094688475,0.7216922260612249,-0.9660606621339917
1789309747171968800,1.79696875,-0.582221211528778,0.4598422015726566,-1.112280274143815
1789309747181980700,1.806980712890625,-0.0762567257285118,0.28813305125832556,-1.2026011810600756
1789309747191992800,1.816992919921875,0.250268892288208,-0.239929284581542,-0.9418526880726218
1789309747202004700,1.827004638671875,1.1038264801837503,-0.9846323838740587,-0.1437555599838495
1789309747212016600,1.8370166015625,1.358333156172186,-1.2204255915641784,-0.31097324409782884
1789309747222029600,1.847029541015625,0.5423289077319204,-0.746278385785222,-0.45588659581467506
1789309747232041500,1.85704150390625,-0.07732406269907952,-0.04287526513040066,-0.37876360864564773
1789309747242053600,1.8670537109375,-0.023775866254419086,-0.011145078870654105,-0.8232710245728492
1789309747252065500,1.8770654296875,0.23917948912754652,0.054604865890741344,-0.6676452863141894
1789309747262077700,1.88707763671875,0.1719654631629586,0.25356968739926816,-0.4375196028664708
1789309747272089600,1.897089599609375,-0.18587313861474394,0.13850947602391242,-0.1279272917330265
1789309747282101500,1.9071015625,-0.47971696873530745,0.1367798757523298,0.5233914214193821
1789309747292114700,1.91711474609375,-0.19321824068054555,0.17144143928885458,0.7986708363234997
1789309747302126600,1.927126708984375,-0.0775508571922779,-0.008917465949058533,0.6190137957446277
1789309747312138500,1.937138427734375,-0.19377602069377897,0.013109656941890716,0.7268924250528216
1789309747322150700,1.947150634765625,-0.48933381512537594,0.06142448277771473,1.2093401339262724
1789309747332162600,1.95716259765625,-0.44207142095193264,-0.09691139122247695,0.8475393505193293
1789309747342174700,1.9671748046875,0.0767360336780548,-0.39150457840561864,0.29244024693295356
1789309747352187600,1.977187744140625,0.22767463703379034,-0.5235159245818853,0.36525457712262865
1789309747362199600,1.987199462890625,0.2029074216544628,-0.5397358224987984,0.24442922634929418
1789309747372211700,1.997211669921875,0.4171054681301117,-0.5300257448673248,0.2719843188814819
1789309747382223600,2.0072236328125,0.4500478066585958,-0.671111208859086,0.11754837492927908
1789309747392235800,2.01723583984375,0.5323965656518936,-0.5160118325620889,-0.21892565951943396
1789309747402247700,2.02724755859375,0.14431947747692464,-0.2550742467433214,-0.06888634309098124
1789309747412259600,2.037259521484375,-0.3937982423007488,-0.3648281684041023,0.3112668202169239
1789309747422272800,2.047272705078125,0.0014905308187007902,-0.5784440310776233,0.4412691646583378
1789309747432284700,2.05728466796875,0.31895613261051475,-0.4038192855775356,-0.15818302152603864
1789309747442296800,2.067296875,-0.07975815797820687,-0.20446049631536006,-0.30582842855528
1789309747452308700,2.077308837890625,-0.3924865751802921,-0.13157120119333265,-0.029508418557047843
1789309747462320600,2.087320556640625,-0.01648351728916168,-0.14839081856906414,0.06124576520994305
1789309747472332800,2.097332763671875,0.020461773270368574,-0.17030454421341418,0.0038543373405933376
1789309747482345500,2.107345458984375,-0.17344152706488966,-0.0887701703429222,-0.015936697061359882
1789309747492357600,2.117357666015625,-0.31481296839118,0.49037236439287657,-1.3260003278441725
1789309747502369500,2.12736962890625,-0.24584888388887047,0.06655833853483199,-0.6103409522064029
1789309747512381400,2.13738134765625,-0.39114465905204415,-0.48117608150243757,0.1925299661554396
1789309747522393600,2.1473935546875,-0.549292755395174,-0.3978068934202194,-0.2975846240840852
1789309747532405500,2.157405517578125,-0.040113399201631546,-0.4418897807747125,-0.5631986772812902
1789309747542417700,2.167417724609375,-0.08678973711542784,-0.5605161601990462,-0.722072457550466
1789309747552430600,2.1774306640625,-0.27296931133083996,-0.6159019473344087,-0.3779633981786668
1789309747562442800,2.18744287109375,-0.1683996604401618,-0.8414379649043082,-0.42903366020247335
1789309747572454700,2.19745458984375,0.27866021644882855,-1.1334756223857403,-0.4622190137065947
1789309747582466600,2.207466552734375,0.36771914060525596,-1.3655185376316308,-0.6122536539599299
1789309747592478700,2.217478759765625,0.3163655315954238,-1.4095236835747957,-0.5367135520681738
1789309747602490600,2.22749072265625,1.0169653583325444,-1.7495985189944505,-0.4553536579817533
1789309747612503800,2.23750390625,1.417988145059347,-1.7525205439209937,-0.7955575266085565
1789309747622515700,2.247515625,1.3045266010522842,-1.1612035872668027,-1.298588735435903
1789309747632527600,2.257527587890625,0.27633856856822964,-0.28008418483734127,-1.3164976093530654
1789309747642539800,2.267539794921875,-0.368659051803872,-0.44319735624194145,0.03496989883333444
1789309747652551700,2.2775517578125,-0.043643911415338514,-1.3551596407026052,0.2524615800268948
1789309747662563600,2.2875634765625,0.5019359609365462,-1.8463345536500215,0.040270927850902076
1789309747672575700,2.29757568359375,0.6908265476763248,-2.0002660552114246,0.40024946426674723
1789309747682588700,2.307588623046875,0.4214660014271736,-1.441744868221879,0.7289194739010184
1789309747692600800,2.317600830078125,-0.4858393240731209,-0.7268219901651144,0.9812737941611558
1789309747702612700,2.32761279296875,-0.8412041561484337,-0.23737843105494974,0.85892379110381
1789309747712624600,2.337624755859375,-0.928862565857172,0.2840408135086298,0.8542614983811974
1789309747722636800,2.34763671875,-0.4186684796631336,0.23752573057115076,0.3475828729622066
1789309747732648700,2.357648681640625,-0.029238880900666116,0.6273977393388748,-0.07457249896861612
1789309747742661600,2.36766162109375,-0.3527062803905457,1.5121154585212468,-0.3553188740417361
1789309747752673500,2.377673583984375,-0.42523273354955016,1.390427353438735,0.05113046777844429
1789309747762685700,2.387685791015625,-0.3935749549388885,1.031436220625043,0.46189288702476766
1789309747772697600,2.397697509765625,-0.1697732868809253,0.2899836475610733,0.4174388648029417
1789309747782709500,2.40770947265625,0.2598749250233173,1.0728659631222486,-0.3590296381931752
1789309747792721700,2.4177216796875,-0.37085232406444846,1.9210802902936934,-0.5385721124816686
1789309747802733600,2.427733642578125,-0.7690262241661548,1.7371207302153109,0.0711307244842872
1789309747812746800,2.437746826171875,-0.46027935088090594,1.4645932443678378,0.35065216087233275
1789309747822758700,2.447758544921875,-0.21378303593397138,1.1728951941043138,-0.07662789712846278
1789309747832770600,2.4577705078125,-0.10140059240050613,0.791571817973256,-0.13723799478337168
1789309747842782700,2.46778271484375,0.020792685725167393,0.24749825853109358,-0.044446204241551455
1789309747852794600,2.477794677734375,0.3094027799107134,0.1177624560713768,0.0993501992093399
1789309747862806500,2.487806640625,0.1902151133418083,-0.24648878922760487,0.5879891274057328
1789309747872818700,2.497818603515625,0.2096879486400634,-0.8115291488528251,1.0390867353782056
1789309747882831600,2.50783154296875,-0.21987485000304877,-0.5369219341218471,0.7806156858034431
1789309747892843800,2.51784375,-0.3256500042259693,0.06585398965775967,0.518702277222462
1789309747902855700,2.527855712890625,-0.22088263880610465,0.09617080198824406,-0.15497304650358854
1789309747912867600,2.53786767578125,-0.422771677198261,-0.2473971362441778,-0.17818846586365253
1789309747922879700,2.547879638671875,-0.44919688891768456,-1.1459428897708654,0.9055174191702157
1789309747932891600,2.5578916015625,-0.04906235626749694,-1.692037725907564,1.2467518729537725
1789309747942904800,2.56790478515625,0.15904606809616087,-1.1455711338490246,0.7687464573767036
1789309747952916700,2.577916748046875,-0.711973380601406,-0.2415811434417963,0.30711565535422414
1789309747962928600,2.5879287109375,-0.6460287169855088,0.7014081474453211,-0.15138620099276304
1789309747972940800,2.59794091796875,-0.17361231705453245,0.8768681747257709,-0.6193244691289961
1789309747982952700,2.60795263671875,0.1835655923247337,0.9107575848460197,-0.4573496541045606
1789309747992964600,2.617964599609375,0.08407061434984206,1.1252660124450922,-0.21279650911465287
1789309748002977500,2.6279775390625,-0.3665150620451197,1.7952461714476347,-0.5995219634849578
1789309748012989400,2.637989501953125,-0.48969841065406794,2.0740835710942744,-0.7837783876180648
1789309748023001600,2.648001708984375,-0.6446434731721877,1.7740993385225534,-0.3700598585125059
1789309748033013500,2.658013427734375,-0.1755365265827626,1.0672112983614206,0.007390987034142017
1789309748043025700,2.668025634765625,0.3839689222037792,0.2902016742259264,-0.39656361536085605
1789309748053037600,2.67803759765625,0.19296828450746834,0.013407178583741188,-0.7390643627531827
1789309748063049500,2.688049560546875,-0.1519429215600714,-0.120742348664999,-0.6123623019661754
1789309748073062700,2.698062744140625,-0.29337157296631483,-0.4152303219079971,-0.3629606209665537
1789309748083074600,2.708074462890625,-0.033791210442781446,-0.3749848207592964,-0.8328403054941446
1789309748093086700,2.718086669921875,-0.28276012604832645,-0.699931060630083,-0.6541452418152243
1789309748103098600,2.7280986328125,-0.34693240969683975,-0.768837423595786,-0.03843165665976703
1789309748113110500,2.738110595703125,-0.10048747787727043,-0.8135667921602725,-0.1266911740668118
1789309748123122700,2.748122802734375,0.24300211615562436,-0.5839572415411471,0.03713547936938703
1789309748133135600,2.758135498046875,0.3801929107964039,-0.31035949611365793,0.22332637869641184
1789309748143147800,2.768147705078125,0.12018705286979675,-0.15840426306128502,0.40204365420714017
1789309748153159700,2.77815966796875,-0.08797171344161032,0.21082126351892946,0.03869593361914157
1789309748163171600,2.788171630859375,-0.16490414647459983,0.042642625418305394,0.23851466854326425
1789309748173183700,2.798183837890625,0.030043237819802015,-0.32065058850347994,0.5423420594744384
1789309748183195600,2.808195556640625,0.15790272501362487,-0.2912935611158609,0.47556247940436003
1789309748193207600,2.81820751953125,-0.19629414099454878,-0.035215105766057964,0.662091378514096
1789309748203220500,2.828220458984375,-0.40882513104081153,0.1980015294343233,0.6203983819708228
1789309748213232600,2.838232666015625,-0.46252398800253863,0.6132704297870397,0.10099230386056006
1789309748223244500,2.84824462890625,-0.6456710626542568,0.6645347530782222,0.0730621674709022
1789309748233256700,2.858256591796875,-0.05989011281728744,0.4593365901380777,0.2693518514860421
1789309748243268600,2.8682685546875,0.057940147793293,0.17149696886837482,0.2821149600125849
1789309748253280500,2.878280517578125,-0.22181904287338255,0.06283493409752845,0.6095134153410792
1789309748263293400,2.88829345703125,0.02623452058606781,-0.2505202367007732,0.9260133139058947
1789309748273305600,2.8983056640625,0.08886953906416893,-0.5432026218265295,0.8796787021018564
1789309748283317500,2.9083173828125,-0.16784896775484084,-0.5969412262767553,0.7218003626108169
1789309748293329700,2.91832958984375,-0.014742809960030717,-0.4333884944111108,0.025025720185041424
1789309748303341600,2.928341552734375,0.3509171319514513,-0.5418424393892288,-0.6172326114162803
1789309748313353500,2.938353515625,0.9781763396024703,-0.3130851216852665,-0.8127749111302196
1789309748323366700,2.94836669921875,0.3706389005094766,-0.33554595981836316,-0.9487160710360855
1789309748333378600,2.958378662109375,0.2083931595891714,0.05253858101069927,-0.6383201884347945
1789309748343390700,2.968390625,0.004990063372254372,0.27619068453013895,-0.1461721196062863
1789309748353402600,2.978402587890625,0.07053367647316772,0.16125205370783804,-0.11991035482026637
1789309748363414500,2.98841455078125,-0.1347726275831461,0.07037409743070602,0.10549356080256402
1789309748373426700,2.9984267578125,-0.12774258281588555,0.03429273022413253,0.3550461945801973
1789309748383438600,3.0084384765625,-0.040728900751471515,0.33086744661331174,0.1060652232106775
1789309748393451800,3.01845166015625,-0.0570510899990797,0.5066659120678901,0.08624320914857089
1789309748403463700,3.028463623046875,-0.08840719138258137,0.6684960579246282,-0.005453735361248255
1789309748413475600,3.0384755859375,-0.17867431315183638,0.7542804904550313,0.3300922244571149
1789309748423487700,3.04848779296875,-0.23118600615561008,0.8672171338051557,0.5242405855946243
1789309748433499600,3.058499755859375,-0.06498773735039867,1.0390841050297022,0.4239155865363776
1789309748443511800,3.06851171875,0.1320616150587797,0.9644307228446006,0.22115677957236765
1789309748453524500,3.0785244140625,0.2235755494181998,0.6547048484593629,0.3266908915810287
1789309748463536600,3.08853662109375,0.37855917211472984,0.3026525749981403,0.09972199166379868
1789309748473548500,3.098548583984375,0.178106157875061,0.0315016382008791,0.11717691126838325
1789309748483560400,3.108560546875,-0.11931903786361217,-0.130005851572752,0.23278971502520143
1789309748493572600,3.118572509765625,-0.17817277510417626,-0.19678689294755458,0.15675919926799833
1789309748503584500,3.12858447265625,0.13538812913298606,0.08294657875597476,0.08090433233864605
1789309748513596400,3.138596435546875,0.4323790251076221,0.20491408530175684,0.14850100094527005
1789309748523609600,3.148609619140625,0.30389351496994493,0.2532400170534849,0.4096199346803128
1789309748533621500,3.15862158203125,0.303906374451518,0.2972743890911341,0.31133016777671874
1789309748543633700,3.168633544921875,0.07351122641265392,0.09209609989523887,0.022898791158944366
1789309748553645600,3.1786455078125,0.16178689123690126,-0.2151250981926918,-0.35195516976229846
1789309748563657500,3.188657470703125,0.38532559750974177,-0.2609083597242832,-0.26747926254719495
1789309748573669600,3.198669677734375,-0.057341597378253936,-0.12717033588588236,-0.3072425331369042
1789309748583682600,3.2086826171875,-0.44876083558797836,-0.3063613663882017,-0.1701886627487838
1789309748593694700,3.21869482421875,0.14675240371227263,-0.17650573694109917,-0.396876553767547
1789309748603706600,3.22870654296875,-0.560357754766941,-0.17740414708554744,-0.2993871434614062
1789309748613718500,3.238718505859375,0.2992553337752819,-0.2109329071998596,-0.5690218304768204
1789309748623730700,3.248730712890625,-0.39019992554783817,-0.16612229009270668,-0.4036483129248023
1789309748633742600,3.25874267578125,-1.7167255924403666,0.006012976679205894,0.09112645114548504
1789309748643755800,3.268755859375,0.23645547099113462,0.19384850140810012,-0.5075016322396695
1789309748653767700,3.278767578125,0.38601825594902034,-0.004924012398719787,-0.6913394656345248
1789309748663779800,3.28877978515625,-0.49283495511412617,0.1488712955623865,-0.3071578505281359
1789309748673791700,3.298791748046875,-1.6476549788236616,0.020633038184046743,-0.1795629325546324
1789309748683803600,3.3088037109375,-3.8461528650939463,-0.33119127174019813,-0.1538216845113784
1789309748693815800,3.31881591796875,-2.604908357384801,0.09322539618611335,0.27197072874754663
1789309748703827700,3.32882763671875,0.9983698173254728,-0.11280571044683456,-0.04458711054958403
1789309748713840600,3.338840576171875,1.7923907820165157,-0.26240941193699835,-0.6287703428663313
1789309748723852500,3.3488525390625,1.57863463408947,-0.03626490707993507,-0.494041992816329
1789309748733864400,3.358864501953125,0.5170569577008486,-0.10773907470703124,-0.42366226936243473
1789309748743876600,3.368876708984375,-0.5198322676330804,-0.13996376648545264,-0.2828823641885072
1789309748753888500,3.378888427734375,-1.1271586943238974,-0.114080552688241,-0.14110489934459328
1789309748763900400,3.388900390625,-1.295071374964714,-0.20262392853796482,0.16949571204856037
1789309748773913600,3.39891357421875,-1.3370558287352323,-0.24402210685312747,0.46358913301602
1789309748783925500,3.408925537109375,-1.3450737154960632,-0.24702479580044745,0.6721103028990328
1789309748793937700,3.418937744140625,2.755017085787654,-0.21771043851077557,-0.7549493296273052
1789309748803949600,3.428949462890625,6.9420075873672955,0.4279068481296301,-2.9307535919219254
1789309748813961500,3.43896142578125,-2.0632553030878302,-0.014307926815748214,-0.41182139024734493
1789309748823973600,3.4489736328125,-0.8365327302712947,0.14830138671994209,0.025421587634831665
1789309748833986600,3.458986572265625,0.9048416388005017,0.3578863864421844,-0.20385507776811718
1789309748843998700,3.468998779296875,-0.2503794034579769,-0.05668284120857715,0.24960721350908277
1789309748854010600,3.4790107421875,-0.4138847525179386,0.07095218957960606,0.1725796495385468
1789309748864022800,3.489022705078125,0.5195627665093169,0.14294307455718516,0.10064780127182603
1789309748874034700,3.49903466796875,-0.1571627020349726,-0.05901391450464725,0.3055770841427147
1789309748884046600,3.509046630859375,-0.17325228810310364,0.040272389155626295,0.04410933697000145
1789309748894058800,3.519058837890625,0.23624445858895776,0.09738660751879215,0.21359657345116137
1789309748904071700,3.52907177734375,-0.05772445921599865,0.0617132365912199,0.34455417279079553
1789309748914082800,3.539082763671875,0.03733341309428215,0.05380816255509853,0.5228416785821318
1789309748924095000,3.549094970703125,0.08545355660822242,0.048721068549156185,0.631623248079419
1789309748934107000,3.55910693359375,-0.03236727858688682,0.030557635349035262,0.4584790965259075
1789309748944119000,3.569119140625,-0.03262154560890049,0.08661036196053028,0.4193643529728055
1789309748954131000,3.579130859375,0.1775187499085441,0.1457552093684673,0.48388051815554495
1789309748964143900,3.589143798828125,0.06795355575289577,0.10018529832661151,0.4215653701484203
1789309748974155800,3.59915576171875,-0.04651917459070682,0.013854337829351424,0.464846147339791
1789309748984168000,3.60916796875,0.010445406168699264,0.02174772142767906,0.49767041244655846
1789309748994179800,3.619179931640625,0.00036298809349536896,0.038354572835564614,0.4434184516467154
1789309749004192000,3.62919189453125,0.06538757772240787,0.06287468158602715,0.33176001153886314
1789309749014204000,3.639203857421875,-0.04007010804917663,0.025806056907773017,0.22002572971582413
1789309749024216800,3.649216796875,-0.07360650348067284,-0.023100889602303505,0.05068272401094436
1789309749034228700,3.659228759765625,-0.11026651082541793,-0.060309215012192725,0.06966828724890947
1789309749044241000,3.669240966796875,-0.12586685207188128,-0.04017360495626926,0.17364216420352457
1789309749054252800,3.679252685546875,-0.035623723099566997,0.026804420295357703,0.18111834530308843
1789309749064264700,3.6892646484375,-0.03092237700819969,0.04694587557017803,0.04810746669545769
1789309749074276900,3.69927685546875,-0.09423424443509429,0.020557634860277174,-0.062086746078729625
1789309749084289800,3.709289794921875,-0.09762100079655647,-0.01257481941282749,-0.10958090318143367
1789309749094302000,3.719302001953125,-0.16499478390011935,-0.04228548254370689,-0.1156150687791407
1789309749104313900,3.72931396484375,-0.13410397107396274,-0.015389292311668395,-0.03613689678609371
1789309749114325800,3.73932568359375,-0.14209493329524994,0.0045078328132629394,0.011938859596848487
1789309749124338000,3.749337890625,-0.15753507901132105,0.023499533531069754,-0.013708938009291887
1789309749134349800,3.759349853515625,-0.16462646204438058,0.02828326067626476,-0.06680632194653154
1789309749144362000,3.769362060546875,-0.13138941488564013,0.02107844386398792,-0.14059505012631415
1789309749154375000,3.779375,-0.15095219348967073,0.0026315175473690033,-0.1801150134794414
1789309749164387000,3.789386962890625,-0.1802583309402689,-0.019701310291886327,-0.14613894798904656
1789309749174399000,3.79939892578125,-0.1422702533295378,-0.008232406294345854,-0.09279051190018653
1789309749184411000,3.809410888671875,-0.17850944144632666,-0.013808160600066184,-0.055550330047309394
1789309749194423000,3.819423095703125,-0.17732114497721194,-0.02552314831316471,-0.06502279953062534
1789309749204435000,3.82943505859375,-0.12470248446762561,0.010758125379681587,-0.13888079355433583
1789309749214447900,3.83944775390625,-0.10074530682954937,0.055392216876149175,-0.204539845161885
1789309749224459800,3.849459716796875,-0.1384370318422094,0.020108137527108192,-0.16913769239112733
1789309749234471700,3.8594716796875,-0.1543091392347589,-0.03356441594958305,-0.12269289821088314
1789309749244483800,3.86948388671875,-0.17244444231893866,-0.08377893792688847,-0.022865473411232233
1789309749254495700,3.879495849609375,-0.10405837690029293,-0.08609539817571639,0.025251053373515603
1789309749264507600,3.889507568359375,-0.14107088747713714,-0.049962008520960804,-0.06137874393984675
1789309749274520800,3.899520751953125,-0.031255554485321045,0.05932663371562957,-0.09549830955415964
1789309749284532700,3.90953271484375,0.05731938554644584,0.08314356263279915,-0.1817556202933192
1789309749294545000,3.919544921875,0.008490801502205431,0.05007072959244251,-0.14108648690506814
1789309749304556800,3.929556884765625,0.09742284787595272,0.030192893689870832,-0.09943009604513645
1789309749314568700,3.939568603515625,0.012954137586615979,-0.05381576133966445,-0.03764116386920213
1789309749324580900,3.949580810546875,0.07573942385613917,-0.08020750918090343,-0.03505319320261478
1789309749334592800,3.9595927734375,0.14988430852983145,-0.06758417445123195,-0.0489918483145535
1789309749344606000,3.96960595703125,0.3115385132977739,0.042425183275341984,-0.0708181879363954
1789309749354617900,3.979617919921875,0.20646248378753662,0.007910919255018235,-0.13826850687488912
1789309749364630000,3.989630126953125,0.19965864899158475,0.06097556996643543,-0.04696677222773432
1789309749374642000,3.999641845703125,0.25740703707244245,0.03820435070991516,0.14913199232518673
1789309749384653800,4.00965380859375,0.17794132270216942,-0.02658580910861492,0.2652887667655945
1789309749394666000,4.019666015625,0.176337942626141,-0.07234510524272918,0.22574337671026587
1789309749404679000,4.029678955078125,0.19617720008399336,-0.08666238440871238,0.1741695490784943
1789309749414691000,4.039691162109375,0.17004034031927584,-0.014636428117752074,0.2234131801970303
1789309749424703000,4.049702880859375,0.3312941110601649,0.08609832078516483,0.38746772410497066
1789309749434715000,4.05971484375,0.31117081249654294,0.12679098117947576,0.5720126828558743
1789309749444727000,4.06972705078125,0.2272299985388294,0.02118015067279339,0.6768886232167483
1789309749454739000,4.079739013671875,0.25308570327460767,-0.08881693209409713,0.5504124070748686
1789309749464750800,4.089750732421875,-0.04367193193342536,-0.11206044503748416,0.33906653515994545
1789309749474763800,4.099763671875,0.1951607530504465,-0.06017477497756481,0.28658041498884557
1789309749484775700,4.109775634765625,0.11806878207419066,-0.007351531806588173,0.25905980924814936
1789309749494787800,4.119787841796875,0.01516775851547718,-0.1109691426694393,0.22706454231142997
1789309749504799700,4.1297998046875,-0.00915244374871254,-0.1864198127120733,0.22754092765152453
1789309749514811600,4.139811767578125,-0.10434479262623936,-0.21021277623176574,0.17129720851257443
1789309749524823800,4.14982373046875,-0.3187012810666114,-0.3218938665628433,0.13854936964288353
1789309749534835700,4.159835693359375,-0.37323125509023664,-0.36974867367148395,-0.11902516948357224
1789309749544849000,4.169848876953125,-0.5309422386577353,-0.4139619094073772,-0.34239538732171054
1789309749554860800,4.17986083984375,-0.7526501858394593,-0.5135621013224124,-0.40597719426378603
1789309749564873000,4.189873046875,-0.5376267944555729,-0.10200842210054396,-0.9044394877403974
1789309749574884900,4.199884765625,-0.4883369861077517,0.04916764327287674,-0.47745019284710283
1789309749584896800,4.209896728515625,-0.5255430830279365,0.35718963634967804,-0.46453635073825716
1789309749594909000,4.219908935546875,-0.44643736107647414,0.2847492540389299,-0.6378406612895429
1789309749604921900,4.229921875,-0.36894729416072364,0.27693478089571,-0.7468263750568032
1789309749614934000,4.23993408203125,-0.48109366391599173,0.33312077849805355,-0.8372277998633683
1789309749624946000,4.24994580078125,-0.3759919519752264,0.2024807206749916,-0.6326859088748693
1789309749634957800,4.259957763671875,-0.38430151515901084,0.07672258967459201,-0.3600463409550488
1789309749644970000,4.269969970703125,-0.27237551015615463,-0.018076339438557625,-0.27392376251146194
1789309749654982000,4.27998193359375,-0.2537362030725926,-0.012993337085843085,-0.2623623579248786
1789309749664993800,4.289993896484375,-0.2715086641937494,-0.016201777738332746,-0.2829188237413764
1789309749675007000,4.300007080078125,-0.1411906779319048,0.12468670237660408,-0.30321386214271184
1789309749685019000,4.310018798828125,-0.1072398930132389,0.12465221558511257,-0.12238324773982166
1789309749695031000,4.320031005859375,-0.15383439786247907,0.0061813189834356306,0.043022856907546515
1789309749705043000,4.33004296875,-0.17496895582787692,-0.040135611033439635,0.014762830976396798
1789309749715055000,4.34005517578125,-0.1842073973596096,-0.058218964734673494,-0.025230595107376574
1789309749725067000,4.35006689453125,-0.1357516286831349,-0.09376841702163219,-0.050461044084280725
1789309749735079000,4.360078857421875,-0.06883567234966903,-0.0009480945050716399,0.09872224003672599
1789309749745091800,4.370091796875,-0.1410685859221965,0.008098550781607627,0.2041157745309174
1789309749755103700,4.380103759765625,-0.12864800722301006,0.014365794482827186,0.21094620507284997
1789309749765116000,4.390115966796875,-0.12686521545946597,-0.07549684727191924,0.13094517824947832
1789309749775127800,4.4001279296875,-0.04703055817894637,-0.09803191968500613,0.09988646151050924
1789309749785139700,4.4101396484375,0.004208557605743408,-0.023308394873142242,0.2501945118777454
1789309749795152000,4.42015185546875,0.011951646013185381,-0.04807692542672157,0.26700083138048647
1789309749805163800,4.430163818359375,0.11055471664965152,0.12273147665560245,0.15011910366639494
1789309749815177000,4.440177001953125,-0.29680092636048794,-0.18985621690154075,0.2500008890017867
1789309749825188900,4.45018896484375,-0.014424246671795845,0.031163784548640248,-0.13188757366612552
1789309749835200800,4.46020068359375,-0.2668365076642483,-0.13105857549607752,0.09532499881386756
1789309749845213000,4.470212890625,0.1638386361349374,0.3285258519232273,0.40922552853524685
1789309749855224800,4.480224853515625,-0.04504033420979976,0.19894611680805682,0.4084555670760572
1789309749865236700,4.49023681640625,-0.20419227383323013,0.3091208942294121,0.40971433496549725
1789309749875250000,4.50025,-0.020142039796710014,0.38062604151666163,0.3794742411330342
1789309749885261800,4.51026171875,-0.3045535132486373,0.3026069822907448,0.5483269791029394
1789309749895274000,4.52027392578125,-0.35138182685375213,0.19979367354810237,0.7164518411897123
1789309749905286000,4.530285888671875,-0.18299276087284086,0.23735738826692104,0.7701381309308111
1789309749915298600,4.540298583984375,-0.13443711201846598,0.23789222579598426,0.6630272711247205
1789309749925310700,4.550310791015625,0.09014847295880317,0.32876725946366786,0.48751843626648184
1789309749935322600,4.560322509765625,0.16341887635290622,0.3000526216328144,0.4882302377976477
1789309749945335300,4.570335205078125,0.13420681039392948,0.21887889776825903,0.3181900436088443
1789309749955347500,4.580347412109375,0.22901969496719538,0.09831132114827633,0.09185703044235706
1789309749965359400,4.590359375,0.2736087782781571,-0.03814122234582901,-0.037477643870562315
1789309749975371500,4.60037158203125,0.30097265908718107,-0.12452186720371246,-0.07247413844987749
1789309749985383400,4.610383544921875,0.5216309145528822,-0.08001052530407905,-0.15505246841534973
1789309749995395300,4.620395263671875,0.8105284473776817,0.017605799317359925,-0.2570468619905412
1789309750005407500,4.630407470703125,0.7545412602830678,-0.004604863446950912,-0.576334345447272
1789309750015420400,4.64042041015625,0.6345161199767142,-0.07136953820884227,-0.7518836584463715
1789309750025432600,4.6504326171875,0.629199308868125,-0.253320096552372,-0.7692967116706073
1789309750035444500,4.660444580078125,0.39995610734336073,-0.37142742053866384,-0.8385662088602781
1789309750045456400,4.670456298828125,0.33230544352717695,-0.33442543135583397,-0.6369054262660443
1789309750055468500,4.680468505859375,0.33861287310831245,-0.2307704110920429,-0.8789930579252541
1789309750065480400,4.69048046875,0.23661679903268812,-0.23043664909303188,-1.124684705425799
1789309750075492400,4.700492431640625,0.18393501015901564,-0.17323709053397177,-1.235867636976391
1789309750085504500,4.71050439453125,0.10386142955608665,-0.18762977302372455,-0.9800485632151364
1789309750095517400,4.720517333984375,-0.048063992879912254,-0.20054770678579806,-0.6584601093396544
1789309750105529600,4.730529541015625,-0.21168167974054813,-0.1745212851256132,-0.5684888926438987
1789309750115541500,4.74054150390625,-0.25566753646135326,-0.16602233684957027,-0.5147561334125698
1789309750125553700,4.7505537109375,-0.2782318349689245,-0.1362052907347679,-0.49124374039992685
1789309750135565600,4.760565673828125,-0.22676818971335885,-0.06131517718434334,-0.4131684209421277
1789309750145577500,4.770577392578125,-0.1064163016706705,0.038756139373779294,-0.31146745735555886
1789309750155589600,4.780589599609375,-0.13753507803380488,0.021731939336657524,-0.24016616207733749
1789309750165602600,4.7906025390625,-0.2808271121591329,0.06216331844627857,-0.15663608434498308
1789309750175614700,4.80061474609375,-0.3231026578307152,0.03061608753800392,-0.04108984301835298
1789309750185626600,4.810626708984375,-0.3506828117389232,-0.01975099465250969,0.2777856986366212
1789309750195638500,4.820638427734375,-0.4807558833289891,-0.02859481084346771,0.12092457336410879
1789309750205650700,4.830650634765625,-0.2485738518733531,0.09615443537533283,0.10972308813109993
1789309750215662600,4.84066259765625,-0.20228914362564682,0.09455927513837814,0.10556626071259378
1789309750225674500,4.850674560546875,-0.18413842377662656,0.0755862791210413,0.22068843140825628
1789309750235687400,4.8606875,-0.24896431249566375,0.006547814208269119,0.27950799238458274
1789309750245699300,4.87069921875,-0.33620128192193804,-0.019924597653746604,0.3022863720342517
1789309750255711500,4.88071142578125,-0.22099486700892448,0.02659574598073959,0.4486348711207509
1789309750265723400,4.890723388671875,-0.1834925270885229,0.08064297798871993,0.29143355410844085
1789309750275735300,4.9007353515625,-0.11783435226380824,0.11343231791257857,0.2595676126398146
1789309750285747500,4.91074755859375,-0.07724756339676678,0.0848275701969862,0.2760067062653601
1789309750295759400,4.92075927734375,-0.07911796037852764,0.0366080214291811,0.32110373909845946
1789309750305772500,4.9307724609375,-0.13440437879264355,0.0006961655706167221,0.3674231533333659
1789309750315784400,4.940784423828125,-0.02225625547170639,0.05296469746828079,0.3542584052033722
1789309750325796600,4.950796630859375,-0.04505144012570381,0.02504208679795265,0.3131508803978562
1789309750335808500,4.96080859375,-0.014037366246059536,0.0379892466545105,0.35369551062360405
1789309750345820400,4.9708203125,0.13079196044914423,0.09429799385368823,0.2695711202599108
1789309750355832600,4.98083251953125,0.120560050900653,0.09286533070206641,0.21392200601324438
1789309750365844500,4.990844482421875,-0.08498129945397377,-0.013636311164498328,0.20006825270578263
1789309750375857700,5.000857666015625,0.06087262104861438,0.03007014409303665,-0.001472118379175663
1789309750385869600,5.01086962890625,0.053774917872622605,0.04201835604012012,0.3552439091093838
1789309750395881500,5.020881591796875,-0.05768062007427215,-0.03301204276382923,0.2685787482216954
1789309750405893600,5.0308935546875,0.11318038897812366,0.04471241742968559,0.22083134701028465
1789309750415905500,5.040905517578125,0.024887188497185707,0.024661563047766684,0.1782429359972477
1789309750425917400,5.05091748046875,0.07952179193906486,-0.014486790513992308,-0.01852276803180575
1789309750435929600,5.0609296875,-0.03866151989288628,-0.14030395822525024,-0.07760229511857032
1789309750445942500,5.070942626953125,0.10034377682395279,-0.1095750579625368,0.021741291686892508
1789309750455954400,5.080954345703125,0.19352876793444154,-0.03928045550882816,-0.056109279104322195
1789309750465966300,5.09096630859375,0.18488135109841822,0.026101824983954428,-0.11375555851757525
1789309750475978500,5.100978515625,0.05302249207012355,0.007944821524620055,-0.3422496952407062
1789309750485990400,5.110990478515625,0.043018399928137656,-0.027703999483585356,-0.46034547491967676
1789309750496002600,5.12100244140625,-0.110347284444049,-0.11334054797589778,-0.42507746992260215
1789309750506014500,5.131014404296875,-0.04697451714277267,-0.08259060492515563,-0.2383529751755297
1789309750516026600,5.141026611328125,0.17585107242465017,0.005280570751428603,-0.20873174389377236
1789309750526039600,5.15103955078125,0.23670330827236175,0.12109656893014907,-0.299824804226309
1789309750536051500,5.161051513671875,0.22454992914199828,0.11580606130659579,-0.3182747992828488
1789309750546063400,5.1710634765625,0.009265767930075526,0.014404957449436187,-0.20787410415112972
1789309750556075500,5.181075439453125,-0.21974932392723856,-0.04338613726198673,-0.03613236674144864
1789309750566087400,5.19108740234375,-0.09395904422290623,-0.03944236807227135,0.23486995536535976
1789309750576099300,5.201099365234375,-0.0050480041045695544,-0.08232873911857605,0.5733123672775924
1789309750586111500,5.211111572265625,0.2163753905147314,-0.00817687671482563,0.6272147839874028
1789309750596124400,5.22112451171875,0.06247954478859901,-0.037191374275088306,0.18228110547214746
1789309750606136600,5.231136474609375,-0.2062409499913454,-0.04243278205990791,-0.2117341405801475
1789309750616148500,5.2411484375,-0.3091021164637059,0.09701543611884117,-0.22010361725762484
1789309750626160400,5.251160400390625,-0.4677017559666186,-0.07575228333771228,-0.05008125098645687
1789309750636172500,5.261172607421875,0.1416781691879034,0.38003742797374723,0.5457588821806013
1789309750646184400,5.271184326171875,0.27446166878044603,-0.003503624206781387,0.9746732999175787
1789309750656196600,5.281196533203125,-0.21252631387114523,-0.11224223134517669,0.4226053807206452
1789309750666209500,5.29120947265625,-0.10112104480676352,-0.3413175289571285,-0.2261838139541447
1789309750676221700,5.3012216796875,-0.819413253166154,-0.28194179540276526,-0.14825813210010527
1789309750686233600,5.311233642578125,-0.2594669287443161,0.1217272680491209,0.2831397730156779
1789309750696245500,5.32124560546875,-0.09905600203573703,0.46675592648386954,1.1714015945456921
1789309750706257700,5.331257568359375,0.025321488261222838,0.5497480979472399,1.2993698028109968
1789309750716269600,5.34126953125,-0.15214578718841076,0.23905483983457088,0.843964706902951
1789309750726281500,5.351281494140625,-0.5310211856454611,-0.13101181374490262,0.2513749538339674
1789309750736294400,5.36129443359375,-0.14786175319366157,0.05532441233694553,0.4014253761783242
1789309750746306300,5.371306396484375,-0.13438275148272513,0.21736323250830172,0.23462650199830531
1789309750756318500,5.381318359375,-0.41555823868811126,-0.008293781092762947,-0.38340368953645226
1789309750766330400,5.391330322265625,0.04754318387620151,-0.10331541304588317,-0.3735692548729479
1789309750776342300,5.40134228515625,-0.25095102933347224,-0.20090543418228626,-0.16027444084733725
1789309750786354400,5.4113544921875,0.23451485831737517,0.060168345236778255,-0.35245822391361
1789309750796366300,5.421366455078125,0.24359891300499437,0.11330255405306816,-0.5872760107003152
1789309750806379500,5.431379638671875,0.08150858184210956,0.09332827203869819,-1.0451695624232291
1789309750816391400,5.441391357421875,-0.30604572456777096,-0.20527648887336253,-1.294048607788235
1789309750826403300,5.4514033203125,-0.18068273036479948,-0.2307446921288967,-0.8424335518129169
1789309750836415500,5.46141552734375,-0.1376614078272134,-0.17873627247214316,-0.31537016388252376
1789309750846427400,5.471427490234375,-0.00957863327153027,-0.07016366955041885,-0.016203385173529386
1789309750856439600,5.481439453125,-0.13116678511090576,-0.13896949475109577,-0.1253046881444752
1789309750866451500,5.491451416015625,-0.12075645025558769,-0.04157353488206863,-0.6235315654300153
1789309750876464600,5.501464599609375,-0.07300853758752346,0.050177697098255154,-0.660923722974211
1789309750886476500,5.5114765625,-0.18051446112580596,0.022255670949816703,-0.34047245643511415
1789309750896488400,5.521488525390625,-0.035178353952243925,0.046205286335945124,-0.12709653999730944
1789309750906500600,5.53150048828125,-0.29728491048514843,-0.18122341311275958,0.028275369630753992
1789309750916512000,5.541511962890625,-0.024856135771796104,-0.17481471511423588,0.028288229112327097
1789309750926524200,5.551524169921875,0.10378003488294779,0.007401216167211532,-0.1333969553157687
1789309750936536000,5.5615361328125,-0.06298515622317791,0.07239420508146285,-0.055610535801947115
1789309750946549200,5.57154931640625,-0.005261208463832736,0.17232056021094322,-0.1328939742296934
1789309750956561200,5.58156103515625,-0.09983516971468925,0.05880173305869102,-0.160348528996855
1789309750966573300,5.5915732421875,-0.29088673388063907,-0.037084991291165346,-0.056874856649339195
1789309750976585200,5.601585205078125,-0.06260339036397636,-0.061732525813579554,0.10228212447538972
1789309750986597000,5.61159716796875,-0.06553301407508552,-0.0429910004645586,0.20362083062082528
1789309750996609300,5.621609375,-0.021541385200619698,0.014654548296332358,0.11827391272485256
1789309751006621200,5.63162109375,-0.005008768072724342,0.07223813773691654,0.21684432320073246
1789309751016634000,5.641634033203125,-0.07989537449181079,0.07437865689694881,0.06493643642142415
1789309751026646000,5.65164599609375,0.02057224790751934,0.09606500352621078,0.1650733655616641
1789309751036658200,5.661658203125,0.06814297737777232,0.04611117831170559,0.3198062466338277
1789309751046670000,5.671670166015625,0.03379939374923706,-0.0245300456225872,0.4093544156119227
1789309751056682000,5.681681884765625,0.0403426048476249,-0.04018178826272487,0.3510261452838778
1789309751066694100,5.691694091796875,0.13882694447524846,0.0008949030131101608,0.2379303658492863
1789309751076706000,5.7017060546875,0.22125256809704005,0.058955462315678595,0.1501167655788362
1789309751086719000,5.711718994140625,0.24882505015544593,0.05359948824048042,0.12333762585520744
1789309751096731100,5.721731201171875,0.32717794444561005,0.05993687456846237,0.1310758188918233
1789309751106743000,5.731742919921875,0.4026251804221421,0.06843114666938781,0.18828049201741814
1789309751116755000,5.7417548828125,0.24050555009953675,-0.06431318995654582,0.22775369361937045
1789309751126767000,5.75176708984375,0.29414252080619335,0.005078910699486732,0.24707886407524346
1789309751136779000,5.761779052734375,0.3577325841199606,-0.13377075706422328,0.12761018860787152
1789309751146791200,5.771791259765625,0.35809389171302314,-0.033625206226110455,0.008778495869785546
1789309751156804000,5.78180419921875,0.40329847657382484,0.010913023680448532,-0.19323694538101552
1789309751166816300,5.791816162109375,0.1458048937290907,0.04975625681579113,-0.02503843353614211
1789309751176828200,5.801828125,0.2303518203537911,-0.11259294447898864,0.21523104278519747
1789309751186840000,5.811840087890625,0.40352592865414916,-0.020243746605515478,-0.11747165643125772
1789309751196852200,5.821852294921875,0.1366062727510929,0.09293898046016692,-0.2601345988728106
1789309751206864100,5.831864013671875,-0.004101005578041076,-0.08192191188335418,-0.49322439282312985
1789309751216876000,5.8418759765625,0.020301102815940976,-0.06583177782595158,-0.25939400963857767
1789309751226889200,5.85188916015625,-0.013739113951846956,-0.08248013028800487,0.13080065521225331
1789309751236901000,5.861901123046875,-0.1301497170228511,0.005738835912942886,0.19936872613430023
1789309751246913300,5.871913330078125,-0.022689970713853834,0.047997430449724196,-0.016122428891807792
1789309751256925200,5.88192529296875,-0.3384212960589677,-0.04229249680638313,-0.07130348723530769
1789309751266937000,5.89193701171875,-0.18991350004673002,-0.016681670209765433,-0.041766573236137625
1789309751276949200,5.90194921875,-0.1354997728139162,0.08085632847845554,0.11838847901523113
1789309751286961200,5.911961181640625,-0.10646430553086102,0.05659574744701385,0.11013049988821148
1789309751296974000,5.92197412109375,-0.08520984751284122,0.0708674339056015,0.033455256486684085
1789309751306986000,5.931986083984375,-0.2274029804855585,0.04371814569532871,0.210430510635674
1789309751316998000,5.941997802734375,-0.17549217598438263,0.00672901599407196,0.2032875070132315
1789309751327010000,5.952010009765625,-0.11518997523486614,0.02602992879152298,0.05497895990014076
1789309751337022000,5.96202197265625,-0.33778292509019375,-0.030091186881065365,-0.3517490527309477
1789309751347034000,5.9720341796875,-0.1455680892985314,-0.05116261648237705,-0.3819850549101829
1789309751357046000,5.9820458984375,-0.19067863920032976,-0.04995908591151237,-0.36671968123912807
1789309751367059200,5.99205908203125,-0.22173377574272451,-0.08253215273618697,-0.023927257423847912
1789309751377071000,6.002071044921875,-0.08328158286400139,-0.020799042400717734,0.0839114782653749
1789309751387083000,6.0120830078125,-0.11587912654280662,0.07101707150936126,-0.050860564795881504
1789309751397095200,6.02209521484375,-0.14969780951440334,-0.018484920239448546,-0.2825622653886676
1789309751407107000,6.032107177734375,-0.2816992918837815,-0.02164016939997673,-0.21465908811613915
1789309751417119000,6.042118896484375,-0.22147008330523965,-0.033414778345823286,0.16866788292229173
1789309751427131100,6.052131103515625,-0.050340778705477714,0.06381576182842254,0.3252240338988602
1789309751437144000,6.06214404296875,-0.06138013217933476,0.07521686128675938,0.29950887014493344
1789309751447156200,6.07215625,-0.24754319365136324,-0.008918634992837906,0.2827567650474608
1789309751457168100,6.082168212890625,-0.21006489219367502,-0.05175473715662956,0.3477541378758848
1789309751467180000,6.092179931640625,-0.2703682619869709,-0.010436053818464278,0.5500093792319297
1789309751477192200,6.102192138671875,-0.1858796414207667,0.05262392120659351,0.5342667434379458
1789309751487204000,6.1122041015625,-0.10730886659622192,0.14229367073774338,0.37091698679849505
1789309751497216300,6.12221630859375,-0.057739072263240813,0.2062234143346548,0.29194062684774397
1789309751507228200,6.132228271484375,-0.058982934844493864,0.10746844107210636,0.19082783841267226
1789309751517241000,6.142240966796875,-0.28148937546014785,-0.11681377704441546,0.0010940788470208643
1789309751527253200,6.152253173828125,-0.6183499250084161,-0.14664660525023937,0.09669570264518261
1789309751537265200,6.16226513671875,-0.07724982841908931,0.116477092435956,-0.09425181662440299
1789309751547277300,6.17227734375,-0.009717164959385991,0.12421557773351669,-0.2597904616102576
1789309751557289200,6.182289306640625,-0.2254150215387344,-0.08541852182745933,-0.5091469152286648
1789309751567301000,6.192301025390625,-0.23425467301122843,-0.043778935971856114,-0.3063670654766261
1789309751577313300,6.202313232421875,-0.1600906087130308,0.04425064513683319,-0.45967780479118225
1789309751587326000,6.212325927734375,-0.08827515336759388,-0.04862228434979916,-0.712775344634056
1789309751597338000,6.222338134765625,-0.16227153294868765,-0.09470306752324104,-0.6486874878659844
1789309751607350000,6.23235009765625,-0.03870009833760559,-0.10944587862491607,-0.41950113109499215
1789309751617362000,6.24236181640625,0.07880589875467121,-0.11778525242507457,-0.32070933295339343
1789309751627374000,6.2523740234375,0.14620653333254158,-0.07746960864961147,-0.29620310659781096
1789309751637386000,6.262385986328125,0.24288586936481296,0.05006488437354564,-0.3585018879920244
1789309751647398100,6.272398193359375,0.23212007213532923,0.03513151913583278,-0.45312122275456784
1789309751657411000,6.2824111328125,0.09772029645256698,-0.004082300877571106,-0.31359190216362476
1789309751667423000,6.292423095703125,-0.03724566174559295,-0.11990765140652655,-0.22817454937994477
1789309751677435100,6.30243505859375,-0.2271464484412223,-0.1890647742629051,-0.2368690202280879
1789309751687447000,6.312447021484375,-0.1351222447384149,-0.09687164373397826,-0.34176834146454926
1789309751697459200,6.322459228515625,-0.0026151509344577786,0.00601531476676464,-0.33409371518343683
1789309751707471000,6.33247119140625,-0.03582600420601666,-0.0015688567519187926,-0.17657324921935796
1789309751717484300,6.342484375,-0.020586860954761504,0.05802490346729755,-0.2632834182925522
1789309751727496200,6.35249609375,0.1157101997166872,0.10829729311168193,-0.3968262118197977
1789309751737508000,6.362508056640625,0.058226052062585944,0.042891047221422195,-0.358069926315546
1789309751747520300,6.372520263671875,-0.03976853128671646,-0.011786883905529975,-0.3050106824316084
1789309751757532200,6.3825322265625,-0.06834237240739166,-0.043536943909525866,-0.26350100656598807
1789309751767544000,6.3925439453125,-0.08504333183951675,-0.06699672995209693,-0.230623842228204
1789309751777556200,6.40255615234375,0.002090250277519226,-0.0018809914410114288,-0.2779552099846303
1789309751787569200,6.412569091796875,0.05065400937311351,0.00914192235469818,-0.2986800181053579
1789309751797581300,6.422581298828125,0.040485739645361896,-0.020116320833563805,-0.20906433684900402
1789309751807593200,6.43259326171875,0.10808503860048949,-0.07514905674755573,0.07561345938891172
1789309751817605000,6.442605224609375,0.03432071420960128,-0.08602700911462306,0.15725275493860244
1789309751827617300,6.4526171875,-0.009972527959942816,-0.06841711814403534,0.2274292839705944
1789309751837629200,6.462629150390625,-0.01993044287264347,-0.012113631641864776,0.2349870058737695
1789309751847641300,6.472641357421875,0.039278117421269416,0.05789806221723556,0.23841595740914343
1789309751857654000,6.482654052734375,0.08116612507998942,0.10927344466745853,0.4027794211357832
1789309751867666000,6.492666015625,0.04546235901415348,0.12460896096527575,0.49098728142082687
1789309751877678000,6.502677978515625,0.13254377255253494,0.18524200110435485,0.5390627455428242
1789309751887690000,6.51268994140625,-0.0493786556750536,0.17453765173852442,0.5009517722047865
1789309751897702100,6.5227021484375,0.010120411998033523,0.11643792946934699,0.4995353295356035
1789309751907714000,6.532714111328125,0.10495565453357994,0.12216565946638583,0.33338688208833334
1789309751917726700,6.542726806640625,-0.05445639733076095,0.13248831603825093,0.22711656475961206
1789309751927740000,6.552739990234375,-0.06551504002697765,0.18354221144914626,0.13237506492212414
1789309751937751800,6.562751708984375,-0.10853986969590186,0.22705694352686404,0.04284647742733359
1789309751947763700,6.572763671875,-0.21775537363104522,0.23773031323254107,0.049496582966297865
1789309751957776000,6.58277587890625,-0.0922252792328596,0.22128712795376776,0.08299158694148064
1789309751967787800,6.592787841796875,-0.005353124530985951,0.2657014392197132,0.01235182431191206
1789309751977800000,6.602800048828125,-0.0948871919184923,0.25556290704309936,-0.033613369657844304
1789309751987811800,6.612811767578125,-0.0788975956261158,0.22889234226047991,-0.15907953197434543
1789309751997823700,6.62282373046875,-0.037139351826906204,0.07200900515615939,-0.4588052597403526
1789309752007837000,6.6328369140625,-0.06489245114922523,0.06352934610247611,-0.7040880341790616
1789309752017848800,6.642848876953125,-0.04719955807030201,0.2005231568664312,-0.7477810454331338
1789309752027861000,6.652861083984375,-0.009743979901075362,0.5229086063385009,-0.6900969182275235
1789309752037873000,6.662872802734375,0.10995616623461246,0.8001753956675529,-0.5290244588702917
1789309752047884800,6.672884765625,0.13615158778615294,0.956028220680356,-0.3854723125040531
1789309752057897000,6.68289697265625,0.1343453420817852,0.5042068284779787,-0.4833727147638798
1789309752067909600,6.69290966796875,0.37534368066694584,0.4243623073905706,-0.8583030288569629
1789309752077921800,6.702921875,-0.433546936375834,-0.21875205651819704,-0.6255217163339257
1789309752087933700,6.71293359375,-0.13289623925201594,-0.6110276192963123,0.24441636686772106
1789309752097945600,6.722945556640625,0.20796470504403114,-0.17459201227426527,0.39428661033958196
1789309752107957800,6.732957763671875,-0.21211006122045217,0.2838672105073929,-0.033897301165759564
1789309752117969700,6.7429697265625,-0.2166981196630746,-0.4937146605581045,-0.3717025842182338
1789309752127981800,6.75298193359375,0.3077156670739874,-1.1264444085747003,-0.05854220533967018
1789309752137994800,6.762994873046875,0.012991583520174026,-0.471102431255579,0.26245208203494547
1789309752148006700,6.773006591796875,0.0009463409394025802,0.047484220230579376,0.6752022775650024
1789309752158018800,6.783018798828125,0.24055823013484476,0.25569267090260983,0.7762488688960671
1789309752168030700,6.79303076171875,-0.07930383833944797,0.31961715380251404,0.40723815411031244
1789309752178043000,6.80304296875,-0.0378191507846117,0.30072189919650555,0.23373481385558842
1789309752188054800,6.8130546875,-0.1004168055275455,0.13674889609217644,0.27229689196199175
1789309752198066700,6.823066650390625,-0.14619655992779879,0.028111411240696906,0.3094843207143247
1789309752208080000,6.833079833984375,0.25815409258008004,-0.17018296366035937,0.5612267926864326
1789309752218091800,6.843091796875,0.3504015471121296,-0.2865332148462534,0.7167213057808578
1789309752228104000,6.85310400390625,0.22525193993151185,-0.30484219399690626,0.785100283871591
1789309752238115800,6.86311572265625,0.07611055872347205,-0.45788872941732406,0.5710400384314358
1789309752248127700,6.873127685546875,-0.014365794482827186,-0.6085007311671972,0.1601540293380618
1789309752258140000,6.883139892578125,-0.2028501019766554,-0.5019505739837885,-0.2991730623193085
1789309752268151800,6.89315185546875,-0.14025131472256033,-0.33840544090270996,-0.2455352878950536
1789309752278164700,6.903164794921875,-0.1077273477366194,-0.1490145034253597,0.21808526317253707
1789309752288177000,6.913177001953125,0.10081541292369366,-0.06978139223456382,0.6357281991802156
1789309752298188800,6.923188720703125,0.14643329129312185,0.1750567071765661,0.6085258656084537
1789309752308201000,6.933200927734375,0.07951368169784545,0.4938058459728956,0.38194063124656674
1789309752318212900,6.943212890625,-0.28021749236080795,0.3775298290669918,0.3635264381557703
1789309752328225000,6.95322509765625,-0.485571101590991,0.264758020889759,0.33162849411368367
1789309752338237700,6.96323779296875,-0.4323977298080921,0.08944704669117927,0.23307094311937687
1789309752348249600,6.97324951171875,-0.21495328528974203,-0.12491992661058902,0.010760609597712755
1789309752358261800,6.98326171875,-0.15882632439825684,-0.31128713235259053,-0.052393911843001836
1789309752368273700,6.993273681640625,-0.19164313685093073,-0.34862171449065205,-0.0614331044755876
1789309752378285800,7.003285888671875,-0.37862931474149225,-0.45361762796938415,-0.23391966890320182
1789309752388297700,7.013297607421875,-0.3580652866730466,-0.2734539530426264,-0.5008402746543288
1789309752398309600,7.0233095703125,-0.20366320845782757,0.0014279869765043258,-0.4929362235315144
1789309752408322800,7.03332275390625,-0.10329784085657447,-0.04217559242844581,-0.31786008100211616
1789309752418334700,7.043334716796875,-0.1664391009569168,-0.3094131551742553,-0.21353490639179945
1789309752428347000,7.053346923828125,-0.3611608415355906,-0.3644926528394222,0.19134104863181708
1789309752438358800,7.06335888671875,0.029361667030118405,-0.1897317137390375,0.0782427849791944
1789309752448370700,7.07337060546875,0.12700436820182948,0.20617665258347986,-0.4053383118383586
1789309752458382800,7.0833828125,0.12471651299297809,0.338837987101078,-0.25314094059318304
1789309752468395800,7.093395751953125,-0.008056428672932088,-0.03501812188923359,-0.13715207006558774
1789309752478408000,7.103407958984375,-0.32404779319372023,-0.2599965055763721,-0.13516981020718813
1789309752488419800,7.113419921875,-0.17848726614713667,-0.32700784857571125,-0.2867299064621329
1789309752498431700,7.123431640625,-0.01766194995138794,-0.0681090751081705,-0.46605523086860773
1789309752508444000,7.13344384765625,0.4108902103444561,0.14585340904593466,-0.40925796950012444
1789309752518455800,7.143455810546875,0.4597516006797552,0.12107084996700286,-0.2855472725488245
1789309752528468000,7.153468017578125,0.2804290527522564,-0.1134966153204441,-0.002471066288650036
1789309752538480600,7.163480712890625,0.1511106354543939,-0.19532734178900718,0.16009981493279338
1789309752548492500,7.173492431640625,0.10658818763885647,-0.1010223336726427,-0.04681932658106088
1789309752558504700,7.183504638671875,0.05707973157167434,0.06415887617766856,-0.23135595589503644
1789309752568516600,7.1935166015625,0.06325926045682281,0.1258703592032194,-0.2738914676770568
1789309752578528800,7.20352880859375,0.11397004151847213,0.10579086324870586,-0.04623305112570524
1789309752588540700,7.213540771484375,0.12142627580855041,-0.006961071184277534,0.12182678290084004
1789309752598552600,7.223552490234375,0.13011870083007962,-0.07723989154696465,0.1047379931949079
1789309752608565800,7.233565673828125,0.10159574964642525,-0.12266016498506069,-0.07736088757812977
1789309752618577700,7.24357763671875,0.019932232970930636,-0.09924597164988518,-0.17796937975287436
1789309752628589800,7.25358984375,-0.15017828650772572,-0.0829886643320322,-0.21451178859993814
1789309752638601700,7.263601806640625,-0.2512111415743828,-0.010065466940402983,-0.1240482583425939
1789309752648613600,7.273613525390625,-0.13297580729424952,0.0652209524512291,-0.0489493243470788
1789309752658625800,7.283625732421875,0.09038867492284625,0.1338707103073597,0.07884951870068907
1789309752668637700,7.2936376953125,0.34580198089480396,0.16945698747336863,0.3119270376913249
1789309752678651000,7.30365087890625,-0.11528934395611286,-0.027734979143738746,0.3925668008096516
1789309752688662800,7.313662841796875,0.11950371024813503,-0.009391513201594353,0.3352557447001338
1789309752698674700,7.3236748046875,-0.1898369642117992,-0.04007189814746379,0.3377152666814625
1789309752708686800,7.333686767578125,-0.29866434561219063,-0.058306058496236796,0.30187925253808495
1789309752718698800,7.34369873046875,-0.0396013580262661,0.10130641131103038,0.3983960914850235
1789309752728711000,7.3537109375,0.022550233449600637,0.11506605659425258,0.7484536839976906
1789309752738723800,7.363723876953125,0.10455050779879092,0.01092003794312477,0.9265839534007012
1789309752748736000,7.373736083984375,0.04013093485832214,-0.04074059118926525,1.0804793607354164
1789309752758748000,7.383747802734375,0.0742348279794678,-0.007193710896372794,1.0335993900083005
1789309752768759800,7.393759765625,0.17210425057914108,0.17866203819215296,1.0328400960735975
1789309752778772000,7.40377197265625,0.09790562642421573,0.2541957103431225,1.0746154371380805
1789309752788783900,7.413783935546875,0.21792904969751833,0.2300917811781168,1.0050446189142763
1789309752798795800,7.423795654296875,0.16532558675706385,0.1408417183637619,0.931322526229918
1789309752808808000,7.433807861328125,0.08404197277724743,-0.027769465935230254,0.7957692696630955
1789309752818820600,7.443820556640625,0.1347510368058458,-0.0704582685828209,0.47526568841487166
1789309752828832800,7.453832763671875,0.25857903999388215,-0.0023018472015857694,0.24096900289282203
1789309752838844700,7.4638447265625,0.32138244644198566,0.06198562379181385,0.140103905608505
1789309752848856600,7.473856689453125,0.07679097873568534,0.08769055841267108,0.051392333585023875
1789309752858868700,7.48386865234375,0.04726856818590313,0.016949965757131577,-0.17578677501678466
1789309752868880600,7.493880615234375,-0.2926864767789841,-0.054587914755940437,-0.21937705654874443
1789309752878893800,7.503893798828125,0.036364239268563685,-0.07492986103892325,-0.5357559590823948
1789309752888905700,7.51390576171875,0.18028408643603325,-0.035956279522180556,-0.6035726271152496
1789309752898917600,7.523917724609375,-0.02379066196475178,-0.17802783194184302,-0.5498220399662852
1789309752908929800,7.5339296875,-0.038600072029232976,-0.15107845021784305,-0.4284456311814487
1789309752918941700,7.543941650390625,0.058608219780586654,-0.060354807719588274,-0.612849427895993
1789309752928953600,7.55395361328125,-0.24201314165089277,-0.020930559825897217,-0.507314292974025
1789309752938965800,7.5639658203125,-0.04658233948741108,0.026520342656970022,-0.5951154721543193
1789309752948978700,7.573978759765625,-0.13767477876544,0.08761573961079121,-0.45785292745158074
1789309752958990800,7.583990966796875,-0.1573363781014457,-0.09787877494990825,-0.6455399836204946
1789309752969002800,7.594002685546875,-0.3172533472806215,-0.13016308796107767,-0.5893164304867387
1789309752979014700,7.6040146484375,-0.4095879686394706,-0.1922416507333517,-0.3587891805008054
1789309752989026800,7.61402685546875,-0.24849369930922985,-0.10822539691925048,-0.4516295228920877
1789309752999038700,7.624038818359375,-0.0992617537409067,0.003409516182541847,-0.4040507562458515
1789309753009051000,7.63405078125,-0.264442963591218,0.057009588944911954,0.07719488336145877
1789309753019062800,7.644062744140625,-0.3476747890293598,-0.00966565396785736,-0.21852117037177085
1789309753029076000,7.654075927734375,-0.44917873220648613,-0.026418635848164555,-0.3184057321861386
1789309753039087900,7.664087890625,-0.45203704424705354,-0.13014789039194583,-0.3854952549882233
1789309753049099800,7.674099853515625,-0.28618188065793365,-0.004326046505570411,-0.2945341504722834
1789309753059112000,7.68411181640625,-0.31607612019479275,-0.015150222858786581,-0.1253134559728205
1789309753069123800,7.694123779296875,0.16833123484645038,0.02773205653429031,0.06788944100812078
1789309753079135700,7.7041357421875,-0.20917521334495395,0.013763152414560317,0.009486790269613266
1789309753089148000,7.71414794921875,-0.08088734467122703,-0.033822190102934836,-0.20882059122100471
1789309753099160600,7.72416064453125,-0.34663141745626924,-0.10584814639389514,-0.3594336158841848
1789309753109172700,7.7341728515625,-0.37330899650156496,-0.13367723356187342,-0.21503902734443545
1789309753119184600,7.7441845703125,-0.2316810961961746,-0.061136898007988924,0.06732640029788017
1789309753129196500,7.754196533203125,0.02163140157163143,0.08837503354549407,0.040503421432524916
1789309753139208700,7.764208740234375,-0.11184830012414604,0.052587096327543256,-0.14078604265376923
1789309753149220600,7.774220703125,-0.042719234318472445,0.08167349008023739,-0.3440156819999218
1789309753159232800,7.784232666015625,0.11835687830056994,-0.001821370208263397,-0.4228234073854983
1789309753169245700,7.79424560546875,-0.021218729117512703,-0.08914192626476287,-0.21730609549358487
1789309753179257600,7.804257568359375,-0.15234741070773453,-0.1566752473115921,-0.20749986401125786
1789309753189269800,7.814269775390625,-0.2945025862902403,-0.09875497326254844,-0.18401815839782357
1789309753199281700,7.82428173828125,-0.2342120759785175,0.028079262536764144,-0.2966616640202701
1789309753209293800,7.8342939453125,0.0934802477300167,0.1488449920773506,-0.25643691339865327
1789309753219305700,7.8443056640625,0.14779635980725286,0.15102642776966094,-0.07701587353274225
1789309753229317600,7.854317626953125,0.22131693857014179,0.042300095590949056,-0.10878025432303547
1789309753239330800,7.864330810546875,-0.11465221509635448,-0.11042319922447204,-0.254034382301569
1789309753249342700,7.8743427734375,-0.4007137207776308,-0.1782201396435499,-0.17890008473172783
1789309753259355000,7.88435498046875,-0.24892449194192884,-0.0770762254178524,0.03099164285212755
1789309753269366800,7.89436669921875,-0.03764383075032383,0.03277063522338867,0.19696268790587781
1789309753279378700,7.904378662109375,0.0017558672240003943,0.02560673494338989,0.2272869528904557
1789309753289390800,7.914390869140625,-0.09631992813535034,-0.027400048100948333,0.04071399544328451
1789309753299402800,7.92440283203125,-0.11281919098291546,-0.005908347260951996,-0.16635770628377794
1789309753309416000,7.934416015625,-0.08573946087751537,0.003925064489245415,-0.15494535477906465
1789309753319427800,7.944427734375,0.00009231792595237493,0.092726214492321,-0.060068684254586696
1789309753329439700,7.954439697265625,-0.10422609815001486,-0.004578559961915016,-0.06273965702950954
1789309753339452000,7.964451904296875,-0.20596034295167773,-0.06304477745592593,-0.13128873099014163
1789309753349463800,7.9744638671875,-0.26588556361496446,-0.18373451915085315,-0.3644488136976957
1789309753359476000,7.98447607421875,-0.19083762915432453,-0.1844815381258726,-0.5102589681237936
1789309753369488000,7.99448779296875,-0.026562464765645562,-0.09697101245522499,-0.47252618044838307
1789309753379499800,8.004499755859374,0.0008177461236715316,-0.004088146096467972,-0.49523807073310017
1789309753389512700,8.0145126953125,0.09600008506383746,0.0986526819318533,-0.5421300241589546
1789309753399524600,8.024524658203125,-0.010107552516460418,0.11156477047502994,-0.49131841307133434
1789309753409536800,8.034536865234376,-0.15785543353948742,0.0008346972584724426,-0.3878095232799649
1789309753419548700,8.044548583984374,-0.11396189474463463,-0.09918284328579902,-0.2781044091969728
1789309753429560600,8.054560546875,-0.11723112567365168,-0.1431768833130598,-0.21819763750582932
1789309753439572700,8.06457275390625,-0.07741875524520873,-0.11746844156086444,-0.1622245520018041
1789309753449584600,8.074584716796876,0.010673406238295137,-0.04182195668518543,-0.23153832672461866
1789309753459597800,8.084597900390625,0.117348030051589,0.06377659886181354,-0.22103987519443033
1789309753469609700,8.094609619140625,0.18732578510846942,0.06463292343020438,-0.18905147638991474
1789309753479621600,8.10462158203125,0.12817279092669487,0.005582184046506881,-0.24297493588775396
1789309753489633800,8.1146337890625,-0.024307927304506302,-0.11990589784085749,-0.22823694709166883
1789309753499645700,8.124645751953125,-0.19356851542294023,-0.14168752153813838,-0.0925945509366691
1789309753509657900,8.134657958984375,-0.01742931023929268,-0.052364978009462354,-0.06610913346260786
1789309753519669800,8.144669677734376,-0.06231006997320801,0.03493102812767029,-0.0023746201768517494
1789309753529682700,8.1546826171875,-0.10436704099066554,0.018269816184043882,-0.08206658105105161
1789309753539694800,8.16469482421875,-0.1885118530878797,-0.055450669065117836,-0.28324966313093897
1789309753549706800,8.174706787109375,-0.17182663921415806,-0.11030395675897597,-0.30869770038127897
1789309753559719000,8.184718994140624,-0.1528022052705288,-0.10657879875600337,-0.11428279726207255
1789309753569730800,8.194730712890625,-0.1682651838729158,0.010614332994818686,-0.038803339516371486
1789309753579742700,8.20474267578125,-0.1724310713807121,0.11505085902512073,-0.019680705895274875
1789309753589755000,8.2147548828125,-0.12605627369675784,0.16622458142340182,-0.04972513102516531
1789309753599766800,8.224766845703124,-0.12439155535493045,0.11652151609957218,-0.04652881920188665
1789309753609779700,8.23477978515625,-0.09025372343156486,-0.010871522626280784,0.07830036038532853
1789309753619792000,8.2447919921875,0.023194413104653356,-0.035953356912732125,0.23276260782256722
1789309753629803800,8.2548037109375,0.16490410994198174,0.006261983004212379,0.37158947923257946
1789309753639815700,8.264815673828124,0.2580149398377165,0.02866846060156822,0.6368311919860541
1789309753649827800,8.274827880859375,0.05887125463094562,0.029855040037631987,0.5885765719048679
1789309753659839700,8.28483984375,-0.18607962097227573,-0.01540390535891056,0.5379992079645395
1789309753669852000,8.294851806640626,-0.15049977354705332,0.047885202246904374,0.3732410458318889
1789309753679864600,8.304864501953125,0.0724491501390934,0.11294365761280059,0.318608269020915
1789309753689876700,8.314876708984375,0.43256135940458623,0.1953478000551462,0.5776403134793043
1789309753699888600,8.324888671875,0.338420017417334,0.10367723209559916,0.8029225024186074
1789309753709900800,8.33490087890625,-0.12381225762963294,-0.11380232026875019,0.6580427607104182
1789309753719912700,8.34491259765625,-0.22934012256059794,-0.1700286498814821,0.24964535356238482
1789309753729924600,8.354924560546875,-0.40087797142863274,-0.01962064627110958,-0.1541619493164122
1789309753739936800,8.364936767578126,0.01501457724776119,0.19221826985776425,-0.3038791941836476
1789309753749948700,8.37494873046875,-0.10022858947906643,0.23247955309748647,0.00847688257470727
1789309753759961900,8.3849619140625,0.17844167343974113,0.2075380040645599,0.19261209148094058
1789309753769973800,8.394973876953125,-0.0562929651081562,0.11475099929571152,0.22071341971904038
1789309753779985700,8.404985595703126,-0.11305120964050293,-0.06094517482817172,0.16934826640188694
1789309753789997800,8.414997802734375,-0.2963578587681055,-0.18699907390475273,0.16389774591103196
1789309753800009700,8.425009765625,-0.3299555924654007,-0.1335778648406267,0.2535714409649372
1789309753810021600,8.435021728515625,-0.39982817011475563,-0.0036976854741573332,0.2921712207332253
1789309753820033800,8.44503369140625,-0.36836043418347836,0.13006021210849283,0.3247102391578257
1789309753830046700,8.455046630859375,-0.18844865165855734,0.20348376023769377,0.3226606131516397
1789309753840059000,8.465058837890625,-0.0372615169018507,0.15830138720870018,0.38149770978465675
1789309753850070800,8.47507080078125,0.16334343649651853,0.049877837368845934,0.39095191295891996
1789309753860082700,8.485082763671874,0.15403262384831903,-0.0955763432264328,0.3782921917416155
1789309753870094800,8.4950947265625,0.1330073349436745,-0.14843816484212874,0.4173910070732236
1789309753880106800,8.505106689453125,0.3265220743527636,-0.04004150300920009,0.4973508251033723
1789309753890119000,8.515118896484376,0.3632551469337195,0.10733517008125781,0.3969388784140348
1789309753900130800,8.525130859375,0.05761515362262726,0.02006546742916107,0.13765271306410432
1789309753910143700,8.535143798828125,-0.04121577095296234,-0.027892215532064436,-0.002768149539083242
1789309753920155400,8.5451552734375,-0.04587152433693409,-0.10409341168105601,-0.0013983224906027316
1789309753930167300,8.555167236328124,0.08311488452758639,-0.0918903481900692,0.16232114424407482
1789309753940179500,8.565179443359375,0.5148708458334207,0.09755611886680125,0.21067761726453899
1789309753950191400,8.57519140625,0.5830717639435082,0.19561141942739485,0.20760113242864608
1789309753960203300,8.585203369140626,0.2614899955371395,0.06672434275150299,0.05873378238901496
1789309753970215400,8.59521533203125,-0.1452075488904491,-0.12209142518639564,-0.05858955161273479
1789309753980227300,8.605227294921875,0.7456896991770714,-0.009861468800902365,-0.08766893110275269
1789309753990240300,8.615240234375,-0.06782032129466534,-0.09654664956331252,0.14665931860134004
1789309754000252200,8.625252197265626,0.19409049347043036,0.017781740406155586,0.19909867702126502
1789309754010264300,8.635264404296874,0.1931213927099481,0.12670154933035374,-0.0755174516685307
1789309754020276200,8.645276123046875,0.1098801418563351,-0.12977730351388453,-0.23251228632330892
1789309754030288100,8.6552880859375,-0.00752568279709667,-0.15715104812979697,-0.04082096294909716
1789309754040300300,8.66530029296875,0.10393208363950251,-0.04382452867925167,0.21017054452523587
1789309754050312200,8.675312255859374,-0.0011988543957471847,0.01584872651696205,0.310628814574331
1789309754060325400,8.685325439453125,-0.24212299523353575,0.06121288585364818,-0.09251330239400267
1789309754070337300,8.695337158203126,-0.13898827251680196,0.062142860180139536,-0.5197448816105723
1789309754080349200,8.70534912109375,0.06670264237634838,0.03694236795008182,-0.5655646757602691
1789309754090361300,8.715361328125,-0.2197873178500682,0.0012654898911714553,-0.2379175063677132
1789309754100373200,8.725373291015625,-0.18182550719175486,-0.019762100568413734,-0.15000497576743363
1789309754110385200,8.73538525390625,-0.3199690359801054,0.00011105915904045104,-0.195638161303848
1789309754120397300,8.745397216796874,-0.27580373103916644,-0.023223639199137686,-0.3458627711713314
1789309754130409200,8.7554091796875,-0.3744534903615713,-0.07638707410991191,-0.5400121552221476
1789309754140422400,8.76542236328125,-0.27593992463946343,-0.20872516802251337,-0.8387154080726206
1789309754150434300,8.775434326171874,-0.26310269143078474,-0.2441547933220863,-0.943146527275443
1789309754160446500,8.785446533203125,-0.23673896410763262,-0.14043372208476065,-0.9348439783543347
1789309754170458400,8.795458251953125,-0.13860829675588757,-0.013097381982207298,-0.8015988525994121
1789309754180470300,8.80547021484375,-0.09196165986061096,0.03094458884000778,-0.7316400579713285
1789309754190482400,8.815482421875,-0.35706633876357224,-0.08865034335553645,-0.7103147997394204
1789309754200494300,8.825494384765625,-0.44478963040206576,-0.16691022560000418,-0.7559715122818946
1789309754210506200,8.83550634765625,-0.07577044004891068,-0.1561608680486679,-0.8136011328212917
1789309754220519400,8.84551953125,0.2531347665807232,-0.09367021734416485,-0.70122826083377
1789309754230531300,8.85553125,-0.017121851725317536,-0.12459610148370265,-0.6126178110972047
1789309754240543500,8.86554345703125,-0.07742814412806183,-0.08441548226475715,-0.685508129132539
1789309754250555400,8.875555419921875,-0.393645134098269,-0.17275427545309066,-0.7495083076171577
1789309754260567300,8.8855673828125,-0.6101111255059019,-0.05294949989914894,-0.6752525464475154
1789309754270579500,8.895579345703124,-0.39410219368338584,0.27684476452469825,-0.7268725513085722
1789309754280591400,8.90559130859375,0.12263970671892166,0.40947278129458425,-0.6019403497382998
1789309754290604300,8.915604248046876,-0.21761282335519788,0.2796183208912611,-0.5716773134216666
1789309754300616200,8.9256162109375,-0.07706453498005866,0.1756546730697155,-0.5550481040515005
1789309754310628000,8.935628173828125,-0.41106330188903956,0.006180734461545944,-0.588387771334499
1789309754320640300,8.94564013671875,-0.5217348863840103,-0.22596622568070887,-0.5386313683882356
1789309754330652200,8.955652099609376,-0.44026718454156066,-0.3750315825104713,-0.23554347071275114
1789309754340664300,8.965664306640624,-0.04995382521450519,-0.3100005996733904,0.23011706174984572
1789309754350676200,8.97567626953125,0.33918577762544155,-0.06566168195605278,0.6453212263032794
1789309754360688000,8.985688232421875,0.3206646170288324,0.1752531065315008,0.7010536349192261
1789309754370701300,8.995701416015624,0.05093644304368645,0.19916998869180677,0.553043340100348
1789309754380713200,9.005713134765625,-0.06766133134067058,0.04980711022019386,0.5487506113424897
1789309754390725400,9.015725341796875,-0.2238034946888685,-0.1747258677870035,0.6396669999338687
1789309754400737300,9.0257373046875,-0.024379238975048064,-0.21428689380288124,0.7981932819396257
1789309754410749200,9.035749267578124,0.38091596437394615,0.006370704075694083,0.7930451053962111
1789309754420761300,9.04576123046875,0.656439124906063,0.15683423726558685,0.7355971250340342
1789309754430773200,9.055773193359375,0.6436936251014471,0.24631343266069888,0.5824881919018924
1789309754440785200,9.06578515625,0.37026418544556944,0.148005034121871,0.4862906480371952
1789309754450798300,9.07579833984375,0.032139936104416844,-0.06073240886032581,0.48936727900356053
1789309754460810200,9.085810302734375,-0.1662129275182262,-0.19061317274868486,0.6128714935973286
1789309754470822400,9.095822509765625,0.17663666984438894,-0.063682490837574,0.6183093007370829
1789309754480834300,9.105834228515626,0.3222895878821611,0.17340952449142932,0.6244771757170557
1789309754490846500,9.115846435546874,0.21896716057360172,0.13836802172660828,0.7081742805793881
1789309754500858400,9.1258583984375,0.23405955229792744,0.14315700956881044,0.7299407067075371
1789309754510870300,9.135870361328125,0.1045557684957981,-0.008827449578046799,0.8087316270887851
1789309754520882400,9.14588232421875,-0.07559325685109942,-0.013235329148173332,0.8373533259391784
1789309754530895400,9.155895263671875,0.07941372845470905,0.06638473553359509,0.72174804790169
1789309754540907300,9.1659072265625,0.12190032306108622,0.11736030501127243,0.5885778870791196
1789309754550919200,9.175919189453126,-0.10745507013387977,-0.08755144220292568,0.5675440130092203
1789309754560931300,9.185931396484374,-0.09604341274891048,0.14174480468332767,0.5296117572389543
1789309754570943200,9.195943115234375,0.7048568265944719,0.3789677529156208,0.4809447569645941
1789309754580955400,9.205955322265625,-0.34127131519522513,0.11795651733875274,0.4038511420205235
1789309754590967300,9.21596728515625,0.09516425529420375,0.07395721661448479,0.2448217327982187
1789309754600979500,9.2259794921875,-0.2801274394571781,-0.16220950056314468,0.24093729258030652
1789309754610992000,9.2359921875,-0.3531470829606056,-0.27268822936713694,0.2212204924583435
1789309754621004300,9.24600439453125,-0.04768178862929344,-0.020076573345065116,0.19915654468834398
1789309754631016200,9.25601611328125,0.14942366874814034,0.17297171759605406,0.2050347890719771
1789309754641028400,9.2660283203125,0.05120002588331699,0.12652560824155806,0.03262552766427398
1789309754651040300,9.276040283203125,-0.0436229051599279,0.09369242917597294,-0.013900368928164243
1789309754661052200,9.28605224609375,-0.1480617692777887,-0.05260521650612354,-0.12430851671397686
1789309754671064300,9.296064208984374,-0.22174659869167954,-0.11486088941097258,-0.0999070659071207
1789309754681076200,9.306076171875,-0.23792265746686606,-0.16518179437220096,-0.20687135684937238
1789309754691089400,9.31608935546875,-0.2631254877844825,-0.12784955032169817,-0.23718115491718053
1789309754701101300,9.326101318359376,-0.04035250518713146,0.06044891574382782,-0.2745896790742874
1789309754711113200,9.33611328125,0.09181432381179183,0.07243979778885841,-0.29292423105761406
1789309754721125400,9.34612548828125,0.13406528303138912,0.06359890420734882,-0.27253756885007024
1789309754731137300,9.35613720703125,0.0048608475020155304,-0.08376140227019786,-0.41689153311848637
1789309754741149200,9.366149169921876,-0.07365326523184776,-0.11736790379583835,-0.36876097780838607
1789309754751161300,9.376161376953124,-0.07468494636714458,-0.14679039763510227,-0.4530263840779662
1789309754761173200,9.38617333984375,-0.022834347620606422,-0.09427285941243171,-0.42271249435693026
1789309754771186400,9.3961865234375,0.05698854615688324,-0.029179332733154296,-0.4678894605584442
1789309754781198300,9.4061982421875,0.05015782335400581,0.008211948028206824,-0.55186918175444
1789309754791210200,9.416210205078125,0.04935118314623833,-0.001028174003958702,-0.47827904488667844
1789309754801222400,9.426222412109375,0.08154843892846256,-0.0746358465284109,-0.33983065140023827
1789309754811234300,9.436234375,0.11000471808407455,-0.08802724302113056,-0.32676512586101886
1789309754821246500,9.44624658203125,0.07944416012559086,-0.07362929983437061,-0.3958290174759924
1789309754831258400,9.45625830078125,0.05633501415159553,-0.056691024515032766,-0.4082382710635662
1789309754841270300,9.466270263671875,0.062276715692877765,-0.041133389899134634,-0.4042734590858221
1789309754851283200,9.476283203125,0.12731533384714275,0.010893149936199187,-0.29177783750146624
1789309754861295000,9.486295166015625,0.18472703731954096,-0.014765022933483123,-0.19823460753783584
1789309754871307300,9.496307373046875,0.1278010350048542,-0.03770984519124031,-0.1667475823841989
1789309754881319200,9.506319091796875,0.07635788454804569,-0.05912380461990833,-0.1516843071565032
1789309754891331000,9.5163310546875,0.04556936305258423,-0.034525954458117486,-0.12384002241939306
1789309754901343200,9.52634326171875,0.07154080312252044,-0.005626023188233375,-0.0748059423983097
1789309754911355100,9.536355224609375,0.07044248649179935,0.00919862097799778,-0.04090221149176359
1789309754921367600,9.546367431640626,0.04874035777151584,0.012503507742285728,0.02041048147454858
1789309754931380700,9.556380615234374,-0.019212028937600552,-0.004587912312150002,0.07352101715430617
1789309754941392600,9.566392578125,-0.028324725197814402,-0.0005418517917394638,0.13087065170854328
1789309754951404500,9.576404541015625,-0.030913024657964704,0.016994389420747755,0.18808336201012132
1789309754961416700,9.586416748046876,-0.05533957337345927,0.035438393127918244,0.194356889321655
1789309754971428600,9.5964287109375,-0.08746902461647987,0.03939502179920673,0.1616184028021991
1789309754981440500,9.6064404296875,-0.14535594438519328,0.0210837045609951,0.18510829172208904
1789309754991452700,9.61645263671875,-0.11971066752970218,0.04048223251402378,0.22044410125836728
1789309755001464600,9.626464599609376,-0.13256017569806425,0.03879121068716049,0.2568658063352108
1789309755011477800,9.636477783203125,-0.12926347224023194,0.023352234014868734,0.25583134872093793
1789309755021489700,9.64648974609375,-0.11070727686285972,0.030064298874139785,0.24226065013855694
1789309755031501800,9.656501708984376,-0.13046123065743595,0.03213292184174061,0.2528992407917976
1789309755041513700,9.666513671875,-0.1476513983786106,0.014584405669569969,0.22619550439193845
1789309755051525600,9.676525634765625,-0.13305121061801908,0.01830664106309414,0.24670360102206468
1789309755061537800,9.686537841796875,-0.1092178785553202,0.015601473757624626,0.24617957714796065
1789309755071549700,9.6965498046875,-0.11420735740568488,0.013969488641619681,0.2342977084353566
1789309755081561600,9.7065615234375,-0.11950780190136283,0.03081073332726955,0.22738822130784392
1789309755091574800,9.71657470703125,-0.10758647796120493,0.03426058152019977,0.22936785081773994
1789309755101586700,9.726586669921875,-0.11500468179583549,0.044349429336190224,0.23834464573860167
1789309755111598800,9.736598876953124,-0.10800503216683864,0.02709901932775974,0.2080104438818991
1789309755121610800,9.74661083984375,-0.11694007030520588,0.013989362385869026,0.19896613668277857
1789309755131622700,9.75662255859375,-0.11725684463679789,0.009919920989871024,0.20443594639599322
1789309755141634800,9.766634765625,-0.11947221913132816,-0.004471007934212685,0.1977523769788444
1789309755151646700,9.776646728515624,-0.14126257412433624,-0.006372457641363144,0.16822569211274385
1789309755161659000,9.786658935546875,-0.10334230105280875,0.0011088380247354507,0.1256098085708916
1789309755171671600,9.796671630859375,-0.0702665819356218,0.0015939911931753157,0.0664665685981512
1789309755181683700,9.80668359375,-0.07790277590248733,0.014960837766528129,0.05946487314254045
1789309755191695600,9.816695556640624,-0.0714683589408174,-0.00367079746723175,0.08148951181545853
1789309755201707500,9.82670751953125,-0.05553834734857082,0.02381692891716957,0.11373100859820842
1789309755211719700,9.8367197265625,-0.07285710988547653,-0.02403378653824329,0.02866115407794714
1789309755221731600,9.846731689453126,-0.17236264578700064,-0.021986790880560873,-0.06690934392958879
1789309755231743500,9.856743408203124,-0.26857140516545625,-0.15746259829699993,-0.2565095402434468
1789309755241755600,9.866755615234375,-0.06314768984112888,0.04611526996493339,-0.47639060079157347
1789309755251768600,9.8767685546875,-0.07374328160285949,0.08706745807826519,-0.19122326747104523
1789309755261780700,9.88678076171875,-0.1473199379345402,0.07420096224248408,-0.4223454146102071
1789309755271792600,9.896792724609375,-0.17161913394331932,0.019440029007196425,-0.23094985931217668
1789309755281804500,9.906804443359375,-0.272165630265139,-0.1054103394985199,-0.24986951770707963
1789309755291816700,9.916816650390626,-0.26961894145701076,-0.16778642391264437,-0.25074103984460233
1789309755301828600,9.92682861328125,-0.2475666475921869,-0.11145429583787918,-0.16962839851751924
1789309755311840800,9.9368408203125,-0.24171850608587264,-0.03646189095675945,-0.2019089121364057
1789309755321852700,9.946852783203125,-0.14427224080171436,0.055365913391113276,-0.1486376329369843
1789309755331864600,9.956864501953126,-0.10583473892305045,0.11262217057347297,-0.015021043521165846
1789309755341877800,9.966877685546875,-0.13256664197146892,0.08070026113390923,0.06866539381667972
1789309755351889700,9.9768896484375,-0.2106102511167526,-0.00611468348801136,0.15140607473701237
1789309755361901800,9.98690185546875,-0.2367266526153311,-0.08444704644680023,0.1500445771254599
1789309755371913700,9.996913818359374,-0.21201598972883073,-0.09327215793728828,0.2203333343602717
1789309755381925600,10.006925537109375,-0.11586396550629287,-0.01472936709821224,0.29803119880780576
1789309755391937800,10.016937744140625,-0.023920389291644095,0.10333996296525001,0.35983562081381676
1789309755401949700,10.02694970703125,-0.03663553049061447,0.06972703169882297,0.29950960079729555
1789309755411961600,10.036961669921874,-0.056205907879211,0.04439034586846828,0.2790988270618021
1789309755421974800,10.046974853515625,-0.05866440694723278,-0.0099994159668684,0.29354557782635093
1789309755431986700,10.056986572265625,0.007972878575325013,0.008417699733376503,0.32828181403428314
1789309755441998800,10.066998779296876,0.0633516514480114,0.03880290112495422,0.34805867378041144
1789309755452010800,10.0770107421875,0.07583937709927559,0.058306058496236796,0.3044806672081351
1789309755462022700,10.087022705078125,0.022145159780047833,0.046427989175915715,0.29401436438187956
1789309755472034800,10.097034912109375,0.030921171431802213,0.04262859689295292,0.26807430583089586
1789309755482046700,10.107046630859376,0.02259940635357052,0.025818331867456433,0.23991218731626868
1789309755492059000,10.117058837890625,0.024905929730273783,0.013355156135559081,0.2009010502681136
1789309755502071600,10.127071533203125,0.007046411380171776,0.0030202246040105817,0.14936375525444745
1789309755512083700,10.137083740234376,-0.03806874163150787,-0.005901917520165443,0.12807210703119634
1789309755522095600,10.147095703125,-0.03618245296087116,-0.004644026413559914,0.14567965991422532
1789309755532107500,10.157107421875,0.01840191813111305,0.012955927684903144,0.12751315797418356
1789309755542119700,10.16711962890625,0.08200319695863872,0.0206786308914423,0.09240048966929316
1789309755552131600,10.177131591796876,0.09046181322429328,0.006273673442006111,0.05503668143674731
1789309755562143500,10.1871435546875,0.06881926920413971,-0.025910686326026916,0.04937909406647086
1789309755572155600,10.19715576171875,0.08175068350229411,-0.04161035976111889,0.07493804434537887
1789309755582167600,10.20716748046875,0.11276767999138683,-0.02423252398073673,0.0708877460412681
1789309755592180700,10.2171806640625,0.17524379071388393,-0.002910334488749504,0.02851838460639119
1789309755602192600,10.227192626953125,0.1943196260511875,0.0030190555602312087,-0.042452948065102095
1789309755612204500,10.23720458984375,0.20202826419975609,-0.006611527094244956,-0.08110898806527256
1789309755622216700,10.247216796875,0.18728143451008944,-0.02251987484395504,-0.05121376214772463
1789309755632228600,10.257228515625,0.19761516046524047,-0.02929156093597412,-0.04236556204259395
1789309755642240800,10.26724072265625,0.16296879449784754,-0.03363455857634544,-0.04365910898447036
1789309755652252700,10.277252685546875,0.15846976604554802,-0.03569850536882877,-0.06378200568929314
1789309755662264600,10.2872646484375,0.13064645103123038,-0.010215689066052436,-0.06936009808257222
1789309755672277800,10.29727783203125,0.13470540756583213,-0.026498130825161934,-0.06489931928142904
1789309755682289700,10.30728955078125,0.11346972731351852,-0.021124621093273163,-0.0798407216951251
1789309755692301800,10.3173017578125,0.10751637186706066,0.001786298894882202,-0.09549714051038026
1789309755702313700,10.327313720703126,0.08367313946485519,0.0015232640445232391,-0.09279781842380762
1789309755712325600,10.33732568359375,0.025128011515736577,-0.01312426998913288,-0.08678221139609814
1789309755722337800,10.347337890625,0.008486636783741414,-0.02587035431563854,-0.0994439784400165
1789309755732349700,10.357349609375,0.006591068828105926,-0.029635844328999517,-0.11556523828804492
1789309755742361600,10.367361572265626,-0.008916881427168845,-0.02310147412419319,-0.13094196337908506
1789309755752374500,10.37737451171875,0.021864041283726692,0.0068944356888532635,-0.16656638059839604
1789309755762386700,10.38738671875,0.06544778347704559,-0.010170096358656882,-0.18600275634378194
1789309755772398600,10.397398681640626,0.06978022319078445,-0.007243395256996154,-0.1716156268119812
1789309755782410500,10.407410400390624,0.04830781157314777,-0.045052024647593496,-0.16174436726942656
1789309755792422700,10.417422607421875,0.034303836140036584,-0.045725393864512444,-0.13277692372128366
1789309755802434600,10.4274345703125,0.05002108176443726,-0.03880407016873359,-0.14084113384187222
1789309755812446700,10.43744677734375,0.05569090756177902,-0.02893324901759624,-0.15347279800847172
1789309755822458600,10.447458740234374,0.0775029263973236,-0.03407236547172069,-0.19134557867646215
1789309755832471600,10.457471435546875,0.08753449106812476,-0.0309960267663002,-0.23186448993906378
1789309755842483700,10.467483642578125,0.10672788837049156,-0.023894670328497885,-0.23385756345242262
1789309755852495600,10.47749560546875,0.13728782527446745,-0.025115152034163472,-0.21938626276850698
1789309755862507500,10.487507568359375,0.1546755979269743,-0.040245501148700714,-0.21428572475910185
1789309755872519700,10.497519775390625,0.18056290337741374,0.05356733953654766,-0.30124782276675105
1789309755882531600,10.507531494140625,0.013553309056162833,-0.19234452658593654,-0.3048546150870621
1789309755892543500,10.51754345703125,0.033484372983314095,0.026436171504855156,-0.31043533782884475
1789309755902555600,10.5275556640625,0.08187631917595863,-0.1184551145106554,-0.38075332115814087
1789309755912567600,10.537567626953125,0.16411211931407452,0.0009667992055416107,-0.415584834434092
1789309755922580000,10.547580078125,0.17713351345062256,-0.0009469254612922668,-0.3878459097675979
1789309755932592000,10.557592041015624,0.11959431114103644,-0.03246960645020008,-0.3497878356605768
1789309755942604000,10.56760400390625,0.024426548715494573,-0.10072247394323348,-0.2766911813981831
1789309755952616200,10.5776162109375,-0.022773557344079015,-0.07192132687270641,-0.22070143702030182
1789309755962628000,10.587628173828126,0.07238485273122787,-0.054712417918443675,-0.4116616696409881
1789309755972640000,10.597639892578124,0.07123159104287624,-0.04161503593623638,-0.6614478929787874
1789309755982652200,10.607652099609375,0.12113043466713279,0.06302373466789722,-0.8492292033024131
1789309755992664000,10.6176640625,0.047949463122151786,-0.11879296816289424,-0.9176527511872351
1789309756002676000,10.627676025390626,-0.06483341443836689,-0.12578735709488392,-0.9443371983647346
1789309756012689200,10.637689208984375,-0.25234511404037474,-0.19615268669724464,-1.0285765934102236
1789309756022701000,10.647701171875,-0.2126899800002575,-0.19467326179444788,-0.9113213562086224
1789309756032713200,10.657713134765626,-0.1365279468178749,-0.10308511142134666,-0.8156770623125136
1789309756042725000,10.66772509765625,-0.08671791398823261,-0.027919688060879706,-0.5704974559873343
1789309756052737300,10.6777373046875,-0.08327274197041988,0.08310849131941794,-0.4099458056338131
1789309756062749200,10.687749267578125,-0.12084752607252448,0.016153846943378448,-0.3664630761295557
1789309756072761000,10.697760986328126,-0.20045648483838885,-0.040241409495472905,-0.6122976392321289
1789309756082773200,10.707773193359374,-0.41641514777839184,-0.21186463509202003,-0.8588675308719277
1789309756092786200,10.7177861328125,-0.5795651440620422,-0.1909510264009237,-0.7033082819782197
1789309756102798300,10.72779833984375,-0.5341425325363874,-0.12056699209809303,-0.4822853579185903
1789309756112810200,10.737810302734376,-0.28033381221685555,0.10505553471148013,-0.38855624999403954
1789309756122822100,10.747822265625,-0.1492155789554119,0.07406243055462837,-0.48343072856143116
1789309756132834300,10.757834228515625,-0.30639004449341445,0.03658990125060081,-0.48154462255388497
1789309756142846200,10.76784619140625,-0.5200731271842495,-0.15253449424505233,-0.38601810981854795
1789309756152858000,10.777858154296876,-0.5368576732465997,-0.20940964315533636,-0.3820227565720677
1789309756162870300,10.787870361328125,-0.39559970223214475,-0.13423895909786224,-0.6811717073634267
1789309756172882200,10.797882080078125,-0.4121078425059095,-0.10348317082822323,-1.0796728666581212
1789309756182895000,10.80789501953125,-0.40732115621864795,0.03341594738960266,-1.3372399531304835
1789309756192907000,10.817906982421874,-0.6034563437918201,-0.03772036658525467,-1.8245324716866016
1789309756202919000,10.8279189453125,-0.6745359226107597,-0.19001988303065298,-1.5156795807436108
1789309756212931000,10.83793115234375,-0.5986550079246983,-0.40292379804253575,-0.998184816147387
1789309756222943000,10.84794287109375,-0.3273176451772451,-0.32093349709808827,-0.9061875004515051
1789309756232955100,10.857955078125,-0.15646829003002494,-0.11560323221087455,-0.9028373132407664
1789309756242967000,10.867967041015625,0.027485388296842574,0.04692892443537712,-0.6020394261986017
1789309756252979000,10.87797900390625,-0.029781426812149583,0.13292729197740555,-0.5694233970150351
1789309756262992100,10.8879921875,0.015234430543519556,0.009679097971320152,-0.6315164267040789
1789309756273004000,10.898004150390625,-0.0168225399851799,-0.16249007107019423,-0.9734694770857691
1789309756283016200,10.90801611328125,-0.1203373115280643,-0.36824995954632755,-1.6681566457130015
1789309756293028000,10.918028076171876,-0.19358082691524175,-0.4288789080321789,-1.9523340912133453
1789309756303040000,10.9280400390625,-0.13117021917700766,-0.3274666982591152,-1.909261403814703
1789309756313052200,10.93805224609375,0.01211885580625385,-0.15678572194874285,-1.427259977404028
1789309756323064000,10.94806396484375,0.07724453118946403,-0.10082885692715644,-1.129397120900452
1789309756333076200,10.958076171875,0.039863808354735374,-0.12219020938575267,-1.0490363208539784
1789309756343088000,10.968088134765624,-0.11351122836768626,-0.2752233008027077,-1.249406771376729
1789309756353101000,10.97810107421875,-0.17261578029785304,-0.3605114742487669,-1.5315306453481317
1789309756363113200,10.98811328125,-0.0486117994884029,-0.3407043654948473,-1.4585609784662723
1789309756373125000,10.998125,0.49258825034406034,-0.06301438231766224,-1.0477776990950107
1789309756383137300,11.00813720703125,0.1130301303198561,-0.11226035152375698,-0.400774803315103
1789309756393149200,11.018149169921875,-0.23694997650980948,-0.14037234728634357,-0.7250039809577167
1789309756403161000,11.0281611328125,-0.011627857418917118,-0.4991115511655807,-0.5910056256826967
1789309756413173200,11.03817333984375,0.3149223105171695,-0.2749760480433702,-0.863943518961966
1789309756423185200,11.04818505859375,0.3983265333801508,-0.3281903363585472,-0.5662796921618283
1789309756433197000,11.058197021484375,0.4762859348407015,0.09239245249330998,0.02381327565535903
1789309756443210200,11.068210205078126,0.5101689517527819,0.15657763215601445,0.18816994431503117
1789309756453222100,11.07822216796875,-0.015505539102479815,-0.035139702442288395,-0.010012348513677716
1789309756463234300,11.088234375,-0.20571144622452556,-0.17632219706773758,-0.34035789014473555
1789309756473246200,11.09824609375,-0.23332243366241454,-0.29268823034465313,-0.3951722340676933
1789309756483258000,11.108258056640626,-0.006060396017506718,-0.3276414703041315,-0.4477592573300004
1789309756493270300,11.118270263671874,0.03952653922438621,-0.3957943845540285,-0.23090156319104133
1789309756503282200,11.1282822265625,-0.17790742043256758,-0.3281909208804369,0.5861964718353003
1789309756513294300,11.13829443359375,-0.5406979820618406,-0.17253215713500974,0.9949106898475438
1789309756523307000,11.14830712890625,-0.8820862016350031,-0.07947159612178802,0.8271773843616247
1789309756533319200,11.158319091796875,-0.7981763308048248,0.1079021563142538,0.26317162848114967
1789309756543331000,11.1683310546875,-0.686665336343646,0.169428345900774,-0.3942554114837199
1789309756553343000,11.178343017578126,-0.670124535909295,0.06879471928477286,-0.4527828576456755
1789309756563355100,11.188355224609374,-0.6995733332335948,-0.09220306740105151,0.16066866432931273
1789309756573367000,11.198366943359375,-0.7091612457901239,-0.28579028752446173,0.5753953840967267
1789309756583379000,11.20837890625,-0.7037802103389054,-0.41696226026713845,1.25460843167305
1789309756593391000,11.21839111328125,-0.6633885056525468,-0.27610768242180345,1.6007573263093828
1789309756603403000,11.228403076171874,-0.6265326469421386,-0.009144260442256927,2.0691214186422524
1789309756613416200,11.238416259765625,-0.33479433773346245,0.3659218088597059,2.4460579579912123
1789309756623428000,11.248427978515625,-0.22792028235793113,0.5301666146427393,2.4018697105661033
1789309756633440000,11.25843994140625,-0.3151064714450389,0.3900479498565197,2.1549187106542287
1789309756643452200,11.2684521484375,-0.4026648548454046,0.09757774617671966,1.940059716051817
1789309756653464000,11.278464111328125,-0.32871932866871356,-0.061650108227133744,1.87869485450685
1789309756663476200,11.288476318359375,-0.2832902874022722,-0.09213292477428912,1.9730764349907635
1789309756673488100,11.298488037109376,-0.30973807627968486,0.01976093152463436,2.1240824044942856
1789309756683500000,11.3085,-0.2756529609242454,0.23393501260280608,2.344519637620449
1789309756693512200,11.31851220703125,-0.16895144910402596,0.37047815698981285,2.5797987583085895
1789309756703525000,11.328525146484376,-0.14365038257632404,0.3948001128196716,2.8098525455638765
1789309756713537300,11.338537353515624,-0.20559216722641138,0.43227322664558887,2.906646740147471
1789309756723549200,11.348549072265625,-0.12827917391061783,0.3758797237724066,3.000033756636083
1789309756733561000,11.35856103515625,-0.22049400481469927,0.35552374896407124,2.8730335166200995
1789309756743573200,11.3685732421875,-0.5312695343833417,0.32397008831501006,2.6113205625146625
1789309756753585200,11.378585205078124,-0.6982493911534547,0.2302478485226631,2.5003897060289977
1789309756763597000,11.38859716796875,-0.6549216330152005,0.2550654789149761,2.1839339388668537
1789309756773609200,11.398609130859375,-0.45945459049455817,0.26697102076411244,1.7125063673101364
1789309756783621000,11.40862109375,-0.34037469514906404,0.25875030490756035,1.1901162318877876
1789309756793634300,11.41863427734375,-0.39735217192266137,0.1862900488525629,0.8950805616341531
1789309756803646200,11.428646240234375,-0.5421463177066296,0.009810030874609946,0.693135482205823
1789309756813658000,11.438658203125,-0.713082730082795,-0.11010638836026192,0.5806522451790049
1789309756823670300,11.448670166015624,-0.7510860783278942,-0.03458382212519646,0.4080050102969631
1789309756833682200,11.45868212890625,-0.7068798568546771,0.07029109532237053,0.13538889631796627
1789309756843694300,11.4686943359375,-0.633583076910302,0.13353694830834864,-0.2607918937377631
1789309756853706200,11.478706298828126,-0.6185165137469768,0.15078677379488944,-0.6864770472299307
1789309756863718100,11.48871826171875,-0.5831242247831077,0.11499065327048301,-0.7476211786963045
1789309756873731000,11.49873095703125,-0.6700859574645758,0.06407295145988463,-0.664943626140058
1789309756883743000,11.508742919921875,-0.785357765763998,0.03250292419791222,-0.5444044718969613
1789309756893755100,11.518755126953126,-0.8437110974680632,0.05500234077572822,-0.42166430047824977
1789309756903767000,11.52876708984375,-0.5790373207956552,0.4403437203764915,-0.5364633036341517
1789309756913779200,11.538779296875,-0.27275362275354564,0.636755934792757,-0.7398757522013037
1789309756923791400,11.548791259765625,-0.2255546492051333,0.5263099392145871,-0.955333370283991
1789309756933803300,11.55880322265625,-0.5453250573405996,0.10412731395065784,-1.0599832468040287
1789309756943815400,11.5688154296875,-0.9169986711926758,-0.3464671668052673,-0.7466733764521777
1789309756953827300,11.578827392578125,-1.113879014577344,-0.6497633004039526,-0.45411984187047927
1789309756963839200,11.588839111328125,-1.0399076963722704,-0.5864239239156246,-0.3591107406053692
1789309756973852400,11.598852294921874,-0.8575829709541052,-0.3634083647340536,-0.35777631366383283
1789309756983864300,11.6088642578125,-0.8346135987769812,0.007899228817224503,-0.4100171903695911
1789309756993876500,11.61887646484375,-0.9768529820442199,0.08100655060410498,-0.40261524355001743
1789309757003888400,11.628888427734376,-1.0791057342946528,0.09205050718784331,-0.25281159904096273
1789309757013900300,11.638900390625,-0.9064742084383964,-0.043537528431415555,-0.16497171355178578
1789309757023912400,11.648912353515625,-1.0076333202332257,-0.36419805380702014,-0.016132913753204046
1789309757033924400,11.65892431640625,-1.1064181041121481,-0.5064513925343752,-0.06605510172042996
1789309757043936300,11.668936279296876,-0.9034171589553356,-0.1899018096089363,-0.14901658578459173
1789309757053948400,11.678948486328125,-0.642116000521183,0.18993804996609687,-0.2125340587861836
1789309757063961300,11.68896142578125,-0.28760351095888764,0.4597510161578655,-0.19650281530916688
1789309757073973500,11.698973388671876,-0.26909751139879223,0.2783668595254421,-0.08601111742574721
1789309757083985400,11.7089853515625,-0.4781670358795672,0.2550175481200218,-0.019271668436657636
1789309757093997600,11.71899755859375,-0.7803541853230446,-0.03502045997679233,0.18079919635131955
1789309757104009500,11.729009521484375,-0.5346528201460838,0.11493161655962467,0.18014805723251773
1789309757114021400,11.739021484375,0.04693067800104618,0.17086743879318236,0.11992158860033378
1789309757124033500,11.749033447265624,0.3083481562912464,-0.05654021786749363,0.3702970648018643
1789309757134045400,11.75904541015625,0.1250081528833136,-0.2576666013240814,0.31809798141121864
1789309757144057300,11.769057373046875,-0.16982757435142992,-0.3535825517684221,0.4150109800688922
1789309757154070300,11.7790703125,-0.3314700886815786,0.19566753352880475,0.2430878034113906
1789309757164082200,11.789082275390625,-0.2552624627918005,0.37748248279392715,0.22832615974508225
1789309757174094300,11.79909423828125,-0.2441302434027195,0.03483750462532043,0.2603016077364795
1789309757184106200,11.809106201171875,-0.19232300887387244,-0.4568658161103725,0.124163354355935
1789309757194118100,11.8191181640625,-0.22219028733856974,-0.7203852351158857,-0.08974853212209417
1789309757204130300,11.82913037109375,-0.22486323287487028,-0.3865513399124145,-0.3770764592763036
1789309757214142200,11.83914208984375,0.13489537717998026,0.3998457057714462,-0.48167855113185937
1789309757224154400,11.849154296875,0.39637956403084096,0.8331360005050897,-0.4075570838663727
1789309757234166300,11.859166259765624,0.002454407414793968,0.4553852221637964,-0.09909547552959994
1789309757244179500,11.869179443359375,-0.7151333059370517,0.019701310291886327,0.2666713071651757
1789309757254191400,11.87919140625,-1.1015449451178312,-0.12056933018565177,0.4751100229291245
1789309757264203300,11.889203369140626,-0.8511977268964052,-0.14700199455916882,0.45918819464333355
1789309757274215400,11.89921533203125,-0.07426237357351928,0.07007774483263492,0.0981697024541907
1789309757284227300,11.909227294921875,0.39868009605817495,0.016788053193688392,-0.27200437528882176
1789309757294239200,11.9192392578125,0.35606793884336946,0.07520517084896564,-0.6958407225765287
1789309757304251400,11.92925146484375,0.308300188963674,0.11762801603674888,-0.819603880367428
1789309757314263300,11.93926318359375,0.3484002537596971,-0.07665478513538837,-0.7354218415323645
1789309757324275200,11.949275146484375,0.561122309398651,-0.40451954280138014,-0.6044671282695606
1789309757334288400,11.959288330078126,0.46412667395882307,-0.7485381474107503,-0.685760788719356
1789309757344300300,11.96930029296875,0.8573901517957448,-0.42643560653328894,-1.0090679561462252
1789309757354312400,11.9793125,1.288948508170247,0.08179799324274063,-1.3970498403184115
1789309757364324400,11.989324462890625,1.6655653140455484,0.39876784740686416,-1.678808095847815
1789309757374336500,11.99933642578125,1.6017904687494038,0.38028175812363624,-1.7131446652136741
1789309757384348400,12.009348388671874,0.5980331131666898,-0.12176526197195052,-1.3329613990284501
1789309757394360300,12.0193603515625,-0.05365910947322845,-0.4758896655321121,-0.6245524329103529
1789309757404372500,12.02937255859375,-0.09730652801990508,-0.38663317297697064,-0.23021014686077831
1789309757414384400,12.03938427734375,0.5496814624518156,-0.13877367991805076,-0.4907927086967975
1789309757424397600,12.0493974609375,1.316293026691675,0.24777882903814313,-1.241184740345925
1789309757434409500,12.059409423828125,1.170431507404521,0.41113633059263227,-1.6797388008266687
1789309757444421400,12.06942138671875,0.43389410584568977,0.04589899686574936,-1.9993059780076146
1789309757454433500,12.07943359375,0.07285531978718936,-0.45587622055113314,-1.9381874924391507
1789309757464445400,12.089445556640625,0.01515548355579376,-0.8323954112708568,-1.6854086631566285
1789309757474457300,12.099457275390625,-0.07589775622300803,-0.8079735021978616,-1.4033306741535663
1789309757484469500,12.109469482421876,-0.27448388061225415,-0.6129688164919614,-0.6078121643811464
1789309757494481400,12.1194814453125,-0.10601992276422678,-0.05905716912448406,-0.09886915596043691
1789309757504493600,12.12949365234375,0.3089735216479748,0.4663572825551033,0.3545572054868564
1789309757514506200,12.13950634765625,0.47807577739953994,0.5644575913012028,0.33705731422938406
1789309757524518100,12.14951806640625,0.5460257894884795,0.2053513076752424,0.6297518281843513
1789309757534530300,12.1595302734375,-0.2406564298123121,-0.025210429102182387,0.8003869925916195
1789309757544542200,12.169542236328125,-0.9940624755203723,0.4231424102067947,0.47411790661923586
1789309757554554400,12.179554443359375,-1.5757441733449697,-0.014528876090049743,0.3349356459002942
1789309757564566300,12.189566162109376,-1.2948358126431703,-0.20470424194335937,0.2125632483480498
1789309757574578200,12.199578125,-0.5316594104837626,-0.3777197986811399,1.504477803249657
1789309757584590300,12.20959033203125,2.26238320620358,0.7966296858847141,1.9064082063406704
1789309757594602200,12.219602294921875,0.5684662424206733,0.6220546247452498,0.9266047039277852
1789309757604615400,12.229615478515624,-1.1650556595850736,0.14294482812285422,0.35195966327432543
1789309757614627300,12.23962744140625,-1.972904001033306,0.16543489235043524,0.1609800135671161
1789309757624639200,12.24963916015625,-1.024898854745552,-0.21994623473882674,1.5578762159600854
1789309757634651400,12.2596513671875,0.6661275752276182,0.5636901140600442,1.9438646612927317
1789309757644663300,12.269663330078124,1.9826421357154844,0.22909400231242177,2.141855084811151
1789309757654675500,12.279675537109375,1.490631940987706,-0.24708090990185735,1.773080955260247
1789309757664687400,12.289687255859375,0.4372983613312244,-0.3472217845648527,0.9778800600696355
1789309757674699300,12.29969921875,0.39458895428702234,-0.12338088047504424,0.24197047155294565
1789309757684711400,12.30971142578125,0.3051987523496151,0.21791502117216585,-0.30586443145042286
1789309757694723300,12.319723388671875,0.47566981223635374,0.6135755502134561,-0.16252664022091776
