time,seconds_elapsed,z,y,x
1789064039245184500,0.0531845703125,7.419297767347097,6.4125365537732835,-0.06142134097255766
1789064039255221200,0.06322119140625,7.41554396777153,6.416908777508139,-0.05810588714848272
1789064039265258500,0.073258544921875,7.4128323707252735,6.4200675338000055,-0.055087393277254884
1789064039275295500,0.08329541015625,7.410524093782901,6.422754580926894,-0.05236132018107455
1789064039285332500,0.09333251953125,7.408966342946886,6.424576535657048,-0.04926361902721692
1789064039295369500,0.103369384765625,7.408487034997344,6.4251511206746095,-0.04623476359217893
1789064039305406200,0.11340625,7.40879215542376,6.424829049113392,-0.0419205125556793
1789064039315443500,0.123443359375,7.409611655113101,6.423912518790364,-0.03727228260774864
1789064039325480400,0.13348046875,7.41035808956623,6.42308132866323,-0.031677478824974965
1789064039335517400,0.143517333984375,7.410704711046814,6.422705481088161,-0.026415439244080335
1789064039345554400,0.153554443359375,7.412244341704249,6.4209449011564255,-0.021951685317850203
1789064039355591400,0.16359130859375,7.4154492752254,6.417263582295179,-0.015039091776154236
1789064039365628400,0.17362841796875,7.4181807460159055,6.4141206080943345,-0.005889824081928236
1789064039375665400,0.18366552734375,7.420061152935028,6.41194794023037,0.0027853746685199436
1789064039385702400,0.193702392578125,7.421964356207847,6.409734355834126,0.011779927866713842
1789064039395739600,0.20373974609375,7.423571791404485,6.407853948915005,0.01953199758998817
1789064039405776400,0.2137763671875,7.423680512475967,6.407697297048569,0.027608133327099493
1789064039415813400,0.2238134765625,7.422410930931568,6.409110086455941,0.038704272189224134
1789064039425850400,0.233850341796875,7.419883458280563,6.411952031883597,0.050861637941538355
1789064039435887400,0.243887451171875,7.41761317526102,6.414453785571456,0.06464928547653835
1789064039445924600,0.253924560546875,7.416408475646376,6.415722782593965,0.07598897360383998
1789064039455961300,0.26396142578125,7.415230079516768,6.416942095255852,0.08720630942652932
1789064039465998300,0.273998291015625,7.414207750731706,6.417947472906112,0.09933208816391416
1789064039476035300,0.284035400390625,7.414062789303064,6.417891358804702,0.11283803268070332
1789064039486072600,0.294072509765625,7.414492997413873,6.417118036344647,0.12756766464039682
1789064039496109600,0.304109619140625,7.414468447494507,6.416821099224686,0.1429992251912132
1789064039506146300,0.314146240234375,7.412958042931557,6.418214014887809,0.15802015911452472
1789064039516183300,0.324183349609375,7.410670808777213,6.420470269381999,0.17291810597898438
1789064039526220300,0.33422021484375,7.4078914071917525,6.423237980529666,0.18853729805639013
1789064039536257500,0.344257568359375,7.405047708198428,6.426081679522991,0.20282014522980898
1789064039546294500,0.35429443359375,7.400942610967159,6.430356288102269,0.21667903137011452
1789064039556331500,0.36433154296875,7.395946117854118,6.435553272223472,0.23241558448318392
1789064039566368300,0.3743681640625,7.391102184954285,6.440550934380292,0.24758316033557057
1789064039576405500,0.384405517578125,7.387181796640157,6.444382475367188,0.26431224988363683
1789064039586442500,0.3944423828125,7.3834531315058465,6.447970855247974,0.28049278390454124
1789064039596479500,0.4044794921875,7.3789908913999795,6.452357107508182,0.29659177712183443
1789064039606515500,0.414515380859375,7.374357970902324,6.457007563662529,0.3102941027272492
1789064039616552400,0.424552490234375,7.369453832247853,6.462002303209901,0.3225867076652124
1789064039626589400,0.43458935546875,7.365409525293112,6.465990496063232,0.3348037631489336
1789064039636626400,0.44462646484375,7.362750535216927,6.468430290430784,0.34596520863249897
1789064039646663400,0.454663330078125,7.359673611989617,6.471265221595764,0.35819114154241977
1789064039656700400,0.464700439453125,7.355783618813753,6.474993886730075,0.37052484567575156
1789064039666737700,0.474737548828125,7.350702954548597,6.480408897516131,0.37663032294400034
1789064039676774400,0.4847744140625,7.344182028347253,6.487493887341022,0.38183833991587157
1789064039686811400,0.494811279296875,7.340934424728155,6.490609973534942,0.3912220351371914
1789064039696848400,0.504848388671875,7.339949505344033,6.491422458961606,0.39618637954629954
1789064039706886400,0.514886474609375,7.337731244772672,6.493107635569572,0.4094310610447079
1789064039716923100,0.524923095703125,7.335187405508756,6.495303684309125,0.42006219904385506
1789064039726960000,0.534960205078125,7.334594115790725,6.496149487483501,0.417322544946894
1789064039736997000,0.5449970703125,7.334738492697477,6.496230151504278,0.4135041922351345
1789064039747034400,0.555034423828125,7.336016842070221,6.49527562725842,0.4057565007178113
1789064039757071400,0.5650712890625,7.336832250106334,6.494225241422653,0.4078151502806693
1789064039767108000,0.575108154296875,7.338774616345763,6.491400831651688,0.4177221021911129
1789064039777145000,0.58514501953125,7.3416732603967185,6.487140836119651,0.4327022657126188
1789064039787182300,0.595182373046875,7.345390235093236,6.482042051675915,0.44582492826655507
1789064039797219300,0.60521923828125,7.350820443448424,6.4754971600770945,0.4513947642881423
1789064039807256300,0.61525634765625,7.355603586071729,6.469968752044439,0.4527516587898135
1789064039817293000,0.62529296875,7.357326756602525,6.467865057763457,0.4548142538754269
1789064039827330000,0.635330078125,7.355060565236211,6.470125988432764,0.4592755076006055
1789064039837367300,0.6453671875,7.34885060468018,6.476686077600717,0.46617626343239094
1789064039847404300,0.655404296875,7.340191497406363,6.4859940041720865,0.4731333160286769
1789064039857441300,0.665441162109375,7.330916304060817,6.495954841694235,0.4802298866935074
1789064039867478000,0.67547802734375,7.323519179546833,6.503925382182001,0.48518867814466354
1789064039877515300,0.685515380859375,7.318272511065006,6.509418134379387,0.4906540674110874
1789064039887552300,0.69555224609375,7.322296359753608,6.504129964843392,0.5006468709740788
1789064039897589200,0.70558935546875,7.331902977010607,6.493156735408306,0.5024861421652138
1789064039907626200,0.715626220703125,7.332596219971776,6.491822271934152,0.509567697924003
1789064039917663200,0.725663330078125,7.336320208930969,6.487088229149579,0.5162113371895626
1789064039927700200,0.7357001953125,7.340255210292339,6.482062509942055,0.5233525507137179
1789064039937737200,0.7457373046875,7.342315649953484,6.479843664848804,0.5219244541393593
1789064039947774200,0.755774169921875,7.346617146539688,6.47494595593512,0.5221862468807027
1789064039957810200,0.76581005859375,7.35192752790749,6.468970973178744,0.5214978262251243
1789064039967847400,0.775847412109375,7.358292386764288,6.461904103532433,0.5193368122663349
1789064039977884400,0.785884521484375,7.36468413362801,6.454542634853721,0.5202801940636709
1789064039987921200,0.795921142578125,7.36955261644721,6.448718458744883,0.523549424992688
1789064039997958100,0.805958251953125,7.37143653049767,6.446640483427047,0.5226308123104274
1789064040007995100,0.8159951171875,7.367752873548865,6.4511798804223535,0.5185342271791771
1789064040018032400,0.826032470703125,7.360030170342326,6.460372071659565,0.5137450201412662
1789064040028069400,0.8360693359375,7.354552615714073,6.467205132550001,0.5061665111783892
1789064040038106000,0.846106201171875,7.349598208177089,6.473180115306377,0.5017348123412579
1789064040048143000,0.85614306640625,7.3435729565382,6.480204899376631,0.4992606042474508
1789064040058180400,0.866180419921875,7.3396560753554105,6.484732605934143,0.4980783721929416
1789064040068217300,0.87621728515625,7.335282098054885,6.489645512416958,0.4985233029488474
1789064040078254300,0.88625439453125,7.330785955679416,6.4949208224713795,0.4959534889934584
1789064040088291000,0.896291015625,7.329146371778846,6.497023932230472,0.4926196318630129
1789064040098328000,0.906328125,7.329786423248052,6.496550469499826,0.48932581448201085
1789064040108365300,0.916365234375,7.333253807097673,6.493099452263117,0.4831536286531016
1789064040118402300,0.92640234375,7.338590491950511,6.487398025751114,0.47869847587514663
1789064040128439300,0.936439208984375,7.344224698445201,6.481199171110987,0.4762362504800781
1789064040138476000,0.94647607421875,7.349608145049214,6.475154045727849,0.4754271260542795
1789064040148513300,0.95651318359375,7.35377403255701,6.47032180326581,0.4767949072761461
1789064040158550300,0.96655029296875,7.3585864012748,6.464924328136444,0.4757578558459878
1789064040168587300,0.976587158203125,7.3631737290650605,6.45989568631947,0.47307906509079034
1789064040178624300,0.986624267578125,7.364373167982697,6.458643055909872,0.47150195196717976
1789064040188661200,0.9966611328125,7.36252081811428,6.460784744113683,0.471087197153829
1789064040198698200,1.0066982421875,7.360782450014352,6.4625196050822735,0.474457952228561
1789064040208735200,1.0167353515625,7.360464470106363,6.462423158970475,0.4806627616854384
1789064040218772200,1.026772216796875,7.361441790705919,6.46088411283493,0.48635472624935205
1789064040228809200,1.036809326171875,7.361199798643589,6.460567886492609,0.4941407039504498
1789064040238846200,1.04684619140625,7.362052616080641,6.459462555599212,0.49589152967315164
1789064040248883200,1.05688330078125,7.3619246057867995,6.45984015673995,0.49286535025238987
1789064040258920200,1.066920166015625,7.357099962109327,6.465138847669959,0.4954216471390798
1789064040268957200,1.076957275390625,7.349183197635412,6.473760545542836,0.500319465650618
1789064040278994400,1.086994384765625,7.3443971324026585,6.478246166524291,0.5124000718057156
1789064040289030400,1.097030517578125,7.344415837103128,6.477191689035296,0.5252805231016129
1789064040299067100,1.107067138671875,7.341556940540671,6.4794333304822445,0.5374645530985668
1789064040309104000,1.117104248046875,7.339606390994787,6.481029075241088,0.5448165963618085
1789064040319141000,1.12714111328125,7.342044431796669,6.478288836622238,0.5445566667839884
1789064040329178400,1.137178466796875,7.34631377967894,6.473705600485205,0.5414810587309301
1789064040339215400,1.14721533203125,7.35334499348998,6.465775976529717,0.5407700243847444
1789064040349252000,1.157252197265625,7.365080439469218,6.452345417070388,0.5414915801249445
1789064040359289000,1.1672890625,7.376894795903563,6.438427366355061,0.5463138857148587
1789064040369326000,1.177326171875,7.3848296805560585,6.428852313280105,0.5518453624874353
1789064040379363300,1.18736328125,7.3933157693505285,6.418874524623155,0.5543653094191103
1789064040389400300,1.197400390625,7.404090845865011,6.406878966403007,0.5492952030805871
1789064040399437300,1.207437255859375,7.409874689963459,6.400520537286996,0.5454165715489536
1789064040409474000,1.21747412109375,7.408779295942187,6.401737511861324,0.5460085460927337
1789064040419511300,1.22751123046875,7.403450794395804,6.4076528733849525,0.5488950978470966
1789064040429548300,1.23754833984375,7.394180861747264,6.4180848355501885,0.5519569331031292
1789064040439585300,1.247585205078125,7.3812079829275605,6.433165500304103,0.5500336368903518
1789064040449622300,1.257622314453125,7.368888015058636,6.447652290818095,0.5455661360874772
1789064040459659300,1.2676591796875,7.359956520584225,6.45827363807559,0.5404837547892705
1789064040469696300,1.2776962890625,7.353809103870391,6.4657274612128735,0.5350214707953855
1789064040479733200,1.287733154296875,7.350249950084089,6.469682920840382,0.5361043706612661
1789064040489770200,1.297770263671875,7.351486798402667,6.468004758495092,0.5393921236276626
1789064040499807200,1.30780712890625,7.355819859170913,6.463087760359048,0.5392611176591366
1789064040509844200,1.31784423828125,7.35979694610834,6.458567068064212,0.539159008991532
1789064040519881200,1.327881103515625,7.364551447159052,6.45329409609735,0.5373621156373992
1789064040529918200,1.337918212890625,7.370136553815007,6.447206300616264,0.5338629118774086
1789064040539955200,1.347955078125,7.374263862878084,6.44260611334443,0.5323992325330152
1789064040549992400,1.357992431640625,7.3773483848899595,6.4392866135329,0.5298121021166443
1789064040560029200,1.368029296875,7.378494047793746,6.437987805894017,0.5296518335210159
1789064040570066200,1.378066162109375,7.3771648450165985,6.439379552513361,0.5312330382978543
1789064040580102100,1.38810205078125,7.375014973506331,6.441938004824519,0.5300683784326539
1789064040590139100,1.39813916015625,7.372746444052457,6.444549064105749,0.5298842540374026
1789064040600176400,1.40817626953125,7.370272162893414,6.4473863333582875,0.5297924110354856
1789064040610213400,1.41821337890625,7.364635033789277,6.453859913286566,0.5293712264813483
1789064040620250000,1.42825,7.354846045702695,6.464892179432511,0.5308450253609568
1789064040630287000,1.438287109375,7.351569800511002,6.4684945878386495,0.5323335834182799
1789064040640324000,1.448323974609375,7.358189510911703,6.460581915017962,0.5369471416283399
1789064040650361300,1.458361328125,7.365490189313888,6.4520853048294775,0.5390148878131061
1789064040660398300,1.4683984375,7.370721075704694,6.44659839785099,0.5331185597835109
1789064040670435000,1.47843505859375,7.379282567822933,6.437940459620952,0.5191298184521496
1789064040680472000,1.48847216796875,7.398912566444277,6.414056310686469,0.5351198166033253
1789064040690509300,1.49850927734375,7.424374924480914,6.385625750494003,0.5223214541003107
1789064040700545800,1.5085458984375,7.4526090853184455,6.353838865610957,0.507680605535768
1789064040710582800,1.518582763671875,7.464897489005327,6.338702086755633,0.5162837083060294
1789064040720620000,1.5286201171875,7.463545489874481,6.339662456220388,0.523980911745131
1789064040730656800,1.53865673828125,7.456769712129235,6.348671107584238,0.5112308453632518
1789064040740693800,1.54869384765625,7.444684137538075,6.363584599077702,0.5018498535556718
1789064040750730800,1.558730712890625,7.430169289973378,6.380934377807378,0.4966365393541753
1789064040760767700,1.568767822265625,7.413008896335959,6.401053621250391,0.49416364643462
1789064040770805000,1.578804931640625,7.3922817501276725,6.424230498698353,0.503805590733327
1789064040780841700,1.588841796875,7.377817171445488,6.440660239973664,0.5060597263356671
1789064040790878700,1.598878662109375,7.3706895115226505,6.449088461101055,0.502573235926777
1789064040800915700,1.608915771484375,7.366242468985915,6.454497626668214,0.4983188298853114
1789064040810953000,1.618952880859375,7.366894210892915,6.454242775124311,0.49193022482674564
1789064040820990000,1.628989990234375,7.372911863747238,6.447566366100311,0.4893346553755924
1789064040831026700,1.639026611328125,7.37798142209649,6.441214366725087,0.49652727029342203
1789064040841063700,1.649063720703125,7.38490157674849,6.432806603863835,0.5026122527629137
1789064040851101000,1.659100830078125,7.395245860630274,6.420859560960531,0.5032772925429045
1789064040861138000,1.669137939453125,7.405539875629544,6.409205363523959,0.500448718053475
1789064040871174000,1.679173828125,7.414687643203139,6.39913288232088,0.49385680897515266
1789064040881211000,1.6892109375,7.424611655846237,6.3879071394294495,0.4900650520093739
1789064040891247900,1.699247802734375,7.434875860229134,6.375939638260006,0.49029856850430364
1789064040901284600,1.70928466796875,7.441811212450266,6.367627736988664,0.4930931676588952
1789064040911321900,1.71932177734375,7.444418764600157,6.3642737503856415,0.4970302148468792
1789064040921358800,1.72935888671875,7.441655145105719,6.367110435116291,0.5020601353054865
1789064040931395800,1.739395751953125,7.435999895823001,6.373406320390105,0.5059439910015091
1789064040941432800,1.749432861328125,7.430393161857127,6.379999727305769,0.5052138135634362
1789064040951469800,1.7594697265625,7.425746797356009,6.385465591496229,0.5044794714068994
1789064040961506800,1.7695068359375,7.4221537413001055,6.389673564580082,0.504074543867819
1789064040971543800,1.779543701171875,7.417955120566487,6.394522758176922,0.5043862401654944
1789064040981580800,1.789580810546875,7.416995920145511,6.395419999277592,0.5071127790525556
1789064040991617800,1.79961767578125,7.418582897076011,6.3931467936486,0.5125232963265851
1789064041001654800,1.80965478515625,7.422410346409678,6.388378264072537,0.516548350591585
1789064041011691800,1.81969189453125,7.425232418093085,6.385010833466053,0.5176321272403002
1789064041021728800,1.829728759765625,7.426946820795536,6.382967929461598,0.5182280473068356
1789064041031765800,1.839765869140625,7.4290212889820335,6.38083734717369,0.5147230348605663
1789064041041803000,1.849802978515625,7.428694541245698,6.381446418982744,0.5118914281638339
1789064041051839700,1.85983984375,7.426851543727516,6.383619086846709,0.5115370252355933
1789064041061876700,1.869876708984375,7.426101602143048,6.384340971380472,0.513407056891173
1789064041071913700,1.879913818359375,7.424588274970651,6.385965942233801,0.5150859864214435
1789064041081951000,1.889950927734375,7.418371884673833,6.393123997294903,0.515859710740298
1789064041091988000,1.899988037109375,7.4103516598254435,6.402331970623135,0.5169378248332068
1789064041102024700,1.910024658203125,7.405371533325314,6.408114645677805,0.5166442121814936
1789064041112061700,1.920061767578125,7.399402395787835,6.414919649517536,0.5177242990357801
1789064041122099000,1.930098876953125,7.3913482686698435,6.423865172517299,0.5218337436486036
1789064041132136000,1.940135986328125,7.384698747652768,6.431131948649883,0.5264486900981515
1789064041142173000,1.9501728515625,7.378886846503615,6.437330218768119,0.5321577153947205
1789064041152209000,1.960208984375,7.37324504122436,6.443137443742156,0.5400192425500602
1789064041162245600,1.97024560546875,7.371182847997546,6.444657200655341,0.5499539227176458
1789064041172282600,1.98028271484375,7.373216399651765,6.441424210083484,0.5604669872950763
1789064041182319900,1.99031982421875,7.37671359411776,6.436500197684764,0.5709223303359001
1789064041192356900,2.00035693359375,7.3809940479159355,6.430486636483669,0.5832333111807704
1789064041202393900,2.010393798828125,7.38682173115611,6.4225353852182625,0.5968959988955408
1789064041212430600,2.0204306640625,7.396247731149196,6.410252242228388,0.6120234619332477
1789064041222467800,2.0304677734375,7.408087222024798,6.394905620014667,0.6291391761787235
1789064041232504800,2.0405048828125,7.417292272743582,6.382174733257293,0.6496205309323966
1789064041242541800,2.050541748046875,7.4229445994168515,6.373143285539746,0.6732888451591134
1789064041252578800,2.060578857421875,7.428912567910552,6.363831267315149,0.6951929992575198
1789064041262615800,2.07061572265625,7.434742589238286,6.354929583457112,0.7140449992436915
1789064041272652800,2.08065283203125,7.4416791105031965,6.345061684915423,0.7293773737363517
1789064041282689800,2.090689697265625,7.447941678029299,6.335918593516945,0.7447711960926652
1789064041292726800,2.100726806640625,7.452677474379539,6.328237975886464,0.7624874700471759
1789064041302763800,2.110763671875,7.457782688564062,6.319764746573567,0.7825896892901509
1789064041312800800,2.12080078125,7.463736628532409,6.31080694861412,0.7979566236395388
1789064041322837800,2.130837646484375,7.467192906466126,6.30521132056415,0.8097717837914824
1789064041332874800,2.140874755859375,7.46737235468626,6.304035262522101,0.8172314521476626
1789064041342911700,2.150911865234375,7.466220846563577,6.304979849895835,0.8204644427195191
1789064041352949000,2.160948974609375,7.464976399460435,6.307071853739023,0.8156950363606214
1789064041362985700,2.17098583984375,7.462779181677103,6.3102931538730855,0.8108714886616915
1789064041373022700,2.181022705078125,7.462589796584844,6.311399069288373,0.8039780028209089
1789064041383059700,2.191059814453125,7.46296973581314,6.311874870106577,0.7966779820058494
1789064041393097000,2.201096923828125,7.463159120905399,6.312727687543631,0.7881085257768631
1789064041403134000,2.211134033203125,7.462232069188356,6.315308351686596,0.7761128944914788
1789064041413170000,2.221169921875,7.460148248651623,6.3194707320630545,0.7621429674584418
1789064041423207000,2.23120703125,7.459437470033764,6.322368791592121,0.7448722453143447
1789064041433243600,2.24124365234375,7.458337399837374,6.3260810901135205,0.7240784636106342
1789064041443280600,2.25128076171875,7.454909178954362,6.332200449776649,0.7056645627807825
1789064041453318000,2.26131787109375,7.451748669096827,6.337585065424442,0.6905417393855751
1789064041463355000,2.27135498046875,7.450127789896726,6.341167015564442,0.674966130721569
1789064041473391900,2.281391845703125,7.451188697126507,6.341532341745496,0.6596522417336702
1789064041483428600,2.2914287109375,7.450905204010009,6.343061451008915,0.6480437100697308
1789064041493465900,2.3014658203125,7.449085002845525,6.346220791822671,0.6379631916906684
1789064041503502800,2.3115029296875,7.449902748969197,6.34672815682292,0.6232032833237201
1789064041513539800,2.321539794921875,7.4519485755831,6.346174614593386,0.604081197691895
1789064041523576800,2.331576904296875,7.451475112852454,6.348317471840978,0.587173025249876
1789064041533613800,2.34161376953125,7.451994168290495,6.349542045199871,0.566991822486557
1789064041543650800,2.35165087890625,7.450191502782702,6.352965005385875,0.5521508117074146
1789064041553687800,2.361687744140625,7.443727275204658,6.3616936707645655,0.538667243419215
1789064041563724800,2.371724853515625,7.441157716977596,6.366375106579065,0.5184821681983769
1789064041573761800,2.38176171875,7.437925895449519,6.371708868822455,0.4989705717923119
1789064041583798800,2.391798828125,7.4335402277112,6.378216935542225,0.4808484204506501
1789064041593835800,2.401835693359375,7.4319807233095165,6.381532928222417,0.46051882219258694
1789064041603872800,2.411872802734375,7.433619138166308,6.381254695802927,0.43735885934680696
1789064041613909800,2.42190966796875,7.432880302497744,6.383610319018364,0.41495808083787555
1789064041623947000,2.431947021484375,7.431393278810382,6.387060167211294,0.38760073936749245
1789064041633983700,2.441983642578125,7.4300897949963804,6.390356286147236,0.3570604935446754
1789064041644020700,2.452020751953125,7.424772983887792,6.3982473316580055,0.3249111685574054
1789064041654057700,2.4620576171875,7.421295078644156,6.404068585157394,0.28752620793897654
1789064041664093700,2.47209375,7.415872469073533,6.4117532944411035,0.2542389832292683
1789064041674131000,2.482130859375,7.407693838793039,6.422269427758455,0.22565478511136025
1789064041684168000,2.49216796875,7.401025028553605,6.430729213067889,0.2023031721509993
1789064041694205000,2.502204833984375,7.392427296078204,6.441185140630602,0.18313684551864862
1789064041704241200,2.5122412109375,7.387625448754429,6.447188180437684,0.16475134879937395
1789064041714278100,2.522278076171875,7.385283269542455,6.450361549776792,0.14426864233883097
1789064041724315400,2.5323154296875,7.383956404852866,6.452329050457477,0.12258553797942585
1789064041734352400,2.542352294921875,7.384743755838275,6.4517655713558195,0.10324117876589298
1789064041744389400,2.552389404296875,7.387704359209537,6.448603892454504,0.08790182654317467
1789064041754426400,2.56242626953125,7.39344377964437,6.442112192347645,0.0810247164484579
1789064041764463400,2.57246337890625,7.399349788817763,6.435290237373113,0.08400320253628306
1789064041774500400,2.582500244140625,7.404526899194717,6.429208287110924,0.09295390403466298
1789064041784537300,2.592537353515625,7.408781049507856,6.4241615251153705,0.10244769030064343
1789064041794574300,2.60257421875,7.41020962100625,6.422394515442848,0.1096517490610946
1789064041804611300,2.612611328125,7.408557762145995,6.424201857125759,0.11528792831716127
1789064041814648300,2.6226484375,7.402240834084153,6.431351144358516,0.12223584775892085
1789064041824685300,2.632685302734375,7.392983176395297,6.441787198176979,0.13253743414329364
1789064041834722300,2.642722412109375,7.385397251310944,6.450193791994452,0.14588722911714574
1789064041844759300,2.65275927734375,7.378455469349026,6.4577341243714095,0.16264895142633468
1789064041854796300,2.66279638671875,7.372472887808084,6.464058651217818,0.18157496649678795
1789064041864833300,2.672833251953125,7.369025962224602,6.467284043005108,0.20510166202941907
1789064041874870300,2.682870361328125,7.370262226021289,6.465183855855464,0.22588117774575947
1789064041884907300,2.6929072265625,7.37350749155283,6.460981727990507,0.2397466762899421
1789064041894944500,2.702944580078125,7.374771227878331,6.458942331117391,0.25533404845697805
1789064041904981200,2.712981201171875,7.382212191534042,6.450103191101551,0.2636291995229199
1789064041915017500,2.723017578125,7.3937360405892125,6.436746281400323,0.26712473175479096
1789064041925054200,2.73305419921875,7.403909644079208,6.425031878209114,0.26735949035873635
1789064041935091200,2.74309130859375,7.409173848217725,6.4183420251816505,0.28179838661039247
1789064041945128200,2.753128173828125,7.418574129247665,6.4061541592597955,0.31039007391501217
1789064041955165400,2.76316552734375,7.439312381371855,6.3803188762575385,0.34429373175632205
1789064041965202400,2.773202392578125,7.472846986705064,6.339989788478612,0.36258736720737067
1789064041975239200,2.7832392578125,7.492628376495838,6.31763299524188,0.34410518691428005
1789064041985276200,2.793276123046875,7.498936536729335,6.311438816776871,0.3195041949473321
1789064041995313400,2.8033134765625,7.495086875563859,6.317209801393747,0.2948284024448134
1789064042005350400,2.813350341796875,7.481711261162161,6.333547188210487,0.2838523782644421
1789064042015387400,2.823387451171875,7.469573664122819,6.34827480174303,0.2743353024544194
1789064042025424100,2.833424072265625,7.453360195946693,6.367406787714362,0.2719188889624551
1789064042035461400,2.84346142578125,7.423709154048562,6.401873705461621,0.27376754903644324
1789064042045498400,2.853498291015625,7.39017980941236,6.440663747105002,0.2710658705960028
1789064042055535400,2.863535400390625,7.36136463381648,6.474286030721664,0.2536094531540759
1789064042065572400,2.873572265625,7.3346069752722975,6.505505344849825,0.22874586472818625
1789064042075609000,2.883609130859375,7.312592711862921,6.5311547498911615,0.20094582099160177
1789064042085646300,2.893646240234375,7.304336340171099,6.541091037493944,0.176581578656286
1789064042095683300,2.903683349609375,7.310240595778822,6.53499973488152,0.15666260702572762
1789064042105720300,2.91372021484375,7.324672441235184,6.519250961607694,0.1375444395171944
1789064042115757300,2.92375732421875,7.348065591782331,6.49331689440608,0.1147001550244633
1789064042125794300,2.933794189453125,7.377747028818726,6.460042401313781,0.08421950303493067
1789064042135831300,2.943831298828125,7.404137023094296,6.430110788908601,0.053091835545864885
1789064042145868300,2.953868408203125,7.426634101584553,6.4042860273003575,0.024651144401740748
1789064042155905300,2.9639052734375,7.444788766956329,6.383220442917943,-0.0030838584311175506
1789064042165941200,2.973941162109375,7.452891409391165,6.373717870557308,-0.022688781120476776
1789064042175978500,2.983978515625,7.450375042656064,6.376579105207323,-0.03914174115788192
1789064042186015500,2.994015380859375,7.441333073544502,6.386970735362172,-0.05959397484834771
1789064042196052200,3.00405224609375,7.428197697639465,6.401980672967434,-0.08309929423280991
1789064042206089200,3.014089111328125,7.409372585660218,6.423370082476735,-0.10912030906551518
1789064042216126200,3.024126220703125,7.387366505557298,6.448267207846045,-0.1305736780559644
1789064042226163500,3.03416357421875,7.368238026717305,6.469725006416439,-0.14868522580522112
1789064042236200400,3.044200439453125,7.352113990390301,6.4876709974735975,-0.16413056828621775
1789064042246237200,3.0542373046875,7.338168467146158,6.503137446674704,-0.1757039555715397
1789064042256274200,3.064274169921875,7.329686470004916,6.512450049421191,-0.18461570416586473
1789064042266311400,3.0743115234375,7.330175130304694,6.5114867573469875,-0.1986560660866089
1789064042276348400,3.084348388671875,7.336462247750163,6.503876282343268,-0.215177851293236
1789064042286385400,3.094385498046875,7.345107911020517,6.49344665826559,-0.23436739440439266
1789064042296422100,3.104422119140625,7.352127434393763,6.484797487863898,-0.25299227110380307
1789064042306459400,3.11445947265625,7.357126265594363,6.478451333707571,-0.26971122285034504
1789064042316496400,3.124496337890625,7.3625751786500215,6.471705366578698,-0.28267818338591605
1789064042326533400,3.134533447265625,7.369483058342337,6.463225123003125,-0.29635999592626466
1789064042336570400,3.1445703125,7.376106275874376,6.455239969468116,-0.3054759070568718
1789064042346607000,3.154607177734375,7.38145055951178,6.448797953721881,-0.3123791288403794
1789064042356644400,3.164644287109375,7.3848016235053535,6.444496457135677,-0.32180111024547364
1789064042366681300,3.174681396484375,7.388094235309958,6.439919650739431,-0.33747312848865985
1789064042376718300,3.18471826171875,7.3889312706559895,6.437862133687735,-0.3577856660140678
1789064042386755300,3.19475537109375,7.385937934058904,6.440004990935325,-0.38031376069709655
1789064042396792300,3.204792236328125,7.381558696061372,6.44368923240602,-0.4023117670914158
1789064042406828300,3.214828369140625,7.37706898342669,6.447673333606123,-0.42042135121244933
1789064042416865300,3.224865234375,7.374778826662897,6.449166787034272,-0.4373536351824179
1789064042426902300,3.23490234375,7.371562202703952,6.451617687317729,-0.45505887628626074
1789064042436939300,3.244939208984375,7.365681912493705,6.457208054670691,-0.4707204096680507
1789064042446976500,3.2549765625,7.36434803354144,6.4571139466464516,-0.49238333888910707
1789064042457013200,3.26501318359375,7.366961430910229,6.451859094858169,-0.5213254653329029
1789064042467050200,3.27505029296875,7.3657397801607845,6.451086941441893,-0.547487824865058
1789064042477087200,3.285087158203125,7.363299985793232,6.452587993654609,-0.5624172811126336
1789064042487124200,3.295124267578125,7.367325588047504,6.4461600064337246,-0.5830275960082187
1789064042497161500,3.305161376953125,7.371721192657947,6.438585771787166,-0.6105096598368138
1789064042507198200,3.3151982421875,7.372638307502865,6.435208988830447,-0.634567996294424
1789064042517235200,3.325235107421875,7.369830264344811,6.436221965265274,-0.656529579668492
1789064042527272200,3.335272216796875,7.369430451372265,6.434206533789634,-0.6803359871916472
1789064042537309400,3.345309326171875,7.371804194766282,6.429126454046369,-0.7022972052395343
1789064042547346400,3.355346435546875,7.371422501972317,6.427278780353069,-0.722906278026104
1789064042557383400,3.365383544921875,7.36925392576158,6.427327295669913,-0.7442777865525335
1789064042567420200,3.375420166015625,7.3658900022864335,6.428699753066897,-0.7654207470200955
1789064042577457400,3.38545751953125,7.363889768379926,6.428305785313248,-0.7876504798110574
1789064042587494400,3.395494384765625,7.362346046069264,6.427318527841567,-0.8098239523701369
1789064042597531400,3.405531494140625,7.359435711580515,6.428633702093363,-0.825688314847648
1789064042607568400,3.415568359375,7.360573191177845,6.425450980404019,-0.8401895722784102
1789064042617605000,3.425605224609375,7.364117147395015,6.419188412877917,-0.8568386553928256
1789064042627642400,3.435642333984375,7.367506205311417,6.412735875737667,-0.8758200539123266
1789064042637679400,3.445679443359375,7.373820210763812,6.402243707817792,-0.8991285218507051
1789064042647715300,3.45571533203125,7.383249133366346,6.388254345431924,-0.9209922708734869
1789064042657752300,3.46575244140625,7.3928165876567355,6.3742877793997526,-0.940795726365596
1789064042667789300,3.475789306640625,7.400433492401242,6.363378847372531,-0.9546613893065601
1789064042677826300,3.485826416015625,7.406543499714136,6.355410644972324,-0.9603392888125032
1789064042687863300,3.49586328125,7.409697579830884,6.3506327630460255,-0.9675863373313098
1789064042697900300,3.505900390625,7.407116915687919,6.352462901082634,-0.9753057526022195
1789064042707938000,3.51593798828125,7.400839735114574,6.358554788216948,-0.9832315041001886
1789064042717974800,3.525974853515625,7.396004570043087,6.362666315189004,-0.9929678121514618
1789064042728011800,3.53601171875,7.389995100495219,6.368432039108872,-1.0007176225606351
1789064042738049000,3.546049072265625,7.383340318781137,6.375786493524909,-1.003004929780215
1789064042748086000,3.5560859375,7.37876468142867,6.381690164610744,-0.9991244350850581
1789064042758123000,3.566123046875,7.377061384642124,6.384346232077479,-0.994720501037687
1789064042768159700,3.57615966796875,7.378333304274082,6.383540176391601,-0.9904549525476991
1789064042778197000,3.586197021484375,7.37995769060552,6.382372301656007,-0.9858657250612973
1789064042788234000,3.59623388671875,7.383823133862018,6.3785360844939945,-0.9817380506720393
1789064042798271000,3.60627099609375,7.389304780143499,6.372920582699775,-0.9769573922667651
1789064042808308000,3.616307861328125,7.394659000653028,6.367564024102688,-0.9713558459326624
1789064042818344700,3.6263447265625,7.401486800846457,6.360549176904558,-0.9652945731323211
1789064042828382000,3.6363818359375,7.405950794517993,6.356839216470718,-0.9554456715520471
1789064042838419000,3.6464189453125,7.4074278813332315,6.356650415900349,-0.945190600323677
1789064042848456000,3.6564560546875,7.405967161130905,6.360078636783361,-0.9335040349874645
1789064042858493000,3.666492919921875,7.4041042898684735,6.363499843403696,-0.9249316561490297
1789064042868530000,3.676530029296875,7.400653857153654,6.368738913100957,-0.9164458596155047
1789064042878567000,3.68656689453125,7.396773216328024,6.374438586047291,-0.9081137923389673
1789064042888604000,3.69660400390625,7.39538146970868,6.377071857160329,-0.9009269495747982
1789064042898640000,3.706639892578125,7.39308839033544,6.381008027565479,-0.8918345654502511
1789064042908676900,3.7166767578125,7.39325614811778,6.382056075313687,-0.8828983948007225
1789064042918714000,3.726714111328125,7.394615746033192,6.38182694273293,-0.8731137175630778
1789064042928751000,3.736751220703125,7.395595989242196,6.381959629201889,-0.8637916163358836
1789064042938787800,3.746787841796875,7.3969310372382395,6.381848570042848,-0.8531112323675304
1789064042948824800,3.756824951171875,7.395580207151174,6.38488633030355,-0.8420267976429313
1789064042958861800,3.76686181640625,7.3948478012233965,6.387013405460119,-0.8322672548465431
1789064042968899000,3.776899169921875,7.392483994701505,6.3910167958825825,-0.8224780475642531
1789064042978936000,3.78693603515625,7.390815184706449,6.39348289373517,-0.8182965240959078
1789064042988972800,3.796972900390625,7.3896280207484955,6.394927831846475,-0.817731364493817
1789064042999009800,3.807009765625,7.386798350280523,6.398900827130675,-0.8121996685255318
1789064043009047000,3.817047119140625,7.386022689732909,6.400988739320636,-0.8027422504808753
1789064043019084000,3.827083984375,7.385868375954032,6.402476932051777,-0.7922269208811223
1789064043029121000,3.83712109375,7.386062437221407,6.40351679649353,-0.7819429888844489
1789064043039157800,3.84715771484375,7.385270994582772,6.405636857387423,-0.7719942801915108
1789064043049195000,3.857195068359375,7.3835244431763885,6.408485817077755,-0.7650180114381014
1789064043059232000,3.86723193359375,7.383727856794,6.4090639092266555,-0.7581872886352241
1789064043069269000,3.87726904296875,7.382780346810817,6.410974711284041,-0.751228117147088
1789064043079306000,3.887305908203125,7.382372350531816,6.412648781976103,-0.7408768920678644
1789064043089342700,3.8973427734375,7.383089558890462,6.413271882310509,-0.7282245504394174
1789064043099380000,3.9073798828125,7.385469732025265,6.411967229452729,-0.7154647298485041
1789064043109417000,3.9174169921875,7.387965055972337,6.410591849446297,-0.7018967346798628
1789064043119454000,3.927453857421875,7.387436063662171,6.413020537897944,-0.6850834009144455
1789064043129491000,3.937490966796875,7.387299870061874,6.414587641084194,-0.6717532330896705
1789064043139528000,3.94752783203125,7.38631845780909,6.417033280670642,-0.6590691080834716
1789064043149564000,3.95756396484375,7.386320211374759,6.417956825256347,-0.649995647855103
1789064043159601000,3.967600830078125,7.3863196268528695,6.418992013522982,-0.6396982718549669
1789064043169638000,3.977637939453125,7.386072374093533,6.420891125142574,-0.6232767138861119
1789064043179675000,3.9876748046875,7.386447637146711,6.422211560091376,-0.6049667118221521
1789064043189712100,3.997712158203125,7.385451611846685,6.425258088180422,-0.5844220095086843
1789064043199749000,4.0077490234375,7.386610134232043,6.4253738235145805,-0.5682861731460318
1789064043209785900,4.017785888671875,7.386874922648071,6.426316072800756,-0.5540121485998853
1789064043219822800,4.02782275390625,7.3873396175503725,6.426853248417377,-0.5414436858626083
1789064043229859800,4.03785986328125,7.38533061581552,6.4305287220597265,-0.5249612280193716
1789064043239897000,4.04789697265625,7.383337980693578,6.434261478847265,-0.5069429023783654
1789064043249934000,4.05793408203125,7.383200618049502,6.435889372310042,-0.48791284241154786
1789064043259970800,4.067970703125,7.381381585928797,6.439447357052564,-0.46809334910009054
1789064043270007800,4.0780078125,7.381547590145468,6.440592435434461,-0.44934228873774407
1789064043280045000,4.088045166015625,7.380880650669336,6.442883761242031,-0.4268909125527367
1789064043290082000,4.09808203125,7.381934543636441,6.443108802169561,-0.4046901866605505
1789064043300119000,4.108119140625,7.381483877259493,6.4451487835645676,-0.3796513512656092
1789064043310155800,4.11815576171875,7.38135820505321,6.446717055794596,-0.3546461989445612
1789064043320193000,4.128193115234375,7.379227622765303,6.450536906343698,-0.32856812016237524
1789064043330230000,4.13822998046875,7.375467977970838,6.456018552625179,-0.3044440615247935
1789064043340267000,4.14826708984375,7.373200033038854,6.459602840852737,-0.2825605483556166
1789064043350304000,4.158303955078125,7.372087103360891,6.461657435294986,-0.2639952746226452
1789064043360340700,4.1683408203125,7.375604756093025,6.458209340667724,-0.2497403018368408
1789064043370378000,4.1783779296875,7.379284321388602,6.454564846685528,-0.23482264562491326
1789064043380415000,4.1884150390625,7.381835174915194,6.452216822254657,-0.21860978023698552
1789064043390451000,4.198450927734375,7.384785256892442,6.449509316861629,-0.19791365022147073
1789064043400488000,4.208488037109375,7.38769909851253,6.446746866410971,-0.1781812506715767
1789064043410525000,4.21852490234375,7.389759538173675,6.4448763963639735,-0.15941941318688913
1789064043420562000,4.22856201171875,7.3924167746841905,6.4420747829467055,-0.1490850205114577
1789064043430599000,4.238598876953125,7.395306650906801,6.438861081597208,-0.14451105452626942
1789064043440636000,4.248635986328125,7.394485982173681,6.4399202352613205,-0.1392695371435955
1789064043450673000,4.2586728515625,7.391289231958985,6.443756452423334,-0.13125442686174063
1789064043460710100,4.268710205078125,7.38747522662878,6.448373006308079,-0.11867603638549334
1789064043470747000,4.278746826171875,7.386453482365607,6.449684673428535,-0.11074182758643292
1789064043480784000,4.288783935546875,7.382482240647077,6.454411117428541,-0.09960285879615693
1789064043490820900,4.29882080078125,7.377109899958968,6.460648550513386,-0.09301339740324766
1789064043500857900,4.30885791015625,7.372403914225101,6.466091033828258,-0.08780284141441806
1789064043510895000,4.31889501953125,7.373079621529579,6.465337585112452,-0.08655024753743783
1789064043520931800,4.328931884765625,7.375191499117016,6.4630035892069335,-0.08073277516402304
1789064043530968800,4.33896875,7.378859958496689,6.458893231278657,-0.07423464074980002
1789064043541005800,4.349005859375,7.382982006862759,6.45428252261281,-0.06480201921968255
1789064043551043000,4.35904296875,7.389449741572141,6.446940927678346,-0.05802251058081165
1789064043561080000,4.369080078125,7.398279529237747,6.43682636089921,-0.05576964905352797
1789064043571116800,4.37911669921875,7.405572024333477,6.428427950388193,-0.05657076826938428
1789064043581153800,4.38915380859375,7.4105094807356595,6.422780299890041,-0.05136012551558669
1789064043591191000,4.39919091796875,7.411917593967914,6.42121495026946,-0.04323884687894024
1789064043601228000,4.40922802734375,7.414792857143283,6.417941627687215,-0.0354986810809467
1789064043611265000,4.41926513671875,7.415034264683723,6.417686776143312,-0.030785633135342504
1789064043621302000,4.429302001953125,7.413109434100985,6.4199260795027016,-0.02720485432241112
1789064043631338800,4.4393388671875,7.410047708442807,6.423450746497512,-0.02936569931784179
1789064043641376000,4.4493759765625,7.407703775665164,6.42613954719007,-0.032326711397769395
1789064043651412000,4.459411865234375,7.406056592980026,6.428035151678324,-0.03283315166612156
1789064043661449000,4.469448974609375,7.405512987622618,6.428669942450523,-0.031081054151651914
1789064043671486000,4.47948583984375,7.40303052315712,6.431545205625891,-0.02750904773364309
1789064043681523000,4.48952294921875,7.400392575868964,6.4345858884960405,-0.0262139481554972
1789064043691560000,4.499559814453125,7.397429634410143,6.437964425018429,-0.03213688791409367
1789064043701597200,4.50959716796875,7.39504712318778,6.440639197185635,-0.04276466262908652
1789064043711634200,4.51963427734375,7.390911046296358,6.445301928299665,-0.053891740052169186
1789064043721671400,4.52967138671875,7.38861270622611,6.447832323560118,-0.06518337865350768
1789064043731708400,4.53970849609375,7.387915371611714,6.4485273200869555,-0.07472644742131233
1789064043741745200,4.5497451171875,7.387906603783368,6.4483911264866585,-0.0864213513276074
1789064043751782100,4.5597822265625,7.388529119595884,6.447482194948196,-0.09998510871254838
1789064043761819100,4.569819091796875,7.389555540034174,6.44604017944634,-0.11585457662343979
1789064043771856400,4.5798564453125,7.391942142909765,6.442976115700602,-0.13280919115622528
1789064043781893400,4.589893310546875,7.393707399016618,6.440636274576187,-0.1472347438691184
1789064043791930000,4.59993017578125,7.392207515847683,6.4420443878084415,-0.16036579065890982
1789064043801967000,4.609967041015625,7.3913126128345725,6.442652875095606,-0.17639458645051345
1789064043812004400,4.62000439453125,7.386688460165262,6.447463490247726,-0.19348025261759758
1789064043822041300,4.630041259765625,7.382415020629763,6.451742190480232,-0.2129803412489593
1789064043832078300,4.640078369140625,7.380970667040348,6.452708405163884,-0.23283740835813804
1789064043842115000,4.650114990234375,7.380042446279525,6.453138613274693,-0.2497208664840087
1789064043852152300,4.66015234375,7.378955235564709,6.453875110855698,-0.262496286502853
1789064043862189300,4.670189208984375,7.380765499857068,6.4512155362576244,-0.2766095675293356
1789064043872226300,4.680226318359375,7.3804066034168,6.450898140871525,-0.29308628975152967
1789064043882263300,4.69026318359375,7.380784204557537,6.449529190605879,-0.3130343413461
1789064043892299300,4.70029931640625,7.3812208424091335,6.4480000813424585,-0.3335478082710877
1789064043902336000,4.7103359375,7.381414903676509,6.446769662764668,-0.35249515839051454
1789064043912373200,4.720373291015625,7.37803812071979,6.449816775375604,-0.36714579769670963
1789064043922410200,4.73041015625,7.3771987472862,6.449928419056534,-0.381768124223873
1789064043932447200,4.740447265625,7.377890236681699,6.448083083450794,-0.3991774876536801
1789064043942484200,4.750484130859375,7.37822516772449,6.446447006681561,-0.41892347733750934
1789064043952521200,4.760521240234375,7.381196292489767,6.441815839749574,-0.4374143889263272
1789064043962558200,4.77055810546875,7.386101015666127,6.434744878450036,-0.4582071477167308
1789064043972595200,4.78059521484375,7.3872975319743155,6.4324062063694,-0.47155510692652314
1789064043982632200,4.790632080078125,7.388340903547406,6.430187945798039,-0.48526411800105124
1789064043992669400,4.80066943359375,7.38493898614943,6.433100618374347,-0.49827827867921437
1789064044002706200,4.8107060546875,7.3778066500514745,6.440128325054049,-0.5129348362695425
1789064044012743200,4.8207431640625,7.371183432519436,6.446494352954626,-0.5279623460641131
1789064044022780200,4.8307802734375,7.365586635425687,6.451463958060741,-0.5451039254032075
1789064044032817200,4.840817138671875,7.363432087740302,6.452788484662771,-0.5583655945690349
1789064044042854400,4.8508544921875,7.363257900217175,6.451744528567791,-0.5725422231553122
1789064044052891100,4.86089111328125,7.362581023868918,6.451639314627647,-0.5823500620728358
1789064044062928100,4.87092822265625,7.364658414664864,6.44814621181488,-0.5946449685657397
1789064044072965000,4.880965087890625,7.370339382910728,6.4399138055205345,-0.6131856741130352
1789064044083002400,4.89100244140625,7.37576316152513,6.4319128698945045,-0.6316633608940988
1789064044093039400,4.901039306640625,7.378837746664881,6.42694092670083,-0.6461956710502504
1789064044103076000,4.911076171875,7.379915605029463,6.4248173586755986,-0.6549478634350001
1789064044113113000,4.921113037109375,7.381717101493478,6.422144340074062,-0.6608299072109163
1789064044123150300,4.931150390625,7.3863412541627875,6.415512354713678,-0.6734601831380278
1789064044133187300,4.941187255859375,7.388312261974811,6.411616516318917,-0.6887671309284865
1789064044143224300,4.951224365234375,7.386214997434616,6.412628323709964,-0.7017154598288238
1789064044153260300,4.96126025390625,7.382894328579306,6.41511663339436,-0.713816743445769
1789064044163297300,4.97129736328125,7.380863699534535,6.415989324575662,-0.7268545041952281
1789064044173334000,4.981333984375,7.379585350161791,6.416563909593224,-0.7347232648089528
1789064044183371300,4.991371337890625,7.37760908165276,6.418261361160874,-0.7397185888782143
1789064044193408300,5.001408203125,7.374436296835541,6.421595474019647,-0.7424176187038422
1789064044203445200,5.0114453125,7.374017779162526,6.421824606600404,-0.7445931361120194
1789064044213482200,5.021482177734375,7.377554721117019,6.416898840636015,-0.751985730581358
1789064044223519200,5.031519287109375,7.38296213311851,6.40909371984303,-0.7653594452869147
1789064044233556200,5.04155615234375,7.385478499853611,6.404786962559819,-0.7770438917312771
1789064044243593200,5.05159326171875,7.388321614325046,6.400559700253606,-0.7848016662511974
1789064044253630200,5.061630126953125,7.392897836199403,6.394429234674573,-0.7916540894292294
1789064044263667500,5.07166748046875,7.396811210250854,6.388948172914981,-0.7993201670777053
1789064044273704200,5.0817041015625,7.3965452527910465,6.38887686124444,-0.8023430950954556
1789064044283741200,5.0917412109375,7.393933024466038,6.3916930877089495,-0.803983555778861
1789064044293778200,5.101778076171875,7.390994632926583,6.394637908989191,-0.8075871332287788
1789064044303815200,5.111815185546875,7.387752874526381,6.397756917792559,-0.812522032347694
1789064044313852400,5.121852294921875,7.386303844761848,6.398911933046579,-0.8165997301153838
1789064044323889200,5.13188916015625,7.384672444167733,6.4008490385890005,-0.8161716408964246
1789064044333926100,5.141926025390625,7.382375857663154,6.404008963924646,-0.8121459655769169
1789064044343963100,5.151963134765625,7.381159467610717,6.405863651880622,-0.8085670841768383
1789064044354000400,5.16200048828125,7.382978499731421,6.404085536292195,-0.8060386616777628
1789064044364037400,5.172037353515625,7.385316002768278,6.401515393543243,-0.8050459973786026
1789064044374074000,5.18207421875,7.3874682123661035,6.3994660597980015,-0.8015819745298475
1789064044384111000,5.192111083984375,7.389680627718567,6.397781467711925,-0.7946046097978949
1789064044394148000,5.202148193359375,7.392105809038877,6.396424792405963,-0.7828819502349943
1789064044404185300,5.212185302734375,7.394788179990649,6.394589393672347,-0.7724777528595179
1789064044414221300,5.22222119140625,7.39614894694984,6.394846583303809,-0.7571648137196898
1789064044424258300,5.23225830078125,7.398574712792039,6.393935313677788,-0.7409954038809985
1789064044434295300,5.24229541015625,7.401188694682717,6.392874990969896,-0.7238407093320042
1789064044444332000,5.25233203125,7.401803027188778,6.394338633781671,-0.7043650244895369
1789064044454369300,5.262369384765625,7.400757317528128,6.398013522902131,-0.6816101718459278
1789064044464406300,5.27240625,7.399003751859069,6.402669824275374,-0.6564608983464538
1789064044474443300,5.282443359375,7.396403213971853,6.4085150431722395,-0.6281278071790933
1789064044484480300,5.292480224609375,7.39459879489839,6.413100032874941,-0.6020325215337797
1789064044494517200,5.302517333984375,7.394249835330247,6.416232485681772,-0.5722100685914978
1789064044504554200,5.31255419921875,7.395953716638684,6.4168573395818465,-0.5423960546839982
1789064044514591200,5.32259130859375,7.396937466979026,6.418048010671138,-0.5141605786722153
1789064044524628200,5.332628173828125,7.398654207769036,6.418128674691915,-0.487776685343869
1789064044534665500,5.34266552734375,7.401654558628797,6.4165872904688115,-0.46184952280707653
1789064044544702200,5.3527021484375,7.404663092795014,6.415173916539549,-0.4323120242860168
1789064044554739200,5.3627392578125,7.407160754829644,6.414506977063417,-0.39806444837786253
1789064044564776200,5.372776123046875,7.4122998712837695,6.4105971101433035,-0.36393078117296096
1789064044574813200,5.382813232421875,7.415330032759904,6.40883126951456,-0.33187333572022615
1789064044584850400,5.392850341796875,7.413875742298364,6.4120946552246805,-0.29978074588887393
1789064044594887200,5.40288720703125,7.4112711127579205,6.4163102270931,-0.2727884748712182
1789064044604924200,5.412924072265625,7.4083344747841355,6.420690634134411,-0.24839212036458774
1789064044614961200,5.422961181640625,7.404174432495236,6.426393229690194,-0.22372754337582737
1789064044624998400,5.432998291015625,7.399380183956026,6.432766856375336,-0.19766884514754637
1789064044635035400,5.443035400390625,7.394673029178381,6.438982662150264,-0.16939747583847492
1789064044645072100,5.453072021484375,7.389896900817751,6.4451476145207875,-0.1409939680497162
1789064044655109000,5.463109130859375,7.385581960228085,6.4506029573172325,-0.1152477698367089
1789064044665146000,5.47314599609375,7.382079505065083,6.454947708523273,-0.09452100722091272
1789064044675183400,5.483183349609375,7.380768422466516,6.456676724272966,-0.07729055315512232
1789064044685219300,5.49321923828125,7.379591195380687,6.458187713357805,-0.061851147224567825
1789064044695256300,5.50325634765625,7.378101833605766,6.460045908445119,-0.04249897003076039
1789064044705292800,5.513292724609375,7.379575997811555,6.458446656554937,-0.026621800587314646
1789064044715329500,5.52332958984375,7.38411831741631,6.4532987722724675,-0.01136127091309172
1789064044725366800,5.53336669921875,7.389922035259008,6.4466591881275175,0.0051239405762345995
1789064044735403800,5.54340380859375,7.395723999536037,6.439961736315489,0.02328488841668004
1789064044745440800,5.553440673828125,7.401025028553605,6.433802629163861,0.037344594358711035
1789064044755477800,5.563477783203125,7.402658767235279,6.431816423782706,0.0525535456843907
1789064044765514500,5.573514404296875,7.402330265933275,6.432084134808182,0.0646377457357943
1789064044775551700,5.5835517578125,7.398562437832355,6.436245346140861,0.08001842548274435
1789064044785588700,5.593588623046875,7.394315301781893,6.440931458130478,0.09427170863496138
1789064044795625700,5.603625732421875,7.3900430312901735,6.445633352211117,0.10704455310422926
1789064044805662700,5.613662841796875,7.3846806274741885,6.451552805387974,0.11974386654640547
1789064044815699700,5.62369970703125,7.380584882593155,6.4560150454938405,0.13121387565564363
1789064044825736700,5.63373681640625,7.3806222919940945,6.45577422247529,0.14062554572927766
1789064044835773700,5.643773681640625,7.381002815744281,6.455142938834428,0.14936928994609042
1789064044845810700,5.653810791015625,7.3817784762918945,6.453979155752062,0.160890216391813
1789064044855848000,5.663847900390625,7.384264447888731,6.4508817742586135,0.17074755700686944
1789064044865884700,5.673884765625,7.387077751743793,6.447411467799544,0.1798564721411094
1789064044875921700,5.683921630859375,7.390816353750228,6.442963256219029,0.1855778089299798
1789064044885958700,5.693958740234375,7.393962250560522,6.439262063613533,0.18868971213912591
1789064044895995600,5.70399560546875,7.395940857157111,6.436940927189588,0.19034832953372968
1789064044906033000,5.714032958984375,7.397833539035916,6.434669475126266,0.19358707399293779
1789064044916069600,5.724069580078125,7.396430686500668,6.436132533416152,0.19850198976974934
1789064044926106600,5.734106689453125,7.392153739833831,6.440907492733001,0.20287762930439784
1789064044936143600,5.7441435546875,7.388135736364125,6.445485468173026,0.20386453971620647
1789064044946179600,5.7541796875,7.382789699161052,6.451617687317729,0.20357078093402087
1789064044956216800,5.764216796875,7.378655960357189,6.456458697608113,0.19988557134894652
1789064044966253800,5.77425390625,7.372335525164008,6.463725473740697,0.19826259152330458
1789064044976290800,5.784290771484375,7.3684712509512895,6.468278314739465,0.19335907392334192
1789064044986327600,5.79432763671875,7.372231480267644,6.464291875451803,0.1831006234277971
1789064044996364800,5.80436474609375,7.375656194019317,6.460573731711507,0.17626860371697692
1789064045006401800,5.81440185546875,7.378346748277544,6.457616635471582,0.17195085011571645
1789064045016438800,5.824438720703125,7.381646958866715,6.45402182585001,0.1651149579473771
1789064045026475800,5.834475830078125,7.386011583817004,6.44924745105505,0.15627895973669365
1789064045036512500,5.844512451171875,7.394518130877613,6.439900946038961,0.13845567261059769
1789064045046549800,5.8545498046875,7.400472070845961,6.433425612545013,0.12011840808037667
1789064045056586800,5.864586669921875,7.39875942170918,6.4356631623387335,0.10480840981630608
1789064045066623700,5.874623779296875,7.396821147122979,6.438128091147542,0.0890806610642001
1789064045076660700,5.88466064453125,7.397272982543706,6.43783232307136,0.07106437211665324
1789064045086697700,5.89469775390625,7.394328745785355,6.441379201897979,0.053989757066546004
1789064045096734700,5.904734619140625,7.3891861221998925,6.447385164314508,0.03929570787688717
1789064045106771700,5.914771728515625,7.382885560750961,6.454670645147561,0.024590975179721135
1789064045116808700,5.92480859375,7.377382871681451,6.461001601734757,0.008266596258315257
1789064045126846000,5.934845947265625,7.37675217256248,6.461711211308836,-0.014205547578440746
1789064045136882700,5.944882568359375,7.375332368892431,6.463256687185168,-0.034280350233172066
1789064045146919700,5.954919677734375,7.374613406968116,6.463952852755785,-0.05265696039309259
1789064045156956700,5.964956787109375,7.3750968065708875,6.463279483538866,-0.0659613042234443
1789064045166993700,5.97499365234375,7.3766083801776166,6.461437070542574,-0.07661387316968757
1789064045177031000,5.985031005859375,7.381374571666121,6.455794680741429,-0.09173374198940581
1789064045187067600,5.995067626953125,7.383802675595879,6.452821802410483,-0.10460398241854273
1789064045197104600,6.005104736328125,7.383694539046287,6.452737046736479,-0.11672071933294646
1789064045207141600,6.0151416015625,7.383974525031447,6.452202793729305,-0.12800484134810977
1789064045217177600,6.025177490234375,7.385438752365112,6.450329985594749,-0.13757926423540337
1789064045227214800,6.03521484375,7.385203774565458,6.450469101804495,-0.1434897669208236
1789064045237251800,6.045251953125,7.38449124238193,6.4511085687518115,-0.1512330745239742
1789064045247288600,6.05528857421875,7.3829399212867015,6.452648199409246,-0.16096929124370216
1789064045257325600,6.06532568359375,7.37889619885385,6.457002887487411,-0.1714374572334811
1789064045267362800,6.07536279296875,7.377734169337153,6.4580258007943625,-0.18254949235105886
1789064045277399800,6.08539990234375,7.377816002401709,6.45771425062716,-0.19010146036688239
1789064045287436800,6.095436767578125,7.378651868703961,6.45668783018887,-0.1925059459590353
1789064045297473800,6.105473876953125,7.379886378934979,6.455276209825277,-0.19254085287563502
1789064045307510500,6.115510498046875,7.382723063665628,6.451966646885872,-0.1947050451721996
1789064045317547800,6.1255478515625,7.384134684029221,6.45027270244956,-0.19730231339009477
1789064045327584800,6.135584716796875,7.3855796221405265,6.448600385323166,-0.1978688246990554
1789064045337621800,6.145621826171875,7.384955352762341,6.449379553002118,-0.19572468880983068
1789064045347658800,6.15565869140625,7.381649296954274,6.453388788643479,-0.18817988118715584
1789064045357695700,6.16569580078125,7.378250302165746,6.457518435794115,-0.17961707389466464
1789064045367732700,6.175732666015625,7.376390938034653,6.4598085925579065,-0.1735369867959991
1789064045377769700,6.185769775390625,7.375619369140267,6.4608846973568195,-0.16613226349744944
1789064045387806700,6.195806640625,7.377728908640146,6.458667021307349,-0.15851271013813092
1789064045397843700,6.20584375,7.381477447518706,6.454569522860646,-0.15067049047145992
1789064045407880700,6.215880615234375,7.385409526270627,6.450297252368927,-0.14063476108219475
1789064045417917700,6.225917724609375,7.389863583070039,6.44544104450941,-0.12884558475487864
1789064045427954700,6.23595458984375,7.394435713291168,6.440418247911333,-0.11713094410165212
1789064045437991700,6.24599169921875,7.398850022602081,6.435535152044892,-0.10626563202044927
1789064045448029000,6.25602880859375,7.399590027314424,6.434862367349862,-0.0948574543673545
1789064045458065700,6.266065673828125,7.39818132956028,6.436626454412937,-0.08440857759993523
1789064045468102700,6.2761025390625,7.394372000405192,6.441119089657068,-0.07510416272648145
1789064045478139600,6.2861396484375,7.389950092309713,6.446289185771346,-0.0662149593241047
1789064045488175600,6.296175537109375,7.3832532250195735,6.454055143597722,-0.05600109688895754
1789064045498212900,6.306212890625,7.372394561874866,6.466548129945993,-0.04403240840942599
1789064045508249900,6.316249755859375,7.362720140078664,6.477617805492877,-0.034569880364811977
1789064045518286600,6.32628662109375,7.353583478420973,6.488015865388512,-0.029169384444586464
1789064045528323600,6.336323486328125,7.345515322777628,6.497162463918328,-0.02578635212688241
1789064045538360800,6.34636083984375,7.339175598362088,6.504331040373444,-0.023764689556567464
1789064045548397800,6.356397705078125,7.337766316086054,6.505917432782054,-0.024733934164233504
1789064045558434800,6.366434814453125,7.341061265978217,6.502189936691522,-0.026915785415074788
1789064045568471600,6.376471435546875,7.347371179777383,6.495042403024435,-0.030738323394895996
1789064045578508500,6.386508544921875,7.357831198993325,6.483156734919548,-0.03720720203188248
1789064045588545800,6.3965458984375,7.36860043028891,6.470888204976916,-0.04152085028018337
1789064045598582800,6.406582763671875,7.379442142298817,6.458480558824538,-0.04738706173272803
1789064045608619800,6.416619873046875,7.388253809785843,6.448380020570754,-0.049799803696572775
1789064045618656500,6.426656494140625,7.394633281689882,6.440996924582123,-0.05786094507724046
1789064045628693800,6.43669384765625,7.397972070723772,6.437018668600916,-0.07203975648744963
1789064045638730800,6.446730712890625,7.394661923262476,6.440660824495554,-0.08515298449276015
1789064045648767700,6.456767822265625,7.389341605022549,6.446524748092889,-0.1016742308432702
1789064045658804700,6.4668046875,7.38232851139009,6.4543175939261905,-0.11572786323754117
1789064045668841700,6.476841796875,7.372604405233264,6.465196715337037,-0.12774719505892135
1789064045678878700,6.486878662109375,7.36341689017117,6.475427601972222,-0.13898435439351015
1789064045688915700,6.496915771484375,7.353814949089288,6.486068238452076,-0.15071353502874263
1789064045698952700,6.50695263671875,7.349292503228783,6.490768963488936,-0.16793195159686727
1789064045708989400,6.516989501953125,7.350019648459553,6.489189585343003,-0.19497836395455523
1789064045719026400,6.5270263671875,7.350346396195888,6.488007682082056,-0.22031746093770488
1789064045729063200,6.537063232421875,7.352826522573828,6.484314672783017,-0.24493964182315392
1789064045739100400,6.547100341796875,7.358616796413064,6.476768495187163,-0.2694765555779449
1789064045749136400,6.557136474609375,7.365219555678963,6.4681812841057775,-0.2941978311900049
1789064045759173400,6.56717333984375,7.369119485726952,6.462570458486676,-0.31882384800035507
1789064045769210400,6.57721044921875,7.369339265957474,6.461354068434238,-0.33782373202461746
1789064045779247400,6.587247314453125,7.368647776561975,6.461024982610344,-0.35855891540888696
1789064045789284400,6.597284423828125,7.369615160289406,6.458436135160922,-0.38440135880429294
1789064045799321300,6.6073212890625,7.3669672761291265,6.460062859579921,-0.40713469373583794
1789064045809358300,6.6173583984375,7.3584531302839515,6.4684373046934605,-0.4276362510273233
1789064045819395300,6.627395263671875,7.349080321782827,6.477538310515881,-0.45044367410838604
1789064045829432300,6.637432373046875,7.341085231375694,6.484937188595533,-0.47375583184119313
1789064045839469300,6.64746923828125,7.333741882875561,6.491557483518124,-0.4962818441649899
1789064045849506300,6.65750634765625,7.326093998470902,6.498925966459512,-0.5125384573630988
1789064045859543300,6.667543212890625,7.319143448680639,6.505626925402879,-0.5266358832333237
1789064045869580300,6.677580322265625,7.321202134776115,6.502147266593575,-0.5408050226328894
1789064045879617500,6.687617431640625,7.329142864647507,6.491842730200291,-0.5568059805694967
1789064045889654300,6.697654296875,7.33428548823297,6.484777614119649,-0.5712233956417069
1789064045899691300,6.707691162109375,7.341288060471415,6.475978221592307,-0.5810079267488792
1789064045909728300,6.717728271484375,7.353351423230767,6.4608502105653285,-0.5966704830439761
1789064045919765500,6.727765625,7.36449884018898,6.447238449320197,-0.6063396806757897
1789064045929802500,6.737802490234375,7.37255588991642,6.437636508238315,-0.6104359370134771
1789064045939839500,6.747839599609375,7.378721426808833,6.4301674875319,-0.6146534085780382
1789064045949876200,6.757876220703125,7.3815925983309745,6.426497859108448,-0.6185503429513425
1789064045959913200,6.767913330078125,7.38215958456397,6.425123648145794,-0.6260099382422865
1789064045969950500,6.777950439453125,7.3781123549997805,6.429012472277879,-0.6337576297596097
1789064045979987500,6.787987548828125,7.372462366414069,6.43518502343297,-0.6368458050332964
1789064045990024400,6.7980244140625,7.365276838824152,6.443730148938298,-0.6335769394304603
1789064046000061200,6.808061279296875,7.357893158313631,6.453358978027105,-0.6212474730808287
1789064046010098400,6.818098388671875,7.351321378707885,6.46222792865932,-0.6066846947211771
1789064046020134400,6.828134521484375,7.346897132524847,6.468349626410007,-0.5949325168028473
1789064046030171400,6.83817138671875,7.345963066545129,6.470245230898261,-0.5857821554133669
1789064046040208400,6.84820849609375,7.347188808947801,6.469553741502762,-0.5779977120822295
1789064046050245400,6.858245361328125,7.351597273039817,6.465517033332586,-0.5669994212711229
1789064046060282400,6.868282470703125,7.358151516988873,6.459611024159193,-0.5490105774529278
1789064046070319400,6.8783193359375,7.363124044704437,6.455726876202226,-0.5276137883547694
1789064046080356400,6.8883564453125,7.366200967931747,6.454064495947956,-0.5045058479571715
1789064046090393300,6.898393310546875,7.368624980208277,6.452963841229677,-0.4827029257435351
1789064046100430300,6.908430419921875,7.370304311597347,6.452580394870043,-0.46174843705277885
1789064046110467300,6.91846728515625,7.370648594990373,6.453878617987036,-0.4374643290152773
1789064046120504300,6.92850439453125,7.3687857237279415,6.4578463525742285,-0.409391605817154
1789064046130541300,6.938541259765625,7.36371441181302,6.465615817531943,-0.37670455722399054
1789064046140578300,6.948578369140625,7.358616796413064,6.473205834269523,-0.34460144599862397
1789064046150615600,6.958615478515625,7.354553200235962,6.479371371161937,-0.3141443484146148
1789064046160652300,6.96865234375,7.352494514140487,6.483018203231692,-0.28579693646095694
1789064046170689300,6.978689208984375,7.349924955913424,6.487229098924994,-0.25466513621946796
1789064046180726300,6.988726318359375,7.3473910535216325,6.491345302072167,-0.2206045342507772
1789064046190763500,6.998763427734375,7.3471362019777295,6.4927750426143405,-0.18395486563695593
1789064046200800500,7.008800537109375,7.351790165263414,6.488335014340281,-0.1518857114801183
1789064046210837200,7.018837158203125,7.35755998083651,6.482446540823578,-0.12076860648426227
1789064046220874200,7.028874267578125,7.361920514133572,6.4780246327281,-0.08781677860822529
1789064046230911200,7.0389111328125,7.368055071365833,6.4713675129264585,-0.05962099528601393
1789064046240948500,7.048948486328125,7.375925658610463,6.462593839362263,-0.0313035035465844
1789064046250985500,7.0589853515625,7.385459210631251,6.4517720010966055,-0.004058397414298087
1789064046261022200,7.069022216796875,7.390750887298584,6.4456608247399325,0.02527557361013023
1789064046271059200,7.07905908203125,7.3924892553985115,6.443493417572975,0.05364997175212483
1789064046281095200,7.08909521484375,7.392140295830369,6.443655914658308,0.07707437138748355
1789064046291132400,7.09913232421875,7.391143686008453,6.444549064105749,0.09573134199189953
1789064046301169400,7.10916943359375,7.385313080158829,6.450889957565069,0.1164565428382717
1789064046311206400,7.119206298828125,7.3794889040499925,6.457161877441406,0.13633887225287034
1789064046321243400,7.129243408203125,7.372979668286442,6.464134639063477,0.15659368824167177
1789064046331280400,7.1392802734375,7.3634578067034475,6.474471908682585,0.17632725683534517
1789064046341317400,7.1493173828125,7.355216048058867,6.483418600726127,0.19096657102992756
1789064046351354400,7.159354248046875,7.348094817876816,6.491258208310604,0.19864808370955286
1789064046361391400,7.169391357421875,7.343661803865432,6.496102725732326,0.20413480802495032
1789064046371428400,7.179428466796875,7.34506465640068,6.494370202851295,0.2087078150289133
1789064046381465300,7.18946533203125,7.350027831766009,6.488605647975206,0.21325682010278105
1789064046391502300,7.19950244140625,7.35838123409152,6.478871020424366,0.22099981717867775
1789064046401539300,7.209539306640625,7.370040692225098,6.465276794835924,0.23040051833372563
1789064046411576300,7.219576416015625,7.38452865178287,6.448592202016711,0.23404064666805788
1789064046421613600,7.229613525390625,7.397455353373289,6.433826010039448,0.23223029104415327
1789064046431650300,7.239650390625,7.403488203796744,6.4269567087918515,0.23016438975660128
1789064046441687300,7.249687255859375,7.405345229840278,6.424781118318438,0.23114808529801664
1789064046451724300,7.259724365234375,7.406190448492765,6.42377164901495,0.23213720593322068
1789064046461761300,7.26976123046875,7.403190682154894,6.427040295422077,0.23727559173498303
1789064046471798500,7.279798583984375,7.399650817590952,6.431041932278871,0.239268025927525
1789064046481835300,7.289835205078125,7.392588039597869,6.438976816931366,0.24413055392997338
1789064046491872300,7.299872314453125,7.385323017030954,6.4473009931623935,0.24435197812831028
1789064046501909200,7.3099091796875,7.378844760927557,6.454855938586593,0.2405844422883354
1789064046511946500,7.319946533203125,7.373604522186517,6.460919768670201,0.23844012373602017
1789064046521983500,7.3299833984375,7.372419696316123,6.462434264886379,0.233995638482552
1789064046532020200,7.340020263671875,7.37298317541778,6.4618778000473975,0.23160355571424587
1789064046542056400,7.350056396484375,7.37723732573092,6.45707887533307,0.2299775254149921
1789064046552093200,7.36009326171875,7.384459678199887,6.4488482226043935,0.22913152131121603
1789064046562130400,7.37013037109375,7.3918474503636356,6.440341675543785,0.2301631111149676
1789064046572167400,7.38016748046875,7.398827226248383,6.432379318362474,0.2285665261059068
1789064046582204400,7.390204345703125,7.403110018134116,6.427543568769097,0.22591294285720212
1789064046592241400,7.400241455078125,7.406512520053982,6.423783923974633,0.2212519287762232
1789064046602278400,7.4102783203125,7.407604991465806,6.422685022822022,0.2165209181989543
1789064046612315400,7.4203154296875,7.405226571896672,6.425539827731251,0.2131869332043454
1789064046622352400,7.430352294921875,7.3981445046812295,6.433709105661511,0.21267299233283846
1789064046632389400,7.440389404296875,7.3912769569993015,6.44172991503179,0.2086378002663143
1789064046642426400,7.45042626953125,7.384355048781633,6.449896854874491,0.20129404990738256
1789064046652463400,7.46046337890625,7.378624980697035,6.456845651099085,0.18820033945329487
1789064046662500400,7.470500244140625,7.372022221431136,6.464602256575226,0.18053813426233828
1789064046672537300,7.480537353515625,7.366921098899841,6.470583669072389,0.17437400387572125
1789064046682574300,7.49057421875,7.367569918197393,6.469989794832467,0.16893994132932275
1789064046692611300,7.500611328125,7.372395730918646,6.464686427727341,0.1612488205711357
1789064046702648300,7.5106484375,7.37939947220087,6.456904687809944,0.15240287635517305
1789064046712685300,7.520685302734375,7.384874104219675,6.450885281389952,0.14180128411091864
1789064046722722300,7.530722412109375,7.3918527110606425,6.443191804277896,0.1271935249652248
1789064046732759300,7.54075927734375,7.399153973984718,6.43505409052968,0.1139411259512417
1789064046742796500,7.550796630859375,7.40334733402133,6.430397204634547,0.1040312331650406
1789064046752833300,7.560833251953125,7.402436648917198,6.431527669969201,0.09882093290453776
1789064046762870300,7.570870361328125,7.399712776911258,6.434757153409719,0.09242028121515176
1789064046772907300,7.5809072265625,7.396778477025031,6.438304616758227,0.07930306202131324
1789064046782944300,7.5909443359375,7.392405084246397,6.443491664007306,0.06447336265405174
1789064046792981500,7.6009814453125,7.388427412787079,6.448203494960069,0.046852703694277444
1789064046803018200,7.611018310546875,7.381109198728203,6.45665100530982,0.03554363218423678
1789064046813054200,7.62105419921875,7.375231246605515,6.463392880785465,0.030039474960137157
1789064046823091200,7.63109130859375,7.373891522434353,6.464941863793134,0.02509778077425435
1789064046833128200,7.641128173828125,7.374031807687878,6.464812099933624,0.01568351003486896
1789064046843165400,7.65116552734375,7.376686706110835,6.461801227679849,0.0018404088396957376
1789064046853202400,7.661202392578125,7.379769474557042,6.458264285725355,-0.014738011628971434
1789064046863239200,7.6712392578125,7.381676769483089,6.456045440632105,-0.02671387420138344
1789064046873276200,7.681276123046875,7.386992996069789,6.44991672861874,-0.03592888462517876
1789064046883313400,7.6913134765625,7.391400875639915,6.444801577562093,-0.046058534809015686
1789064046893350400,7.701350341796875,7.39211808399856,6.443896737676859,-0.056378506233450025
1789064046903387400,7.711387451171875,7.390826875144243,6.445230032107234,-0.07126440646708943
1789064046913424100,7.721424072265625,7.386631177020073,6.449883410871029,-0.08410796895185485
1789064046923461000,7.731461181640625,7.38311060167849,6.453724304208159,-0.09746701581124216
1789064046933498400,7.741498291015625,7.377986098271608,6.459405272454023,-0.10856842907010578
1789064046943535400,7.751535400390625,7.36990683671236,6.46851329253912,-0.11486211325367912
1789064046953572400,7.761572265625,7.36365829771161,6.47544922928214,-0.1244204069900792
1789064046963609300,7.771609375,7.359364399909973,6.480094424739479,-0.1360947704318445
1789064046973646300,7.781646240234375,7.355625213381647,6.4840761878520246,-0.14805810688282361
1789064046983683300,7.791683349609375,7.3535033989220855,6.486269898504019,-0.157108779890649
1789064046993720300,7.80172021484375,7.35329063295424,6.4863365339994425,-0.16413798440769314
1789064047003757300,7.81175732421875,7.352411512032151,6.487250726234913,-0.16738648307593537
1789064047013794300,7.821794189453125,7.356709501487016,6.482150188225507,-0.1758850477594882
1789064047023831300,7.831831298828125,7.364210670897364,6.4733005268156525,-0.18751650364128872
1789064047033868300,7.841868408203125,7.370515323999523,6.465839689415693,-0.19699176786988973
1789064047043905300,7.8519052734375,7.378242118859291,6.456736345505714,-0.20611030934900043
1789064047053942300,7.8619423828125,7.387955703622103,6.44527270220518,-0.21668758000275118
1789064047063979300,7.871979248046875,7.397070153447985,6.434563676664233,-0.22389995906697585
1789064047074015500,7.882015380859375,7.402090027436613,6.428529072675109,-0.23123127006944266
1789064047084052200,7.89205224609375,7.401924607741832,6.428418598037958,-0.23944599457662552
1789064047094089200,7.902089111328125,7.398958743673562,6.431400828719139,-0.2507671606665477
1789064047104126200,7.912126220703125,7.39124188568592,6.4398424938499925,-0.261444786422234
1789064047114163500,7.92216357421875,7.380916891026496,6.451296200278401,-0.2706006459707394
1789064047124200400,7.932200439453125,7.368746560761332,6.464733774000406,-0.28138215222600843
1789064047134237200,7.9422373046875,7.354075645852088,6.4809449040889735,-0.29208233687337487
1789064047144274200,7.952274169921875,7.341660400915146,6.494267326998711,-0.3080662340773269
1789064047154311400,7.9623115234375,7.3306696358233685,6.505639784884452,-0.32911508652064947
1789064047164348400,7.972348388671875,7.321275784534215,6.515131835851073,-0.34979839358720927
1789064047174385400,7.982385498046875,7.315827456000447,6.520311868837475,-0.36685244077332313
1789064047184422100,7.992422119140625,7.312476392006873,6.523250844898819,-0.38114586413968354
1789064047194459100,8.002459228515624,7.314137018695473,6.520521127673983,-0.3957121130980551
1789064047204496400,8.012496337890624,7.321306764194369,6.511285097295046,-0.4147621198743581
1789064047214533400,8.022533447265625,7.3323162339866155,6.497469922432303,-0.43635815787166354
1789064047224570400,8.0325703125,7.343549575662612,6.4834203542917965,-0.4559983125608414
1789064047234607000,8.042607177734375,7.3563190408647054,6.467376981985568,-0.47748241461627183
1789064047244644400,8.052644287109375,7.367464704257249,6.453322737669945,-0.495446306656301
1789064047254681300,8.062681396484376,7.372715464392304,6.446114998248219,-0.5109383286900818
1789064047264718300,8.07271826171875,7.375801739969849,6.441372187635302,-0.525988598305732
1789064047274755300,8.08275537109375,7.374348618552088,6.441654511708021,-0.5426331513755023
1789064047284792300,8.092792236328124,7.367008192661404,6.448418599015474,-0.5616751209758222
1789064047294829300,8.102829345703125,7.356177002045512,6.4590738485425705,-0.5808688836043701
1789064047304866300,8.1128662109375,7.344034144309163,6.471037258058786,-0.6010194720337168
1789064047314903300,8.1229033203125,7.335857267594337,6.478496926414966,-0.6202114810965955
1789064047324940300,8.132940185546875,7.329967625033855,6.483327999833226,-0.6390791170433163
1789064047334976300,8.142976318359375,7.327337861052155,6.484558418411016,-0.6565129938598722
1789064047345013500,8.153013427734376,7.329503514653444,6.480367980983853,-0.6734931355595588
1789064047355050200,8.16305029296875,7.333356682950257,6.474104828935861,-0.6915354265980422
1789064047365087200,8.173087158203124,7.339105455735325,6.465640951973199,-0.709513054902479
1789064047375124200,8.183124267578124,7.345280929499864,6.456619441127777,-0.7275256814550608
1789064047385161500,8.193161376953125,7.350349903327226,6.448772234758734,-0.7457057735290378
1789064047395198500,8.203198486328125,7.354235804849862,6.44197366065979,-0.7658805465515702
1789064047405235200,8.213235107421875,7.354647892782092,6.438888554126024,-0.787560244244337
1789064047415272200,8.223272216796875,7.353183080926537,6.437938121533393,-0.8087279738269746
1789064047425309400,8.233309326171875,7.34924340339005,6.439612776747346,-0.8308964048847556
1789064047435346400,8.243346435546876,7.339608729082346,6.448105295282602,-0.8499800216697156
1789064047445383400,8.253383544921874,7.328506904831528,6.458865758749842,-0.8639555747259408
1789064047455420200,8.263420166015624,7.319511697471142,6.466642822492123,-0.8818472052473575
1789064047465457200,8.27345703125,7.311861474978923,6.473167255824804,-0.8973126315351575
1789064047475494400,8.283494384765625,7.30530255485475,6.4789470082700245,-0.9089438864875584
1789064047485531400,8.293531494140625,7.302296943297982,6.480851380586624,-0.919461481109634
1789064047495568400,8.303568359375,7.305838561427593,6.475448644760251,-0.929341873806715
1789064047505605000,8.313605224609375,7.316508424001932,6.4619479426741595,-0.9393171051803976
1789064047515642400,8.323642333984376,7.328638422256708,6.446814670950174,-0.9486963434223085
1789064047525679400,8.333679443359374,7.3406035853385925,6.431932743638754,-0.9571648234948515
1789064047535716400,8.34371630859375,7.355604170593619,6.413533748117089,-0.9654330317549407
1789064047545753300,8.35375341796875,7.3698553987860675,6.395914504796266,-0.9735946378353982
1789064047555790300,8.363790283203125,7.378910811901092,6.385467929583788,-0.9735781981572508
1789064047565827300,8.373827392578125,7.3832970641613,6.380652638256549,-0.9718947020497173
1789064047575864300,8.3838642578125,7.384013103476167,6.379670641481876,-0.9729011756785213
1789064047585901300,8.3939013671875,7.381148361694812,6.382861546477675,-0.973711688343808
1789064047595937300,8.403937255859375,7.375227739474177,6.389620957610011,-0.9742405345235019
1789064047605974300,8.413974365234376,7.368537886446714,6.397527200689911,-0.9729738755885511
1789064047616011300,8.42401123046875,7.362392807820439,6.405793509253859,-0.9650709935095161
1789064047626048300,8.43404833984375,7.35481974221766,6.416431223124265,-0.9520604860931634
1789064047636085200,8.444085205078125,7.346890118262172,6.427330802801251,-0.9396872536670416
1789064047646122200,8.454122314453125,7.343807349815965,6.432370550534129,-0.929241043780744
1789064047656159500,8.464159423828125,7.343939451763034,6.433102956461906,-0.9231063404180109
1789064047666196200,8.4741962890625,7.344220022270083,6.433907843104005,-0.9152324652377516
1789064047676233200,8.484233154296875,7.344326405254006,6.436201506999135,-0.8980901917789131
1789064047686270200,8.494270263671876,7.346633513152599,6.435798771417141,-0.8819631597772241
1789064047696307500,8.504307373046874,7.350988201230764,6.433237981018424,-0.8641752818912267
1789064047706344200,8.51434423828125,7.353581724855303,6.432520772659778,-0.8472932668037713
1789064047716381200,8.524381103515625,7.35334557801187,6.434474244815111,-0.8344066780280321
1789064047726418200,8.534418212890625,7.354784086382389,6.434775858110189,-0.8192647115409374
1789064047736455200,8.544455078125,7.357650581729412,6.433287080857157,-0.8050920284774153
1789064047746492200,8.5544921875,7.358999658250808,6.434191336220502,-0.7852973408136517
1789064047756529200,8.564529052734375,7.3559852788656945,6.440646795970201,-0.760220621093735
1789064047766566400,8.57456640625,7.352516725972294,6.447566950622201,-0.7346816906895488
1789064047776603100,8.58460302734375,7.350631642878055,6.4520151622027155,-0.7142103458732366
1789064047786640100,8.59464013671875,7.3486390077561135,6.456522995015979,-0.6936855903692543
1789064047796677000,8.604677001953124,7.346872582605481,6.460545674660802,-0.6746887020196766
1789064047806714400,8.61471435546875,7.345632227155566,6.463935317099094,-0.65544478010647
1789064047816751400,8.62475146484375,7.346852708861231,6.464990963631868,-0.6309011443499475
1789064047826788000,8.6347880859375,7.3518416031897065,6.461434147933125,-0.6088331779919565
1789064047836825000,8.6448251953125,7.356911746060848,6.457757505246996,-0.5861742965361103
1789064047846862000,8.654862060546876,7.362611419007182,6.452910065215826,-0.5677011763323098
1789064047856899300,8.6648994140625,7.368200032794475,6.447801343899965,-0.5530512311458587
1789064047866935300,8.674935302734376,7.3739979054182765,6.442499730360508,-0.5373425706867129
1789064047876972300,8.68497216796875,7.379684718883037,6.437244878572225,-0.5220274395897985
1789064047887009000,8.695009033203124,7.383541394311189,6.434263816934823,-0.5039298381675035
1789064047897046000,8.7050458984375,7.3858280439436435,6.432976115211844,-0.48657205879446114
1789064047907083300,8.715083251953125,7.38434277382195,6.4357204454839225,-0.472619046363607
1789064047917120300,8.725120361328125,7.380319509655237,6.441401413729786,-0.4578371818931773
1789064047927157200,8.7351572265625,7.376846865108609,6.446245931151509,-0.44545777545459564
1789064047937194000,8.745194091796876,7.368455468860268,6.457008148184419,-0.42812476519662884
1789064047947231200,8.755231201171876,7.357422618192434,6.470659656918048,-0.41143991664908824
1789064047957268200,8.765268310546874,7.346119718411565,6.484211796930432,-0.3998907504895702
1789064047967305200,8.77530517578125,7.3334227339237925,6.4991650359123945,-0.3900599325552582
1789064047977342200,8.78534228515625,7.322171856591105,6.5122074728369705,-0.3838539175219834
1789064047987379200,8.795379150390625,7.313636083436012,6.52216772583723,-0.3774064218830317
1789064047997416200,8.805416259765625,7.311128484529257,6.525539832618832,-0.3675837872551754
1789064048007453200,8.815453125,7.316162387043237,6.520275043958425,-0.36078451903648673
1789064048017490200,8.825490234375,7.324216514161229,6.5116930935740465,-0.3522641261136159
1789064048027527200,8.835527099609376,7.335784786880016,6.499084956413507,-0.3442897862335667
1789064048037564200,8.845564208984374,7.350090960130095,6.483201743105053,-0.33859884458295997
1789064048047601200,8.85560107421875,7.3663319008350365,6.464773521488905,-0.3379947412099689
1789064048057638100,8.86563818359375,7.377858672499657,6.45169016803205,-0.33655897278580815
1789064048067675100,8.875675048828125,7.384054604530334,6.444888671323657,-0.33095603821221736
1789064048077712400,8.88571240234375,7.389277307614684,6.439094890353084,-0.32714853568803515
1789064048087749000,8.8957490234375,7.390485514360666,6.43781420289278,-0.3250459008529782
1789064048097786000,8.9057861328125,7.385978850591182,6.443108217647671,-0.32256182895228264
1789064048107823000,8.915822998046876,7.3772706434786315,6.453254348608851,-0.3190281749334186
1789064048117860000,8.925860107421874,7.3685782184571025,6.4631526422888035,-0.31953722043409943
1789064048127896000,8.93589599609375,7.360324184852838,6.472585072022676,-0.318853293290548
1789064048137933300,8.945933349609374,7.351019180890917,6.483373592540621,-0.31427177418656643
1789064048147970300,8.95597021484375,7.343823716428876,6.491724656778573,-0.31007191134393214
1789064048158007000,8.966007080078125,7.3379866808384655,6.498599803245067,-0.3041887350568548
1789064048168044000,8.9760439453125,7.335994045716523,6.501080514144897,-0.29920981413312253
1789064048178081300,8.986081298828125,7.337920045343041,6.499033518487215,-0.2964421395180747
1789064048188118300,8.9961181640625,7.341343590050935,6.4953627210199825,-0.2921013521010987
1789064048198155300,9.0061552734375,7.34756407200098,6.488660008510947,-0.2845557590271346
1789064048208192000,9.01619189453125,7.354345110443234,6.481460452395678,-0.2732547589424066
1789064048218229200,9.026229248046874,7.363129305401444,6.472033283358812,-0.2597858767666854
1789064048228266200,9.036266357421875,7.370919813147187,6.463574667093157,-0.24924057215377687
1789064048238303200,9.04630322265625,7.372317404985427,6.462466413590311,-0.2363223461307585
1789064048248340200,9.05634033203125,7.370826874166727,6.464562509086727,-0.22523646836774422
1789064048258377000,9.066376953125,7.369051096665859,6.466765572088956,-0.22003517339760437
1789064048268414200,9.076414306640626,7.363738377210497,6.473112310767173,-0.2111006832485087
1789064048278451200,9.086451171875,7.357521402391791,6.480577824342251,-0.1984414004226215
1789064048288488200,9.09648828125,7.349927294000983,6.489713316956162,-0.1804969072028063
1789064048298525200,9.106525146484374,7.342856332701444,6.498263118636608,-0.159448821944464
1789064048308562200,9.116562255859375,7.340508892792463,6.50131607646644,-0.1421198759402614
1789064048318599200,9.12659912109375,7.342033910402655,6.499838989651203,-0.13042925548343917
1789064048328636200,9.13663623046875,7.344601130542158,6.497130315214395,-0.12046613467265851
1789064048338673200,9.146673095703125,7.347222711217403,6.494336300581693,-0.11090450733485631
1789064048348710400,9.15671044921875,7.351769122475385,6.489315842071175,-0.10321721336841583
1789064048358747100,9.1667470703125,7.358107677847147,6.482292227044701,-0.09232645631870254
1789064048368784100,9.1767841796875,7.365501295229792,6.474052806487679,-0.08014873733152635
1789064048378821000,9.186821044921874,7.371654557162523,6.467208055159449,-0.06575182162465061
1789064048388858000,9.196858154296875,7.376441791439056,6.461883060744404,-0.05066072224169038
1789064048398894000,9.20689404296875,7.383434426805376,6.453934147566557,-0.04488165021648165
1789064048408931300,9.216931396484375,7.389238144648075,6.447317359775305,-0.040493338429927826
1789064048418968300,9.22696826171875,7.392340786838531,6.4437722345143555,-0.03854362456768285
1789064048429005000,9.237005126953125,7.390188577240705,6.446276910811663,-0.03175492797535844
1789064048439042000,9.2470419921875,7.386068282440304,6.451050116562843,-0.017923126204800792
1789064048449079300,9.257079345703126,7.384668937036395,6.452674502894282,-0.006637756943222484
1789064048459116300,9.2671162109375,7.379616914343833,6.458454255339503,0.0031648346916146692
1789064048469153300,9.2771533203125,7.373592247226834,6.465324141108989,0.01019185838260455
1789064048479190000,9.28718994140625,7.370875389483571,6.468418015471101,0.011987774489203002
1789064048489227300,9.297227294921875,7.365192083150148,6.47487289069891,0.01876710503156064
1789064048499264300,9.30726416015625,7.36151544046402,6.479027087768912,0.02605251508266665
1789064048509301200,9.31730126953125,7.359739078441262,6.481019722890854,0.03160526753871236
1789064048519338200,9.327338134765625,7.356306765905022,6.484877567362785,0.03873286809604615
1789064048529375000,9.337375,7.352996033921837,6.488600971800088,0.043485661246860395
1789064048539412200,9.347412109375,7.352851072493195,6.488776912888884,0.0416352476072032
1789064048549449200,9.35744921875,7.353772278991341,6.4877388020128,0.040804600902763194
1789064048559486200,9.367486328125,7.353602183121442,6.487917665711045,0.04292015915147494
1789064048569523200,9.377523193359375,7.352239662596583,6.489439760711789,0.046087171815033065
1789064048579560200,9.387560302734375,7.350165194410085,6.491766157832742,0.049195211699814535
1789064048589597200,9.39759716796875,7.35213211056888,6.489560756742954,0.04631869271569885
1789064048599634200,9.40763427734375,7.354619251209497,6.4867696647197,0.04223303083726205
1789064048609671200,9.417671142578126,7.355335290524363,6.4859788066029544,0.038833168399054555
1789064048619708400,9.42770849609375,7.359386027219891,6.481416028732061,0.032634911980549804
1789064048629745200,9.4377451171875,7.365552148634195,6.4744350838035345,0.026832618909957816
1789064048639782100,9.4477822265625,7.37427087714076,6.464523346120119,0.02124778396534966
1789064048649818000,9.457818115234375,7.383958158418536,6.453475297883153,0.01407488866978674
1789064048659855000,9.467855224609375,7.393522690099477,6.4425295409768815,0.004796235571141005
1789064048669892000,9.47789208984375,7.401047824907303,6.433882708662748,-0.00535500596081838
1789064048679929300,9.487929443359375,7.402855751112103,6.43178953577578,-0.01399949105423875
1789064048689966000,9.497966064453125,7.405283270519972,6.428963372439146,-0.02420744890498463
1789064048700003000,9.508003173828126,7.404606394171714,6.429697531932592,-0.03418044037251966
1789064048710040800,9.518040771484374,7.398377144393325,6.436804733589291,-0.04406327847172506
1789064048720077800,9.528077880859374,7.391872584804892,6.444181984359026,-0.055883361393958324
1789064048730114800,9.53811474609375,7.383572958493232,6.453539595291018,-0.07113433664690237
1789064048740151800,9.54815185546875,7.376357620286941,6.461590215277671,-0.08716056145550682
1789064048750188800,9.558188720703125,7.370886495399475,6.467604361000657,-0.10254763441062532
1789064048760225800,9.568225830078125,7.36535633380115,6.473624936464429,-0.11873757558069191
1789064048770262800,9.5782626953125,7.360065826177596,6.479350328373909,-0.13355562560935505
1789064048780299800,9.5882998046875,7.356826405864954,6.482660475835203,-0.15033583342330528
1789064048790336800,9.598336669921874,7.35442752802968,6.484964661124348,-0.1673671573209576
1789064048800373800,9.608373779296874,7.352025727584958,6.487326129558682,-0.18083635002393275
1789064048810410800,9.61841064453125,7.351707163155078,6.487316777208447,-0.19367040489483622
1789064048820448000,9.628447998046875,7.353828977614641,6.484498212656378,-0.20703235609736292
1789064048830485000,9.638485107421875,7.3578113252490756,6.479528607550263,-0.220673781828396
1789064048840521700,9.648521728515625,7.364102534347772,6.471912287327647,-0.23393590765194966
1789064048850558700,9.658558837890626,7.370164610865712,6.46467006111443,-0.24310035236570982
1789064048860595700,9.668595703125,7.377593299561738,6.455797018828988,-0.2533312755335122
1789064048870633000,9.678633056640624,7.38460230154097,6.447450630766153,-0.2615571790218353
1789064048880670000,9.688669921875,7.388198280206322,6.44313042947948,-0.2664110487937927
1789064048890706700,9.698706787109375,7.392733001026511,6.4377236019998785,-0.27128448178274556
1789064048900743700,9.70874365234375,7.396143686252832,6.433596877458691,-0.276171651036106
1789064048910779600,9.718779541015625,7.397519650781154,6.431889489018917,-0.27906910777697336
1789064048920817000,9.72881689453125,7.399912683397531,6.429041113850474,-0.28127690175324677
1789064048930854000,9.73885400390625,7.403411631429195,6.424802745628357,-0.2860047705253586
1789064048940891000,9.748890869140626,7.405961315912008,6.421829867297411,-0.28675113191325213
1789064048950927600,9.758927734375,7.408514507526159,6.418982661172747,-0.2845364150058478
1789064048960964900,9.76896484375,7.411615980672836,6.4155240451514715,-0.28174459233023225
1789064048971001900,9.779001953125,7.41160838188827,6.415771882432699,-0.2762583429388702
1789064048981038800,9.789038818359375,7.410473240378499,6.417223250284791,-0.2729905915808864
1789064048991075800,9.799075927734375,7.408143336126208,6.420006743523478,-0.27075609226077796
1789064049001112600,9.809112548828125,7.405263981297612,6.423382357436418,-0.26945805180687454
1789064049011149800,9.81914990234375,7.402696176636218,6.426449343791604,-0.2668657702913508
1789064049021186800,9.829186767578125,7.398978032895922,6.430996924093365,-0.26035483576105906
1789064049031223800,9.839223876953126,7.396192201569676,6.434491195949912,-0.2531011748383753
1789064049041260800,9.8492607421875,7.394815652519464,6.436382124263048,-0.24511684328727423
1789064049051297800,9.8592978515625,7.392963887172937,6.438816657933592,-0.23686514777056872
1789064049061334800,9.869334716796875,7.389915020996332,6.442628909698128,-0.2281955556353554
1789064049071371800,9.879371826171875,7.38907973921597,6.443774572601914,-0.22284555464321745
1789064049081408800,9.88940869140625,7.389964705356955,6.4428019281774755,-0.2216292011233978
1789064049091446000,9.899446044921875,7.389726220425963,6.443248502901196,-0.2165255943740718
1789064049101482800,9.909482666015625,7.389288998052478,6.444000198051333,-0.20896290403483433
1789064049111519700,9.919519775390626,7.386811794283986,6.447206300616264,-0.19732275338992475
1789064049121556700,9.929556640625,7.386870246472954,6.447504406780004,-0.18499146040938794
1789064049131593700,9.93959375,7.392676302403211,6.4410267351984976,-0.1785989098280668
1789064049141631000,9.949630859375,7.395379716143012,6.438202325427532,-0.16820402827020733
1789064049151667700,9.959667724609375,7.39601684500277,6.437655797460675,-0.160938384648785
1789064049161704700,9.96970458984375,7.399940740448236,6.433217522752285,-0.15806529516419396
1789064049171740700,9.97974072265625,7.405531107801199,6.426894164949656,-0.1534103089652024
1789064049181777700,9.989777587890625,7.410129541507363,6.421780767458677,-0.14526070384979248
1789064049191815000,9.99981494140625,7.410754979929328,6.421351728391647,-0.1316575825688429
1789064049201852000,10.009851806640626,7.409232884928584,6.423395216917991,-0.11680720117315649
1789064049211889000,10.019888916015624,7.407758136200904,6.425291990450024,-0.10544443356436677
1789064049221925600,10.029925537109374,7.406922854420542,6.426283924096822,-0.10370741717130877
1789064049231963000,10.039962890625,7.404331668883562,6.42929187374115,-0.1022581408116035
1789064049242000000,10.049999755859375,7.400949625229835,6.433248502412438,-0.09820025285608135
1789064049252036900,10.060036865234375,7.396177588522434,6.43885932803154,-0.08958386134598403
1789064049262073900,10.070073974609375,7.391413735121488,6.4444917809605595,-0.0768855799502693
1789064049272110600,10.080110595703125,7.386614225885271,6.450089747098088,-0.06822865550038404
1789064049282147800,10.09014794921875,7.382323835214972,6.455041232025623,-0.06419571932302788
1789064049292184800,10.100184814453126,7.380603002771735,6.4570134088814255,-0.06379316183754709
1789064049302221800,10.110221923828124,7.378331550708412,6.459618038421869,-0.06280827441946603
1789064049312258800,10.1202587890625,7.376998840799927,6.4611991701334714,-0.056392151166312396
1789064049322295800,10.1302958984375,7.3770350811570875,6.461216705790162,-0.049093253729259594
1789064049332332800,10.140332763671875,7.376354697677493,6.462027437651157,-0.044449597208457994
1789064049342369800,10.150369873046875,7.375113173183799,6.463444318711757,-0.0444817778784316
1789064049352406800,10.16040673828125,7.374227037999034,6.464407026264071,-0.05100449874463957
1789064049362444000,10.170444091796876,7.371489721989631,6.467491548275947,-0.05538899743917863
1789064049372480800,10.180480712890626,7.367230310979485,6.472341910916566,-0.05568574276289437
1789064049382517800,10.190517822265624,7.363934192043542,6.4760968795359135,-0.055032420820160764
1789064049392554800,10.2005546875,7.361152452370524,6.47927200244069,-0.053470226704468944
1789064049402591700,10.210591796875,7.3592936727613205,6.481345301583409,-0.05781890516695566
1789064049412627700,10.220627685546875,7.359584764662385,6.48095133382976,-0.0646047841811087
1789064049422665000,10.2306650390625,7.3594082390516995,6.481064731076359,-0.07275303758964874
1789064049432702000,10.240701904296875,7.359258601447939,6.481167606928945,-0.07854359455667435
1789064049442738700,10.25073876953125,7.36004010721445,6.480258675390481,-0.08032322624875232
1789064049452775700,10.260775634765626,7.36358464795351,6.4762102767825125,-0.08190208380487747
1789064049462813000,10.27081298828125,7.369405316931009,6.469520423755049,-0.08694576792735606
1789064049472850000,10.280849853515624,7.373553668782114,6.464698118165135,-0.09364354853294789
1789064049482887000,10.290886962890625,7.375630475056171,6.462210977524519,-0.10142944403565488
1789064049492923600,10.300923583984375,7.377465289267898,6.4599944705188275,-0.10890772576075979
1789064049502961000,10.3109609375,7.378591662949323,6.4585314122289414,-0.11893587463176808
1789064049512998000,10.320997802734375,7.377501529625058,6.459657785910368,-0.12522993327467702
1789064049523035000,10.331034912109375,7.373569450873136,6.464082032093406,-0.12845180879747495
1789064049533072000,10.34107177734375,7.367720724844932,6.4706339379549025,-0.13405975747290066
1789064049543108600,10.351108642578126,7.360588973268866,6.4786144153147935,-0.14023805338218806
1789064049553145900,10.361145751953124,7.355454532989859,6.484232255196571,-0.1496761730713304
1789064049563182800,10.371182861328125,7.350488435015082,6.489612779191136,-0.16007911920463666
1789064049573219800,10.3812197265625,7.3443322504729025,6.496294448912144,-0.17122255410747603
1789064049583256800,10.3912568359375,7.337154906189442,6.504097231617569,-0.18236538622211665
1789064049593293800,10.4012939453125,7.3320029302537435,6.509561926764249,-0.1942254266954027
1789064049603330800,10.411330810546875,7.3279533626019955,6.513726060706377,-0.2070193139526993
1789064049613367800,10.421367919921876,7.325058225682377,6.516792462539672,-0.2128838220719248
1789064049623404800,10.43140478515625,7.32596598817706,6.515620496150851,-0.21749785520602016
1789064049633442000,10.441442138671874,7.33089058509767,6.5098261306583876,-0.2249254113908857
1789064049643478800,10.451478759765624,7.3385916609942905,6.50053515522182,-0.24186997032053767
1789064049653515800,10.461515869140625,7.344736739620566,6.492785564008355,-0.2626129716850817
1789064049663551700,10.4715517578125,7.3493965481251475,6.486734008884429,-0.2811406350877136
1789064049673588700,10.481588623046875,7.354615159556269,6.480082734301686,-0.29755961750699206
1789064049683625700,10.491625732421875,7.357730076706409,6.476168775728344,-0.30566397697487846
1789064049693663000,10.5016630859375,7.356790165507793,6.477189935469627,-0.3066362743394449
1789064049703699700,10.51169970703125,7.351962014698982,6.482335481664538,-0.31364264597017316
1789064049713736200,10.521736083984376,7.3466791058599945,6.4876406023353335,-0.32744160035047676
1789064049723773200,10.531773193359374,7.340657945874333,6.493208757856488,-0.35123525798991323
1789064049733810400,10.541810546875,7.331886610397696,6.502077708488702,-0.3698711310073733
1789064049743847400,10.551847412109375,7.326568630245328,6.507300411573052,-0.38315968818012625
1789064049753884400,10.561884521484375,7.325525843194127,6.507926434516906,-0.39235874754954125
1789064049763921200,10.571921142578125,7.325923318079114,6.507166556060314,-0.3975126962466165
1789064049773958100,10.581958251953125,7.328062083673477,6.504179649204016,-0.406863000654988
1789064049783995400,10.591995361328125,7.330687756001949,6.500295501247048,-0.4213802228398621
1789064049794032400,10.602032470703126,7.335272745704651,6.493932980477809,-0.4393129525566473
1789064049804069400,10.6120693359375,7.341313194912671,6.485933213895559,-0.45626518333610144
1789064049814106000,10.622106201171874,7.346701317691802,6.479019488984346,-0.4676298597741872
1789064049824143400,10.632143310546875,7.3532041237145656,6.471273989424109,-0.4726335498129949
1789064049834180400,10.642180419921875,7.35662825294435,6.467220330119132,-0.4748357360323891
1789064049844217300,10.65221728515625,7.358095402887463,6.464941279271245,-0.4830658773044124
1789064049854254300,10.66225439453125,7.356901809188723,6.465707587468624,-0.4909244818503037
1789064049864291300,10.672291259765625,7.354136436128616,6.468055611899495,-0.5013194364733994
1789064049874328300,10.682328369140626,7.348816702410578,6.473477052426338,-0.5092862506341189
1789064049884365300,10.692365234375,7.341599026116729,6.48143590247631,-0.5121584450695663
1789064049894402300,10.70240234375,7.336116795313358,6.487358862784505,-0.5157065660052002
1789064049904438300,10.712438232421874,7.330310154861212,6.493508617585897,-0.5208486416013911
1789064049914475300,10.722475341796875,7.3254083542943,6.498764053896069,-0.5242568426096812
1789064049924512500,10.732512451171875,7.323899118775129,6.500389024749398,-0.5251903240675106
1789064049934549200,10.74254931640625,7.327722476455569,6.495763703036308,-0.5290756776008755
1789064049944586200,10.752586181640625,7.336437697830796,6.485677193307876,-0.5320276958068832
1789064049954623200,10.762623291015625,7.3452096178293225,6.475753765186667,-0.5318833554327488
1789064049964660500,10.772660400390626,7.351658647838234,6.468476467660069,-0.5313324800843373
1789064049974697500,10.782697509765624,7.357787944373488,6.461441746717691,-0.532083079255931
1789064049984734200,10.792734130859374,7.363889183858037,6.454409948384761,-0.5330195563884451
1789064049994771200,10.802771240234375,7.367306883347034,6.4507379818737505,-0.5302355516931042
1789064050004808400,10.812808349609375,7.367356567707658,6.451039595168829,-0.5258591632397845
1789064050014845400,10.822845458984375,7.366728206676244,6.452125636839866,-0.5213237848324701
1789064050024882400,10.83288232421875,7.3672449240267275,6.451532347121835,-0.5213623632771894
1789064050034919200,10.842919189453125,7.367561150369048,6.451087525963783,-0.5223954326519742
1789064050044956200,10.8529560546875,7.366707748410105,6.452245463827252,-0.5201262456109746
1789064050054993400,10.862993408203126,7.363747729560733,6.4559858193993565,-0.5156109601436183
1789064050065030400,10.873030517578124,7.361319041109085,6.459486520996689,-0.5063618145547807
1789064050075067400,10.8830673828125,7.361129656016826,6.460387269228696,-0.49755314274244006
1789064050085104000,10.893104248046875,7.361282216230034,6.460687713479995,-0.4913420862078666
1789064050095141400,10.903141357421875,7.360000359725952,6.462402700704335,-0.48799515040013935
1789064050105178400,10.913178466796875,7.356772045329213,6.466484417060017,-0.4825616541093215
1789064050115215400,10.92321533203125,7.353973939043283,6.470151122874021,-0.4760273935023695
1789064050125252400,10.93325244140625,7.352856333190203,6.471948527684807,-0.4687947023024782
1789064050135288300,10.943288330078126,7.351572723120451,6.474038193440437,-0.45999300822019573
1789064050145325300,10.9533251953125,7.348920162785053,6.477670996984839,-0.45115675428118557
1789064050155362300,10.9633623046875,7.346219087132811,6.480929121997952,-0.44834765167720614
1789064050165399300,10.9733994140625,7.34308838789165,6.48464317408502,-0.4459194746822118
1789064050175436300,10.983436279296875,7.341798932603001,6.486344132784009,-0.4423998491887003
1789064050185473300,10.993473388671875,7.34236065813899,6.48608109793365,-0.43690559915397315
1789064050195510300,11.00351025390625,7.340466222694515,6.4889037541389465,-0.4266911887295544
1789064050205547300,11.01354736328125,7.337500943148136,6.492972611013054,-0.4156561461046338
1789064050215584300,11.023584228515626,7.335660868239402,6.4955000836640595,-0.40859241826348003
1789064050225621200,11.033621337890626,7.33564625519216,6.49566667240262,-0.4062023082565516
1789064050235658500,11.043658447265624,7.336862060722709,6.4943082435309885,-0.4059469452559948
1789064050245695200,11.0536953125,7.33572107399404,6.495969454741478,-0.3999588838223368
1789064050255732200,11.063732177734375,7.335633980232477,6.496666789355873,-0.3901047215450555
1789064050265769200,11.073769287109375,7.33829472387433,6.494291876918077,-0.3794472435282543
1789064050275806500,11.083806396484375,7.3426996808350085,6.489833143943548,-0.3704181338982656
1789064050285843500,11.093843505859375,7.349016608896851,6.483202327626943,-0.36114224643297493
1789064050295880200,11.103880126953126,7.3533835719347,6.4784156778723,-0.35812804971095175
1789064050305917200,11.113917236328126,7.356388014447688,6.475257506102323,-0.3535336711253971
1789064050315954200,11.1239541015625,7.358883338394761,6.472845768785477,-0.3456835056142881
1789064050325991400,11.133991455078124,7.36076725244522,6.471074082937836,-0.33866062124017626
1789064050336028400,11.1440283203125,7.359277890670299,6.47334202786982,-0.3275011485179886
1789064050346065400,11.1540654296875,7.354828510046005,6.479006044980883,-0.3152226451706141
1789064050356102100,11.16410205078125,7.349971717664599,6.484947125467658,-0.3062080389900133
1789064050366139400,11.174139404296875,7.345583711838722,6.490118975147604,-0.3019109811169095
1789064050376175400,11.18417529296875,7.342687405875325,6.493405741733312,-0.30168358383551236
1789064050386212400,11.19421240234375,7.332267134147882,6.505568473213911,-0.292958863979578
1789064050396249300,11.204249267578126,7.319935475841164,6.519991550841927,-0.2804317378996871
1789064050406286300,11.214286376953124,7.311673843452334,6.5295706955701105,-0.272981440160051
1789064050416323300,11.2243232421875,7.301034960538148,6.541625290501117,-0.26908826864641155
1789064050426360300,11.2343603515625,7.29017746643722,6.553999034383892,-0.26228319174144415
1789064050436397300,11.244397216796875,7.276683194091915,6.569366699385642,-0.25235676794555034
1789064050446434300,11.254434326171875,7.265366850307584,6.582154284766316,-0.24510595656707881
1789064050456471300,11.26447119140625,7.260451605737209,6.587640607222914,-0.24334327600980177
1789064050466508300,11.27450830078125,7.259209496721625,6.589032938364148,-0.24271630321787668
1789064050476545300,11.284545166015626,7.2637091462284324,6.584127046144008,-0.24122204607212916
1789064050486582300,11.294582275390624,7.269086747613549,6.578481149211526,-0.23313980710450558
1789064050496619300,11.304619384765624,7.275074589851498,6.5722074757695195,-0.22307138102203605
1789064050506656500,11.314656494140625,7.287139706176519,6.559065670123696,-0.21595239759599788
1789064050516693200,11.324693359375,7.297885556596517,6.547163635405898,-0.2142525348755531
1789064050526730200,11.334730224609375,7.305072253230214,6.539247455453872,-0.211065082212165
1789064050536767200,11.344767333984375,7.311788994264602,6.531701277858018,-0.21213081174753606
1789064050546804500,11.354804443359376,7.319344524210691,6.523067305025458,-0.21718667036499828
1789064050556841500,11.364841552734376,7.32583797788322,6.515767211145162,-0.21739810289228334
1789064050566878200,11.374878173828124,7.333186002558469,6.507595595127344,-0.21440626413254066
1789064050576915200,11.384915283203124,7.344783501371741,6.49451048810482,-0.21418958917455747
1789064050586952200,11.3949521484375,7.351299751397967,6.48725540241003,-0.21047800303921102
1789064050596988200,11.40498828125,7.350549809813499,6.488382360613346,-0.20174977605193853
1789064050607025400,11.415025390625,7.350525259894132,6.488326831033826,-0.20438808866627514
1789064050617062400,11.4250625,7.347009360727667,6.492006396329402,-0.21375238506738095
1789064050627099400,11.435099365234375,7.337563486990332,6.502411470487713,-0.22178196226600555
1789064050637136100,11.44513623046875,7.324032389765978,6.5175616933465,-0.22434169321879743
1789064050647173400,11.45517333984375,7.31048784853816,6.5327656922191375,-0.22388026798581703
1789064050657210400,11.46521044921875,7.298596335214376,6.546010373717546,-0.22499164502751082
1789064050667247400,11.475247314453124,7.288729021194577,6.556907615306973,-0.2275643450597301
1789064050677284400,11.485284423828125,7.283398181560635,6.562611379906535,-0.23373899684036148
1789064050687321300,11.4953212890625,7.282761052700876,6.563026390448212,-0.24178384467335418
1789064050697358300,11.5053583984375,7.287913613158464,6.5569514544487,-0.2511641606274992
1789064050707395800,11.515395751953125,7.296340080720186,6.5472355315983295,-0.259826300108619
1789064050717432800,11.525432861328126,7.306675596773624,6.53537265984714,-0.267931207565777
1789064050727469600,11.535469482421876,7.316487965735793,6.52395753186345,-0.27814464987581594
1789064050737506600,11.545506591796874,7.324839029973745,6.514013645476102,-0.29110289738196876
1789064050747543800,11.555543701171874,7.3298495516121385,6.507860383543372,-0.30239275501817464
1789064050757580800,11.565580810546875,7.331141344988346,6.5058607341587535,-0.3138825556732714
1789064050767617800,11.57561767578125,7.333723178175092,6.502399780049919,-0.3250813009599224
1789064050777654500,11.585654541015625,7.335695355030894,6.499532115659117,-0.3376934567084536
1789064050787691800,11.59569189453125,7.333155607420205,6.501865527042746,-0.3477904878308996
1789064050797728800,11.605728759765626,7.327908354416489,6.507209810680151,-0.3582640971807763
1789064050807765800,11.615765869140626,7.3243813493341206,6.510370320537686,-0.3726881611894816
1789064050817801700,11.6258017578125,7.324029467156529,6.509879906672239,-0.3878627878371626
1789064050827838700,11.635838623046874,7.324230542686581,6.508658840444683,-0.40421964653935283
1789064050837876000,11.6458759765625,7.323854110589623,6.508353720018267,-0.4157759730920195
1789064050847912700,11.65591259765625,7.324726801770925,6.506610675743222,-0.4275206983562559
1789064050857949700,11.66594970703125,7.32893243676722,6.50116819242835,-0.43812239106521006
1789064050867986700,11.675986572265625,7.338142748183012,6.489777614364027,-0.45257845764737575
1789064050878023700,11.686023681640625,7.34603554725945,6.480122481790184,-0.4627692314678803
1789064050888061000,11.69606103515625,7.357285255548358,6.466466881403327,-0.47491303905230015
1789064050898097700,11.70609765625,7.366946817862987,6.454328699842095,-0.49001704814918334
1789064050908134700,11.716134765625,7.370918644103408,6.449103074148297,-0.4990161279670894
1789064050918171600,11.726171630859374,7.374073308742046,6.444390658673644,-0.5130877618089318
1789064050928209000,11.736208984375,7.3726073278427116,6.445052921974659,-0.5256714221153408
1789064050938246000,11.746245849609375,7.369373752748966,6.447872071048617,-0.5363385447433218
1789064050948282600,11.75628271484375,7.365078685903549,6.45204555734098,-0.5450688175572083
1789064050958319600,11.766319580078125,7.358053901833295,6.459623883640766,-0.550176515959762
1789064050968356900,11.77635693359375,7.349191380941868,6.469270832908153,-0.5552555727897212
1789064050978393900,11.786393798828126,7.339158062705398,6.479902701559663,-0.5639226076416671
1789064050988430800,11.796430908203124,7.329644968950748,6.489428654795884,-0.5779370314035565
1789064050998467600,11.806467529296874,7.3220344939470285,6.496502538704871,-0.5946888442400843
1789064051008504600,11.816504638671875,7.315219553235173,6.5029153283566234,-0.6083088983895256
1789064051018541800,11.826541748046875,7.309464935231208,6.508830105358362,-0.6142009886354207
1789064051028578800,11.836578857421875,7.308162620460987,6.510335249224305,-0.613748422562331
1789064051038615800,11.84661572265625,7.3139482181251045,6.50310646701455,-0.6214098240356892
1789064051048651800,11.85665185546875,7.322662854978442,6.492294565621018,-0.631738983413577
1789064051058688800,11.866688720703126,7.3295783334553235,6.483081916117667,-0.645997956521064
1789064051068725800,11.876725830078126,7.339764796426892,6.47039662206769,-0.6574227291159331
1789064051078762800,11.8867626953125,7.353872816756367,6.453599216523767,-0.6648201458908617
1789064051088799700,11.8967998046875,7.368519766268133,6.436698935127258,-0.6664885174944997
1789064051098836700,11.906836669921875,7.3824547681182615,6.420733888754248,-0.6662773589618504
1789064051108873700,11.916873779296875,7.392001764142512,6.409687594082951,-0.6667796824607998
1789064051118910700,11.92691064453125,7.396694890394806,6.404242188158631,-0.6670628102511167
1789064051128947700,11.93694775390625,7.39692986819446,6.403581093901395,-0.6707884066455065
1789064051138984700,11.946984619140625,7.390752640864252,6.410345181208848,-0.6742639007363468
1789064051149021700,11.957021728515626,7.381082310721278,6.421204428875446,-0.6768561091866344
1789064051159058700,11.96705859375,7.369498840433359,6.434545556485652,-0.6763792123898863
1789064051169095700,11.977095703125,7.357251937800646,6.449138145461678,-0.6707020435363054
1789064051179132700,11.987132568359375,7.345870712086558,6.463025216516852,-0.6617163346566259
1789064051189169700,11.997169677734375,7.336822897756099,6.473961036550999,-0.6551667668826878
1789064051199207000,12.00720703125,7.330833301952481,6.481092203605175,-0.6516951452493667
1789064051209243600,12.01724365234375,7.328548990407586,6.483906676504016,-0.6493875989593565
1789064051219280600,12.02728076171875,7.330390818881988,6.482105764561891,-0.6465744412347674
1789064051229317600,12.037317626953126,7.335846161678433,6.476519488862157,-0.6406552803188562
1789064051239355000,12.04735498046875,7.342258366808295,6.4702826402992,-0.6301380510229617
1789064051249391900,12.057391845703124,7.3479691456705325,6.4650067457228895,-0.6175969877492636
1789064051259428900,12.067428955078125,7.352920630598068,6.460434030979871,-0.6064100059656425
1789064051269464800,12.07746484375,7.35649790456295,6.457081797942519,-0.598684745475836
1789064051279501600,12.08750146484375,7.357164844039082,6.457036789757013,-0.5909190433777869
1789064051289538600,12.09753857421875,7.35756114988029,6.45732262096107,-0.5828059891467914
1789064051299575800,12.107575927734375,7.355708800011873,6.460221265012025,-0.573996696279943
1789064051309612800,12.11761279296875,7.354960027471185,6.462000549644231,-0.563467886144109
1789064051319649800,12.12764990234375,7.3551914981395,6.462759843578934,-0.5516136726234108
1789064051329686500,12.1376865234375,7.355686003658175,6.4634454877555365,-0.5367810643464327
1789064051339723800,12.147723876953124,7.358743053141236,6.460809294033051,-0.5265230339759961
1789064051349760800,12.1577607421875,7.3620543696463105,6.457718926802277,-0.5180797979425639
1789064051359797800,12.1677978515625,7.363164376714825,6.457164215528965,-0.5091319368552416
1789064051369834800,12.177834716796875,7.363281281092762,6.4579048047631975,-0.49792847886085506
1789064051379871700,12.187871826171875,7.366262342730164,6.455080979514122,-0.4903977180298418
1789064051389908700,12.19790869140625,7.368285957512259,6.453313385319709,-0.4832201180180534
1789064051399945700,12.20794580078125,7.369161571303009,6.452786731097102,-0.47685189816039053
1789064051409982700,12.217982666015626,7.36843325702846,6.454213549029827,-0.46872459620833395
1789064051420019700,12.228019775390624,7.368063839194178,6.455064612901211,-0.46277792623098934
1789064051430056700,12.238056640625,7.368622642120719,6.454680582019686,-0.45921811485756187
1789064051440093700,12.24809375,7.3676307084739205,6.456020890712738,-0.45628823541812596
1789064051450130700,12.258130615234375,7.366629422476887,6.457421405160427,-0.45261922804918137
1789064051460167700,12.268167724609375,7.364902744814753,6.459397089147568,-0.4525343262447044
1789064051470205000,12.278204833984375,7.362285840314626,6.462260077363252,-0.4542340063020587
1789064051480241700,12.28824169921875,7.359913850486278,6.464919067439436,-0.45482327743209894
1789064051490278000,12.29827783203125,7.358975692853331,6.465821569237113,-0.457168890710175
1789064051500314600,12.308314697265626,7.355767836722731,6.469380723023415,-0.45845308530181644
1789064051510351600,12.3183515625,7.351548173201084,6.474179647737741,-0.45839909009225666
1789064051520388900,12.328388916015625,7.348686354029178,6.477490964242816,-0.45749381181560456
1789064051530425900,12.33842578125,7.34683809581399,6.479473662492633,-0.45910205072984095
1789064051540462800,12.348462890625,7.346461079195142,6.479719746208191,-0.46165937052983785
1789064051550499600,12.35849951171875,7.343624394464492,6.4827785492569205,-0.46384566506035624
1789064051560536600,12.36853662109375,7.339565474462509,6.48710634932816,-0.46755876729935403
1789064051570573800,12.37857373046875,7.336395612254738,6.490148785763979,-0.47502888398431237
1789064051580610800,12.38861083984375,7.332951609280705,6.493445489221811,-0.48309605324696747
1789064051590647800,12.398647705078124,7.329898651450872,6.496478573307394,-0.48861211325470355
1789064051600684500,12.4086845703125,7.3266849501013755,6.4998004112064836,-0.4926191934715956
1789064051610721800,12.4187216796875,7.325317753401398,6.501340626385808,-0.4926104256432503
1789064051620758800,12.4287587890625,7.329661920085549,6.496158255311847,-0.49635951251108196
1789064051630795800,12.438795654296875,7.333177234730124,6.491724656778573,-0.5024061357315629
1789064051640832800,12.448832763671875,7.33514239732325,6.489178479427099,-0.5065898511569946
1789064051650869800,12.458869873046876,7.338254976385832,6.485106699943542,-0.5135947614829987
1789064051660906800,12.46890673828125,7.341458740863204,6.48110038691163,-0.5183586514165625
1789064051670943700,12.47894384765625,7.344310623162984,6.477773872837424,-0.5195569578230381
1789064051680980700,12.488980712890625,7.346349435514211,6.47543110910356,-0.5199269967118277
1789064051691017700,12.499017822265625,7.34748983772099,6.474022995871305,-0.5213461062621325
1789064051701054700,12.5090546875,7.346085231620073,6.475629262024164,-0.521192742331326
1789064051711090400,12.51909033203125,7.344640293508768,6.477293395844102,-0.5208785618156194
1789064051721127200,12.529127197265625,7.343412213018536,6.478539011991024,-0.5226876570641994
1789064051731164200,12.5391640625,7.340628719779849,6.481850913017988,-0.520744267911464
1789064051741201400,12.549201416015626,7.338361359369754,6.48479222716689,-0.5160487305063755
1789064051751238400,12.55923828125,7.335541625773907,6.4884402282804245,-0.5102514058718457
1789064051761275400,12.569275390625,7.332596804493665,6.492254818132519,-0.5040132786672562
1789064051771312000,12.57931201171875,7.330511814913153,6.495082735034823,-0.4978728031508624
1789064051781349400,12.589349365234375,7.327633044606447,6.499039948228001,-0.4885327278755605
1789064051791386400,12.599386474609375,7.32462392591834,6.503198821473121,-0.4782009381491691
1789064051801423400,12.60942333984375,7.321244220352172,6.507941047564149,-0.46526473807804286
1789064051811460400,12.61946044921875,7.3198378606855865,6.510328234961628,-0.45385713581368325
1789064051821497000,12.6294970703125,7.319839614251255,6.510949581730365,-0.4448273685965687
1789064051831534300,12.639534423828126,7.3178411339104175,6.513808478292822,-0.4357637356424704
1789064051841571300,12.6495712890625,7.315690093356371,6.516961973887682,-0.42458800590522583
1789064051851608300,12.6596083984375,7.316779642158746,6.51655456213057,-0.41186796933542935
1789064051861645300,12.669645263671875,7.320837393116951,6.5128697361379855,-0.39781672069448976
1789064051871682300,12.679682373046875,7.324077982473373,6.510071045330166,-0.3837162626169622
1789064051881719300,12.68971923828125,7.3261904445827,6.508413925772905,-0.3713142424877733
1789064051891756300,12.69975634765625,7.32895114146769,6.505857227027416,-0.36150570945050564
1789064051901793300,12.709793212890625,7.332779175323248,6.502051989525556,-0.3522169990362599
1789064051911830500,12.71983056640625,7.336682612502575,6.498275978118181,-0.3404197033345699
1789064051921867300,12.7298671875,7.3363248851060865,6.4995508203595875,-0.3233617106257006
1789064051931904300,12.739904296875,7.333928929880261,6.5030515219569205,-0.3069150547482073
1789064051941940200,12.749940185546874,7.3317965940266845,6.506134290403128,-0.2921593658986501
1789064051951977200,12.759977294921875,7.331514854475856,6.506825195276737,-0.28373724571848286
1789064051962014200,12.77001416015625,7.333181910905242,6.505273874181508,-0.27611228553168476
1789064051972051500,12.780051513671875,7.333588153618574,6.50525224687159,-0.2656521932505071
1789064051982088400,12.79008837890625,7.335588387525081,6.503482314589619,-0.25346869297651575
1789064051992125200,12.800125244140625,7.3406456709146495,6.498346705266833,-0.23832168498812242
1789064052002162200,12.810162109375,7.346665661856532,6.492092905569076,-0.22274466981831936
1789064052012199400,12.820199462890624,7.352274733909964,6.486222552230954,-0.20822499994803217
1789064052022236400,12.830236328125,7.3576242782443755,6.480459166398644,-0.19850379813434554
1789064052032273400,12.8402734375,7.363069684168696,6.4744058577090495,-0.19404422490959986
1789064052042310100,12.85031005859375,7.364589441081881,6.472904805496334,-0.18629724577832965
1789064052052347400,12.860347412109375,7.363442024612426,6.474488859817385,-0.176341066164989
1789064052062384400,12.87038427734375,7.3583426556468,6.480664333581924,-0.16174054961083456
1789064052072421400,12.88042138671875,7.350746793690323,6.48962446962893,-0.1472594307858031
1789064052082458400,12.890458251953126,7.34248983747661,6.4991650359123945,-0.13811892407005652
1789064052092495000,12.9004951171875,7.331455817764997,6.511736932715773,-0.13200042292345315
1789064052102532400,12.910532470703124,7.3203078162848945,6.524360267445445,-0.127301213990245
1789064052112569300,12.9205693359375,7.314763626161217,6.530632187321782,-0.12438105222722515
1789064052122606300,12.9306064453125,7.313813193568587,6.531764990743994,-0.12071683063125237
