time,seconds_elapsed,z,y,x
1789064039245184500,0.0531845703125,-0.012760298326611519,-0.04441078379750252,0.06001683324575424
1789064039255221200,0.06322119140625,0.009275252930819988,-0.03922056034207344,0.050160638988018036
1789064039265258500,0.073258544921875,0.014836200512945652,-0.014892050065100193,0.03851783275604248
1789064039275295500,0.08329541015625,0.02867782860994339,-0.024405350908637047,0.03150755912065506
1789064039285332500,0.09333251953125,0.035921361297369,-0.006961113773286343,0.015899837017059326
1789064039295369500,0.103369384765625,0.046855442225933075,-0.013099033385515213,0.0025973496958613396
1789064039305406200,0.11340625,0.05575066804885864,-0.015473774634301662,-0.00645766407251358
1789064039315443500,0.123443359375,0.05763836205005646,-0.019352909177541733,-0.01569959707558155
1789064039325480400,0.13348046875,0.04522004351019859,-0.040661126375198364,-0.004084487911313772
1789064039335517400,0.143517333984375,0.026829292997717857,-0.04801202192902565,-0.015621436759829521
1789064039345554400,0.153554443359375,0.04904139041900635,-0.023111462593078613,-0.03849586099386215
1789064039355591400,0.16359130859375,0.08136656135320663,-0.04855119436979294,-0.05338393151760101
1789064039365628400,0.17362841796875,0.10228648781776428,-0.03754274919629097,-0.029060479253530502
1789064039375665400,0.18366552734375,0.11674262583255768,-0.0020634611137211323,-0.026182502508163452
1789064039385702400,0.193702392578125,0.10713047534227371,-0.03905609995126724,-0.02839772030711174
1789064039395739600,0.20373974609375,0.09883329272270203,0.003817707533016801,-0.013198290951550007
1789064039405776400,0.2137763671875,0.08475422859191895,-0.06736752390861511,0.010150440968573093
1789064039415813400,0.2238134765625,0.06954579055309296,-0.09037306904792786,0.0319000780582428
1789064039425850400,0.233850341796875,0.04504338279366493,-0.14342111349105835,0.042953528463840485
1789064039435887400,0.243887451171875,0.02159886807203293,-0.1548963487148285,0.025310685858130455
1789064039445924600,0.253924560546875,0.004394048824906349,-0.137112557888031,0.013072394765913486
1789064039455961300,0.26396142578125,0.006291610188782215,-0.15356464684009552,0.020563332363963127
1789064039465998300,0.273998291015625,0.03190828859806061,-0.14255113899707794,0.008749549277126789
1789064039476035300,0.284035400390625,0.062335334718227386,-0.13792303204536438,-0.004937233403325081
1789064039486072600,0.294072509765625,0.08234979212284088,-0.13207659125328064,-0.009827862493693829
1789064039496109600,0.304109619140625,0.0833926871418953,-0.1416306495666504,0.0066131302155554295
1789064039506146300,0.314146240234375,0.06795886904001236,-0.14600221812725067,0.03031473234295845
1789064039516183300,0.324183349609375,0.08125226944684982,-0.10733433067798615,0.03874087333679199
1789064039526220300,0.33422021484375,0.08368825912475586,-0.1638077199459076,0.046703193336725235
1789064039536257500,0.344257568359375,0.09011009335517883,-0.07906869053840637,0.05169854685664177
1789064039546294500,0.35429443359375,0.09038892388343811,-0.12832199037075043,0.0725332573056221
1789064039556331500,0.36433154296875,0.10141368955373764,-0.11601349711418152,0.0792062059044838
1789064039566368300,0.3743681640625,0.1130482405424118,-0.11758715659379959,0.06335693597793579
1789064039576405500,0.384405517578125,0.12113087624311447,-0.12091357260942459,0.053576212376356125
1789064039586442500,0.3944423828125,0.11912178993225098,-0.11223486810922623,0.05974835529923439
1789064039596479500,0.4044794921875,0.10274119675159454,-0.11201199144124985,0.06662370264530182
1789064039606515500,0.414515380859375,0.08606155216693878,-0.0928574725985527,0.06927274912595749
1789064039616552400,0.424552490234375,0.07687440514564514,-0.10251705348491669,0.07117581367492676
1789064039626589400,0.43458935546875,0.07997432351112366,-0.0860896110534668,0.04457242786884308
1789064039636626400,0.44462646484375,0.09444892406463623,-0.07657182216644287,0.03674935922026634
1789064039646663400,0.454663330078125,0.09322439879179001,-0.08315516263246536,0.04993920028209686
1789064039656700400,0.464700439453125,0.07800392061471939,-0.0958239734172821,0.06131725385785103
1789064039666737700,0.474737548828125,-0.07039007544517517,-0.08844142407178879,0.07471907883882523
1789064039676774400,0.4847744140625,-0.11866351217031479,-0.2352025806903839,0.10427996516227722
1789064039686811400,0.494811279296875,-0.18103449046611786,-0.25280264019966125,-0.007207145914435387
1789064039696848400,0.504848388671875,-0.11508267372846603,-0.17033787071704865,0.011359314434230328
1789064039706886400,0.514886474609375,-0.09755108505487442,-0.3607770502567291,0.02860780991613865
1789064039716923100,0.524923095703125,-0.11663874983787537,-0.09588532149791718,0.014623218216001987
1789064039726960000,0.534960205078125,-0.18554218113422394,-0.14291834831237793,-0.002617021556943655
1789064039736997000,0.5449970703125,-0.21910391747951508,-0.08881822973489761,-0.01747622899711132
1789064039747034400,0.555034423828125,-0.15351691842079163,-0.07034601271152496,-0.02077348716557026
1789064039757071400,0.5650712890625,-0.04884673282504082,-0.14716225862503052,-0.02236316166818142
1789064039767108000,0.575108154296875,0.034930989146232605,-0.1346757560968399,-0.0505889393389225
1789064039777145000,0.58514501953125,0.04492934048175812,-0.1794077754020691,-0.0554577000439167
1789064039787182300,0.595182373046875,0.02887926809489727,-0.10070578008890152,-0.07810575515031815
1789064039797219300,0.60521923828125,0.0181775763630867,-0.016438331454992294,-0.08920557796955109
1789064039807256300,0.61525634765625,0.024760909378528595,0.006100001744925976,-0.05047069489955902
1789064039817293000,0.62529296875,0.040140874683856964,-0.0034382841549813747,0.0027821711264550686
1789064039827330000,0.635330078125,0.0491841696202755,-0.04469091445207596,0.06705570220947266
1789064039837367300,0.6453671875,0.03056904301047325,-0.06538613885641098,0.11517209559679031
1789064039847404300,0.655404296875,0.028323732316493988,-0.07284272462129593,0.13881990313529968
1789064039857441300,0.665441162109375,0.04440689831972122,-0.056175846606492996,0.12983325123786926
1789064039867478000,0.67547802734375,0.08108901232481003,0.024690771475434303,0.09560046344995499
1789064039877515300,0.685515380859375,0.10524256527423859,-0.024937884882092476,0.05102280527353287
1789064039887552300,0.69555224609375,0.12156374752521515,0.03321676701307297,-0.16113898158073425
1789064039897589200,0.70558935546875,0.09972867369651794,0.008228957653045654,-0.07649214565753937
1789064039907626200,0.715626220703125,0.09344494342803955,0.03643982112407684,0.005118829198181629
1789064039917663200,0.725663330078125,0.06385660171508789,-0.104950912296772,-0.08797762542963028
1789064039927700200,0.7357001953125,0.06334313750267029,0.02799249067902565,-0.04515479505062103
1789064039937737200,0.7457373046875,0.032412219792604446,0.042398110032081604,-0.030186429619789124
1789064039947774200,0.755774169921875,-0.03332711383700371,-0.04818451777100563,-0.08488216996192932
1789064039957810200,0.76581005859375,-0.04727445915341377,-0.0012299909722059965,-0.08970488607883453
1789064039967847400,0.775847412109375,-0.02859291434288025,-0.022662045434117317,-0.09762033075094223
1789064039977884400,0.785884521484375,-0.003665405325591564,-0.03995217755436897,-0.09894075989723206
1789064039987921200,0.795921142578125,-0.011686580255627632,-0.050021056085824966,-0.05751342698931694
1789064039997958100,0.805958251953125,-0.05762065574526787,0.0026503338012844324,0.005434280261397362
1789064040007995100,0.8159951171875,-0.1238822340965271,-0.0605294331908226,0.10562986135482788
1789064040018032400,0.826032470703125,-0.1549198031425476,-0.04234083741903305,0.11030992865562439
1789064040028069400,0.8360693359375,-0.137966126203537,-0.02420870214700699,0.06169898808002472
1789064040038106000,0.846106201171875,-0.10184767842292786,-0.055511221289634705,0.09352163225412369
1789064040048143000,0.85614306640625,-0.06146536022424698,-0.02005549520254135,0.07610588520765305
1789064040058180400,0.866180419921875,-0.04673169553279877,-0.05077635496854782,0.049790892750024796
1789064040068217300,0.87621728515625,-0.05458935350179672,-0.03481576591730118,0.07954666018486023
1789064040078254300,0.88625439453125,-0.0631258487701416,0.0016160120721906424,0.04844626411795616
1789064040088291000,0.896291015625,-0.08954174816608429,-0.045440711081027985,0.004390654154121876
1789064040098328000,0.906328125,-0.10660018026828766,-0.026969343423843384,-0.032341860234737396
1789064040108365300,0.916365234375,-0.10948251932859421,-0.015597912482917309,-0.07074224203824997
1789064040118402300,0.92640234375,-0.09963199496269226,-0.04648126661777496,-0.09045959264039993
1789064040128439300,0.936439208984375,-0.07675916701555252,-0.03893999010324478,-0.08891656249761581
1789064040138476000,0.94647607421875,-0.05767822265625,-0.06014862656593323,-0.07637273520231247
1789064040148513300,0.95651318359375,-0.042724575847387314,-0.053339987993240356,-0.06767512112855911
1789064040158550300,0.96655029296875,-0.03331563621759415,0.015439191833138466,-0.07747095823287964
1789064040168587300,0.976587158203125,-0.028748316690325737,-0.002916911384090781,-0.051440685987472534
1789064040178624300,0.986624267578125,-0.009680580347776413,0.01600419171154499,0.014493688941001892
1789064040188661200,0.9966611328125,0.029284130781888962,0.004033016972243786,0.0358319990336895
1789064040198698200,1.0066982421875,0.08448735624551773,0.003383044386282563,0.01843326911330223
1789064040208735200,1.0167353515625,0.12442012876272202,0.03312017023563385,-0.007634815759956837
1789064040218772200,1.026772216796875,0.13449034094810486,0.011587860994040966,-0.01208955142647028
1789064040228809200,1.036809326171875,0.08500934392213821,-0.0034930871333926916,-0.0014931000769138336
1789064040238846200,1.04684619140625,0.03698786720633507,0.0710766464471817,-0.007738180458545685
1789064040248883200,1.05688330078125,0.029578417539596558,0.03242272883653641,0.03306783735752106
1789064040258920200,1.066920166015625,0.09102178364992142,0.014182442799210548,0.11322938650846481
1789064040268957200,1.076957275390625,0.23972603678703308,0.12384715676307678,0.1303018480539322
1789064040278994400,1.086994384765625,0.3762921392917633,0.12894980609416962,0.023936493322253227
1789064040289030400,1.097030517578125,0.3969734311103821,0.16767722368240356,0.01501916442066431
1789064040299067100,1.107067138671875,0.2586270570755005,0.0862731784582138,0.07368893921375275
1789064040309104000,1.117104248046875,0.08083949983119965,0.02008643001317978,-0.007956125773489475
1789064040319141000,1.12714111328125,-0.06613568216562271,-0.0126382727175951,-0.05509857088327408
1789064040329178400,1.137178466796875,-0.10539226979017258,-0.07255593687295914,-0.08316029608249664
1789064040339215400,1.14721533203125,-0.048355795443058014,-0.03753558173775673,-0.1476699858903885
1789064040349252000,1.157252197265625,0.0499153807759285,0.010811442509293556,-0.2034112811088562
1789064040359289000,1.1672890625,0.12729397416114807,0.03724084049463272,-0.14796082675457
1789064040369326000,1.177326171875,0.16616253554821014,0.07073701918125153,-0.09761296957731247
1789064040379363300,1.18736328125,0.16851334273815155,0.17150868475437164,-0.15135928988456726
1789064040389400300,1.197400390625,0.13367493450641632,0.19899410009384155,-0.13042046129703522
1789064040399437300,1.207437255859375,0.09877023845911026,0.1030442863702774,-0.020935842767357826
1789064040409474000,1.21747412109375,0.05538787692785263,0.022358234971761703,0.06008843705058098
1789064040419511300,1.22751123046875,0.014805782586336136,-0.039801567792892456,0.10285850614309311
1789064040429548300,1.23754833984375,-0.01687438227236271,-0.031611017882823944,0.18068033456802368
1789064040439585300,1.247585205078125,-0.024462372064590454,0.037627898156642914,0.2115645408630371
1789064040449622300,1.257622314453125,-0.00545512605458498,0.05096261203289032,0.17112284898757935
1789064040459659300,1.2676591796875,0.04055161401629448,0.12410306185483932,0.12162294238805771
1789064040469696300,1.2776962890625,0.08433984220027924,0.11460596323013306,0.09080377221107483
1789064040479733200,1.287733154296875,0.10337353497743607,0.03623756021261215,0.02458334155380726
1789064040489770200,1.297770263671875,0.08775569498538971,0.05536837503314018,-0.05024802312254906
1789064040499807200,1.30780712890625,0.03196888789534569,0.036659400910139084,-0.06298389285802841
1789064040509844200,1.31784423828125,-0.037372369319200516,-0.028642641380429268,-0.06318442523479462
1789064040519881200,1.327881103515625,-0.07543645054101944,-0.017233029007911682,-0.0874982550740242
1789064040529918200,1.337918212890625,-0.08461903035640717,-0.04190801456570625,-0.08022036403417587
1789064040539955200,1.347955078125,-0.069471076130867,-0.043656133115291595,-0.058043792843818665
1789064040549992400,1.357992431640625,-0.053387440741062164,-0.009720271453261375,-0.03582930192351341
1789064040560029200,1.368029296875,-0.054546818137168884,-0.08173979818820953,-0.002062283456325531
1789064040570066200,1.378066162109375,-0.054499149322509766,-0.041742049157619476,0.026859378442168236
1789064040580102100,1.38810205078125,-0.04041118174791336,-0.025422122329473495,0.035468511283397675
1789064040590139100,1.39813916015625,-0.013919917866587639,-0.01464297715574503,0.0344621017575264
1789064040600176400,1.40817626953125,0.022329367697238922,0.025455385446548462,0.049629971385002136
1789064040610213400,1.41821337890625,0.06085970997810364,0.017766308039426804,0.12210629880428314
1789064040620250000,1.42825,0.10327636450529099,0.07977719604969025,0.14832934737205505
1789064040630287000,1.438287109375,0.12388630956411362,0.06902627646923065,-0.029124528169631958
1789064040640324000,1.448323974609375,0.07430293411016464,-0.007740571163594723,-0.15079081058502197
1789064040650361300,1.458361328125,-0.0032861358486115932,0.007733193226158619,-0.06948503106832504
1789064040660398300,1.4683984375,-0.12061180919408798,0.09024320542812347,-0.0426589772105217
1789064040670435000,1.47843505859375,-0.08293500542640686,0.02132193185389042,-0.23015432059764862
1789064040680472000,1.48847216796875,-0.11656226217746735,-0.38046780228614807,-0.36970680952072144
1789064040690509300,1.49850927734375,0.09814871102571487,0.34938135743141174,-0.5084015727043152
1789064040700545800,1.5085458984375,0.27694204449653625,0.4066329002380371,-0.27235427498817444
1789064040710582800,1.518582763671875,0.2651333212852478,-0.046966537833213806,-0.0487334169447422
1789064040720620000,1.5286201171875,0.153825581073761,0.22755417227745056,0.08463146537542343
1789064040730656800,1.53865673828125,0.07550414651632309,0.24125240743160248,0.16523896157741547
1789064040740693800,1.54869384765625,0.016128821298480034,0.06518686562776566,0.2216886281967163
1789064040750730800,1.558730712890625,0.07847476005554199,0.16692975163459778,0.24925820529460907
1789064040760767700,1.568767822265625,0.14611512422561646,0.056286219507455826,0.3138655424118042
1789064040770805000,1.578804931640625,0.17605677247047424,0.03303815424442291,0.30484700202941895
1789064040780841700,1.588841796875,0.19289757311344147,0.20548680424690247,0.16660240292549133
1789064040790878700,1.598878662109375,0.162465900182724,0.1931326687335968,0.09673622995615005
1789064040800915700,1.608915771484375,0.19355331361293793,0.2377503365278244,0.0671602264046669
1789064040810953000,1.618952880859375,0.2605073153972626,0.325926810503006,-0.048108574002981186
1789064040820990000,1.628989990234375,0.31607893109321594,0.22959986329078674,-0.07480793446302414
1789064040831026700,1.639026611328125,0.327766478061676,0.16710585355758667,-0.06511934846639633
1789064040841063700,1.649063720703125,0.29877665638923645,0.21963712573051453,-0.12145859003067017
1789064040851101000,1.659100830078125,0.20007669925689697,0.1885433793067932,-0.1557595580816269
1789064040861138000,1.669137939453125,0.13876286149024963,0.19289663434028625,-0.1310342699289322
1789064040871174000,1.679173828125,0.12208268791437149,0.19309742748737335,-0.12815140187740326
1789064040881211000,1.6892109375,0.16044588387012482,0.15852127969264984,-0.15332122147083282
1789064040891247900,1.699247802734375,0.22425788640975952,0.16228964924812317,-0.12864649295806885
1789064040901284600,1.70928466796875,0.28003618121147156,0.1999502032995224,-0.06365976482629776
1789064040911321900,1.71932177734375,0.3056102693080902,0.19631339609622955,0.017183147370815277
1789064040921358800,1.72935888671875,0.2962341606616974,0.18551523983478546,0.09470337629318237
1789064040931395800,1.739395751953125,0.28009355068206787,0.2190857082605362,0.10852331668138504
1789064040941432800,1.749432861328125,0.2494773417711258,0.23661360144615173,0.10473819077014923
1789064040951469800,1.7594697265625,0.22094717621803284,0.2013978213071823,0.07989649474620819
1789064040961506800,1.7695068359375,0.21707649528980255,0.18201449513435364,0.0746346265077591
1789064040971543800,1.779543701171875,0.23618414998054504,0.22175444662570953,0.05384945496916771
1789064040981580800,1.789580810546875,0.26141032576560974,0.14259594678878784,0.01736927218735218
1789064040991617800,1.79961767578125,0.30237242579460144,0.2144664227962494,-0.04768749326467514
1789064041001654800,1.80965478515625,0.30595481395721436,0.2172500342130661,-0.03808826208114624
1789064041011691800,1.81969189453125,0.27903318405151367,0.23726023733615875,-0.012050535529851913
1789064041021728800,1.829728759765625,0.2223307341337204,0.20214073359966278,-0.014367054216563702
1789064041031765800,1.839765869140625,0.18787208199501038,0.22815795242786407,-0.0033564805053174496
1789064041041803000,1.849802978515625,0.17026932537555695,0.16039162874221802,0.03711381554603577
1789064041051839700,1.85983984375,0.1883990615606308,0.15336327254772186,0.04027125984430313
1789064041061876700,1.869876708984375,0.19613227248191833,0.1416402906179428,0.01247458066791296
1789064041071913700,1.879913818359375,0.20699316263198853,0.16492004692554474,0.06713569909334183
1789064041081951000,1.889950927734375,0.2098102569580078,0.16472028195858002,0.1463952362537384
1789064041091988000,1.899988037109375,0.23064497113227844,0.19894856214523315,0.11555050313472748
1789064041102024700,1.910024658203125,0.2767288386821747,0.24517399072647095,0.09068423509597778
1789064041112061700,1.920061767578125,0.3184081017971039,0.23062407970428467,0.13692177832126617
1789064041122099000,1.930098876953125,0.36940479278564453,0.26978766918182373,0.14107416570186615
1789064041132136000,1.940135986328125,0.4073886573314667,0.27708899974823,0.1135578602552414
1789064041142173000,1.9501728515625,0.4509548246860504,0.32320481538772583,0.11858074367046356
1789064041152209000,1.960208984375,0.48670321702957153,0.2887808084487915,0.10083530843257904
1789064041162245600,1.97024560546875,0.5392648577690125,0.33753523230552673,0.013883393257856369
1789064041172282600,1.98028271484375,0.5786527395248413,0.3630869388580322,-0.012779909186065197
1789064041182319900,1.99031982421875,0.6182665228843689,0.38692477345466614,-0.027342140674591064
1789064041192356900,2.00035693359375,0.6730722188949585,0.4123068153858185,-0.036853887140750885
1789064041202393900,2.010393798828125,0.7471697330474854,0.45023536682128906,-0.0708162784576416
1789064041212430600,2.0204306640625,0.8237515687942505,0.5010871291160583,-0.13280828297138214
1789064041222467800,2.0304677734375,0.8866584300994873,0.5207526683807373,-0.1219077929854393
1789064041232504800,2.0405048828125,0.9277877807617188,0.49075189232826233,-0.05858474597334862
1789064041242541800,2.050541748046875,0.9406805038452148,0.48836538195610046,-0.03020184487104416
1789064041252578800,2.060578857421875,0.9355746507644653,0.5307902693748474,-0.0406893715262413
1789064041262615800,2.07061572265625,0.902236819267273,0.5505563616752625,-0.031458888202905655
1789064041272652800,2.08065283203125,0.8744823932647705,0.541766881942749,-0.05361372232437134
1789064041282689800,2.090689697265625,0.8661660552024841,0.5255022048950195,-0.017753692343831062
1789064041292726800,2.100726806640625,0.8597827553749084,0.4577961564064026,-0.016913997009396553
1789064041302763800,2.110763671875,0.8053207397460938,0.44211646914482117,-0.03950938954949379
1789064041312800800,2.12080078125,0.7223361134529114,0.42694443464279175,-0.02921520359814167
1789064041322837800,2.130837646484375,0.5984776020050049,0.3717097043991089,0.013092700392007828
1789064041332874800,2.140874755859375,0.4489717185497284,0.29311051964759827,0.05186060443520546
1789064041342911700,2.150911865234375,0.330146849155426,0.3239074945449829,0.07099245488643646
1789064041352949000,2.160948974609375,0.2245895266532898,0.2236407846212387,0.05291544646024704
1789064041362985700,2.17098583984375,0.1819482445716858,0.28858765959739685,0.05350653827190399
1789064041373022700,2.181022705078125,0.13523267209529877,0.15580618381500244,0.03381778299808502
1789064041383059700,2.191059814453125,0.09577872604131699,0.2243066430091858,0.003552159294486046
1789064041393097000,2.201096923828125,0.031861528754234314,0.13243931531906128,0.03210657089948654
1789064041403134000,2.211134033203125,-0.016043955460190773,0.17603377997875214,0.04496784508228302
1789064041413170000,2.221169921875,-0.06683549284934998,0.15363605320453644,0.04461231082677841
1789064041423207000,2.23120703125,-0.09803363680839539,0.16253487765789032,0.024337470531463623
1789064041433243600,2.24124365234375,-0.10775470733642578,0.1974417269229889,0.05819796398282051
1789064041443280600,2.25128076171875,-0.11890009790658951,0.10664695501327515,0.07495110481977463
1789064041453318000,2.26131787109375,-0.11271198093891144,0.10245966911315918,0.052616506814956665
1789064041463355000,2.27135498046875,-0.07578299939632416,0.16196493804454803,0.017524899914860725
1789064041473391900,2.281391845703125,-0.04739131033420563,0.13427072763442993,-0.003348955884575844
1789064041483428600,2.2914287109375,-0.03214481472969055,0.11141234636306763,0.036845602095127106
1789064041493465900,2.3014658203125,-0.03831615671515465,0.11338202655315399,0.026959683746099472
1789064041503502800,2.3115029296875,-0.08453687280416489,0.17438866198062897,-0.026914967224001884
1789064041513539800,2.321539794921875,-0.13944032788276672,0.11543986946344376,-0.004625639878213406
1789064041523576800,2.331576904296875,-0.1957840472459793,0.08264011144638062,0.02468147873878479
1789064041533613800,2.34161376953125,-0.2290213704109192,0.055978674441576004,-0.021487880498170853
1789064041543650800,2.35165087890625,-0.2848430871963501,-0.08296722918748856,0.08461485058069229
1789064041553687800,2.361687744140625,-0.30749592185020447,-0.03257516026496887,0.07985924184322357
1789064041563724800,2.371724853515625,-0.33843794465065,-0.003345537232235074,0.01749959960579872
1789064041573761800,2.38176171875,-0.3629467785358429,-0.0730212852358818,0.06879501044750214
1789064041583798800,2.391798828125,-0.372236967086792,-0.07911491394042969,0.049021847546100616
1789064041593835800,2.401835693359375,-0.3942967355251312,-0.016218509525060654,-0.01769033819437027
1789064041603872800,2.411872802734375,-0.4567195773124695,-0.10972443968057632,-0.023288941010832787
1789064041613909800,2.42190966796875,-0.533284068107605,-0.11561083048582077,0.02904190868139267
1789064041623947000,2.431947021484375,-0.635573148727417,-0.1582469642162323,-0.006823415402323008
1789064041633983700,2.441983642578125,-0.7290760278701782,-0.20600757002830505,0.039414387196302414
1789064041644020700,2.452020751953125,-0.79021155834198,-0.22702114284038544,0.07671598345041275
1789064041654057700,2.4620576171875,-0.7926411628723145,-0.1574109047651291,0.033196739852428436
1789064041664093700,2.47209375,-0.7355438470840454,-0.2536090612411499,0.12414984405040741
1789064041674131000,2.482130859375,-0.6301023960113525,-0.16274307668209076,0.09514482319355011
1789064041684168000,2.49216796875,-0.5633355975151062,-0.23546163737773895,0.11556395143270493
1789064041694205000,2.502204833984375,-0.5058661699295044,-0.189766064286232,0.11528778076171875
1789064041704241200,2.5122412109375,-0.47923004627227783,-0.15584057569503784,0.029914390295743942
1789064041714278100,2.522278076171875,-0.4744606018066406,-0.11640503257513046,0.037145137786865234
1789064041724315400,2.5323154296875,-0.4284855127334595,-0.09444320201873779,-0.0011883017141371965
1789064041734352400,2.542352294921875,-0.34637197852134705,-0.06085275113582611,-0.027642546221613884
1789064041744389400,2.552389404296875,-0.20133967697620392,-0.01902606151998043,-0.0695137307047844
1789064041754426400,2.56242626953125,-0.017617782577872276,0.018700011074543,-0.09976750612258911
1789064041764463400,2.57246337890625,0.1469288021326065,0.029096996411681175,-0.08001288026571274
1789064041774500400,2.582500244140625,0.2865804433822632,0.11526890099048615,-0.08420948684215546
1789064041784537300,2.592537353515625,0.3488342761993408,0.1765475571155548,-0.04240917041897774
1789064041794574300,2.60257421875,0.38152697682380676,0.2620547413825989,-0.001290760701522231
1789064041804611300,2.612611328125,0.4040789306163788,0.2617068290710449,0.06481631845235825
1789064041814648300,2.6226484375,0.460999995470047,0.2963489592075348,0.1355714499950409
1789064041824685300,2.632685302734375,0.5433115363121033,0.30769261717796326,0.1464516818523407
1789064041834722300,2.642722412109375,0.652044951915741,0.365725040435791,0.1099458858370781
1789064041844759300,2.65275927734375,0.7550244331359863,0.42215201258659363,0.12032708525657654
1789064041854796300,2.66279638671875,0.8349429965019226,0.4481649696826935,0.08627137541770935
1789064041864833300,2.672833251953125,0.8646296858787537,0.4267341196537018,0.04166888818144798
1789064041874870300,2.682870361328125,0.8580173254013062,0.5244380235671997,-0.04828310385346413
1789064041884907300,2.6929072265625,0.792026698589325,0.5243312120437622,0.0013825471978634596
1789064041894944500,2.702944580078125,0.6815441250801086,0.39599210023880005,-0.036232735961675644
1789064041904981200,2.712981201171875,0.5980212688446045,0.4499003291130066,-0.14423297345638275
1789064041915017500,2.723017578125,0.5559148192405701,0.5057231187820435,-0.1676645278930664
1789064041925054200,2.73305419921875,0.5660839080810547,0.3425530195236206,-0.12229478359222412
1789064041935091200,2.74309130859375,0.5782929062843323,0.23601937294006348,-0.07775874435901642
1789064041945128200,2.753128173828125,0.563393771648407,-0.00765460729598999,-0.20989620685577393
1789064041955165400,2.76316552734375,0.7362943887710571,0.23657085001468658,-0.43942686915397644
1789064041965202400,2.773202392578125,0.6184240579605103,0.7585574984550476,-0.4028196334838867
1789064041975239200,2.7832392578125,0.17797261476516724,0.35721778869628906,-0.16138489544391632
1789064041985276200,2.793276123046875,-0.036766406148672104,0.4176185131072998,-0.015173690393567085
1789064041995313400,2.8033134765625,-0.14071597158908844,0.07484358549118042,0.18266561627388
1789064042005350400,2.813350341796875,-0.07382496446371078,0.0805959478020668,0.22378738224506378
1789064042015387400,2.823387451171875,0.10726013779640198,0.19773587584495544,0.18597716093063354
1789064042025424100,2.833424072265625,0.2207387089729309,0.1582246720790863,0.36153218150138855
1789064042035461400,2.84346142578125,0.1854904443025589,0.14337702095508575,0.5421832203865051
1789064042045498400,2.853498291015625,0.005709516815841198,0.1041189432144165,0.4869081974029541
1789064042055535400,2.863535400390625,-0.14697615802288055,0.22096779942512512,0.423818439245224
1789064042065572400,2.873572265625,-0.2862735390663147,0.10077778249979019,0.4082989990711212
1789064042075609000,2.883609130859375,-0.34403297305107117,0.06361044198274612,0.2512100636959076
1789064042085646300,2.893646240234375,-0.3342163562774658,-0.0020864217076450586,-0.001697129337117076
1789064042095683300,2.903683349609375,-0.30612507462501526,-0.017505858093500137,-0.16667810082435608
1789064042105720300,2.91372021484375,-0.30604252219200134,-0.0013097471091896296,-0.2771369218826294
1789064042115757300,2.92375732421875,-0.30104565620422363,0.09884561598300934,-0.4367026090621948
1789064042125794300,2.933794189453125,-0.30348971486091614,0.1720144897699356,-0.4502551853656769
1789064042135831300,2.943831298828125,-0.29926595091819763,0.1317027509212494,-0.36951664090156555
1789064042145868300,2.953868408203125,-0.29880326986312866,0.12022627145051956,-0.3351927697658539
1789064042155905300,2.9639052734375,-0.2954402267932892,0.08706831932067871,-0.21693776547908783
1789064042165941200,2.973941162109375,-0.3063086271286011,-0.06296340376138687,-0.03750615194439888
1789064042175978500,2.983978515625,-0.33310455083847046,-0.041487935930490494,0.10437348484992981
1789064042186015500,2.994015380859375,-0.34771549701690674,-0.0007393220439553261,0.16851943731307983
1789064042196052200,3.00405224609375,-0.33447879552841187,0.05341446027159691,0.24862518906593323
1789064042206089200,3.014089111328125,-0.28389203548431396,0.09570025652647018,0.3341718316078186
1789064042216126200,3.024126220703125,-0.21107962727546692,0.07270119339227676,0.3263576030731201
1789064042226163500,3.03416357421875,-0.1449739784002304,0.10534312576055527,0.2644426226615906
1789064042236200400,3.044200439453125,-0.11450688540935516,0.09003128111362457,0.2284175306558609
1789064042246237200,3.0542373046875,-0.12515847384929657,0.007749407552182674,0.18746280670166016
1789064042256274200,3.064274169921875,-0.14436332881450653,0.02521575056016445,0.06118237227201462
1789064042266311400,3.0743115234375,-0.1620483249425888,0.06793580949306488,-0.06702650338411331
1789064042276348400,3.084348388671875,-0.16746093332767487,0.09465264528989792,-0.1275271326303482
1789064042286385400,3.094385498046875,-0.13751041889190674,0.15775291621685028,-0.1358782798051834
1789064042296422100,3.104422119140625,-0.09920138865709305,0.1408572942018509,-0.09122903645038605
1789064042306459400,3.11445947265625,-0.061929162591695786,0.1522446870803833,-0.07794816046953201
1789064042316496400,3.124496337890625,-0.04729269817471504,0.13766467571258545,-0.1072155013680458
1789064042326533400,3.134533447265625,-0.041841454803943634,0.11554262042045593,-0.11225859820842743
1789064042336570400,3.1445703125,-0.05996985733509064,0.04730577394366264,-0.10288293659687042
1789064042346607000,3.154607177734375,-0.1213216707110405,-0.0027687211986631155,-0.061641860753297806
1789064042356644400,3.164644287109375,-0.2033454328775406,-0.019213207066059113,-0.05096018686890602
1789064042366681300,3.174681396484375,-0.2879209518432617,0.008729353547096252,-0.042785875499248505
1789064042376718300,3.18471826171875,-0.3455222249031067,-0.019364599138498306,0.021674076095223427
1789064042386755300,3.19475537109375,-0.35851362347602844,0.01893487572669983,0.05979592725634575
1789064042396792300,3.204792236328125,-0.32963988184928894,-0.040490634739398956,0.07579246908426285
1789064042406828300,3.214828369140625,-0.2990659177303314,-0.0266014002263546,0.0592053048312664
1789064042416865300,3.224865234375,-0.3080277144908905,-0.029845930635929108,0.022559942677617073
1789064042426902300,3.23490234375,-0.35159987211227417,-0.08381738513708115,0.09281665831804276
1789064042436939300,3.244939208984375,-0.41741350293159485,-0.13713492453098297,0.08207453042268753
1789064042446976500,3.2549765625,-0.46415555477142334,-0.05681217834353447,-0.022951718419790268
1789064042457013200,3.26501318359375,-0.49301356077194214,0.02623743563890457,-0.027326228097081184
1789064042467050200,3.27505029296875,-0.49812451004981995,-0.22771605849266052,0.0717405453324318
1789064042477087200,3.285087158203125,-0.4801095426082611,-0.18709753453731537,0.0019212450133636594
1789064042487124200,3.295124267578125,-0.4709939956665039,-0.07979431748390198,-0.07087679952383041
1789064042497161500,3.305161376953125,-0.5084806680679321,-0.06398738920688629,-0.04773712530732155
1789064042507198200,3.3151982421875,-0.5645878911018372,-0.21539102494716644,0.047548647969961166
1789064042517235200,3.325235107421875,-0.5761616826057434,-0.17585347592830658,0.06450499594211578
1789064042527272200,3.335272216796875,-0.5548667907714844,-0.17221929132938385,-0.020135726779699326
1789064042537309400,3.345309326171875,-0.5323649644851685,-0.17171062529087067,0.0025179199874401093
1789064042547346400,3.355346435546875,-0.5347301959991455,-0.19238494336605072,0.04565687105059624
1789064042557383400,3.365383544921875,-0.5619431734085083,-0.19222675263881683,0.06302174925804138
1789064042567420200,3.375420166015625,-0.6021425127983093,-0.2537166178226471,0.08246022462844849
1789064042577457400,3.38545751953125,-0.6117982864379883,-0.1993204951286316,0.03540909290313721
1789064042587494400,3.395494384765625,-0.6163800954818726,-0.28756409883499146,0.0804029032588005
1789064042597531400,3.405531494140625,-0.6043388843536377,-0.3342120349407196,0.06521489471197128
1789064042607568400,3.415568359375,-0.6156866550445557,-0.3365580439567566,-0.008760029450058937
1789064042617605000,3.425605224609375,-0.6473380327224731,-0.32410934567451477,-0.011455681174993515
1789064042627642400,3.435642333984375,-0.6867324113845825,-0.31219467520713806,-0.022649450227618217
1789064042637679400,3.445679443359375,-0.6998173594474792,-0.2904265224933624,-0.09246128797531128
1789064042647715300,3.45571533203125,-0.6678131818771362,-0.2920268774032593,-0.11536187678575516
1789064042657752300,3.46575244140625,-0.5968787670135498,-0.2702890932559967,-0.09617699682712555
1789064042667789300,3.475789306640625,-0.5308383107185364,-0.3267589211463928,-0.055327169597148895
1789064042677826300,3.485826416015625,-0.49091729521751404,-0.3668842315673828,-0.02863137610256672
1789064042687863300,3.49586328125,-0.45588475465774536,-0.27428802847862244,0.02543439157307148
1789064042697900300,3.505900390625,-0.45563414692878723,-0.29520928859710693,0.1320444643497467
1789064042707938000,3.51593798828125,-0.4382418394088745,-0.267789363861084,0.13228346407413483
1789064042717974800,3.525974853515625,-0.3879363238811493,-0.18255329132080078,0.0988277792930603
1789064042728011800,3.53601171875,-0.3204633295536041,-0.2115536779165268,0.1498180329799652
1789064042738049000,3.546049072265625,-0.25136467814445496,-0.22386972606182098,0.12100422382354736
1789064042748086000,3.5560859375,-0.19301928579807281,-0.2446303814649582,0.09221725165843964
1789064042758123000,3.566123046875,-0.14509649574756622,-0.17830248177051544,0.02124081552028656
1789064042768159700,3.57615966796875,-0.1169767826795578,-0.16101540625095367,-0.002611724892631173
1789064042778197000,3.586197021484375,-0.11076495796442032,-0.16137386858463287,-0.00787706021219492
1789064042788234000,3.59623388671875,-0.12017317116260529,-0.14701107144355774,-0.06574910879135132
1789064042798271000,3.60627099609375,-0.12684811651706696,-0.19041499495506287,-0.04745905473828316
1789064042808308000,3.616307861328125,-0.1068631112575531,-0.1662938892841339,-0.08095023781061172
1789064042818344700,3.6263447265625,-0.07753051817417145,-0.1661817729473114,-0.0722813829779625
1789064042828382000,3.6363818359375,-0.04890260845422745,-0.18322201073169708,-0.019390473142266273
1789064042838419000,3.6464189453125,-0.03268475458025932,-0.1696619838476181,0.027047865092754364
1789064042848456000,3.6564560546875,-0.05372568219900131,-0.2046557068824768,0.06601384282112122
1789064042858493000,3.666492919921875,-0.053066547960042953,-0.1385059803724289,0.04389149323105812
1789064042868530000,3.676530029296875,-0.07911352068185806,-0.20353981852531433,0.10127189755439758
1789064042878567000,3.68656689453125,-0.07608471065759659,-0.15492859482765198,0.05509375408291817
1789064042888604000,3.69660400390625,-0.08310496807098389,-0.17959433794021606,0.049040649086236954
1789064042898640000,3.706639892578125,-0.08874261379241943,-0.1957823634147644,0.062282416969537735
1789064042908676900,3.7166767578125,-0.08153870701789856,-0.19595876336097717,-0.008956908248364925
1789064042918714000,3.726714111328125,-0.08008675277233124,-0.20720796287059784,0.02318158745765686
1789064042928751000,3.736751220703125,-0.06970041990280151,-0.18155410885810852,-0.008269348181784153
1789064042938787800,3.746787841796875,-0.07153826206922531,-0.2267623394727707,0.033686891198158264
1789064042948824800,3.756824951171875,-0.07580482959747314,-0.1891893893480301,0.044289980083703995
1789064042958861800,3.76686181640625,-0.09680891782045364,-0.22217689454555511,0.04919498786330223
1789064042968899000,3.776899169921875,-0.12723228335380554,-0.2283599078655243,0.07046394795179367
1789064042978936000,3.78693603515625,-0.15203775465488434,-0.1290178745985031,0.025607798248529434
1789064042988972800,3.796972900390625,-0.18114084005355835,-0.19938619434833527,0.06282360851764679
1789064042999009800,3.807009765625,-0.167925164103508,-0.2462783306837082,0.06343746185302734
1789064043009047000,3.817047119140625,-0.12611766159534454,-0.24225768446922302,0.0336487740278244
1789064043019084000,3.827083984375,-0.09897126257419586,-0.22867423295974731,0.031385086476802826
1789064043029121000,3.83712109375,-0.12428447604179382,-0.25443241000175476,0.02239202708005905
1789064043039157800,3.84715771484375,-0.18268173933029175,-0.2720867693424225,0.06611926853656769
1789064043049195000,3.857195068359375,-0.20047882199287415,-0.269178181886673,0.03534680977463722
1789064043059232000,3.86723193359375,-0.17330418527126312,-0.23616750538349152,0.028272919356822968
1789064043069269000,3.87726904296875,-0.11839470267295837,-0.2123960703611374,0.046129949390888214
1789064043079306000,3.887305908203125,-0.08075039088726044,-0.21995916962623596,0.018253842368721962
1789064043089342700,3.8973427734375,-0.052776116877794266,-0.23695243895053864,0.012131198309361935
1789064043099380000,3.9073798828125,-0.0018538160948082805,-0.15619899332523346,-0.04375150799751282
1789064043109417000,3.9174169921875,0.03628216311335564,-0.19379960000514984,0.014340324327349663
1789064043119454000,3.927453857421875,0.047522034496068954,-0.15915293991565704,0.018441326916217804
1789064043129491000,3.937490966796875,0.02239055372774601,-0.1593315601348877,0.02903372049331665
1789064043139528000,3.94752783203125,-0.016015956178307533,-0.14969171583652496,0.0331251323223114
1789064043149564000,3.95756396484375,-0.011173446662724018,-0.11336016654968262,-0.003912908956408501
1789064043159601000,3.967600830078125,0.006348821334540844,-0.19459164142608643,0.03654077276587486
1789064043169638000,3.977637939453125,0.0758357122540474,-0.15740393102169037,-0.0005694122519344091
1789064043179675000,3.9876748046875,0.13468199968338013,-0.16424240171909332,0.02646486833691597
1789064043189712100,3.997712158203125,0.15538105368614197,-0.10613052546977997,0.016339927911758423
1789064043199749000,4.0077490234375,0.13882924616336823,-0.08601247519254684,-0.013861916959285736
1789064043209785900,4.017785888671875,0.10680806636810303,-0.07626204192638397,0.004731840454041958
1789064043219822800,4.02782275390625,0.10711219906806946,-0.09284954518079758,0.004848220385611057
1789064043229859800,4.03785986328125,0.12380770593881607,-0.1385461390018463,0.06614900380373001
1789064043239897000,4.04789697265625,0.17551352083683014,-0.07805855572223663,0.0028344797901809216
1789064043249934000,4.05793408203125,0.22499842941761017,-0.07037457078695297,0.03765697032213211
1789064043259970800,4.067970703125,0.2869323790073395,0.03619341924786568,0.006359234917908907
1789064043270007800,4.0780078125,0.3451773524284363,-0.011569816619157791,0.00766341807320714
1789064043280045000,4.088045166015625,0.42288410663604736,0.09183912724256516,-0.009218892082571983
1789064043290082000,4.09808203125,0.4918443560600281,0.10561610013246536,-0.015018855221569538
1789064043300119000,4.108119140625,0.5000436902046204,0.09511285275220871,0.00542809534817934
1789064043310155800,4.11815576171875,0.4905470013618469,0.09065985679626465,-0.004973750561475754
1789064043320193000,4.128193115234375,0.45228269696235657,0.030659904703497887,0.06390278041362762
1789064043330230000,4.13822998046875,0.4455099403858185,0.09695418924093246,0.030829891562461853
1789064043340267000,4.14826708984375,0.4329347610473633,0.08345648646354675,0.03223071247339249
1789064043350304000,4.158303955078125,0.4135115444660187,0.15122675895690918,-0.01942715421319008
1789064043360340700,4.1683408203125,0.39259907603263855,0.16058111190795898,-0.08609220385551453
1789064043370378000,4.1783779296875,0.3663487732410431,0.11415155231952667,-0.040159404277801514
1789064043380415000,4.1884150390625,0.3797452747821808,0.07859435677528381,-0.0519084706902504
1789064043390451000,4.198450927734375,0.37419435381889343,0.04745808243751526,-0.04842222481966019
1789064043400488000,4.208488037109375,0.36706027388572693,0.04862401261925697,-0.04752766713500023
1789064043410525000,4.21852490234375,0.30863261222839355,0.04976917430758476,-0.028368521481752396
1789064043420562000,4.22856201171875,0.2437945008277893,0.136167973279953,-0.0638657957315445
1789064043430599000,4.238598876953125,0.17865943908691406,0.0832284465432167,-0.023160111159086227
1789064043440636000,4.248635986328125,0.16586880385875702,0.0822145864367485,0.03231380134820938
1789064043450673000,4.2586728515625,0.19049836695194244,-0.007515250705182552,0.060120102018117905
1789064043460710100,4.268710205078125,0.2261599600315094,0.0660463199019432,0.034920740872621536
1789064043470747000,4.278746826171875,0.25833556056022644,0.08713901042938232,0.018400616943836212
1789064043480784000,4.288783935546875,0.24603310227394104,0.10127187520265579,0.07679788023233414
1789064043490820900,4.29882080078125,0.23285676538944244,0.10504473000764847,0.08326876163482666
1789064043500857900,4.30885791015625,0.2046048790216446,0.15973833203315735,0.033480700105428696
1789064043510895000,4.31889501953125,0.2103084921836853,0.14555682241916656,-0.04264029860496521
1789064043520931800,4.328931884765625,0.21637117862701416,0.0939149484038353,-0.034617796540260315
1789064043530968800,4.33896875,0.2518690228462219,0.1268395036458969,-0.08553240448236465
1789064043541005800,4.349005859375,0.23078081011772156,0.06503951549530029,-0.051063112914562225
1789064043551043000,4.35904296875,0.21876659989356995,0.15519769489765167,-0.15763352811336517
1789064043561080000,4.369080078125,0.20179720222949982,0.16346095502376556,-0.11015522480010986
1789064043571116800,4.37911669921875,0.23998454213142395,0.21632549166679382,-0.12336423993110657
1789064043581153800,4.38915380859375,0.2667011022567749,0.09778712689876556,-0.020633334293961525
1789064043591191000,4.39919091796875,0.29767629504203796,0.1739794760942459,-0.05145645886659622
1789064043601228000,4.40922802734375,0.28084057569503784,0.14250463247299194,-0.02321656607091427
1789064043611265000,4.41926513671875,0.25007733702659607,0.1720505654811859,0.009670938365161419
1789064043621302000,4.429302001953125,0.20309039950370789,0.16495883464813232,0.05272706225514412
1789064043631338800,4.4393388671875,0.1893673837184906,0.23359529674053192,0.0347566157579422
1789064043641376000,4.4493759765625,0.19813743233680725,0.1855316311120987,0.04011063277721405
1789064043651412000,4.459411865234375,0.23778516054153442,0.2309861183166504,0.0007818426238372922
1789064043661449000,4.469448974609375,0.24490831792354584,0.14433377981185913,0.02844196744263172
1789064043671486000,4.47948583984375,0.2129766196012497,0.16824999451637268,0.03290066123008728
1789064043681523000,4.48952294921875,0.14154557883739471,0.1271859109401703,0.05014516040682793
1789064043691560000,4.499559814453125,0.06654972583055496,0.20088905096054077,0.02685754932463169
1789064043701597200,4.50959716796875,0.0035696926061064005,0.15215587615966797,0.05045608431100845
1789064043711634200,4.51963427734375,-0.01564415916800499,0.1379036158323288,0.05930733680725098
1789064043721671400,4.52967138671875,-0.020004021003842354,0.11930595338344574,0.007518704514950514
1789064043731708400,4.53970849609375,-0.03072373941540718,0.10536845028400421,0.0020364222582429647
1789064043741745200,4.5497451171875,-0.06536214798688889,0.11657742410898209,-0.0092351408675313
1789064043751782100,4.5597822265625,-0.10728861391544342,0.10893557965755463,-0.019272292032837868
1789064043761819100,4.569819091796875,-0.12939363718032837,0.10712622851133347,-0.021964214742183685
1789064043771856400,4.5798564453125,-0.11582382023334503,0.12082275003194809,-0.056313272565603256
1789064043781893400,4.589893310546875,-0.10677706450223923,0.08569832146167755,0.003998536616563797
1789064043791930000,4.59993017578125,-0.11778491735458374,0.08416726440191269,0.018012426793575287
1789064043801967000,4.609967041015625,-0.16439130902290344,0.09069094806909561,0.027855737134814262
1789064043812004400,4.62000439453125,-0.19438967108726501,0.07798302173614502,0.08484944701194763
1789064043822041300,4.630041259765625,-0.2007615566253662,0.0779595822095871,0.038359176367521286
1789064043832078300,4.640078369140625,-0.16103088855743408,0.14160220324993134,-0.0065524703823029995
1789064043842115000,4.650114990234375,-0.13392630219459534,0.052070192992687225,0.03749062120914459
1789064043852152300,4.66015234375,-0.10964252799749374,0.10344484448432922,-0.023425528779625893
1789064043862189300,4.670189208984375,-0.13757029175758362,0.06225666403770447,-0.017322096973657608
1789064043872226300,4.680226318359375,-0.1954505294561386,0.10188457369804382,0.0028632646426558495
1789064043882263300,4.69026318359375,-0.26374995708465576,0.01576806791126728,-0.013340738601982594
1789064043892299300,4.70029931640625,-0.29678040742874146,0.05614526569843292,-0.01575639098882675
1789064043902336000,4.7103359375,-0.2843325436115265,-0.05866387486457825,0.028199348598718643
1789064043912373200,4.720373291015625,-0.2682836651802063,-0.02149742655456066,0.04995368793606758
1789064043922410200,4.73041015625,-0.25716257095336914,-0.030828343704342842,-0.01811165176331997
1789064043932447200,4.740447265625,-0.23939231038093567,0.0668596476316452,-0.00468862522393465
1789064043942484200,4.750484130859375,-0.21931926906108856,0.04377563297748566,-0.024711335077881813
1789064043952521200,4.760521240234375,-0.19117845594882965,0.12516692280769348,-0.08727354556322098
1789064043962558200,4.77055810546875,-0.1767513006925583,0.05592607334256172,-0.06419485807418823
1789064043972595200,4.78059521484375,-0.18014442920684814,0.01797185279428959,-0.005935182329267263
1789064043982632200,4.790632080078125,-0.20303110778331757,0.00393220130354166,-0.012047936208546162
1789064043992669400,4.80066943359375,-0.25621965527534485,-0.035136301070451736,0.10968312621116638
1789064044002706200,4.8107060546875,-0.2886926233768463,-0.06416928023099899,0.10750439018011093
1789064044012743200,4.8207431640625,-0.2840341329574585,-0.00461230892688036,0.09606412053108215
1789064044022780200,4.8307802734375,-0.2460087239742279,-0.032346468418836594,0.06296555697917938
1789064044032817200,4.840817138671875,-0.19402047991752625,0.02707233652472496,0.005086307413876057
1789064044042854400,4.8508544921875,-0.1713244915008545,0.004637866280972958,0.0013405712088569999
1789064044052891100,4.86089111328125,-0.21103231608867645,-0.049019429832696915,0.00992900226265192
1789064044062928100,4.87092822265625,-0.2869339883327484,-0.042107194662094116,-0.06648747622966766
1789064044072965000,4.880965087890625,-0.3474094867706299,-0.023571789264678955,-0.09429903328418732
1789064044083002400,4.89100244140625,-0.35872682929039,-0.09633494168519974,-0.06755610555410385
1789064044093039400,4.901039306640625,-0.3385215699672699,-0.1395510733127594,-0.012567183002829552
1789064044103076000,4.911076171875,-0.3353121876716614,-0.20491677522659302,0.004314594902098179
1789064044113113000,4.921113037109375,-0.3488333225250244,-0.18918681144714355,-0.03735348954796791
1789064044123150300,4.931150390625,-0.362514466047287,-0.10337331146001816,-0.0656898021697998
1789064044133187300,4.941187255859375,-0.37794414162635803,-0.13189448416233063,0.0259481780230999
1789064044143224300,4.951224365234375,-0.38059160113334656,-0.1779344230890274,0.06349262595176697
1789064044153260300,4.96126025390625,-0.36854317784309387,-0.13365577161312103,0.058523133397102356
1789064044163297300,4.97129736328125,-0.35361427068710327,-0.16160911321640015,0.032951463013887405
1789064044173334000,4.981333984375,-0.32577309012413025,-0.20653320848941803,0.04699321463704109
1789064044183371300,4.991371337890625,-0.2991851568222046,-0.20661389827728271,0.06065123528242111
1789064044193408300,5.001408203125,-0.2929990291595459,-0.2335406094789505,0.06882064044475555
1789064044203445200,5.0114453125,-0.3212924301624298,-0.23082605004310608,-0.003015729598701
1789064044213482200,5.021482177734375,-0.345680832862854,-0.1416378766298294,-0.06877153366804123
1789064044223519200,5.031519287109375,-0.38224950432777405,-0.1420551836490631,-0.053773410618305206
1789064044233556200,5.04155615234375,-0.4067721962928772,-0.2355831414461136,0.0068143317475914955
1789064044243593200,5.05159326171875,-0.4125525653362274,-0.25747430324554443,-0.039567284286022186
1789064044253630200,5.061630126953125,-0.395835816860199,-0.26053279638290405,-0.03857911378145218
1789064044263667500,5.07166748046875,-0.37492603063583374,-0.21964047849178314,-0.005934352520853281
1789064044273704200,5.0817041015625,-0.35529378056526184,-0.3060317039489746,0.07307913899421692
1789064044283741200,5.0917412109375,-0.3444986641407013,-0.24332411587238312,0.07515028119087219
1789064044293778200,5.101778076171875,-0.33927565813064575,-0.24244873225688934,0.08489052951335907
1789064044303815200,5.111815185546875,-0.32353106141090393,-0.19564208388328552,0.06638475507497787
1789064044313852400,5.121852294921875,-0.2934168577194214,-0.2425643503665924,0.0399448536336422
1789064044323889200,5.13188916015625,-0.2539626657962799,-0.23945564031600952,0.06800125539302826
1789064044333926100,5.141926025390625,-0.2224024534225464,-0.27398398518562317,0.06402036547660828
1789064044343963100,5.151963134765625,-0.20983925461769104,-0.20787261426448822,0.02036209963262081
1789064044354000400,5.16200048828125,-0.20511026680469513,-0.20593726634979248,-0.015396298840641975
1789064044364037400,5.172037353515625,-0.17235444486141205,-0.16373148560523987,-0.013954197987914085
1789064044374074000,5.18207421875,-0.12690997123718262,-0.1755087822675705,-0.014135122299194336
1789064044384111000,5.192111083984375,-0.06492330133914948,-0.1988905370235443,-0.0067003765143454075
1789064044394148000,5.202148193359375,-0.020240653306245804,-0.15019239485263824,-0.03014092519879341
1789064044404185300,5.212185302734375,0.015804165974259377,-0.16465282440185547,-0.010394117794930935
1789064044414221300,5.22222119140625,0.03798772767186165,-0.17732074856758118,-0.002839526394382119
1789064044424258300,5.23225830078125,0.09810299426317215,-0.15832681953907013,-0.032390229403972626
1789064044434295300,5.24229541015625,0.18391001224517822,-0.06413613259792328,-0.02470185048878193
1789064044444332000,5.25233203125,0.27372297644615173,-0.07355200499296188,0.01206175610423088
1789064044454369300,5.262369384765625,0.3473166823387146,-0.0024058260023593903,0.014242219738662243
1789064044464406300,5.27240625,0.37232351303100586,-0.06623593717813492,0.04535726457834244
1789064044474443300,5.282443359375,0.3935151696205139,-0.007997645065188408,0.03653227910399437
1789064044484480300,5.292480224609375,0.4100611209869385,-0.028153514489531517,0.02245640754699707
1789064044494517200,5.302517333984375,0.42292165756225586,-0.029391570016741753,-0.013354084454476833
1789064044504554200,5.31255419921875,0.4433661997318268,-0.027368366718292236,-0.02341390959918499
1789064044514591200,5.32259130859375,0.4504960775375366,0.050515562295913696,-0.022393755614757538
1789064044524628200,5.332628173828125,0.4455287456512451,0.00932232104241848,-0.03532100468873978
1789064044534665500,5.34266552734375,0.4645174741744995,0.06601133197546005,-0.06762485206127167
1789064044544702200,5.3527021484375,0.4948785603046417,-0.03543805703520775,-0.02657621167600155
1789064044554739200,5.3627392578125,0.5295010209083557,0.017830245196819305,-0.0639113038778305
1789064044564776200,5.372776123046875,0.5426703691482544,0.010005878284573555,-0.07669740170240402
1789064044574813200,5.382813232421875,0.5459394454956055,0.068505197763443,-0.01857960969209671
1789064044584850400,5.392850341796875,0.5051262378692627,0.01148238591849804,0.051792025566101074
1789064044594887200,5.40288720703125,0.4770203232765198,0.09854446351528168,0.027423234656453133
1789064044604924200,5.412924072265625,0.46710723638534546,0.07064971327781677,0.05451371148228645
1789064044614961200,5.422961181640625,0.4897468090057373,0.08470028638839722,0.06557664275169373
1789064044624998400,5.432998291015625,0.5095452666282654,0.09501098096370697,0.07532861083745956
1789064044635035400,5.443035400390625,0.4912525415420532,0.012735551223158836,0.07174649089574814
1789064044645072100,5.453072021484375,0.43607184290885925,0.03319182246923447,0.06908119469881058
1789064044655109000,5.463109130859375,0.3816693127155304,-0.0056184218265116215,0.06593866646289825
1789064044665146000,5.47314599609375,0.35861992835998535,0.08520123362541199,0.031237946823239326
1789064044675183400,5.483183349609375,0.3560825288295746,0.0939120352268219,0.012528711929917336
1789064044685219300,5.49321923828125,0.3597062826156616,0.08524877578020096,0.01971658319234848
1789064044695256300,5.50325634765625,0.3453940451145172,0.04066886752843857,0.012213855981826782
1789064044705292800,5.513292724609375,0.34435567259788513,0.11642327904701233,-0.06868419051170349
1789064044715329500,5.52332958984375,0.31376248598098755,0.04361051693558693,-0.0788203775882721
1789064044725366800,5.53336669921875,0.29387161135673523,0.018866287544369698,-0.09790405631065369
1789064044735403800,5.54340380859375,0.2696816623210907,0.007544827181845903,-0.09561733156442642
1789064044745440800,5.553440673828125,0.26153719425201416,0.027316134423017502,-0.055248603224754333
1789064044755477800,5.563477783203125,0.253673791885376,0.05262209475040436,-0.014537826180458069
1789064044765514500,5.573514404296875,0.2732136845588684,0.02972503751516342,0.03667768836021423
1789064044775551700,5.5835517578125,0.30338940024375916,0.09322598576545715,0.0667150542140007
1789064044785588700,5.593588623046875,0.35886144638061523,0.08916999399662018,0.06463592499494553
1789064044795625700,5.603625732421875,0.36625346541404724,0.18820181488990784,0.07409996539354324
1789064044805662700,5.613662841796875,0.3421481251716614,0.09983493387699127,0.08826664835214615
1789064044815699700,5.62369970703125,0.27854472398757935,0.1300182193517685,0.024231137707829475
1789064044825736700,5.63373681640625,0.22717608511447906,0.06047534942626953,-0.0038676082622259855
1789064044835773700,5.643773681640625,0.20665070414543152,0.06922946870326996,-0.011491738259792328
1789064044845810700,5.653810791015625,0.18981686234474182,-0.004804006777703762,-0.017629260197281837
1789064044855848000,5.663847900390625,0.20308054983615875,0.06386058777570724,-0.05354298651218414
1789064044865884700,5.673884765625,0.20886920392513275,0.07193636149168015,-0.03849479556083679
1789064044875921700,5.683921630859375,0.22818875312805176,0.13347119092941284,-0.0668562650680542
1789064044885958700,5.693958740234375,0.2206679880619049,0.17804744839668274,-0.02858051098883152
1789064044895995600,5.70399560546875,0.20334026217460632,0.13506075739860535,-0.029278893023729324
1789064044906033000,5.714032958984375,0.18797461688518524,0.12002747505903244,-0.016035791486501694
1789064044916069600,5.724069580078125,0.171492338180542,0.06259869039058685,0.0626750960946083
1789064044926106600,5.734106689453125,0.15312185883522034,0.11395721882581711,0.054024357348680496
1789064044936143600,5.7441435546875,0.11908270418643951,0.08026145398616791,0.08349259942770004
1789064044946179600,5.7541796875,0.1007995754480362,0.12305951863527298,0.0654267817735672
1789064044956216800,5.764216796875,0.10278839617967606,0.10863743722438812,0.07297135144472122
1789064044966253800,5.77425390625,0.08988671004772186,0.08903416991233826,0.11109024286270142
1789064044976290800,5.784290771484375,0.06910480558872223,0.190757617354393,-0.004895286168903112
1789064044986327600,5.79432763671875,0.035029392689466476,0.1397026926279068,-0.07188737392425537
1789064044996364800,5.80436474609375,0.012271278537809849,0.10297075659036636,-0.03396468982100487
1789064045006401800,5.81440185546875,-0.022187896072864532,0.01452398207038641,-0.040277447551488876
1789064045016438800,5.824438720703125,-0.08283514529466629,0.06595153361558914,-0.0666038915514946
1789064045026475800,5.834475830078125,-0.1729021817445755,-0.015439196489751339,-0.07514810562133789
1789064045036512500,5.844512451171875,-0.20992058515548706,0.13078533113002777,-0.15845835208892822
1789064045046549800,5.8545498046875,-0.23809468746185303,0.0023437298368662596,-0.010605240240693092
1789064045056586800,5.864586669921875,-0.24124836921691895,0.01099991612136364,0.04077127203345299
1789064045066623700,5.874623779296875,-0.2574467658996582,-0.0019521015929058194,0.000982046709395945
1789064045076660700,5.88466064453125,-0.2770051956176758,-0.0010257803369313478,0.009113404899835587
1789064045086697700,5.89469775390625,-0.2653898298740387,-0.00661442382261157,0.05547744408249855
1789064045096734700,5.904734619140625,-0.2911505699157715,-0.08136428892612457,0.10973482578992844
1789064045106771700,5.914771728515625,-0.2994340658187866,-0.030284864827990532,0.07960248738527298
1789064045116808700,5.92480859375,-0.3444172143936157,-0.06408369541168213,0.06190428137779236
1789064045126846000,5.934845947265625,-0.365769624710083,0.00277123274281621,-0.012601376511156559
1789064045136882700,5.944882568359375,-0.3828987181186676,-0.08197382092475891,0.03349048271775246
1789064045146919700,5.954919677734375,-0.3738817870616913,-0.10768744349479675,-0.005989015102386475
1789064045156956700,5.964956787109375,-0.3320794999599457,-0.14258763194084167,-0.01793222874403
1789064045166993700,5.97499365234375,-0.30750277638435364,-0.10412652790546417,-0.036434806883335114
1789064045177031000,5.985031005859375,-0.28492119908332825,-0.041800133883953094,-0.08252254128456116
1789064045187067600,5.995067626953125,-0.2896674871444702,-0.07810993492603302,-0.008204098790884018
1789064045197104600,6.005104736328125,-0.2737204432487488,-0.1034775823354721,0.01749623753130436
1789064045207141600,6.0151416015625,-0.2197810411453247,-0.010442984290421009,-0.04250424727797508
1789064045217177600,6.025177490234375,-0.18121831119060516,-0.09498230367898941,0.009430590085685253
1789064045227214800,6.03521484375,-0.16687558591365814,-0.03971424698829651,0.006349845789372921
1789064045237251800,6.045251953125,-0.19869934022426605,-0.04033677652478218,0.0028159955982118845
1789064045247288600,6.05528857421875,-0.25838688015937805,-0.11999058723449707,0.06816677004098892
1789064045257325600,6.06532568359375,-0.27191129326820374,-0.05326857417821884,0.02877618931233883
1789064045267362800,6.07536279296875,-0.23784732818603516,-0.11022134125232697,0.017326461151242256
1789064045277399800,6.08539990234375,-0.1608232855796814,-0.0444025956094265,-0.02159716747701168
1789064045287436800,6.095436767578125,-0.0983966514468193,-0.11242905259132385,-0.0016666040755808353
1789064045297473800,6.105473876953125,-0.05023236945271492,-0.009749569930136204,-0.046090029180049896
1789064045307510500,6.115510498046875,-0.015616867691278458,0.010074201039969921,-0.03276063874363899
1789064045317547800,6.1255478515625,0.026400385424494743,0.05715569481253624,-0.017785249277949333
1789064045327584800,6.135584716796875,0.10202696919441223,0.08888646215200424,-0.034882742911577225
1789064045337621800,6.145621826171875,0.13958898186683655,0.03930786997079849,0.0505530908703804
1789064045347658800,6.15565869140625,0.18290288746356964,0.06180651858448982,0.04139607772231102
1789064045357695700,6.16569580078125,0.19991140067577362,0.056956227868795395,0.051171109080314636
1789064045367732700,6.175732666015625,0.23505713045597076,0.13892565667629242,0.009890514425933361
1789064045377769700,6.185769775390625,0.2830312252044678,0.12179084122180939,-0.008576078340411186
1789064045387806700,6.195806640625,0.32580476999282837,0.1910759061574936,-0.05624399706721306
1789064045397843700,6.20584375,0.3700394332408905,0.21668779850006104,-0.07143376767635345
1789064045407880700,6.215880615234375,0.381475567817688,0.16616976261138916,-0.05833287909626961
1789064045417917700,6.225917724609375,0.403129905462265,0.20466811954975128,-0.08031164854764938
1789064045427954700,6.23595458984375,0.42787837982177734,0.21976451575756073,-0.08257746696472168
1789064045437991700,6.24599169921875,0.4458354711532593,0.23259463906288147,-0.045879337936639786
1789064045448029000,6.25602880859375,0.45588013529777527,0.23407135903835297,0.0016018934547901154
1789064045458065700,6.266065673828125,0.45890888571739197,0.2798648476600647,0.03961944952607155
1789064045468102700,6.2761025390625,0.4828384518623352,0.2988739609718323,0.056756358593702316
1789064045478139600,6.2861396484375,0.4999919533729553,0.3013772964477539,0.07279464602470398
1789064045488175600,6.296175537109375,0.5067893862724304,0.2965276837348938,0.13940297067165375
1789064045498212900,6.306212890625,0.49128973484039307,0.2617136240005493,0.16426943242549896
1789064045508249900,6.316249755859375,0.43149644136428833,0.2972891926765442,0.13970071077346802
1789064045518286600,6.32628662109375,0.3815155029296875,0.2677837610244751,0.12577900290489197
1789064045528323600,6.336323486328125,0.34755939245224,0.28163033723831177,0.1227555125951767
1789064045538360800,6.34636083984375,0.34700506925582886,0.28172436356544495,0.062420811504125595
1789064045548397800,6.356397705078125,0.3156881630420685,0.3308658003807068,-0.02300114370882511
1789064045558434800,6.366434814453125,0.2589276134967804,0.25395891070365906,-0.07352252304553986
1789064045568471600,6.376471435546875,0.20810385048389435,0.2586181163787842,-0.13221512734889984
1789064045578508500,6.386508544921875,0.17967931926250458,0.24188221991062164,-0.1776106357574463
1789064045588545800,6.3965458984375,0.15788187086582184,0.18916627764701843,-0.17082303762435913
1789064045598582800,6.406582763671875,0.1272931843996048,0.1919982135295868,-0.15272963047027588
1789064045608619800,6.416619873046875,0.10365045070648193,0.12419121712446213,-0.13235804438591003
1789064045618656500,6.426656494140625,0.06959033757448196,0.229867622256279,-0.07318715751171112
1789064045628693800,6.43669384765625,0.02510542795062065,0.22223792970180511,-0.018649080768227577
1789064045638730800,6.446730712890625,-0.013778780587017536,0.16137105226516724,0.08842393755912781
1789064045648767700,6.456767822265625,-0.023129405453801155,0.223236545920372,0.08350721001625061
1789064045658804700,6.4668046875,-0.03059009276330471,0.13982725143432617,0.12290225178003311
1789064045668841700,6.476841796875,-0.062323253601789474,0.08699306100606918,0.16382785141468048
1789064045678878700,6.486878662109375,-0.10119326412677765,0.08891791105270386,0.12185250222682953
1789064045688915700,6.496915771484375,-0.1647283136844635,0.0006303945556282997,0.1407734602689743
1789064045698952700,6.50695263671875,-0.24918799102306366,0.11063852906227112,0.0019812288228422403
1789064045708989400,6.516989501953125,-0.3126833736896515,0.09506276994943619,-0.021568838506937027
1789064045719026400,6.5270263671875,-0.385309100151062,-0.01866660825908184,-0.0005167474737390876
1789064045729063200,6.537063232421875,-0.41566914319992065,-0.02739804983139038,-0.08091172575950623
1789064045739100400,6.547100341796875,-0.4472944736480713,-0.07130931317806244,-0.09558510780334473
1789064045749136400,6.557136474609375,-0.4737180769443512,-0.05251964554190636,-0.09168730676174164
1789064045759173400,6.56717333984375,-0.4818553924560547,-0.15083612501621246,-0.02991824969649315
1789064045769210400,6.57721044921875,-0.49701064825057983,-0.16483448445796967,0.039192646741867065
1789064045779247400,6.587247314453125,-0.4712305963039398,-0.0984886884689331,-0.018812768161296844
1789064045789284400,6.597284423828125,-0.4669298529624939,-0.06349581480026245,0.004813465755432844
1789064045799321300,6.6073212890625,-0.4759368300437927,-0.13987508416175842,0.09903716295957565
1789064045809358300,6.6173583984375,-0.49160417914390564,-0.13524997234344482,0.15424290299415588
1789064045819395300,6.627395263671875,-0.5263585448265076,-0.15747717022895813,0.15648901462554932
1789064045829432300,6.637432373046875,-0.5441260933876038,-0.14089126884937286,0.10903307795524597
1789064045839469300,6.64746923828125,-0.5395920276641846,-0.22839713096618652,0.13724946975708008
1789064045849506300,6.65750634765625,-0.5216572284698486,-0.249824658036232,0.13646863400936127
1789064045859543300,6.667543212890625,-0.5192500948905945,-0.3008509576320648,0.08718400448560715
1789064045869580300,6.677580322265625,-0.4991493225097656,-0.2086440622806549,-0.09866921603679657
1789064045879617500,6.687617431640625,-0.4781482517719269,-0.21436287462711334,-0.09390811622142792
1789064045889654300,6.697654296875,-0.48631855845451355,-0.2772185504436493,-0.04597361385822296
1789064045899691300,6.707691162109375,-0.4808449447154999,-0.2577136754989624,-0.13275368511676788
1789064045909728300,6.717728271484375,-0.46165794134140015,-0.21080182492733002,-0.1892843395471573
1789064045919765500,6.727765625,-0.44708433747291565,-0.2996789515018463,-0.10650679469108582
1789064045929802500,6.737802490234375,-0.41360175609588623,-0.32965922355651855,-0.08866521716117859
1789064045939839500,6.747839599609375,-0.4055858850479126,-0.2923727333545685,-0.03981568664312363
1789064045949876200,6.757876220703125,-0.4250298738479614,-0.29350191354751587,0.004998925607651472
1789064045959913200,6.767913330078125,-0.42194676399230957,-0.26538732647895813,0.045386459678411484
1789064045969950500,6.777950439453125,-0.3859195113182068,-0.22558771073818207,0.10637897253036499
1789064045979987500,6.787987548828125,-0.3036428689956665,-0.29415416717529297,0.130538210272789
1789064045990024400,6.7980244140625,-0.18869712948799133,-0.24725963175296783,0.13981905579566956
1789064046000061200,6.808061279296875,-0.11491691321134567,-0.3116362392902374,0.14377464354038239
1789064046010098400,6.818098388671875,-0.09758053719997406,-0.2802165150642395,0.1100664883852005
1789064046020134400,6.828134521484375,-0.12456214427947998,-0.23352639377117157,0.06397568434476852
1789064046030171400,6.83817138671875,-0.13867105543613434,-0.2475748360157013,0.015587115660309792
1789064046040208400,6.84820849609375,-0.08740957081317902,-0.18289779126644135,-0.027008676901459694
1789064046050245400,6.858245361328125,0.005497196689248085,-0.18615111708641052,-0.07161262631416321
1789064046060282400,6.868282470703125,0.0779140517115593,-0.21586309373378754,-0.08164914697408676
1789064046070319400,6.8783193359375,0.0977221131324768,-0.19129569828510284,-0.037150394171476364
1789064046080356400,6.8883564453125,0.0874132588505745,-0.2587045729160309,-0.019769443199038506
1789064046090393300,6.898393310546875,0.10752251744270325,-0.15984217822551727,-0.02803376317024231
1789064046100430300,6.908430419921875,0.17732881009578705,-0.1649790108203888,-0.002982106525450945
1789064046110467300,6.91846728515625,0.27524232864379883,-0.1078704446554184,0.005301389843225479
1789064046120504300,6.92850439453125,0.3524743616580963,-0.09919529408216476,0.07040985673666
1789064046130541300,6.938541259765625,0.3927389681339264,-0.12127609550952911,0.09241662174463272
1789064046140578300,6.948578369140625,0.4306231141090393,-0.025181159377098083,0.06908755749464035
1789064046150615600,6.958615478515625,0.44234928488731384,-0.024757450446486473,0.05393283814191818
1789064046160652300,6.96865234375,0.4623185098171234,0.027517881244421005,0.020155537873506546
1789064046170689300,6.978689208984375,0.48069724440574646,-0.01927279308438301,0.04766945540904999
1789064046180726300,6.988726318359375,0.524042010307312,-0.05584976077079773,0.03184674680233002
1789064046190763500,6.998763427734375,0.5790599584579468,0.07677912712097168,-0.037125129252672195
1789064046200800500,7.008800537109375,0.6159084439277649,0.09231583774089813,-0.09621024876832962
1789064046210837200,7.018837158203125,0.6179021000862122,0.12504129111766815,-0.08788175135850906
1789064046220874200,7.028874267578125,0.5770879983901978,0.06903167068958282,-0.05933799222111702
1789064046230911200,7.0389111328125,0.5578674077987671,0.13806641101837158,-0.12606428563594818
1789064046240948500,7.048948486328125,0.5393610000610352,0.09488396346569061,-0.12903115153312683
1789064046250985500,7.0589853515625,0.5616788268089294,0.10768231749534607,-0.13796551525592804
1789064046261022200,7.069022216796875,0.567854642868042,0.09486605226993561,-0.04270906746387482
1789064046271059200,7.07905908203125,0.5380629301071167,0.10848598927259445,-0.005390992388129234
1789064046281095200,7.08909521484375,0.5022190809249878,0.1562197208404541,0.009018362499773502
1789064046291132400,7.09913232421875,0.48428910970687866,0.19944602251052856,0.05146675556898117
1789064046301169400,7.10916943359375,0.4831935167312622,0.11280474811792374,0.1127624362707138
1789064046311206400,7.119206298828125,0.47366926074028015,0.16868025064468384,0.07980315387248993
1789064046321243400,7.129243408203125,0.441299170255661,0.1035124659538269,0.13039346039295197
1789064046331280400,7.1392802734375,0.37737664580345154,0.06403270363807678,0.14717377722263336
1789064046341317400,7.1493173828125,0.3002930283546448,0.13651622831821442,0.10961717367172241
1789064046351354400,7.159354248046875,0.2472604215145111,0.115889772772789,0.10678703337907791
1789064046361391400,7.169391357421875,0.22649505734443665,0.15211281180381775,0.02769814245402813
1789064046371428400,7.179428466796875,0.23305387794971466,0.1405123472213745,-0.04998759925365448
1789064046381465300,7.18946533203125,0.23591399192810059,0.1363108605146408,-0.10302534699440002
1789064046391502300,7.19950244140625,0.21803751587867737,0.05475209280848503,-0.15226240456104279
1789064046401539300,7.209539306640625,0.191696435213089,0.05085467919707298,-0.20453086495399475
1789064046411576300,7.219576416015625,0.15119668841362,0.16225604712963104,-0.23814980685710907
1789064046421613600,7.229613525390625,0.10577388107776642,0.09691943228244781,-0.14122577011585236
1789064046431650300,7.239650390625,0.1153079941868782,0.12835004925727844,-0.05191798880696297
1789064046441687300,7.249687255859375,0.1584281176328659,0.1250980794429779,-0.01084891427308321
1789064046451724300,7.259724365234375,0.23530665040016174,0.1515273004770279,0.014258569106459618
1789064046461761300,7.26976123046875,0.27681291103363037,0.22492951154708862,0.063321053981781
1789064046471798500,7.279798583984375,0.2721688747406006,0.14879612624645233,0.09067731350660324
1789064046481835300,7.289835205078125,0.23393769562244415,0.20796096324920654,0.11128225922584534
1789064046491872300,7.299872314453125,0.18288516998291016,0.15171180665493011,0.1293448805809021
1789064046501909200,7.3099091796875,0.15372510254383087,0.2048828899860382,0.08557139337062836
1789064046511946500,7.319946533203125,0.1257089227437973,0.14266398549079895,0.06382349133491516
1789064046521983500,7.3299833984375,0.11294418573379517,0.1326456218957901,0.004808870609849691
1789064046532020200,7.340020263671875,0.11840153485536575,0.15571631491184235,-0.037147101014852524
1789064046542056400,7.350056396484375,0.13592493534088135,0.1118743047118187,-0.0790269747376442
1789064046552093200,7.36009326171875,0.1738707274198532,0.16454923152923584,-0.1306353062391281
1789064046562130400,7.37013037109375,0.19540071487426758,0.16442866623401642,-0.10216034948825836
1789064046572167400,7.38016748046875,0.20515933632850647,0.2015259712934494,-0.08319704234600067
1789064046582204400,7.390204345703125,0.18866315484046936,0.23115591704845428,-0.06452266871929169
1789064046592241400,7.400241455078125,0.14331752061843872,0.170826256275177,-0.016224373131990433
1789064046602278400,7.4102783203125,0.1359969824552536,0.19341036677360535,-0.0031027458608150482
1789064046612315400,7.4203154296875,0.14233210682868958,0.14457544684410095,0.08263639360666275
1789064046622352400,7.430352294921875,0.11347103863954544,0.0987224355340004,0.13447271287441254
1789064046632389400,7.440389404296875,0.06898346543312073,0.14599381387233734,0.08673689514398575
1789064046642426400,7.45042626953125,0.007136446889489889,0.1457013189792633,0.12505152821540833
1789064046652463400,7.46046337890625,0.007993185892701149,0.18072055280208588,0.07756176590919495
1789064046662500400,7.470500244140625,0.019862111657857895,0.08451931178569794,0.11632777750492096
1789064046672537300,7.480537353515625,0.05637218803167343,0.13606691360473633,0.045183293521404266
1789064046682574300,7.49057421875,0.07615228742361069,0.1471235603094101,-0.059594519436359406
1789064046692611300,7.500611328125,0.06199730932712555,0.17153050005435944,-0.08436930179595947
1789064046702648300,7.5106484375,0.018734779208898544,0.1396373063325882,-0.10327459126710892
1789064046712685300,7.520685302734375,-0.033427223563194275,0.15127958357334137,-0.0871179923415184
1789064046722722300,7.530722412109375,-0.07124457508325577,0.11673706769943237,-0.10834211856126785
1789064046732759300,7.54075927734375,-0.03801897540688515,0.15905523300170898,-0.1188349723815918
1789064046742796500,7.550796630859375,0.0020577891264110804,0.06769798696041107,-0.009687047451734543
1789064046752833300,7.560833251953125,0.025947408750653267,0.09926071017980576,0.03510785475373268
1789064046762870300,7.570870361328125,0.019130203872919083,0.14915154874324799,0.03333921357989311
1789064046772907300,7.5809072265625,-0.01698518916964531,0.1765189915895462,0.0759681686758995
1789064046782944300,7.5909443359375,-0.03554583340883255,0.20515687763690948,0.048163238912820816
1789064046792981500,7.6009814453125,-0.01995781995356083,0.19939352571964264,0.09051229059696198
1789064046803018200,7.611018310546875,0.006261790171265602,0.0917888879776001,0.124234639108181
1789064046813054200,7.62105419921875,0.04043946787714958,0.11553816497325897,0.03811759501695633
1789064046823091200,7.63109130859375,0.003725864924490452,0.07134153693914413,0.0241535734385252
1789064046833128200,7.641128173828125,-0.025703130289912224,0.15386943519115448,-0.03410547226667404
1789064046843165400,7.65116552734375,-0.06616624444723129,0.17650702595710754,-0.05006599426269531
1789064046853202400,7.661202392578125,-0.04544152319431305,0.14511500298976898,-0.02988935075700283
1789064046863239200,7.6712392578125,0.008691134862601757,0.15649373829364777,-0.06482110917568207
1789064046873276200,7.681276123046875,0.03418610990047455,0.1304248571395874,-0.08090659976005554
1789064046883313400,7.6913134765625,0.018061723560094833,0.17348988354206085,-0.05588346719741821
1789064046893350400,7.701350341796875,-0.06212152913212776,0.10769355297088623,0.02506783977150917
1789064046903387400,7.711387451171875,-0.09113657474517822,0.13739743828773499,0.02823280729353428
1789064046913424100,7.721424072265625,-0.08681266754865646,0.07554099708795547,0.07541549950838089
1789064046923461000,7.731461181640625,-0.027042940258979797,0.15679597854614258,0.048248156905174255
1789064046933498400,7.741498291015625,0.02408948540687561,0.13261154294013977,0.10205865651369095
1789064046943535400,7.751535400390625,0.035615742206573486,0.1102936863899231,0.1305653601884842
1789064046953572400,7.761572265625,0.04726015031337738,0.21260009706020355,0.05119118466973305
1789064046963609300,7.771609375,0.03453417494893074,0.18062928318977356,0.07192110270261765
1789064046973646300,7.781646240234375,0.040757980197668076,0.18433240056037903,0.0369199737906456
1789064046983683300,7.791683349609375,0.04017891734838486,0.15751220285892487,-0.0005015016067773104
1789064046993720300,7.80172021484375,0.03573916107416153,0.07298293709754944,0.02135426178574562
1789064047003757300,7.81175732421875,0.05612652748823166,0.12987342476844788,-0.031949277967214584
1789064047013794300,7.821794189453125,0.04660199582576752,0.1760329306125641,-0.09947025775909424
1789064047023831300,7.831831298828125,0.038064803928136826,0.21840961277484894,-0.13497605919837952
1789064047033868300,7.841868408203125,0.016265762969851494,0.09027081727981567,-0.08869538456201553
1789064047043905300,7.8519052734375,0.03165228292346001,0.19697001576423645,-0.15127909183502197
1789064047053942300,7.8619423828125,0.06128687411546707,0.14911939203739166,-0.16658854484558105
1789064047063979300,7.871979248046875,0.06504818052053452,0.1742953658103943,-0.11660050600767136
1789064047074015500,7.882015380859375,0.06558587402105331,0.13496845960617065,-0.045721009373664856
1789064047084052200,7.89205224609375,0.03074754774570465,0.16925115883350372,0.02188788913190365
1789064047094089200,7.902089111328125,-0.010017991997301579,0.15241305530071259,0.06987405568361282
1789064047104126200,7.912126220703125,-0.0352996289730072,0.07871018350124359,0.13777585327625275
1789064047114163500,7.92216357421875,-0.05521395057439804,0.09929774701595306,0.1794673651456833
1789064047124200400,7.932200439453125,-0.07762639224529266,0.0716414526104927,0.1953769475221634
1789064047134237200,7.9422373046875,-0.14069564640522003,0.049414440989494324,0.22932292520999908
1789064047144274200,7.952274169921875,-0.2093028873205185,0.08165016770362854,0.16021926701068878
1789064047154311400,7.9623115234375,-0.22404882311820984,0.08444754779338837,0.1576296091079712
1789064047164348400,7.972348388671875,-0.20912879705429077,0.08636948466300964,0.11210577934980392
1789064047174385400,7.982385498046875,-0.18356138467788696,0.03370733559131622,0.054159920662641525
1789064047184422100,7.992422119140625,-0.19763357937335968,0.004736816976219416,0.026530811563134193
1789064047194459100,8.002459228515624,-0.2431427389383316,0.014121795073151588,-0.07901132106781006
1789064047204496400,8.012496337890624,-0.30260905623435974,0.0038588435854762793,-0.15072475373744965
1789064047214533400,8.022533447265625,-0.33673587441444397,0.003640730632469058,-0.1720588058233261
1789064047224570400,8.0325703125,-0.3268337547779083,-0.03136199340224266,-0.18532417714595795
1789064047234607000,8.042607177734375,-0.30730584263801575,0.01562761701643467,-0.2022690773010254
1789064047244644400,8.052644287109375,-0.29331105947494507,-0.029333895072340965,-0.12713974714279175
1789064047254681300,8.062681396484376,-0.2810474634170532,-0.07150957733392715,-0.052721165120601654
1789064047264718300,8.07271826171875,-0.2841472625732422,-0.010997187346220016,-0.019116900861263275
1789064047274755300,8.08275537109375,-0.29197242856025696,-0.024992099031805992,0.0639987587928772
1789064047284792300,8.092792236328124,-0.32880544662475586,-0.023853164166212082,0.16335450112819672
1789064047294829300,8.102829345703125,-0.35102739930152893,-0.03429355472326279,0.17822585999965668
1789064047304866300,8.1128662109375,-0.36449944972991943,-0.06846878677606583,0.1699426919221878
1789064047314903300,8.1229033203125,-0.3757007122039795,-0.0580691397190094,0.10691127181053162
1789064047324940300,8.132940185546875,-0.3691961169242859,-0.08647318184375763,0.07970748096704483
1789064047334976300,8.142976318359375,-0.3798743188381195,-0.10943388938903809,0.013147097080945969
1789064047345013500,8.153013427734376,-0.40110811591148376,-0.09981835633516312,-0.04652298986911774
1789064047355050200,8.16305029296875,-0.41686126589775085,-0.15266932547092438,-0.05657029524445534
1789064047365087200,8.173087158203124,-0.44499266147613525,-0.10600083321332932,-0.08350890129804611
1789064047375124200,8.183124267578124,-0.469855397939682,-0.20102588832378387,-0.07497959583997726
1789064047385161500,8.193161376953125,-0.5220755338668823,-0.19571103155612946,-0.04223783314228058
1789064047395198500,8.203198486328125,-0.5819375514984131,-0.20677407085895538,-0.01727788895368576
1789064047405235200,8.213235107421875,-0.6297687292098999,-0.28310427069664,0.04966382682323456
1789064047415272200,8.223272216796875,-0.6581103801727295,-0.2611667513847351,0.06950490921735764
1789064047425309400,8.233309326171875,-0.6386163234710693,-0.2649921476840973,0.13338105380535126
1789064047435346400,8.243346435546876,-0.6301959753036499,-0.362932026386261,0.2321728765964508
1789064047445383400,8.253383544921874,-0.6278096437454224,-0.31240394711494446,0.19997073709964752
1789064047455420200,8.263420166015624,-0.6172113418579102,-0.33264610171318054,0.16061268746852875
1789064047465457200,8.27345703125,-0.5910742282867432,-0.3172856271266937,0.16011160612106323
1789064047475494400,8.283494384765625,-0.5574080944061279,-0.3699309825897217,0.13257186114788055
1789064047485531400,8.293531494140625,-0.5325785279273987,-0.32699915766716003,0.04526644945144653
1789064047495568400,8.303568359375,-0.5176616311073303,-0.31260183453559875,-0.06557857245206833
1789064047505605000,8.313605224609375,-0.5162144303321838,-0.34652143716812134,-0.1546708643436432
1789064047515642400,8.323642333984376,-0.5433685779571533,-0.31753480434417725,-0.12458673864603043
1789064047525679400,8.333679443359374,-0.5776286721229553,-0.4403022229671478,-0.1398686170578003
1789064047535716400,8.34371630859375,-0.5551776885986328,-0.32892856001853943,-0.215279221534729
1789064047545753300,8.35375341796875,-0.5064248442649841,-0.3984522521495819,-0.11170625686645508
1789064047555790300,8.363790283203125,-0.43361055850982666,-0.41278618574142456,-0.04937523603439331
1789064047565827300,8.373827392578125,-0.3885665535926819,-0.3247099220752716,0.011808223091065884
1789064047575864300,8.3838642578125,-0.37745505571365356,-0.3281765580177307,0.0730433538556099
1789064047585901300,8.3939013671875,-0.36073246598243713,-0.28768453001976013,0.10382898896932602
1789064047595937300,8.403937255859375,-0.32725971937179565,-0.28559499979019165,0.15752658247947693
1789064047605974300,8.413974365234376,-0.26515111327171326,-0.30046945810317993,0.13748463988304138
1789064047616011300,8.42401123046875,-0.19999101758003235,-0.29832959175109863,0.1487109214067459
1789064047626048300,8.43404833984375,-0.1426280438899994,-0.33021318912506104,0.18325990438461304
1789064047636085200,8.444085205078125,-0.10307370871305466,-0.2149563729763031,0.126157745718956
1789064047646122200,8.454122314453125,-0.09964603930711746,-0.2202943116426468,0.04585237801074982
1789064047656159500,8.464159423828125,-0.0674809142947197,-0.13373598456382751,-0.003202515421435237
1789064047666196200,8.4741962890625,-0.0008180303266271949,-0.14977982640266418,0.04145246744155884
1789064047676233200,8.484233154296875,0.06935279816389084,-0.22618138790130615,0.0035285234916955233
1789064047686270200,8.494270263671876,0.1198762059211731,-0.07076379656791687,-0.04324933513998985
1789064047696307500,8.504307373046874,0.10303837060928345,-0.18915009498596191,-0.043014444410800934
1789064047706344200,8.51434423828125,0.0710688903927803,-0.12767814099788666,0.0028036460280418396
1789064047716381200,8.524381103515625,0.0369841530919075,-0.12578250467777252,0.022929154336452484
1789064047726418200,8.534418212890625,0.06246635317802429,-0.180705264210701,-0.021057546138763428
1789064047736455200,8.544455078125,0.14564725756645203,-0.05336062237620354,-0.04178119823336601
1789064047746492200,8.5544921875,0.2287854552268982,-0.13636448979377747,0.03720995411276817
1789064047756529200,8.564529052734375,0.2731401324272156,-0.11166951805353165,0.07175994664430618
1789064047766566400,8.57456640625,0.29384171962738037,-0.042334653437137604,0.05041886866092682
1789064047776603100,8.58460302734375,0.3139760196208954,-0.008246191777288914,0.02744830772280693
1789064047786640100,8.59464013671875,0.33699947595596313,0.0520329587161541,0.021958334371447563
1789064047796677000,8.604677001953124,0.34741857647895813,0.04786963760852814,0.034722600132226944
1789064047806714400,8.61471435546875,0.3629109263420105,0.030703824013471603,-0.009766310453414917
1789064047816751400,8.62475146484375,0.3777279555797577,0.00842488557100296,-0.04382734000682831
1789064047826788000,8.6347880859375,0.39260023832321167,0.034074511379003525,-0.0957401692867279
1789064047836825000,8.6448251953125,0.34822824597358704,0.035699840635061264,-0.08995924890041351
1789064047846862000,8.654862060546876,0.2588922679424286,-0.01918734610080719,-0.07459161430597305
1789064047856899300,8.6648994140625,0.211640864610672,0.01101955957710743,-0.10773038864135742
1789064047866935300,8.674935302734376,0.19390499591827393,-0.04398540034890175,-0.06577055156230927
1789064047876972300,8.68497216796875,0.22993463277816772,-0.019573267549276352,-0.08546489477157593
1789064047887009000,8.695009033203124,0.2580108940601349,-0.017426010221242905,-0.0485365092754364
1789064047897046000,8.7050458984375,0.2567634880542755,0.013940434902906418,-0.0022584921680390835
1789064047907083300,8.715083251953125,0.2535572350025177,0.02640022709965706,0.03973713517189026
1789064047917120300,8.725120361328125,0.22491998970508575,0.0433800108730793,0.057096417993307114
1789064047927157200,8.7351572265625,0.22691890597343445,-0.018614238128066063,0.07982156425714493
1789064047937194000,8.745194091796876,0.21486836671829224,-0.034213971346616745,0.16176968812942505
1789064047947231200,8.755231201171876,0.19146296381950378,-0.03122868947684765,0.17538467049598694
1789064047957268200,8.765268310546874,0.14039257168769836,-0.03133867681026459,0.18078503012657166
1789064047967305200,8.77530517578125,0.1045772060751915,0.012141376733779907,0.19546599686145782
1789064047977342200,8.78534228515625,0.10680919885635376,0.0036663981154561043,0.1560051441192627
1789064047987379200,8.795379150390625,0.11764495819807053,0.004778723232448101,0.089164137840271
1789064047997416200,8.805416259765625,0.12424400448799133,-0.019855782389640808,-0.02081296779215336
1789064048007453200,8.815453125,0.11571922153234482,0.004567001946270466,-0.11848945915699005
1789064048017490200,8.825490234375,0.07517313212156296,-0.036760732531547546,-0.14267389476299286
1789064048027527200,8.835527099609376,0.02989882230758667,-0.1035926342010498,-0.19030356407165527
1789064048037564200,8.845564208984374,0.0019899606704711914,0.0016339188441634178,-0.2529909312725067
1789064048047601200,8.85560107421875,-0.021611424162983894,-0.037104785442352295,-0.22511281073093414
1789064048057638100,8.86563818359375,-0.03363319858908653,-0.07633155584335327,-0.12585440278053284
1789064048067675100,8.875675048828125,-0.02283516339957714,-0.08378017693758011,-0.08153286576271057
1789064048077712400,8.88571240234375,-0.003973857499659061,-0.06718868017196655,-0.057441648095846176
1789064048087749000,8.8957490234375,0.01455096248537302,0.017221083864569664,0.021704934537410736
1789064048097786000,8.9057861328125,0.004726827144622803,-0.059557851403951645,0.12081926316022873
1789064048107823000,8.915822998046876,-0.008983328938484192,-0.03627937659621239,0.14409439265727997
1789064048117860000,8.925860107421874,-0.006978766992688179,0.03674769774079323,0.1141146570444107
1789064048127896000,8.93589599609375,-0.0013494228478521109,-0.07467232644557953,0.150827094912529
1789064048137933300,8.945933349609374,0.02147972583770752,-0.017324883490800858,0.1209605410695076
1789064048147970300,8.95597021484375,0.020555701106786728,-0.06314265727996826,0.11111010611057281
1789064048158007000,8.966007080078125,0.023962151259183884,-0.06520207971334457,0.06826037913560867
1789064048168044000,8.9760439453125,0.03822772949934006,0.013724477030336857,-0.012253036722540855
1789064048178081300,8.986081298828125,0.06094716116786003,-0.02426551654934883,-0.0323369987308979
1789064048188118300,8.9961181640625,0.10430300235748291,0.04530831798911095,-0.08896039426326752
1789064048198155300,9.0061552734375,0.14951202273368835,-0.01580830104649067,-0.08404633402824402
1789064048208192000,9.01619189453125,0.20496436953544617,0.009113793261349201,-0.12873919308185577
1789064048218229200,9.026229248046874,0.2351374477148056,0.044599082320928574,-0.14730195701122284
1789064048228266200,9.036266357421875,0.24387936294078827,0.048363097012043,-0.07517305016517639
1789064048238303200,9.04630322265625,0.2356848120689392,0.04734284058213234,0.01024678349494934
1789064048248340200,9.05634033203125,0.20284432172775269,0.06329398602247238,0.03186972066760063
1789064048258377000,9.066376953125,0.20201261341571808,0.11123567819595337,0.030625222250819206
1789064048268414200,9.076414306640626,0.23626989126205444,0.0563037283718586,0.10389820486307144
1789064048278451200,9.086451171875,0.31329914927482605,0.06898250430822372,0.1006574034690857
1789064048288488200,9.09648828125,0.37350285053253174,0.05211309716105461,0.1112952008843422
1789064048298525200,9.106525146484374,0.36901089549064636,0.027409080415964127,0.09844864159822464
1789064048308562200,9.116562255859375,0.3799530863761902,0.1690802127122879,-0.032729677855968475
1789064048318599200,9.12659912109375,0.36331552267074585,0.17398495972156525,-0.026811867952346802
1789064048328636200,9.13663623046875,0.3260636329650879,0.14020192623138428,-0.041556429117918015
1789064048338673200,9.146673095703125,0.2897951006889343,0.17188474535942078,-0.062373556196689606
1789064048348710400,9.15671044921875,0.2653074264526367,0.08722195774316788,-0.07440399378538132
1789064048358747100,9.1667470703125,0.2864566445350647,0.10908171534538269,-0.12222051620483398
1789064048368784100,9.1767841796875,0.32195520401000977,0.11650419235229492,-0.10370189696550369
1789064048378821000,9.186821044921874,0.3284653127193451,0.06461675465106964,-0.08080030977725983
1789064048388858000,9.196858154296875,0.31811171770095825,0.1267286092042923,-0.0860494002699852
1789064048398894000,9.20689404296875,0.2861138582229614,0.20129898190498352,-0.11467625200748444
1789064048408931300,9.216931396484375,0.26808005571365356,0.18775761127471924,-0.07848741859197617
1789064048418968300,9.22696826171875,0.2769278585910797,0.20921283960342407,-0.00533677265048027
1789064048429005000,9.237005126953125,0.31141266226768494,0.1209385022521019,0.06521716713905334
1789064048439042000,9.2470419921875,0.3484601676464081,0.12063489854335785,0.03809526935219765
1789064048449079300,9.257079345703126,0.35097506642341614,0.17002332210540771,0.036782849580049515
1789064048459116300,9.2671162109375,0.3261386752128601,0.1550435721874237,0.10196185111999512
1789064048469153300,9.2771533203125,0.29906192421913147,0.21121446788311005,0.06562288850545883
1789064048479190000,9.28718994140625,0.3056974709033966,0.2247542440891266,0.04609685763716698
1789064048489227300,9.297227294921875,0.32102838158607483,0.17680864036083221,0.10411755740642548
1789064048499264300,9.30726416015625,0.3395701050758362,0.19747263193130493,0.021128127351403236
1789064048509301200,9.31730126953125,0.30324313044548035,0.20026160776615143,0.03313504904508591
1789064048519338200,9.327338134765625,0.23023203015327454,0.07613646239042282,0.07453841716051102
1789064048529375000,9.337375,0.196353018283844,0.17255918681621552,0.016487332060933113
1789064048539412200,9.347412109375,0.2028101086616516,0.22526580095291138,-0.002829374745488167
1789064048549449200,9.35744921875,0.22744637727737427,0.16767220199108124,-0.009383078664541245
1789064048559486200,9.367486328125,0.24641846120357513,0.20338279008865356,-0.0003235365729779005
1789064048569523200,9.377523193359375,0.23007114231586456,0.1345251351594925,0.0532539039850235
1789064048579560200,9.387560302734375,0.20768700540065765,0.1830785572528839,-0.011667037382721901
1789064048589597200,9.39759716796875,0.15463151037693024,0.20038659870624542,-0.04253394156694412
1789064048599634200,9.40763427734375,0.10072647035121918,0.11859479546546936,-0.02374001406133175
1789064048609671200,9.417671142578126,0.05840226635336876,0.12299423664808273,-0.03123721294105053
1789064048619708400,9.42770849609375,0.026874171569943428,0.09961993992328644,-0.06826873123645782
1789064048629745200,9.4377451171875,0.017560582607984543,0.09872355312108994,-0.13096047937870026
1789064048639782100,9.4477822265625,-0.01158159039914608,0.07053346186876297,-0.1340542733669281
1789064048649818000,9.457818115234375,-0.03618418425321579,0.08265826851129532,-0.1609508991241455
1789064048659855000,9.467855224609375,-0.07045000791549683,0.0655522495508194,-0.145262211561203
1789064048669892000,9.47789208984375,-0.09230924397706985,0.05560200288891792,-0.06658545136451721
1789064048679929300,9.487929443359375,-0.08051437139511108,0.025404157117009163,-0.031103622168302536
1789064048689966000,9.497966064453125,-0.07670444995164871,0.1024312973022461,-0.029536616057157516
1789064048700003000,9.508003173828126,-0.08115433156490326,0.04363216087222099,0.058558087795972824
1789064048710040800,9.518040771484374,-0.11987045407295227,0.03436896577477455,0.10518357902765274
1789064048720077800,9.528077880859374,-0.2001032531261444,0.029089780524373055,0.11548016220331192
1789064048730114800,9.53811474609375,-0.24443624913692474,-0.013938747346401215,0.12003153562545776
1789064048740151800,9.54815185546875,-0.2955114245414734,-0.0438348613679409,0.10541930049657822
1789064048750188800,9.558188720703125,-0.31124767661094666,-0.04550221562385559,0.07385159283876419
1789064048760225800,9.568225830078125,-0.3264804184436798,-0.08842597901821136,0.09529483318328857
1789064048770262800,9.5782626953125,-0.35257846117019653,-0.09132993221282959,0.07002439349889755
1789064048780299800,9.5882998046875,-0.3410128951072693,-0.07243453711271286,0.03337929770350456
1789064048790336800,9.598336669921874,-0.32267826795578003,-0.0731077641248703,0.050434913486242294
1789064048800373800,9.608373779296874,-0.29681551456451416,-0.08173214644193649,0.026304543018341064
1789064048810410800,9.61841064453125,-0.30382317304611206,-0.10015260428190231,-0.009318565018475056
1789064048820448000,9.628447998046875,-0.32670050859451294,-0.082075335085392,-0.04180913418531418
1789064048830485000,9.638485107421875,-0.3420650064945221,-0.1352578103542328,-0.08234530687332153
1789064048840521700,9.648521728515625,-0.34382855892181396,-0.12665793299674988,-0.09782066941261292
1789064048850558700,9.658558837890626,-0.3300824463367462,-0.18964464962482452,-0.08500263839960098
1789064048860595700,9.668595703125,-0.3052956163883209,-0.11890017241239548,-0.13061247766017914
1789064048870633000,9.678633056640624,-0.2900460362434387,-0.1601799726486206,-0.06867516040802002
1789064048880670000,9.688669921875,-0.25174951553344727,-0.19705063104629517,-0.04638184234499931
1789064048890706700,9.698706787109375,-0.20328344404697418,-0.06556782871484756,-0.07593154907226562
1789064048900743700,9.70874365234375,-0.1550687700510025,-0.10841143131256104,-0.03324134275317192
1789064048910779600,9.718779541015625,-0.12911009788513184,-0.0907309502363205,-0.017944110557436943
1789064048920817000,9.72881689453125,-0.11563076823949814,-0.04386277496814728,-0.05759245157241821
1789064048930854000,9.73885400390625,-0.1034097895026207,-0.04913130775094032,-0.05029885470867157
1789064048940891000,9.748890869140626,-0.09502242505550385,-0.09032401442527771,-0.0241793692111969
1789064048950927600,9.758927734375,-0.05780462920665741,-0.0993756428360939,-0.05409582331776619
1789064048960964900,9.76896484375,-0.03733983263373375,-0.08190104365348816,-0.022099008783698082
1789064048971001900,9.779001953125,-0.012360528111457825,-0.07463131844997406,0.017401129007339478
1789064048981038800,9.789038818359375,0.020673852413892746,-0.021928688511252403,0.02608303353190422
1789064048991075800,9.799075927734375,0.0347706638276577,0.03759755939245224,0.047371815890073776
1789064049001112600,9.809112548828125,0.049787696450948715,0.012317769229412079,0.03262615576386452
1789064049011149800,9.81914990234375,0.049385521560907364,-0.012402902357280254,0.057525813579559326
1789064049021186800,9.829186767578125,0.0634739100933075,-0.045231420546770096,0.04857306554913521
1789064049031223800,9.839223876953126,0.07785822451114655,-0.05116252601146698,0.03646397218108177
1789064049041260800,9.8492607421875,0.0723809003829956,-0.03009052760899067,0.016978420317173004
1789064049051297800,9.8592978515625,0.08669719845056534,-0.05465169996023178,0.03840944543480873
1789064049061334800,9.869334716796875,0.07612577825784683,-0.03177488222718239,0.05434340238571167
1789064049071371800,9.879371826171875,0.07937552034854889,0.038773804903030396,-0.029791684821248055
1789064049081408800,9.88940869140625,0.06724482029676437,0.02068401873111725,0.0044291382655501366
1789064049091446000,9.899446044921875,0.08311617374420166,-0.002322256565093994,-0.0025822953321039677
1789064049101482800,9.909482666015625,0.12450037151575089,-0.04429181292653084,0.024217361584305763
1789064049111519700,9.919519775390626,0.12768198549747467,-0.03790586441755295,0.045732613652944565
1789064049121556700,9.929556640625,0.1347220540046692,-0.040291786193847656,-0.06464716047048569
1789064049131593700,9.93959375,0.1346256285905838,0.07041595876216888,-0.07558100670576096
1789064049141631000,9.949630859375,0.12949956953525543,-0.020134979858994484,0.0017476036446169019
1789064049151667700,9.959667724609375,0.12330812215805054,0.07045411318540573,-0.03629688546061516
1789064049161704700,9.96970458984375,0.09885471314191818,0.06283348053693771,-0.07949495315551758
1789064049171740700,9.97974072265625,0.14629808068275452,0.03324641287326813,-0.09637124091386795
1789064049181777700,9.989777587890625,0.21826522052288055,0.06086871773004532,-0.048140063881874084
1789064049191815000,9.99981494140625,0.27274706959724426,0.029003705829381943,0.015878736972808838
1789064049201852000,10.009851806640626,0.26032236218452454,0.009265157394111156,0.027962032705545425
1789064049211889000,10.019888916015624,0.204271599650383,0.1299877017736435,0.006538131274282932
1789064049221925600,10.029925537109374,0.15838879346847534,0.1034783273935318,0.03205494210124016
1789064049231963000,10.039962890625,0.15316049754619598,0.13442692160606384,0.042751699686050415
1789064049242000000,10.049999755859375,0.19501499831676483,0.0822255089879036,0.06129901856184006
1789064049252036900,10.060036865234375,0.23596243560314178,0.037441521883010864,0.07961650937795639
1789064049262073900,10.070073974609375,0.23232577741146088,0.0697777196764946,0.07153430581092834
1789064049272110600,10.080110595703125,0.21000146865844727,0.08524451404809952,0.07227246463298798
1789064049282147800,10.09014794921875,0.17972426116466522,0.15341717004776,0.05201806128025055
1789064049292184800,10.100184814453126,0.1932699829339981,0.17852629721164703,0.017971478402614594
1789064049302221800,10.110221923828124,0.23574315011501312,0.14319494366645813,0.034886013716459274
1789064049312258800,10.1202587890625,0.2569766044616699,0.13444849848747253,0.005751699209213257
1789064049322295800,10.1302958984375,0.22278667986392975,0.09416445344686508,-0.0056298524141311646
1789064049332332800,10.140332763671875,0.12556222081184387,0.08242076635360718,0.02133791521191597
1789064049342369800,10.150369873046875,0.04780564084649086,0.08856867253780365,0.013977205380797386
1789064049352406800,10.16040673828125,0.02681536041200161,0.1175752654671669,0.017598804086446762
1789064049362444000,10.170444091796876,0.04922106862068176,0.08338666707277298,0.06262673437595367
1789064049372480800,10.180480712890626,0.1044679656624794,0.060371994972229004,0.06496468186378479
1789064049382517800,10.190517822265624,0.13905976712703705,0.12385536730289459,0.030891671776771545
1789064049392554800,10.2005546875,0.12302856147289276,0.08854049444198608,0.05130982771515846
1789064049402591700,10.210591796875,0.10239411890506744,0.18839411437511444,-0.0039001652039587498
1789064049412627700,10.220627685546875,0.06784108281135559,0.17103435099124908,-0.0007367247017100453
1789064049422665000,10.2306650390625,0.04514482617378235,0.1269843429327011,0.005175226833671331
1789064049432702000,10.240701904296875,0.03297971561551094,0.0892823189496994,-0.008909663185477257
1789064049442738700,10.25073876953125,0.0296797938644886,0.035460107028484344,-0.01710314303636551
1789064049452775700,10.260775634765626,0.03431015834212303,0.053458258509635925,-0.09060686081647873
1789064049462813000,10.27081298828125,0.013443224132061005,0.13913214206695557,-0.09212406724691391
1789064049472850000,10.280849853515624,-0.015072297304868698,0.03132007643580437,-0.032085828483104706
1789064049482887000,10.290886962890625,-0.007042067125439644,0.14039702713489532,-0.05041210725903511
1789064049492923600,10.300923583984375,0.014982182532548904,0.10784729570150375,-0.015897070989012718
1789064049502961000,10.3109609375,0.05570830777287483,0.1608191728591919,-0.0152461938560009
1789064049512998000,10.320997802734375,0.05865068733692169,0.14437445998191833,0.03823324665427208
1789064049523035000,10.331034912109375,0.028347376734018326,0.034011200070381165,0.08126193284988403
1789064049533072000,10.34107177734375,-0.035789888352155685,0.08430139720439911,0.0966726765036583
1789064049543108600,10.351108642578126,-0.10022533684968948,0.004467817023396492,0.10385762155056
1789064049553145900,10.361145751953124,-0.11256174743175507,0.019272638484835625,0.0715261846780777
1789064049563182800,10.371182861328125,-0.10329927504062653,0.1074400469660759,0.06943613290786743
1789064049573219800,10.3812197265625,-0.09058811515569687,0.022901389747858047,0.11956728994846344
1789064049583256800,10.3912568359375,-0.09078972041606903,0.10416508466005325,0.08774224668741226
1789064049593293800,10.4012939453125,-0.08871916681528091,0.08652883768081665,0.06726246327161789
1789064049603330800,10.411330810546875,-0.0625741183757782,0.07153098285198212,0.053828414529561996
1789064049613367800,10.421367919921876,-0.04248584061861038,0.0444524884223938,0.0225086472928524
1789064049623404800,10.43140478515625,-0.061989497393369675,-0.012330899015069008,-0.042333200573921204
1789064049633442000,10.441442138671874,-0.12681171298027039,0.07038712501525879,-0.11794134229421616
1789064049643478800,10.451478759765624,-0.2375968098640442,0.0564579963684082,-0.11118117719888687
1789064049653515800,10.461515869140625,-0.2994841933250427,0.00767070148140192,-0.07745160907506943
1789064049663551700,10.4715517578125,-0.26711589097976685,0.025223596021533012,-0.0794425830245018
1789064049673588700,10.481588623046875,-0.1725911796092987,0.0047163814306259155,-0.07574202865362167
1789064049683625700,10.491625732421875,-0.09273309260606766,-0.03236840292811394,-0.021188238635659218
1789064049693663000,10.5016630859375,-0.09785014390945435,-0.08004048466682434,0.060925837606191635
1789064049703699700,10.51169970703125,-0.15480399131774902,0.02506835386157036,0.07773438096046448
1789064049713736200,10.521736083984376,-0.2565826177597046,0.04065060615539551,0.08225496113300323
1789064049723773200,10.531773193359374,-0.2916889488697052,0.05698191002011299,0.11267784982919693
1789064049733810400,10.541810546875,-0.28507503867149353,-0.019463233649730682,0.12785133719444275
1789064049743847400,10.551847412109375,-0.234485924243927,-0.10046114772558212,0.048702728003263474
1789064049753884400,10.561884521484375,-0.2108834981918335,-0.05687045305967331,-0.005638006143271923
1789064049763921200,10.571921142578125,-0.245588481426239,-0.1667972207069397,0.004442324861884117
1789064049773958100,10.581958251953125,-0.2811987102031708,-0.06547699123620987,-0.04873531311750412
1789064049783995400,10.591995361328125,-0.3234795928001404,-0.053173184394836426,-0.03964248299598694
1789064049794032400,10.602032470703126,-0.3145972192287445,-0.05767320096492767,-0.08311079442501068
1789064049804069400,10.6120693359375,-0.2630821168422699,0.010409444570541382,-0.09369446337223053
1789064049814106000,10.622106201171874,-0.21168416738510132,-0.10058829933404922,-0.07497304677963257
1789064049824143400,10.632143310546875,-0.18562939763069153,-0.13241015374660492,-0.08377585560083389
1789064049834180400,10.642180419921875,-0.19826741516590118,-0.09585145860910416,-0.015705790370702744
1789064049844217300,10.65221728515625,-0.2149108499288559,-0.08030685782432556,-0.0026954493951052427
1789064049854254300,10.66225439453125,-0.23104719817638397,-0.06156405434012413,0.02927100472152233
1789064049864291300,10.672291259765625,-0.21024365723133087,-0.07869590818881989,0.07924815267324448
1789064049874328300,10.682328369140626,-0.14162251353263855,-0.02480604127049446,0.0886661559343338
1789064049884365300,10.692365234375,-0.11468837410211563,-0.10288087278604507,0.12586039304733276
1789064049894402300,10.70240234375,-0.130796417593956,-0.04334226995706558,0.07499761134386063
1789064049904438300,10.712438232421874,-0.1559249311685562,-0.057079922407865524,0.08810409158468246
1789064049914475300,10.722475341796875,-0.18058370053768158,-0.175846129655838,0.08397866040468216
1789064049924512500,10.732512451171875,-0.14762547612190247,-0.07348646968603134,-0.029996907338500023
1789064049934549200,10.74254931640625,-0.13368447124958038,-0.08061473816633224,-0.0794999822974205
1789064049944586200,10.752586181640625,-0.09600820392370224,-0.05625293776392937,-0.15892823040485382
1789064049954623200,10.762623291015625,-0.0754719078540802,-0.07443441450595856,-0.10467148572206497
1789064049964660500,10.772660400390626,-0.07999368757009506,-0.07686001807451248,-0.07421796768903732
1789064049974697500,10.782697509765624,-0.0722852274775505,-0.03500982001423836,-0.11331892758607864
1789064049984734200,10.792734130859374,-0.07387460768222809,-0.0877702385187149,-0.060910046100616455
1789064049994771200,10.802771240234375,-0.049224309623241425,-0.08639783412218094,-0.028057798743247986
1789064050004808400,10.812808349609375,-0.032804589718580246,-0.12302561849355698,0.02594098635017872
1789064050014845400,10.822845458984375,-0.05180874839425087,-0.0656801164150238,0.01072402112185955
1789064050024882400,10.83288232421875,-0.049616701900959015,-0.0311125535517931,-0.018609898164868355
1789064050034919200,10.842919189453125,-0.041940607130527496,-0.02966800518333912,0.011663215234875679
1789064050044956200,10.8529560546875,0.0030084915924817324,-0.05392353981733322,0.02701953426003456
1789064050054993400,10.862993408203126,0.03776809573173523,-0.04253080487251282,0.06090550124645233
1789064050065030400,10.873030517578124,0.04824976623058319,-0.11116686463356018,0.026382409036159515
1789064050075067400,10.8830673828125,0.059292156249284744,-0.04184085503220558,-0.009834816679358482
1789064050085104000,10.893104248046875,0.03188077360391617,-0.034391727298498154,0.014941902831196785
1789064050095141400,10.903141357421875,0.030272841453552246,-0.023742109537124634,0.02294164150953293
1789064050105178400,10.913178466796875,0.01587020233273506,-0.06978177279233932,0.07239946722984314
1789064050115215400,10.92321533203125,0.0513414666056633,-0.06314006447792053,0.02631060592830181
1789064050125252400,10.93325244140625,0.09560053795576096,-0.00005111284554004669,0.00013412907719612122
1789064050135288300,10.943288330078126,0.07963065057992935,-0.08047642558813095,0.053529042750597
1789064050145325300,10.9533251953125,0.03976579010486603,-0.033911582082509995,0.03137393668293953
1789064050155362300,10.9633623046875,-0.016519596800208092,-0.04590793699026108,0.054387181997299194
1789064050165399300,10.9733994140625,-0.03629010543227196,-0.07228761166334152,0.043747320771217346
1789064050175436300,10.983436279296875,0.009818845428526402,-0.04635186120867729,-0.007950730621814728
1789064050185473300,10.993473388671875,0.05959305912256241,-0.05195648595690727,0.016912806779146194
1789064050195510300,11.00351025390625,0.09203600138425827,-0.0707935318350792,0.04037795215845108
1789064050205547300,11.01354736328125,0.07609005272388458,-0.07537230849266052,0.053399477154016495
1789064050215584300,11.023584228515626,0.05870560184121132,-0.0017636710545048118,0.0025412586983293295
1789064050225621200,11.033621337890626,0.05709385499358177,0.02948240004479885,-0.017733121290802956
1789064050235658500,11.043658447265624,0.055170733481645584,0.032518498599529266,-0.004316611215472221
1789064050245695200,11.0536953125,0.07113585621118546,-0.06140133738517761,0.021171970292925835
1789064050255732200,11.063732177734375,0.08363473415374756,-0.0875854641199112,-0.006362619809806347
1789064050265769200,11.073769287109375,0.10025099664926529,-0.01993238553404808,-0.06506907194852829
1789064050275806500,11.083806396484375,0.09919896721839905,-0.0657048374414444,-0.07162085175514221
1789064050285843500,11.093843505859375,0.0762755423784256,0.0036729061976075172,-0.10070496797561646
1789064050295880200,11.103880126953126,0.07492279261350632,0.01066564116626978,-0.04903608188033104
1789064050305917200,11.113917236328126,0.07918864488601685,-0.004310645163059235,-0.03738688305020332
1789064050315954200,11.1239541015625,0.13801385462284088,0.0049680499359965324,-0.04221905395388603
1789064050325991400,11.133991455078124,0.19025762379169464,0.06391898542642593,-0.011674724519252777
1789064050336028400,11.1440283203125,0.19763155281543732,-0.005083540920168161,0.056961752474308014
1789064050346065400,11.1540654296875,0.17829594016075134,-0.003237171098589897,0.06874997168779373
1789064050356102100,11.16410205078125,0.11916764080524445,0.01606219820678234,0.09246785938739777
1789064050366139400,11.174139404296875,0.1054326593875885,0.07797270268201828,0.021974781528115273
1789064050376175400,11.18417529296875,0.08954756706953049,0.04177068546414375,0.09428057819604874
1789064050386212400,11.19421240234375,0.09305654466152191,-0.09454161673784256,0.21052488684654236
1789064050396249300,11.204249267578126,0.11025626212358475,-0.051247552037239075,0.1503722369670868
1789064050406286300,11.214286376953124,0.11044801026582718,0.04234551638364792,0.12993858754634857
1789064050416323300,11.2243232421875,0.1305728703737259,0.04777419939637184,0.16145360469818115
1789064050426360300,11.2343603515625,0.1335524171590805,-0.004728954751044512,0.18604762852191925
1789064050436397300,11.244397216796875,0.143558070063591,-0.0027076886035501957,0.2015100121498108
1789064050446434300,11.254434326171875,0.1423114389181137,0.07071752101182938,0.13204413652420044
1789064050456471300,11.26447119140625,0.11927729845046997,0.11587478965520859,0.029266847297549248
1789064050466508300,11.27450830078125,0.09495490789413452,0.05114399269223213,-0.015531252138316631
1789064050476545300,11.284545166015626,0.10349021852016449,0.06403018534183502,-0.10948780924081802
1789064050486582300,11.294582275390624,0.09989282488822937,-0.0817674994468689,-0.05795750394463539
1789064050496619300,11.304619384765624,0.09372041374444962,-0.024824053049087524,-0.137332484126091
1789064050506656500,11.314656494140625,0.08016465604305267,0.0022142212837934494,-0.20491419732570648
1789064050516693200,11.324693359375,0.057232122868299484,0.05895429477095604,-0.11394883692264557
1789064050526730200,11.334730224609375,0.06805947422981262,0.02170119807124138,-0.1084454134106636
1789064050536767200,11.344767333984375,0.08866040408611298,0.12939561903476715,-0.11046119034290314
1789064050546804500,11.354804443359376,0.10385134071111679,0.1535174548625946,-0.12608782947063446
1789064050556841500,11.364841552734376,0.12093674391508102,0.05835864320397377,-0.09575808048248291
1789064050566878200,11.374878173828124,0.10917782783508301,0.08114704489707947,-0.14722658693790436
1789064050576915200,11.384915283203124,0.09000509977340698,0.07809913158416748,-0.19133733212947845
1789064050586952200,11.3949521484375,0.024645261466503143,-0.10630373656749725,-0.0064638820476830006
1789064050596988200,11.40498828125,-0.052124425768852234,-0.10229330509901047,0.00622374564409256
1789064050607025400,11.415025390625,-0.08633672446012497,0.00202697585336864,0.009735922329127789
1789064050617062400,11.4250625,-0.0794578269124031,0.10422282665967941,0.09530112147331238
1789064050627099400,11.435099365234375,-0.013123809359967709,0.021848859265446663,0.186279758810997
1789064050637136100,11.44513623046875,0.05611952766776085,0.07609096169471741,0.21635577082633972
1789064050647173400,11.45517333984375,0.09784300625324249,0.07530586421489716,0.18821655213832855
1789064050657210400,11.46521044921875,0.08300217241048813,0.08468718826770782,0.16453972458839417
1789064050667247400,11.475247314453124,0.0230213962495327,0.09543649852275848,0.1145268902182579
1789064050677284400,11.485284423828125,-0.047329679131507874,0.03549956902861595,0.04615391790866852
1789064050687321300,11.4953212890625,-0.09678111970424652,0.06074313819408417,-0.035342004150152206
1789064050697358300,11.5053583984375,-0.108183354139328,0.02442045696079731,-0.1119663342833519
1789064050707395800,11.515395751953125,-0.12150847911834717,-0.006753706373274326,-0.1442108303308487
1789064050717432800,11.525432861328126,-0.16116510331630707,-0.0073374733328819275,-0.15715502202510834
1789064050727469600,11.535469482421876,-0.17679813504219055,-0.022131066769361496,-0.1451265811920166
1789064050737506600,11.545506591796874,-0.18883226811885834,0.044962022453546524,-0.11104132235050201
1789064050747543800,11.555543701171874,-0.18750707805156708,-0.05358079820871353,-0.027958422899246216
1789064050757580800,11.565580810546875,-0.17370717227458954,0.02436058223247528,-0.03113018348813057
1789064050767617800,11.57561767578125,-0.16893638670444489,0.0056319027207791805,-0.038091421127319336
1789064050777654500,11.585654541015625,-0.15644694864749908,0.021086519584059715,-0.011867943219840527
1789064050787691800,11.59569189453125,-0.19567663967609406,-0.03465264290571213,0.07501289248466492
1789064050797728800,11.605728759765626,-0.2611125707626343,-0.08033940941095352,0.08978938311338425
1789064050807765800,11.615765869140626,-0.3009342849254608,-0.034211333841085434,0.020161829888820648
1789064050817801700,11.6258017578125,-0.3077847361564636,-0.07714000344276428,0.005854560527950525
1789064050827838700,11.635838623046874,-0.2520415782928467,-0.012177521362900734,-0.0019037603633478284
1789064050837876000,11.6458759765625,-0.2181740254163742,-0.03737204521894455,0.011498202569782734
1789064050847912700,11.65591259765625,-0.21008972823619843,-0.06366463750600815,-0.02940475568175316
1789064050857949700,11.66594970703125,-0.23946572840213776,-0.0005268016830086708,-0.11271622776985168
1789064050867986700,11.675986572265625,-0.2689538300037384,-0.10039001703262329,-0.12819264829158783
1789064050878023700,11.686023681640625,-0.2938497066497803,-0.07746932655572891,-0.13034069538116455
1789064050888061000,11.69606103515625,-0.3056158125400543,-0.09757858514785767,-0.17546209692955017
1789064050898097700,11.70609765625,-0.29636338353157043,-0.08278252184391022,-0.10157665610313416
1789064050908134700,11.716134765625,-0.2921593189239502,-0.11217503249645233,-0.03174511343240738
1789064050918171600,11.726171630859374,-0.24954618513584137,-0.03212527930736542,-0.04079180210828781
1789064050928209000,11.736208984375,-0.2459980547428131,-0.03557753562927246,0.07236991077661514
1789064050938246000,11.746245849609375,-0.21161973476409912,-0.08394129574298859,0.05450991913676262
1789064050948282600,11.75628271484375,-0.17735789716243744,-0.02251414954662323,0.0807923898100853
1789064050958319600,11.766319580078125,-0.1656317114830017,-0.10711183398962021,0.14554275572299957
1789064050968356900,11.77635693359375,-0.1959821581840515,-0.08851205557584763,0.1480914056301117
1789064050978393900,11.786393798828126,-0.2862211763858795,-0.0778970792889595,0.17114879190921783
1789064050988430800,11.796430908203124,-0.35085931420326233,-0.11663462221622467,0.1413634717464447
1789064050998467600,11.806467529296874,-0.3573700785636902,-0.057912908494472504,0.10811169445514679
1789064051008504600,11.816504638671875,-0.29067307710647583,-0.1424136757850647,0.12855012714862823
1789064051018541800,11.826541748046875,-0.2119893580675125,-0.14944027364253998,0.07090719789266586
1789064051028578800,11.836578857421875,-0.19931697845458984,-0.1625629961490631,-0.004936963319778442
1789064051038615800,11.84661572265625,-0.22506940364837646,-0.04886409267783165,-0.1477908492088318
1789064051048651800,11.85665185546875,-0.2703152000904083,-0.07707177102565765,-0.0989234447479248
1789064051058688800,11.866688720703126,-0.2729779779911041,-0.058407191187143326,-0.1162356585264206
1789064051068725800,11.876725830078126,-0.23939336836338043,-0.06391408294439316,-0.18764592707157135
1789064051078762800,11.8867626953125,-0.21176211535930634,-0.14542484283447266,-0.21164286136627197
1789064051088799700,11.8967998046875,-0.17778338491916656,-0.12116477638483047,-0.21668024361133575
1789064051098836700,11.906836669921875,-0.15504227578639984,-0.15647079050540924,-0.17161469161510468
1789064051108873700,11.916873779296875,-0.11901078373193741,-0.07703083008527756,-0.10255786031484604
1789064051118910700,11.92691064453125,-0.11144664883613586,-0.09098608046770096,-0.02371208183467388
1789064051128947700,11.93694775390625,-0.10505959391593933,-0.017297744750976562,0.03388223797082901
1789064051138984700,11.946984619140625,-0.1050352230668068,-0.04099181294441223,0.14741076529026031
1789064051149021700,11.957021728515626,-0.07109030336141586,-0.06077457219362259,0.17250414192676544
1789064051159058700,11.96705859375,-0.02806389145553112,-0.03206632658839226,0.18475231528282166
1789064051169095700,11.977095703125,0.0077143446542322636,-0.14109747111797333,0.2089489996433258
1789064051179132700,11.987132568359375,0.020284967496991158,-0.0793432965874672,0.1620769202709198
1789064051189169700,11.997169677734375,-0.006560760550200939,-0.07379592955112457,0.1317555010318756
1789064051199207000,12.00720703125,-0.029043037444353104,-0.0674922987818718,0.06675776839256287
1789064051209243600,12.01724365234375,-0.026632077991962433,-0.025542452931404114,0.010378645732998848
1789064051219280600,12.02728076171875,0.011500182561576366,-0.07136223465204239,-0.05282006785273552
1789064051229317600,12.037317626953126,0.08346518129110336,-0.015430262312293053,-0.10807293653488159
1789064051239355000,12.04735498046875,0.12444451451301575,-0.07138904184103012,-0.07806120067834854
1789064051249391900,12.057391845703124,0.13965703547000885,-0.05186114460229874,-0.08852236717939377
1789064051259428900,12.067428955078125,0.1209678053855896,-0.0017775902524590492,-0.06718049198389053
1789064051269464800,12.07746484375,0.1159120574593544,-0.02803875505924225,-0.02744692750275135
1789064051279501600,12.08750146484375,0.1290084570646286,0.05133397877216339,-0.018004588782787323
1789064051289538600,12.09753857421875,0.15326425433158875,-0.0309987124055624,0.025489626452326775
1789064051299575800,12.107575927734375,0.19588059186935425,0.09390271455049515,0.006735537201166153
1789064051309612800,12.11761279296875,0.20959427952766418,-0.007616184651851654,0.011752400547266006
1789064051319649800,12.12764990234375,0.23010678589344025,0.049995966255664825,-0.01957734115421772
1789064051329686500,12.1376865234375,0.22097161412239075,-0.014992622658610344,-0.00793160405009985
1789064051339723800,12.147723876953124,0.2128666192293167,0.0845436230301857,-0.08118583261966705
1789064051349760800,12.1577607421875,0.1897306740283966,0.06340131908655167,-0.03319805860519409
1789064051359797800,12.1677978515625,0.18602865934371948,-0.004099818877875805,0.005347036756575108
1789064051369834800,12.177834716796875,0.221950963139534,0.10042419284582138,-0.04123111814260483
1789064051379871700,12.187871826171875,0.24688196182250977,0.08385003358125687,-0.04513004422187805
1789064051389908700,12.19790869140625,0.24778610467910767,0.1635320782661438,-0.0420069582760334
1789064051399945700,12.20794580078125,0.2161559760570526,0.06972610205411911,0.005461782682687044
1789064051409982700,12.217982666015626,0.1550566703081131,0.038041677325963974,0.005278557073324919
1789064051420019700,12.228019775390624,0.10464344918727875,0.0427093543112278,-0.007764244452118874
1789064051430056700,12.238056640625,0.0531001016497612,-0.01625489816069603,0.007409382611513138
1789064051440093700,12.24809375,0.01983385719358921,-0.005444665439426899,0.006372878793627024
1789064051450130700,12.258130615234375,-0.02150213159620762,-0.07320427149534225,0.036078307777643204
