time,seconds_elapsed,z,y,x
1789221662920928000,0.050927978515625,5.966051261901855,7.832331455993652,0.9656114570617675
1789221662931007200,0.06100732421875,5.916670852661133,7.803451398468017,1.0078092613220215
1789221662941087000,0.0710869140625,5.96305850982666,7.8341271072387695,0.9561842880249023
1789221662951166200,0.081166259765625,6.012738194274902,7.934683576965331,0.8889970039367675
1789221662961245200,0.0912451171875,6.075137075042724,7.846547028350829,0.881664761352539
1789221662971324200,0.10132421875,6.037727674102783,7.860612963104248,1.0452186622619628
1789221662981404200,0.111404052734375,5.932981351470947,7.895927437591553,1.0003273811340332
1789221662991483000,0.12148291015625,5.7885810638427735,7.849390142822265,0.8512883277893066
1789221663001562000,0.13156201171875,5.7231894309997555,7.898471276855468,0.8028057441711425
1789221663011641000,0.14164111328125,5.744737245941161,7.883357878875732,0.8906430175781249
1789221663021721000,0.15172119140625,5.8636991409301755,7.887847006988525,0.8782230964660644
1789221663031800000,0.161800048828125,5.9205614303588865,7.909544459533691,0.8860042518615722
1789221663041879300,0.17187939453125,5.997325521087646,7.894131786346435,0.9898527488708495
1789221663051958000,0.1819580078125,6.066757369232177,7.876624186706542,1.0260650489807128
1789221663062038300,0.192038330078125,5.9956795074462885,7.880814039611816,0.9175777862548827
1789221663072117000,0.202116943359375,5.980566109466553,7.9278002471923825,0.7106289802551269
1789221663082196000,0.212196044921875,6.031143619537353,7.934982852172851,0.5838859298706054
1789221663092275200,0.222275146484375,5.910386073303222,7.941117993927001,0.5256769020080566
1789221663102355000,0.23235498046875,5.665429315948486,8.131606663513184,0.45444940261840816
1789221663112434200,0.24243408203125,5.472845719909667,8.320000406646727,0.37768531188964843
1789221663122513200,0.25251318359375,5.50337179107666,8.314164540100098,0.20605098037719724
1789221663132592000,0.262592041015625,5.552004012298584,8.14013600692749,0.09965864410400391
1789221663142672400,0.27267236328125,5.399373656463623,8.129811012268066,0.18749591751098632
1789221663152751000,0.282751220703125,5.426158787536621,8.201188149261474,0.29239187774658204
1789221663162830300,0.292830322265625,5.794416930389404,8.2613424659729,0.15263035583496093
1789221663172909300,0.302909423828125,6.127210961151123,8.380154723358153,-0.09561842880249023
1789221663182988300,0.31298828125,5.863998416137695,8.363694586944579,0.26231471939086914
1789221663193068300,0.323068359375,5.740397755432128,8.213757707977294,0.7568669998168945
1789221663203147300,0.333147216796875,5.617545282745361,7.96745421218872,1.2874819427490234
1789221663213226200,0.343226318359375,5.950788226318359,7.866448829650879,1.276259122467041
1789221663223305200,0.35330517578125,5.98161357269287,8.051101632690429,0.6567594429016113
1789221663233385200,0.36338525390625,5.596296743011474,8.166921138000488,0.7504325828552245
1789221663243464200,0.373464111328125,5.35642766418457,8.079832052612304,0.8933364944458008
1789221663253543200,0.383543212890625,5.467608403778076,8.010699479675292,0.9192237998962401
1789221663263622400,0.393622314453125,5.317521887207031,8.16557439956665,1.0001777435302734
1789221663273702100,0.4037021484375,4.925321727752685,8.183231636810302,1.20667763671875
1789221663283781400,0.413781494140625,4.942230776977539,8.17185917892456,1.2566565963745115
1789221663293860000,0.423860107421875,4.538658159637451,8.261492103576659,0.8864531646728515
1789221663303939300,0.433939208984375,4.141519959259033,8.457816639709472,0.5437830520629883
1789221663314019300,0.444019287109375,4.441244079589843,8.506448860931396,0.18300678939819334
1789221663324098300,0.454098388671875,4.53940634765625,8.505850310516356,-0.18255787658691405
1789221663334177300,0.46417724609375,4.341884710693359,8.739135334777831,0.012569558715820313
1789221663344256300,0.47425634765625,4.139724308013916,8.90613090057373,0.14993687896728514
1789221663354336300,0.484336181640625,3.9023990684509275,8.770110318756103,-0.1379658706665039
1789221663364415200,0.494415283203125,3.358915291595459,8.592490483093261,-0.5071218391418457
1789221663374494200,0.504494140625,3.0728081932067868,8.83580122680664,-0.9392752388000488
1789221663384573200,0.5145732421875,2.9562404998779295,8.878597581481934,-1.2990040382385253
1789221663394653400,0.5246533203125,2.405723755645752,8.276306226348876,-1.1801917808532714
1789221663404732200,0.534732177734375,2.2629694816589354,8.108263197326659,-1.527650296783447
1789221663414811400,0.544811279296875,4.534917219543456,9.04708952331543,-0.2002151138305664
1789221663424890400,0.554890380859375,5.589712688446045,8.480711193084716,0.6976105087280273
1789221663434970000,0.56497021484375,5.2557215568542475,8.489240536499024,0.6001964286804199
1789221663445049300,0.57504931640625,5.137358212280273,8.649801685333252,0.27249007644653317
1789221663455128300,0.58512841796875,4.546888227844238,8.527398125457763,0.034715924072265626
1789221663465207300,0.595207275390625,3.8486791687011714,8.140884194946288,-0.19617489852905273
1789221663475287300,0.605287353515625,3.8509237327575683,7.867346655273437,-0.2653074714660644
1789221663485366300,0.6153662109375,4.170699291992188,7.821856823730468,-0.35658640975952144
1789221663495445200,0.6254453125,4.561403075408935,7.895478524780273,0.12135609664916991
1789221663505524200,0.635524169921875,4.223820641326904,8.188468952941895,0.11237784042358398
1789221663515604200,0.645604248046875,3.1815947311401365,8.50360574645996,-0.4375403533935547
1789221663525683200,0.65568310546875,2.1890485054016113,8.176049031829834,-0.12868833923339842
1789221663535762400,0.665762451171875,2.1425112106323243,6.797886701202392,0.7155670211791991
1789221663545841200,0.675841064453125,2.574814247894287,5.85412233428955,0.7275380294799805
1789221663555921400,0.68592138671875,2.34302559967041,5.710021321868896,0.27623101654052734
1789221663566000000,0.696000244140625,2.0403087272644043,6.660369743347167,0.20694880599975585
1789221663576079400,0.706079345703125,1.820191812133789,7.524975817871093,0.17417817077636719
1789221663586158300,0.716158447265625,1.514332550048828,8.196699021148682,0.654365241241455
1789221663596238000,0.726238037109375,1.8617910659790038,9.753977563476562,0.4037222549438476
1789221663606317300,0.7363173828125,1.8471265808105468,11.802067446136475,-0.6329670639038085
1789221663616396300,0.746396240234375,1.7845780624389647,13.26028589477539,-1.4827590156555175
1789221663626475300,0.756475341796875,2.5769091743469237,12.905794411468506,-1.936909143066406
1789221663636555300,0.76655517578125,3.4395699600219722,12.429348281097411,-1.1053729789733886
1789221663646634200,0.77663427734375,3.036895168304443,12.350938176727293,-0.9190741622924804
1789221663656713200,0.786713134765625,2.5082255142211913,12.605771015930175,-0.5725134719848632
1789221663666792200,0.796792236328125,2.248304996490478,12.016049219512938,-0.36107553787231444
1789221663676872200,0.8068720703125,1.9903297676086424,10.47612863922119,-0.244507844543457
1789221663686951200,0.816951171875,2.6417022567749022,8.968978694152831,-0.3755903854370117
1789221663697030400,0.827030517578125,2.9972412033081053,7.89098939666748,-0.9579799392700195
1789221663707109000,0.837109130859375,3.290231631469726,7.4568907081604,-0.4423287567138672
1789221663717189400,0.847189453125,2.78355870513916,8.322843521118164,-0.6869862388610839
1789221663727268000,0.85726806640625,2.166303589630127,8.589048818206786,-1.5408184059143066
1789221663737347300,0.867347412109375,3.0163948165893553,8.648754222106932,-1.6716016716003417
1789221663747426300,0.87742626953125,2.6780641944885253,8.973318184661865,-1.4532804077148436
1789221663757505300,0.88750537109375,2.4678233612060545,10.031405680847167,-2.2746412147521973
1789221663767585300,0.897585205078125,1.4842553916931152,10.913369717407226,-2.6171616897583005
1789221663777664300,0.907664306640625,0.4578910675048828,10.167575900268554,-1.4745289474487304
1789221663787743200,0.9177431640625,0.6245873580932617,9.119364485931396,-0.07826046676635742
1789221663797823200,0.9278232421875,2.245312244415283,8.425644554901123,0.19722236175537108
1789221663807902500,0.93790234375,3.081038261413574,8.400954350280761,0.004638765716552734
1789221663817981200,0.947981201171875,2.8217162940979,9.188347421264648,0.4101566719055176
1789221663828060200,0.95806005859375,2.041056915283203,9.951798475646973,-0.1345242057800293
1789221663838139400,0.968139404296875,1.061678798675537,10.61708726196289,-0.44412440795898434
1789221663848219100,0.97821923828125,1.694346587371826,11.03951421737671,-0.6724713912963867
1789221663858298400,0.98829833984375,1.6124948181152343,10.828974108886719,-1.0534487304687499
1789221663868377000,0.998377197265625,1.3039420791625975,11.007940682983397,-1.0097545501708984
1789221663878457300,1.008457275390625,0.7923311119079589,10.959158824157715,-1.8403928886413574
1789221663888536300,1.018536376953125,0.14006079711914063,10.477625015258788,-1.9023428565979004
1789221663898615300,1.028615234375,0.02319382858276367,9.808595288848876,-1.3192051147460937
1789221663908694300,1.0386943359375,0.8381202186584472,8.573187232208252,-0.5189432098388671
1789221663918773200,1.048773193359375,2.980182516479492,7.502829452514648,-0.2002151138305664
1789221663928853200,1.058853271484375,4.247912295532227,7.707982607269287,-0.12898761444091797
1789221663938932200,1.06893212890625,3.362805869293213,9.021651130676268,-0.03366846084594726
1789221663949011200,1.07901123046875,2.5043349365234375,10.45113915939331,-0.23253683624267577
1789221663959090200,1.089090087890625,2.039410901641846,11.246612660980224,-0.8327332649230956
1789221663969170400,1.09917041015625,1.4471452659606934,11.106701501464842,-0.37663784866333005
1789221663979249200,1.109249267578125,2.3540987823486326,10.673351000976561,-1.0108020133972166
1789221663989328100,1.119328125,2.708889540863037,9.926509720611572,-1.389983701324463
1789221663999407400,1.129407470703125,3.584868073272705,9.464877713012696,-1.4235025245666504
1789221664009487000,1.139487060546875,3.4132337417602536,8.923937775421143,-0.5367500846862793
1789221664019566300,1.14956640625,2.2521955741882325,9.22635537261963,-0.17896657409667968
1789221664029645300,1.159645263671875,1.156249764251709,9.944017320251465,-0.3242646873474121
1789221664039724300,1.169724365234375,0.7390601249694824,10.531045639801025,-0.17133505630493162
1789221664049804300,1.17980419921875,0.745644179534912,10.09395419921875,-0.2328361114501953
1789221664059883300,1.18988330078125,1.971475429534912,9.46787046508789,-0.2813186950683594
1789221664069962200,1.199962158203125,1.8222867385864256,9.635165306091308,0.2549824768066406
1789221664080041200,1.210041259765625,1.4897919830322264,10.18942299041748,0.22505495605468748
1789221664090121200,1.220121337890625,2.2309470344543456,10.709264025878905,-0.9003694618225098
1789221664100200200,1.2302001953125,2.310554239654541,10.036343721771239,-0.9317933586120605
1789221664110279400,1.240279541015625,2.1799206115722654,9.224709358978272,-1.1604396171569824
1789221664120358100,1.250358154296875,3.1124621582031247,10.11295817489624,-1.542464419555664
1789221664130438400,1.2604384765625,3.554192364501953,10.515782604217529,-0.7846995941162109
1789221664140517000,1.27051708984375,3.7128082244873046,10.311976187896727,-0.3275567146301269
1789221664150596400,1.280596435546875,3.390788101196289,10.097545501708984,-0.18121113815307616
1789221664160675300,1.29067529296875,2.810343836212158,10.11984150466919,-0.36840778045654293
1789221664170755300,1.30075537109375,2.4768016174316405,9.832537305450439,-0.16445172653198242
1789221664180834300,1.310834228515625,1.863586717224121,8.946832328796386,-1.0268132369995118
1789221664190913500,1.32091357421875,2.7494413314819335,9.453056342315673,-1.7709610404968261
1789221664200992300,1.3309921875,2.96207636642456,9.6794580368042,-0.2458545829772949
1789221664211072500,1.341072509765625,3.8658874931335445,9.425373385620116,-0.8423100715637206
1789221664221151200,1.351151123046875,3.5927988662719725,10.715848080444335,-0.13871405868530273
1789221664231230200,1.361230224609375,2.8836662620544433,11.079617095184325,-0.5169979209899902
1789221664241309400,1.371309326171875,2.6515783386230467,10.864288583374023,0.16549918975830077
1789221664251389200,1.38138916015625,2.6206033546447753,9.459191484069823,0.6956652198791503
1789221664261468400,1.391468505859375,2.3636755889892576,8.896853369140624,0.7683890953063964
1789221664271547400,1.40154736328125,1.8625392539978027,9.229048849487304,0.8189666053771972
1789221664281626000,1.411626220703125,1.5342343513488768,9.08464856185913,0.020649989318847654
1789221664291706400,1.421706298828125,1.9219453826904296,8.961496813964843,-0.558597174835205
1789221664301785300,1.431785400390625,2.678213832092285,8.703970497894286,-1.4867992309570313
1789221664311864300,1.4418642578125,2.971653173065185,9.354145886230468,-1.2958616485595702
1789221664321943300,1.451943359375,2.9384336250305174,9.78121160736084,-0.715716658782959
1789221664332023300,1.462023193359375,2.2671593345642087,9.65955623550415,-1.1393407150268553
1789221664342102300,1.472102294921875,1.4386159225463866,9.732878661346435,-1.693149486541748
1789221664352181500,1.482181396484375,2.6036943054199218,9.503184939575196,-0.7065887649536132
1789221664362260200,1.49226025390625,2.6306290740966793,8.924237050628662,-0.2832639839172363
1789221664372340500,1.502340576171875,2.2918495391845704,8.962993190002441,0.14933832855224607
1789221664382419500,1.51241943359375,1.6042647499084473,9.101707248687744,0.010773907470703125
1789221664392498200,1.522498291015625,1.307533381652832,9.583241057586669,-0.4976946701049804
1789221664402577400,1.532577392578125,1.599326708984375,9.758765966796874,-0.5747580360412597
1789221664412657200,1.5426572265625,2.092232975769043,9.22590645980835,-1.0290578010559082
1789221664422736400,1.552736328125,2.2978350433349606,9.46802010269165,-1.1263222434997557
1789221664432815400,1.5628154296875,2.550572956085205,9.67811129837036,-1.0658686515808105
1789221664442894300,1.572894287109375,2.4685715492248534,9.682750064086914,-0.8491934013366699
1789221664452974300,1.582974365234375,2.03043264541626,9.421482807922363,-0.615459464263916
1789221664463053300,1.59305322265625,2.020107650756836,9.269151727294922,-0.6739677673339843
1789221664473132300,1.60313232421875,2.704550050354004,9.369708197021485,-1.0178349807739258
1789221664483211300,1.613211181640625,2.859574607849121,9.503783489990234,-1.5277999343872068
1789221664493291300,1.623291259765625,2.3828292022705075,9.14300722732544,-2.0335750350952146
1789221664503370200,1.633370361328125,2.3605331993103027,9.087042763519287,-1.389983701324463
1789221664513449500,1.643449462890625,2.117521730804443,10.212467181396484,-0.4777928688049316
1789221664523528400,1.653528564453125,1.4706383697509764,9.480140748596192,-0.7031471000671387
1789221664533608400,1.6636083984375,1.4170681076049805,9.576058452606201,-0.20994155807495116
1789221664543687400,1.6736875,1.9265841484069823,9.15482859802246,0.024091654205322263
1789221664553766100,1.68376611328125,2.160617360687256,9.12295578842163,-0.2603694305419922
1789221664563845400,1.693845458984375,1.8083704414367674,9.363872330474853,-0.4857236618041992
1789221664573925400,1.70392529296875,1.6487071182250976,9.418789331054686,-0.4487631736755371
1789221664584004400,1.71400439453125,2.0536264739990235,9.629179801940918,-0.7902361854553223
1789221664594083300,1.724083251953125,2.709488091278076,9.604639234924315,-1.011849476623535
1789221664604162600,1.73416259765625,3.087622315979004,9.65865840988159,-0.5140051689147949
1789221664614242300,1.7442421875,2.896984008789062,9.712378309631347,-0.07601590270996093
1789221664624321300,1.7543212890625,2.54084651184082,9.451709603881836,-0.7579144630432129
1789221664634400300,1.764400146484375,2.412607085418701,9.393799851226806,-1.0016741195678711
1789221664644479200,1.774479248046875,1.7304092498779295,9.502736026763916,-0.4327519500732422
1789221664654559500,1.7845595703125,1.4547767837524412,9.579500117492675,0.027533319091796873
1789221664664638200,1.79463818359375,2.2936451904296873,9.55795230255127,0.004489128112792969
1789221664674717400,1.804717529296875,2.7076924400329587,9.532962822723388,0.4011784156799316
1789221664684796400,1.81479638671875,2.0786159538269042,9.543138179779053,0.11417349166870117
1789221664694876400,1.82487646484375,1.393724641418457,9.42312882156372,-0.8438064476013183
1789221664704955400,1.834955322265625,0.3094505645751953,9.349058207702637,-1.7161936775207518
1789221664715034400,1.845034423828125,0.7917325614929199,9.885957929992676,-0.40776247024536133
1789221664725113300,1.85511328125,2.0718822616577146,10.105476294708252,0.8128314636230468
1789221664735193300,1.865193359375,3.118298024749756,9.46098713531494,0.299424845123291
1789221664745272300,1.875272216796875,4.110694612884521,8.687659999084472,-0.8945335952758788
1789221664755351300,1.885351318359375,3.5416228057861328,9.24446152267456,-1.753154165649414
1789221664765430500,1.895430419921875,2.792985874176025,9.562890343475342,-1.3807061698913574
1789221664775510300,1.90551025390625,2.2598270919799806,9.981426721191406,1.0019733947753906
1789221664785589500,1.915589599609375,2.544737089538574,9.699808750915526,0.5313631309509277
1789221664795668500,1.92566845703125,1.930025813293457,9.919925666046142,-0.859967308807373
1789221664805747200,1.935747314453125,0.4686649749755859,9.505429503631591,-0.6607996582031249
1789221664815827500,1.945827392578125,1.8091186294555663,9.234286165618895,-0.639700756072998
1789221664825906200,1.95590625,3.0986954986572264,9.389310723114013,-0.7049427513122558
1789221664835985400,1.9659853515625,3.8769606758117674,9.403077382659912,-0.5409399375915527
1789221664846064400,1.976064453125,3.9354689788818358,9.354445161437988,-0.5922656356811523
1789221664856144400,1.986144287109375,3.5728970649719236,10.120739330291748,0.08304887008666992
1789221664866223400,1.996223388671875,3.2809541000366207,9.560196866607665,0.8054992210388183
1789221664876302300,2.00630224609375,2.635267839813232,9.583241057586669,-0.5002385093688965
1789221664886381300,2.01638134765625,2.1001637687683106,9.323919090270996,-1.2651859397888183
1789221664896461300,2.02646142578125,3.220350870513916,9.362076679229736,-0.3651157531738281
1789221664906540300,2.036540283203125,3.145083155822754,9.241468770599365,0.14185644836425781
1789221664916619300,2.046619384765625,1.900547205352783,9.077914869689941,-0.5576993492126464
1789221664926698500,2.056698486328125,0.9292495193481445,9.348459657287597,-0.5575497116088867
1789221664936778200,2.0667783203125,0.7525275093078613,9.667038115692138,-0.8505401397705078
1789221664946857500,2.076857421875,1.7435773590087889,9.484629876708984,-2.64963304977417
1789221664956936400,2.0869365234375,2.8233623077392576,9.98546693649292,-3.1043817276000976
1789221664967015200,2.09701513671875,2.274341939544678,10.889577338409422,-2.0992659431457517
1789221664977095400,2.107095458984375,2.7947815254211426,10.504859059143065,-0.3694552436828613
1789221664987174400,2.11717431640625,2.6619033332824706,8.852111725616455,0.8123825508117676
1789221664997253400,2.12725341796875,3.1943139274597168,8.812757035827635,0.4204816665649414
1789221665007332400,2.137332275390625,2.9914053367614746,9.29578722076416,-0.584185205078125
1789221665017412400,2.147412353515625,2.65591782913208,9.424924472808838,-0.0040402153015136714
1789221665027491300,2.1574912109375,2.487276249694824,9.50632732925415,0.5288192916870117
1789221665037570300,2.1675703125,2.166303589630127,9.536105212402344,0.9814730430603027
1789221665047649300,2.177649169921875,1.889025109863281,9.631274728393555,0.4080617454528808
1789221665057729300,2.187729248046875,2.2375310890197753,9.69157868270874,-0.29837738189697266
1789221665067808500,2.19780859375,3.384802597045898,9.71013374557495,-0.8511386901855468
1789221665077887200,2.20788720703125,4.064456593322753,9.79378116607666,-1.0232219345092772
1789221665087966500,2.217966552734375,3.6201825477600096,9.458443296051025,-0.586729044342041
1789221665098046200,2.228046142578125,3.240252671813965,9.221866244506835,-0.13407529296874998
1789221665108125400,2.23812548828125,2.50238964767456,9.426720124053954,-0.6212953308105469
1789221665118204400,2.248204345703125,2.4329577995300293,8.46544815750122,0.4918588035583496
1789221665128283100,2.258283203125,2.2780828796386716,8.091354148101805,0.35523967132568357
1789221665138363400,2.26836328125,1.8065747901916502,9.186252494812011,-1.4065934753417968
1789221665148442400,2.2784423828125,1.8951602516174315,9.520991814422606,-0.13377601776123046
1789221665158521300,2.288521240234375,1.671452033996582,9.274837956237793,0.9431658164978027
1789221665168600300,2.298600341796875,2.0076877296447755,8.614786486053466,-0.16160861206054686
1789221665178680300,2.308680419921875,2.212242333984375,8.962843552398681,-1.0675146652221679
1789221665188759300,2.31875927734375,1.735945841217041,8.902689235687255,-1.510441972351074
1789221665198838500,2.328838623046875,1.8676269325256347,8.851962088012694,-0.7748235122680663
1789221665208917500,2.33891748046875,1.753154165649414,8.783727340698242,-0.4059668190002441
1789221665218997500,2.34899755859375,1.4812626396179198,9.052027564239502,-0.136619132232666
1789221665229076500,2.359076416015625,2.0988170303344726,9.031377574920654,0.685040950012207
1789221665239155200,2.3691552734375,2.7070938896179197,9.465476263427734,0.7636006919860839
1789221665249234400,2.379234375,2.0341735855102536,10.028712203979492,0.3559878593444824
1789221665259314200,2.389314208984375,1.9047370582580565,9.961225644683838,0.03127425918579101
1789221665269393400,2.399393310546875,2.1339818672180173,10.014346994018554,0.2180219886779785
1789221665279472400,2.409472412109375,1.9473837753295897,10.386046801757812,0.22999299697875975
1789221665289551600,2.419551513671875,1.9553145683288573,10.128520485687256,1.5770307060241697
1789221665299631400,2.42963134765625,1.5623662208557128,9.89598364944458,2.130989115142822
1789221665309710300,2.43971044921875,1.8716671478271483,9.12370397644043,2.0611083541870117
1789221665319789300,2.449789306640625,3.1289222946166992,8.986635931396483,1.7260697593688963
1789221665329868300,2.459868408203125,1.8077718910217284,9.175179312133789,1.2068272743225097
1789221665339948300,2.4699482421875,2.0706851608276367,8.96987651977539,1.2343605934143065
1789221665350027300,2.48002734375,3.2989106124877927,9.252541953277587,1.580023458099365
1789221665360106500,2.4901064453125,2.7437551025390623,9.799317757415771,0.943614729309082
1789221665370185500,2.500185546875,2.7938836997985836,8.746916490173339,1.1246762298583983
1789221665380265500,2.510265380859375,3.333327261352539,9.235932179260253,1.5975310577392576
1789221665390344400,2.520344482421875,2.611924373626709,9.247753549957276,1.6753426116943357
1789221665400423200,2.530423095703125,3.4376246711730953,9.78629928588867,1.1801917808532714
1789221665410502400,2.54050244140625,3.4726398704528805,10.375272894287109,-0.28655601119995117
1789221665420582400,2.55058251953125,3.135506349182129,10.592546694946288,0.07407061386108398
1789221665430661400,2.560661376953125,4.150647853088379,9.731083010101317,0.06733692169189452
1789221665440740400,2.570740234375,4.302380383300781,9.364321243286133,0.07511807708740234
1789221665450819600,2.580819580078125,4.710292491149902,8.89371097946167,0.5169979209899902
1789221665460899300,2.5908994140625,4.220977526855468,9.374795875549315,1.128117894744873
1789221665470978600,2.600978515625,2.9091046546936035,9.585186346435547,0.97683427734375
1789221665481057300,2.611057373046875,3.266139977264404,9.541192890930175,0.7899369102478027
1789221665491137300,2.62113720703125,2.9180829109191895,9.272294116973876,0.6940192062377929
1789221665501216500,2.631216552734375,2.958485063934326,9.053374302673339,0.8798691101074219
1789221665511295200,2.641295166015625,3.140294752502441,9.171588009643553,1.1017816764831543
1789221665521374500,2.65137451171875,2.708739903259277,9.016713089752196,1.66636435546875
1789221665531454200,2.6614541015625,3.6351463081359863,8.450783672332763,2.018611274719238
1789221665541533400,2.671533447265625,3.836259247589111,8.696189342498778,1.4553753341674804
1789221665551612400,2.6816123046875,3.6062662506103513,9.674071083068847,0.72140288772583
1789221665561691400,2.69169140625,3.5377322280883785,9.907655382537842,0.35793314819335936
1789221665571771400,2.701771484375,2.8817209732055664,9.802909059906005,0.5642834037780762
1789221665581850400,2.711850341796875,2.5189994216918943,9.184456843566894,0.6637924102783203
1789221665591929300,2.721929443359375,3.3788170928955075,8.741230261230468,1.2110171272277832
1789221665602008300,2.73200830078125,3.527257595825195,9.071779727935791,1.6199766983032227
1789221665612088300,2.74208837890625,3.22394217300415,9.674519995880127,2.01112939453125
1789221665622167300,2.752167236328125,2.7350761215209958,9.942820219421385,1.885882720184326
1789221665632246500,2.76224658203125,2.6726772407531736,9.476100533294677,1.4276923774719237
1789221665642325500,2.772325439453125,3.603273498535156,9.459041846466064,1.1655272956848144
1789221665652405200,2.7824052734375,3.4946365982055663,9.528174419403076,1.0703577796936035
1789221665662484500,2.792484375,2.9144916084289547,9.513360296630859,1.1795932304382324
1789221665672563200,2.802563232421875,2.8106431114196777,9.716568162536621,0.9285013313293456
1789221665682642400,2.812642333984375,2.330904953765869,9.181763366699219,0.8592191207885742
1789221665692722400,2.822722412109375,2.7515362579345704,8.913612780761719,0.321122297668457
1789221665702801400,2.832801513671875,3.9695863525390624,9.736469963836669,-0.47644613037109373
1789221665712880400,2.84288037109375,4.1946413085937495,9.539247602081298,0.8967781593322753
1789221665722959400,2.85295947265625,4.2025721015930175,10.36210478515625,1.760785683441162
1789221665733039400,2.863039306640625,3.176806327819824,9.561393967437743,1.4671967048645018
1789221665743118300,2.873118408203125,2.316240468597412,10.030208580017089,0.5193921226501464
1789221665753197300,2.883197265625,2.5493758552551267,10.884040747070312,0.7538742477416992
1789221665763276300,2.8932763671875,2.7858032691955565,10.480318492126464,0.7680898200988769
1789221665773356500,2.9033564453125,2.9363386985778805,9.4481183013916,0.46028526916503903
1789221665783435300,2.913435302734375,3.1214404144287107,8.643516905975341,0.41674072647094723
1789221665793514500,2.923514404296875,3.0071172851562498,8.500762631988525,0.526125814819336
1789221665803594200,2.93359423828125,3.1012393379211423,8.38898334197998,0.5304653053283691
1789221665813673500,2.943673583984375,3.6637270904541013,8.747365402984618,0.3447650390625
1789221665823752400,2.95375244140625,4.178181172180175,9.472658868408203,0.3507505432128906
1789221665833831400,2.96383154296875,3.5110967346191404,9.151386933135985,-0.6605003829956054
1789221665843911400,2.973911376953125,2.7985224655151364,9.102455436706542,-2.071582986450195
1789221665853990400,2.983990478515625,2.629132698059082,9.178920252227783,-1.0326491035461425
1789221665864069400,2.9940693359375,0.8915408432006835,8.703222309875487,1.1435305679321288
1789221665874148400,3.0041484375,0.7425017898559569,9.347262556457519,0.28311434631347654
1789221665884228400,3.014228271484375,1.228973639678955,9.482983863067627,-0.9804255798339843
1789221665894307300,3.024307373046875,1.478569162750244,9.3346929977417,-1.250072541809082
1789221665904386300,3.03438623046875,1.818845073699951,9.092579354858398,-0.9296984321594238
1789221665914465500,3.044465576171875,2.775777549743652,8.958204786682128,-0.7436988906860351
1789221665924545300,3.054545166015625,3.21152225189209,9.416694404602051,-0.8430582595825195
1789221665934624500,3.06462451171875,3.0048727210998534,9.440187508392333,-0.598849690246582
1789221665944703200,3.074703125,2.724900764465332,9.473107781219483,-0.2314893730163574
1789221665954782500,3.084782470703125,2.7875989204406735,9.446472287750243,-0.3851671920776367
1789221665964862500,3.094862548828125,2.9798832412719727,9.420435344696044,-0.6030395431518555
1789221665974941400,3.10494140625,2.825008321380615,9.450213227844237,-0.4655225852966308
1789221665985020400,3.1150205078125,2.560598675537109,9.476399808502197,-0.23089082260131835
1789221665995099400,3.125099365234375,2.6509797882080077,9.421333170318603,-0.22774843292236327
1789221666005179400,3.135179443359375,2.705148600769043,9.460238947296142,-0.27129297561645505
1789221666015258400,3.14525830078125,2.5953145996093747,9.49929436187744,-0.30795418853759765
1789221666025337300,3.15533740234375,2.588281632232666,9.510217906951905,-0.18136077575683593
1789221666035416300,3.165416259765625,2.7192145355224606,9.494954871368408,-0.014963760375976562
1789221666045496600,3.17549658203125,2.7443536529541013,9.44243207244873,0.010175357055664061
1789221666055575300,3.1855751953125,2.567781280517578,9.432406352996825,-0.06434416961669921
1789221666065654300,3.195654296875,2.5219921737670896,9.447519750976562,-0.14649521408081054
1789221666075733500,3.2057333984375,2.5450363647460934,9.46757118988037,-0.1092354507446289
1789221666085813200,3.215813232421875,2.634818927001953,9.487173715972899,0.03815758895874023
1789221666095892500,3.225892578125,2.6138696624755857,9.491363568878173,0.21682488784790038
1789221666105971500,3.235971435546875,2.624643569946289,9.470264666748045,0.20964228286743164
1789221666116051500,3.246051513671875,2.611774736022949,9.457695108032226,0.08544307174682617
1789221666126130400,3.25613037109375,2.595164962005615,9.489567917633057,0.050427872467041016
1789221666136209400,3.26620947265625,2.5661352668762207,9.437194756317139,0.14021043472290037
1789221666146288000,3.2762880859375,2.595763512420654,9.459490759277344,0.21727380065917967
1789221666156368100,3.2863681640625,2.587982357025146,9.457395832824707,0.30481179885864257
1789221666166447000,3.296447021484375,2.6427497200012207,9.484330601501464,0.21068974609375
1789221666176526300,3.3065263671875,2.627935597229004,9.457844745635986,0.17776947326660156
1789221666186605300,3.316605224609375,2.597708801269531,9.463231699371338,0.18136077575683593
1789221666196685300,3.326685302734375,2.5870845314025877,9.456647644805908,0.2397194412231445
1789221666206764300,3.336764404296875,2.6206033546447753,9.450961415863036,0.24001871643066405
1789221666216843000,3.346843017578125,2.6497826873779293,9.451410328674315,0.17776947326660156
1789221666226922200,3.356922119140625,2.5718214958190915,9.466074813842773,0.11477204208374023
1789221666237002200,3.367002197265625,2.565387078857422,9.476699083709716,0.16041151123046873
1789221666247081200,3.377081298828125,2.616263864135742,9.491962119293213,0.2280477081298828
1789221666257160200,3.38716015625,2.6216508178710938,9.466823001861572,0.2102408332824707
1789221666267239200,3.3972392578125,2.5845406921386718,9.472060317993163,0.12808978881835936
1789221666277319200,3.407319091796875,2.595763512420654,9.472060317993163,0.03591302490234375
1789221666287398100,3.417398193359375,2.614767488098144,9.464728075408935,0.004638765716552734
1789221666297477000,3.42747705078125,2.614767488098144,9.46846901550293,0.007781155395507812
1789221666307556000,3.43755615234375,2.6167127769470215,9.481637124633789,0.026485855865478514
1789221666317636400,3.44763623046875,2.6313772621154783,9.478943647766112,0.0073322425842285155
1789221666327715000,3.457715087890625,2.602197929382324,9.476549446105956,-0.08933364944458007
1789221666337794300,3.467794189453125,2.595763512420654,9.468618653106688,-0.1596633232116699
1789221666347873300,3.477873291015625,2.62389538192749,9.470713579559325,-0.1589151351928711
1789221666357953300,3.487953369140625,2.670432676696777,9.472359593200682,-0.14036007232666015
1789221666368032300,3.4980322265625,2.626588858795166,9.478345097351074,-0.14634557647705076
1789221666378111200,3.508111328125,2.609979084777832,9.49300958251953,-0.21592706222534178
1789221666388191200,3.518191162109375,2.6364649406433105,9.479542198181152,-0.23358429946899412
1789221666398270200,3.528270263671875,2.61746096496582,9.479841473388671,-0.2389712532043457
1789221666408349200,3.53834912109375,2.5852888801574707,9.482086037445068,-0.22026655273437498
1789221666418428200,3.54842822265625,2.5585037490844726,9.484330601501464,-0.21787235107421873
1789221666428508200,3.558508056640625,2.587383806610107,9.488221179199218,-0.24944588546752927
1789221666438587100,3.568587158203125,2.5555109970092773,9.503035301971435,-0.26710312271118164
1789221666448666000,3.578666015625,2.5189994216918943,9.46158568572998,-0.03755903854370117
1789221666458745300,3.588745361328125,2.623147193908691,9.42986251373291,0.19033903198242186
1789221666468825000,3.5988251953125,2.5761609863281247,9.626037412261962,0.6479308242797851
1789221666478904300,3.608904296875,2.282422370147705,9.41729295501709,-0.00987608184814453
1789221666488983000,3.618983154296875,2.635417477416992,9.41070890045166,0.08918401184082031
1789221666499062300,3.629062255859375,2.2373814514160153,9.51859761276245,-0.7698854713439941
1789221666509142300,3.639142333984375,2.653373989868164,9.469965391540526,0.032920272827148434
1789221666519221200,3.64922119140625,2.3077111251831055,9.452308154296874,-0.09232640151977539
1789221666529300200,3.65930029296875,2.8272528854370114,9.616759880828857,0.528669654083252
1789221666539379200,3.669379150390625,2.6071359703063965,9.392902025604247,-0.2700958747863769
1789221666549459200,3.679459228515625,1.961898622894287,9.61451531677246,0.14170681076049804
1789221666559538200,3.6895380859375,2.5706243949890135,9.323769452667236,-0.6063315704345703
1789221666569617200,3.6996171875,2.3325509674072262,9.541492166137695,0.040102877807617184
1789221666579696000,3.709696044921875,2.722356925201416,9.514707035064697,0.10788871231079102
1789221666589776400,3.7197763671875,2.1288941886901855,9.674071083068847,-0.08828618621826172
1789221666599855000,3.729855224609375,2.801964130401611,9.478794010162353,-0.06778583450317383
1789221666609934300,3.739934326171875,2.2104466827392577,9.546280569458007,-0.3042132484436035
1789221666620014000,3.75001416015625,2.5665841796874997,9.438391857147217,0.029328970336914062
1789221666630093000,3.760093017578125,2.4766519798278805,9.395595502471924,-0.032172084808349606
1789221666640172300,3.77017236328125,2.5891794578552245,9.489418280029296,-0.033219548034667964
1789221666650251300,3.780251220703125,2.7232547508239744,9.60149684524536,-0.2059013427734375
1789221666660331300,3.790331298828125,2.5047838493347165,9.428815050506591,-0.340275910949707
1789221666670410200,3.80041015625,2.7488427810668945,9.604190322113036,-0.06883329772949218
1789221666680489200,3.8104892578125,2.6768670936584473,9.46233387374878,-0.00987608184814453
1789221666690568200,3.820568115234375,2.8974329216003416,9.290250629425048,0.3094505645751953
1789221666700648200,3.830648193359375,2.6638486221313475,9.316586847686766,0.3269581642150879
1789221666710727200,3.84072705078125,2.737470323181152,9.352799147796631,0.19228432083129882
1789221666720806100,3.85080615234375,2.795080800628662,9.383774131774901,0.8001122673034667
1789221666730885400,3.860885498046875,2.743306189727783,9.418041143035888,0.381126976776123
1789221666740965000,3.870965087890625,3.174412126159668,9.43614729309082,0.6037877311706542
1789221666751044400,3.88104443359375,2.8903999542236325,9.259275645446778,0.026036943054199218
1789221666761123000,3.891123046875,2.9511528213500973,9.357737188720703,0.39863457641601563
1789221666771202300,3.901202392578125,2.914940521240234,9.235333628845215,0.4305073860168457
1789221666781282300,3.9112822265625,2.8754361938476563,9.286808964538574,0.5588964500427246
1789221666791361300,3.921361328125,2.877830395507812,9.349806395721435,0.5506663818359374
1789221666801440300,3.931440185546875,2.727145328521728,9.519944351196289,-0.18106150054931638
1789221666811519200,3.941519287109375,2.881122422790527,9.481487487030028,-0.3802291511535644
1789221666821599200,3.95159912109375,2.823212670135498,9.504980590820312,-0.6139630882263183
1789221666831678200,3.96167822265625,3.112162882995605,9.41011035003662,-0.34835634155273437
1789221666841757200,3.971757080078125,3.1048306404113766,9.324068727874755,-0.35613749694824215
1789221666851836200,3.981836181640625,3.0000843177795407,9.338583575439452,-0.6289268486022949
1789221666861916400,3.99191650390625,2.812887675476074,9.472359593200682,-0.7432499778747558
1789221666871995100,4.0019951171875,2.9417256523132322,9.450512503051756,-0.48347909774780273
1789221666882074000,4.01207421875,3.0256723480224608,9.406519047546386,-0.4333505004882812
1789221666892154000,4.022154052734375,3.1299697578430172,9.359981752777099,-0.09935936889648436
1789221666902233000,4.032233154296875,2.7691934951782224,9.319579599761962,-0.33833062210083004
1789221666912312300,4.042312255859375,2.956689412689209,9.338583575439452,-0.2910451393127441
1789221666922391300,4.052391357421875,3.040336833190918,9.377339714813232,-0.4697124382019043
1789221666932471300,4.06247119140625,2.9791350532531737,9.396493328094483,-0.39115269622802734
1789221666942550300,4.07255029296875,2.7883471084594724,9.46098713531494,-0.4417302062988281
1789221666952629200,4.082629150390625,2.810343836212158,9.553463174438477,-0.5928641860961914
1789221666962708200,4.092708251953125,2.9611785408020017,9.591620763397216,-0.7947253135681152
1789221666972788000,4.1027880859375,2.6702830390930172,9.515754498291015,-0.697161595916748
1789221666982867200,4.1128671875,2.6378116790771484,9.4618849609375,-0.4348468765258789
1789221666992946200,4.1229462890625,2.7889456588745114,9.356540087890625,-0.22385785522460935
1789221667003025400,4.133025390625,2.775029361724853,9.348010744476317,-0.1140238540649414
1789221667013105200,4.143105224609375,2.8477532371520993,9.394847314453125,-0.21562778701782226
1789221667023184400,4.153184326171875,2.767547481536865,9.41699367980957,-0.11507131729125976
1789221667033263000,4.16326318359375,2.7302877182006835,9.471910680389403,-0.19856910018920898
1789221667043342000,4.173342041015625,2.686743175506592,9.463082061767578,-0.24256255569458007
1789221667053422300,4.18342236328125,2.688987739562988,9.485677339935302,-0.2856581855773926
1789221667063501000,4.1935009765625,2.66863702545166,9.475950895690918,-0.36586394119262694
1789221667073580300,4.203580322265625,2.539499773406982,9.479691835784912,-0.45893853073120117
1789221667083659300,4.2136591796875,2.431012510681152,9.468618653106688,-0.6438906089782714
1789221667093739300,4.2237392578125,2.528276953125,9.496900160217285,-0.6239888076782226
1789221667103818200,4.233818359375,2.60459213104248,9.577105915832519,-0.6935702934265137
1789221667113897200,4.243897216796875,2.4856302360534666,9.534608836364745,-0.5125087928771972
1789221667123977200,4.253977294921875,2.5381530349731443,9.532813185119629,-0.44113165588378905
1789221667134056400,4.264056396484375,2.5116671791076657,9.492859944915772,-0.3550900337219238
1789221667144134400,4.274134521484375,2.424877368927002,9.47430488204956,-0.3570353225708008
1789221667154213600,4.284213623046875,2.436848377227783,9.508272618103026,-0.3145382431030273
1789221667164293600,4.294293701171875,2.4226328048706054,9.520991814422606,-0.29703064346313474
1789221667174372600,4.30437255859375,2.398990063476562,9.540145427703857,-0.1236006607055664
1789221667184451600,4.31445166015625,2.49625450592041,9.520692539215087,-0.01062426986694336
1789221667194530600,4.324530517578125,2.4818892959594727,9.454103805541992,0.21487959899902342
1789221667204610600,4.334610595703125,2.3946505729675294,9.4358480178833,0.4026747917175293
1789221667214689500,4.344689453125,2.4124574478149414,9.401730644226074,0.6509235763549804
1789221667224768500,4.3547685546875,2.4597429306030274,9.414300202941893,0.9686042091369629
1789221667234847500,4.364847412109375,2.3671172538757324,9.48702407836914,1.307533381652832
1789221667244927700,4.374927734375,2.255637239074707,9.571270049285888,1.719934617614746
1789221667255006500,4.38500634765625,2.3642741394042965,9.698761287689209,1.6675614562988281
1789221667265085700,4.395085693359375,2.5635914276123044,9.613168578338623,1.5225626182556151
1789221667275164700,4.40516455078125,2.3122002532958983,9.533262097930908,1.1640309196472167
1789221667285244700,4.41524462890625,2.369810730743408,9.431508527374268,0.9277531433105468
1789221667295323600,4.42532373046875,2.363974864196777,9.331999520874023,0.981323405456543
1789221667305402600,4.435402587890625,2.306514024353027,9.402329194641112,1.276259122467041
1789221667315482600,4.445482666015625,2.6403555183410643,9.526827680969237,1.478569162750244
1789221667325561600,4.4555615234375,2.71352830657959,9.589825112152099,1.5426140571594238
1789221667335640600,4.465640625,2.6057892318725586,9.608829087829589,1.4264952766418457
1789221667345719600,4.475719482421875,2.5453356399536133,9.558999765777587,1.0957961723327636
1789221667355799600,4.485799560546875,2.6607062324523922,9.48088893661499,0.8303390632629394
1789221667365878500,4.49587841796875,2.5941174987792968,9.447669388580321,0.5232827003479004
1789221667375957500,4.50595751953125,2.568230193328857,9.414449840545654,0.35090018081665036
1789221667386036700,4.51603662109375,2.6206033546447753,9.394697676849365,0.21517887420654297
1789221667396116500,4.526116455078125,2.6665420989990234,9.412354914093017,0.13991115951538086
1789221667406195700,4.53619580078125,2.759317413330078,9.471162492370604,0.09756371765136718
1789221667416274400,4.5462744140625,2.7211598243713375,9.474903432464599,0.011372457885742187
1789221667426353700,4.556353759765625,2.710086641693115,9.523685291290283,-0.04115034103393554
1789221667436433700,4.56643359375,2.8042086944580076,9.558251577758789,-0.13542203140258788
1789221667446512600,4.5765126953125,2.555211721801758,9.490465743255614,-0.26276363220214843
1789221667456591600,4.586591552734375,2.733280470275879,9.478794010162353,-0.3676595924377441
1789221667466670600,4.596670654296875,2.6309283493041993,9.409362162017821,-0.13347674255371092
1789221667476750600,4.60675048828125,2.606537419891357,9.321973801422118,-0.060603229522705075
1789221667486829600,4.61682958984375,2.6420015319824217,9.320028512573241,0.015412673187255858
1789221667496908500,4.626908447265625,2.714126856994629,9.418938968658447,-0.13377601776123046
1789221667506987500,4.636987548828125,2.7569232116699216,9.55750338973999,-0.18031331253051758
1789221667517067800,4.64706787109375,2.7350761215209958,9.508422255706787,-0.15831658477783203
1789221667527146500,4.657146484375,2.8754361938476563,9.462184236145019,0.3329436683654785
1789221667537225500,4.6672255859375,2.88561155090332,9.32182416381836,0.24974516067504882
1789221667547305500,4.677305419921875,2.516904495239258,9.304166926574707,0.3265092514038086
1789221667557384400,4.687384521484375,2.708739903259277,9.283965850067139,0.16175824966430663
1789221667567463700,4.697463623046875,3.081187899017334,9.35968247756958,0.021697452545166016
1789221667577542700,4.707542724609375,2.724900764465332,9.394099126434325,0.2518400871276855
1789221667587622700,4.71762255859375,2.7733833480834957,9.462483511352538,0.3366846084594726
1789221667597701600,4.72770166015625,2.968211508178711,9.426121573638916,0.43679216537475585
1789221667607780600,4.737780517578125,2.8600235206604,9.491962119293213,0.469862075805664
1789221667617859600,4.747859619140625,2.901173861694336,9.426271211242675,0.5244798011779784
1789221667627939600,4.757939697265625,2.7492916938781735,9.307010041046142,0.5690718070983887
1789221667638018600,4.7680185546875,2.795529713439941,9.300725261688232,0.32172084808349605
1789221667648097500,4.77809765625,2.612074011230469,9.247304637145996,0.26485855865478514
1789221667658176800,4.7881767578125,2.7781717514038085,9.2948893951416,0.15562310791015624
1789221667668256500,4.798256591796875,2.918831098937988,9.336189373779296,0.3458125022888183
1789221667678335700,4.808335693359375,2.8817209732055664,9.446173012542724,0.5282207412719726
1789221667688414500,4.81841455078125,2.7678467567443845,9.556156651306152,0.7164648468017578
1789221667698494700,4.82849462890625,2.9973908409118653,9.553014261627197,0.6138134506225585
1789221667708573700,4.83857373046875,2.9541455734252926,9.405770859527587,0.5903203468322754
1789221667718652400,4.84865234375,2.622099730682373,9.386317971038817,0.22161329116821288
1789221667728731600,4.858731689453125,2.6975170829772948,9.350255308532715,0.16385317611694336
1789221667738811400,4.868811279296875,2.7780221138000485,9.312546632385253,0.13572130661010742
1789221667748890600,4.878890625,2.9372365242004395,9.388412897491454,0.09112930068969725
1789221667758969600,4.888969482421875,2.8348844032287595,9.504082765197753,0.07631517791748046
1789221667769048600,4.899048583984375,2.7685949447631835,9.610475101470946,-0.12285247268676758
1789221667779128600,4.909128662109375,2.8871079269409177,9.581894319152832,-0.34865561676025386
1789221667789207800,4.919207763671875,2.89204596786499,9.43629693069458,-0.485873299407959
1789221667799286500,4.92928662109375,2.688987739562988,9.179518802642821,-0.39264907226562495
1789221667809365500,4.939365478515625,2.525134563446045,9.16814634475708,-0.3537432952880859
1789221667819445500,4.949445556640625,2.571522220611572,9.361328491210937,-0.42108021697998044
1789221667829524500,4.9595244140625,2.8707974281311035,9.649829791259766,-0.6778583450317383
1789221667839603700,4.969603759765625,2.855684030151367,9.794678991699218,-1.022024833679199
1789221667849683500,4.979683349609375,2.7157728706359863,9.679308399200439,-0.9127893829345702
1789221667859762700,4.9897626953125,2.729838805389404,9.42402664718628,-0.8019079185485839
1789221667869841700,4.999841552734375,2.4007857147216796,9.278279621124266,-0.3462614151000976
1789221667879920400,5.00992041015625,2.495506317901611,9.07776523208618,0.0809539436340332
1789221667890000600,5.020000732421875,2.709338453674316,9.344868354797363,0.2127846725463867
1789221667900079600,5.03007958984375,2.6509797882080077,9.778069217681884,0.2537853759765625
1789221667910158600,5.04015869140625,2.475155603790283,10.000131421661376,-0.18315642700195311
1789221667920237600,5.050237548828125,2.858078231811523,9.902567704010009,-0.6545148788452148
1789221667930317600,5.060317626953125,3.067121964263916,9.497947623443602,-0.6127659873962402
1789221667940396500,5.070396484375,2.3837270278930665,9.108889853668213,-0.4091092086791992
1789221667950475800,5.080475830078125,2.0310311958312988,9.083900373840331,0.12719196319580078
1789221667960554500,5.090554443359375,2.368164717102051,9.316437210083008,0.23687632675170897
1789221667970634800,5.100634765625,2.8444612098693844,9.55062005996704,0.08409633331298827
1789221667980713700,5.110713623046875,2.6101287223815914,9.585934534454346,-0.2292448089599609
1789221667990792400,5.12079248046875,2.6693852134704588,9.574562076568602,-0.2328361114501953
1789221668000871700,5.13087158203125,2.704998963165283,9.57635772781372,-0.0143652099609375
1789221668010951400,5.140951416015625,2.580500476837158,9.700556938934326,0.28371289672851563
1789221668021030700,5.15103076171875,2.6898855651855467,9.593117139434813,0.3494038047790527
1789221668031109600,5.161109619140625,2.6569652923583984,9.44901612701416,0.04504091873168945
1789221668041189600,5.171189697265625,2.5650878036499023,9.085546387481688,-0.06763619689941405
1789221668051268600,5.1812685546875,2.168847428894043,8.991573972320555,-0.0818517692565918
1789221668061347600,5.19134765625,2.718466347503662,9.369259284210205,0.0900818374633789
1789221668071426600,5.201426513671875,2.9357401481628416,9.68529390335083,0.2721908012390137
1789221668081506600,5.211506591796875,2.8362311416625974,9.900472777557372,0.3365349708557129
1789221668091585500,5.22158544921875,2.9589339767456053,9.874435834503172,0.17073650588989256
1789221668101664500,5.23166455078125,2.3415292236328122,9.580697218322753,0.08140285644531249
1789221668111743700,5.24174365234375,2.2981343185424805,9.342324515533447,-0.07766191635131836
1789221668121823500,5.251823486328125,2.3784897117614743,9.146748167419434,-0.047285482788085934
1789221668131902700,5.26190283203125,2.4449288078308102,9.044096771240234,-0.020201076507568357
1789221668141981700,5.271981689453125,2.524236737823486,9.12265651321411,-0.0469862075805664
1789221668152060700,5.282060791015625,2.9281086303710935,9.579949030303954,-0.02633621826171875
1789221668162141000,5.292140869140625,3.0514100158691404,9.865158303070068,-0.006883329772949218
1789221668172219600,5.3022197265625,2.6850971618652344,9.86381156463623,-0.17956512451171874
1789221668182298600,5.312298583984375,2.939481088256836,9.658059859466553,-0.11626841812133788
1789221668192377900,5.3223779296875,2.2851158470153807,9.2580785446167,-0.14619593887329102
1789221668202457600,5.33245751953125,2.136076793670654,9.318981049346924,-0.17073650588989256
1789221668212536800,5.342536865234375,2.1811177124023438,9.304765476989745,-0.194079972076416
1789221668222615800,5.35261572265625,2.250998473358154,9.37808790283203,-0.5352537086486816
1789221668232695800,5.36269580078125,3.63275210647583,9.579799392700195,-0.7706336593627929
1789221668242774800,5.37277490234375,1.897404815673828,9.636811319732665,-0.2109890213012695
1789221668252853800,5.382853759765625,1.973271080780029,9.73572177581787,0.3559878593444824
1789221668262932700,5.3929326171875,3.6414310874938964,9.5247327545166,0.18944120635986328
1789221668273012700,5.4030126953125,3.004423808288574,9.32691184234619,0.0469862075805664
1789221668283091700,5.413091796875,1.823334201812744,9.323320539855956,-0.14215572357177733
1789221668293170700,5.423170654296875,2.009034468078613,9.35908392715454,-0.26964696197509763
1789221668303250000,5.43325,2.9421745651245117,9.51889688796997,-0.23523031311035156
1789221668313329700,5.44332958984375,3.097797673034668,9.686491004180908,-0.17163433151245117
1789221668323409000,5.453408935546875,2.316839019012451,9.670330142974853,-0.5698199951171875
1789221668333487900,5.46348779296875,2.054374662017822,9.588328736114502,-0.6311714126586914
1789221668343566600,5.473566650390625,2.806453258514404,9.326014016723633,-0.5204395858764648
1789221668353646800,5.483646728515625,2.990806786346435,9.162609753417968,-0.4248211570739746
1789221668363725600,5.4937255859375,2.0733786376953125,9.178022426605224,-0.24061726684570311
1789221668373804800,5.5038046875,2.7410616256713864,9.227103560638428,-0.02483984222412109
1789221668383884500,5.513884521484375,3.9585131698608396,9.349058207702637,-0.11686696853637694
1789221668393963800,5.5239638671875,3.7433342956542965,9.402478832244872,-0.354940396118164
1789221668404042800,5.534042724609375,2.862716997528076,9.331101695251464,-0.9424176284790039
1789221668414122000,5.5441220703125,4.233995998382568,9.452457791900635,-1.684171230316162
1789221668424201700,5.55420166015625,4.122515983581542,9.379584278869629,-2.3499089294433593
1789221668434281000,5.564281005859375,2.8131869506835936,9.337236837005614,-2.047491332244873
1789221668444359700,5.574359619140625,2.909254292297363,9.15587606124878,-0.8849567886352538
1789221668454438700,5.584438720703125,3.3797149185180664,8.89894829559326,-0.8960299713134765
1789221668464519000,5.594518798828125,3.4687492927551267,8.653392987823485,-0.9826701438903808
1789221668474597600,5.60459765625,4.28382532043457,8.8359508644104,-1.552639776611328
1789221668484676900,5.6146767578125,3.3467946456909177,9.13642317276001,-1.6096517036437987
1789221668494755800,5.624755859375,2.7193641731262206,9.741557642364501,-1.1526584617614746
1789221668504835800,5.6348359375,2.5577555610656737,10.08737014465332,-0.35314474487304687
1789221668514914800,5.644914794921875,3.2814030128479,10.233117170715332,-0.8877999031066894
1789221668524993500,5.65499365234375,4.369567667388916,9.592219313812254,-1.6997335411071777
1789221668535073800,5.66507373046875,4.39874700012207,8.949675443267822,-1.7775450950622558
1789221668545152800,5.67515283203125,2.66220260848999,8.393472470092773,-0.8563760063171386
1789221668555231700,5.685231689453125,3.2181063064575195,8.60042127609253,0.11866261978149413
1789221668565310700,5.695310791015625,3.753210377502441,8.642768717956542,0.5065232887268066
1789221668575390700,5.705390625,4.060566015625,9.341875602722167,0.9258078544616699
1789221668585469700,5.7154697265625,3.680486502075195,9.60239467086792,0.3755903854370117
1789221668595549000,5.725548828125,4.1766847961425775,10.1889740776062,0.5871779571533203
1789221668605627600,5.735627685546875,3.7765538436889647,9.04634133529663,1.5550339782714844
1789221668615707600,5.745707763671875,2.5802012016296385,9.64698667678833,0.8424597091674804
1789221668625787000,5.755786865234375,1.6051625755310057,8.517671681213379,1.1188403633117676
1789221668635865600,5.765865478515625,3.2926258331298826,8.875754467010497,-0.27189152603149414
1789221668645944800,5.77594482421875,1.7842787872314452,8.90643017578125,-0.1240495735168457
1789221668656024600,5.786024658203125,2.2554876014709473,10.2019925491333,1.6060604011535644
1789221668666103800,5.796103759765625,5.735459714508056,10.1000893409729,1.7311574378967285
1789221668676182800,5.806182861328125,4.950760120391846,9.594314240264891,1.4507365684509277
1789221668686262800,5.8162626953125,2.520346160125732,9.14914236907959,-0.49111061553955077
1789221668696341800,5.826341796875,0.6132149002075195,8.856900128936767,-1.0369885940551757
1789221668706420700,5.836420654296875,2.428468671417236,9.089586602783202,-1.0007762939453124
1789221668716499700,5.846499755859375,5.532700761413574,9.451260691070557,0.2066495307922363
1789221668726579700,5.856579833984375,3.8639422042846676,9.267056800842285,0.5105635040283203
1789221668736658700,5.86665869140625,1.0621277114868164,9.523984566497802,0.6486790122985839
1789221668746737700,5.876737548828125,2.258031440734863,9.709834470367431,0.48018707046508785
1789221668756817000,5.88681689453125,4.105457296752929,9.666439565277098,-0.1822586013793945
1789221668766896600,5.896896728515625,3.4982279006958006,9.150788382720947,-0.04997895965576172
1789221668776976000,5.906975830078125,2.9511528213500973,8.296656940460204,-0.2653074714660644
1789221668787054800,5.917054931640625,3.850325182342529,8.552387605285643,0.20530279235839843
1789221668797133600,5.927133544921875,1.6250643768310546,9.600299744415283,0.37065234451293944
1789221668807213800,5.9372138671875,3.380463106536865,9.684396077728271,0.19692308654785154
1789221668817292800,5.947292724609375,2.990806786346435,9.894038360595703,-0.5175964714050293
1789221668827371800,5.957371826171875,1.7350480155944823,9.718064538574218,1.0102034629821777
1789221668837451800,5.96745166015625,2.13877027053833,9.641898998260498,1.1444283935546875
1789221668847530800,5.97753076171875,3.0322564025878904,9.551667523193359,1.4161702819824218
1789221668857609700,5.987609619140625,4.6915877906799315,9.362226316833496,1.4839561164855957
1789221668867688700,5.997688720703125,3.106027741241455,9.178770614624023,1.0492588775634766
1789221668877768700,6.007768798828125,1.0609306106567382,9.039009092712401,1.715445489501953
1789221668887847700,6.01784765625,2.2987328689575195,9.39095673675537,0.6411971321105957
1789221668897927000,6.027927001953125,3.7557542167663573,9.72360112991333,-0.23418284988403318
1789221668908005600,6.038005615234375,2.82186593170166,9.740959091949462,-0.5662286926269531
1789221668918086000,6.0480859375,1.9942203453063965,9.5384994140625,-0.36152445068359373
1789221668928164600,6.05816455078125,2.353799507141113,9.290549904632568,0.3730465461730957
1789221668938243800,6.068243896484375,2.505831312561035,9.210344149017333,0.6914753669738769
1789221668948322800,6.07832275390625,2.292747364807129,9.148394181060791,0.601393529510498
1789221668958402800,6.08840283203125,2.644395733642578,9.227552473449707,0.2407669044494629
1789221668968481800,6.098481689453125,3.1042320899963376,9.456797282409667,-0.03681085052490234
1789221668978560800,6.108560791015625,2.972401361083984,9.711929396820068,0.086191259765625
1789221668988640800,6.118640869140625,2.8311434631347656,9.903914442443847,0.0704793113708496
1789221668998719700,6.1287197265625,2.5725696838378904,9.746046770477294,0.2467524085998535
1789221669008798700,6.138798828125,2.1703438049316404,9.445724099731445,0.2871545616149902
1789221669018877700,6.148877685546875,1.871816785430908,9.34007995147705,0.2962824554443359
1789221669028958000,6.1589580078125,1.5322890624999999,9.252242678070068,0.27084406280517576
1789221669039036700,6.16903662109375,2.3247698120117186,9.406519047546386,0.2744353652954101
1789221669049115600,6.17911572265625,2.992153524780273,9.462782786560059,0.8062474090576172
1789221669059195000,6.18919482421875,2.238877827453613,9.731831198120117,1.2370540702819823
1789221669069274600,6.199274658203125,1.9518729034423827,9.685892453765868,1.5870564254760742
1789221669079353900,6.209353759765625,2.7608137893676754,9.7039986038208,0.828693049621582
1789221669089432800,6.219432861328125,2.8643630111694334,9.472359593200682,0.4008791404724121
1789221669099512800,6.229512939453125,1.8209400001525877,9.285611863708496,0.4798877952575683
1789221669109591800,6.239591796875,1.5966332321166992,9.247005361938475,0.8713397666931152
1789221669119670800,6.2496708984375,2.294991928863525,9.42297918395996,1.3666402351379394
1789221669129749800,6.259749755859375,2.4067712188720702,9.6411508102417,0.9485527702331542
1789221669139829800,6.269829833984375,2.086546746826172,9.848548529052733,0.7184101356506347
1789221669149909000,6.279908935546875,2.1267992622375487,9.840019185638427,0.14829086532592772
1789221669159988000,6.289988037109375,2.4369980148315427,9.647734864807129,0.36047698745727536
1789221669170067000,6.30006689453125,2.148197439575195,9.450811778259277,0.5913678100585937
1789221669180147000,6.31014697265625,1.9117700256347656,9.332149158477783,0.9165303230285644
1789221669190226200,6.32022607421875,2.404377017211914,9.339331763458251,0.711227530670166
1789221669200305000,6.330304931640625,2.7350761215209958,9.515006310272216,0.699705435180664
1789221669210384000,6.3403837890625,2.351255667877197,9.653720368957519,0.4783914192199707
1789221669220463900,6.3504638671875,2.221819140625,9.792584065246581,0.3779845870971679
1789221669230542800,6.36054296875,2.592770760345459,9.780014506530762,0.09816226806640624
1789221669240622000,6.3706220703125,2.223614791870117,9.572766425323486,-0.23792378997802732
1789221669250701800,6.380701904296875,1.9201497314453124,9.463231699371338,-0.1188122573852539
1789221669260781000,6.390781005859375,2.292597727203369,9.349058207702637,-0.06464344482421874
1789221669270860000,6.400860107421875,2.426523382568359,9.38512087020874,0.1352723937988281
1789221669280938800,6.410938720703125,2.298882506561279,9.514557397460937,0.3755903854370117
1789221669291019000,6.42101904296875,2.29828395614624,9.60852981262207,0.46193128280639645
1789221669301098000,6.431097900390625,2.396745499420166,9.620351183319091,0.4821323593139648
1789221669311177000,6.441177001953125,3.0192379310607906,9.632322191619872,-0.2947860794067383
1789221669321256000,6.451255859375,1.93451494140625,9.399037167358397,0.05491700057983398
1789221669331336000,6.4613359375,2.3419781364440917,9.57620809020996,0.12629413757324218
1789221669341415000,6.471414794921875,2.0485387954711913,9.301323812103272,0.44158056869506834
1789221669351494100,6.481494140625,2.477699443054199,9.584737433624268,0.8057984962463378
1789221669361574000,6.491573974609375,3.2754175086975095,9.445125549316407,0.2362777763366699
1789221669371653000,6.501653076171875,1.9580080451965332,9.4618849609375,0.15726912155151365
1789221669381732000,6.511732177734375,2.666242823791504,9.649829791259766,-0.08334814529418945
1789221669391810800,6.521810791015625,2.506429862976074,9.502137476348876,0.21921908950805663
1789221669401891000,6.53189111328125,2.721010186767578,9.511415007781983,0.03845686416625976
1789221669411969800,6.5419697265625,2.2493524597167966,9.382876306152344,0.06389525680541992
1789221669422049000,6.552049072265625,2.1173720932006836,9.324068727874755,0.049530046844482416
1789221669432128000,6.5621279296875,2.47096575088501,9.561693242645264,-0.042646717071533204
1789221669442208000,6.5722080078125,2.6222493682861328,9.671527243804931,0.033818098449707026
1789221669452287000,6.582286865234375,2.7192145355224606,9.673023619842528,0.06868366012573242
1789221669462366000,6.592365966796875,2.231246309661865,9.509619356536865,0.20470424194335937
1789221669472446000,6.602446044921875,2.2043115409851075,9.462483511352538,0.32665888900756834
1789221669482525000,6.61252490234375,2.5309704299926756,9.45574981918335,0.28580782318115233
1789221669492604000,6.62260400390625,2.5884312698364256,9.561842880249023,0.22520459365844725
1789221669502683000,6.632682861328125,2.233191598510742,9.661950437164306,-0.05192424850463867
1789221669512763100,6.64276318359375,2.0397101768493653,9.678260935974121,0.0020949264526367185
1789221669522841900,6.652841796875,2.3804350006103516,9.655665657806395,0.018854338073730468
1789221669532921000,6.662921142578125,2.2972364929199216,9.548225858306884,0.25423428878784177
1789221669543000000,6.673,2.2924480895996093,9.524134204101562,0.2838625343322754
1789221669553080000,6.683080078125,2.259378179168701,9.396194052886962,0.1753752716064453
1789221669563159000,6.693158935546875,2.2198738517761227,9.402179557037353,0.04025251541137695
1789221669573238000,6.703238037109375,2.3560440711975095,9.592368951416015,-0.11477204208374023
1789221669583318000,6.713318115234375,2.060659441375732,9.673322895050049,0.06793547210693358
1789221669593397000,6.72339697265625,2.398541150665283,9.743951844024657,0.04863222122192382
1789221669603476000,6.73347607421875,2.3707085563659667,9.657311671447752,0.2624643569946289
1789221669613555000,6.743554931640625,2.0495862586975098,9.599252281188964,0.36436756515502927
1789221669623635000,6.753635009765625,2.2526444869995115,9.427169036865234,0.36002807464599607
1789221669633714000,6.7637138671875,2.479195819091797,9.299079248046874,0.43888709182739255
1789221669643793000,6.77379296875,2.339284659576416,9.355043711853027,0.40985739669799803
1789221669653873000,6.783872802734375,2.310554239654541,9.515006310272216,0.3893570449829101
1789221669663952000,6.793951904296875,2.487425887298584,9.64683703918457,0.24660277099609373
1789221669674031000,6.804031005859375,2.568828743743896,9.695918173217773,0.34536358947753903
1789221669684109800,6.81410986328125,2.489221538543701,9.664195001220703,0.3850175544738769
1789221669694190000,6.824190185546875,2.313546991729736,9.524882392120361,0.4495113616943359
1789221669704269000,6.83426904296875,2.3766940605163573,9.361029216003418,0.30361469802856444
1789221669714348000,6.84434814453125,2.6759692680358884,9.31464155883789,0.07990648040771484
1789221669724427000,6.854427001953125,2.523638187408447,9.383624494171142,0.012719196319580078
1789221669734506800,6.8645068359375,2.905513352203369,9.64698667678833,-0.13781623306274413
1789221669744586000,6.8745859375,3.1296704826354977,9.826851076507568,-0.003890577697753906
1789221669754665000,6.8846650390625,3.1748610389709473,9.903465529632568,-0.03725976333618164
1789221669764745000,6.894744873046875,2.733280470275879,9.777171392059326,-0.16879121704101563
1789221669774824000,6.904823974609375,2.672527603149414,9.55032078475952,-0.3329436683654785
1789221669784903200,6.914903076171875,2.3868694175720213,9.130886581420897,-0.3981856636047363
1789221669794982000,6.92498193359375,2.1719898185729978,8.889521126556396,-0.3737947341918945
1789221669805062100,6.935062255859375,2.395997311401367,9.068338063049316,-0.3847182792663574
1789221669815140900,6.945140869140625,2.526481301879883,9.344419441986084,-0.2127846725463867
1789221669825219800,6.9552197265625,2.704400412750244,9.622745384979247,-0.16340426330566404
1789221669835300000,6.965300048828125,2.8884546653747556,9.746196408081055,-0.03247136001586914
1789221669845378800,6.97537890625,2.896535095977783,9.657610946655273,0.03336918563842773
1789221669855458000,6.9854580078125,2.3389853843688964,9.573215338134766,0.05566518859863281
1789221669865537000,6.995537109375,2.0192098251342774,9.414300202941893,0.12629413757324218
1789221669875617000,7.005616943359375,2.2819734573364254,9.443928448486327,0.19647417373657225
1789221669885696000,7.015696044921875,1.7405846069335937,9.358186101531983,0.464774397277832
1789221669895775000,7.02577490234375,2.1742343826293946,9.738864165496826,0.3407248237609863
1789221669905854000,7.03585400390625,2.2581810783386227,9.686042091369629,0.4326023124694824
1789221669915934000,7.045933837890625,1.900696842956543,10.052354945373535,0.14724340209960937
1789221669926013000,7.056012939453125,1.6820763038635254,9.68499462814331,0.2765302917480469
1789221669936092000,7.066091796875,1.4044985488891601,9.53191535949707,-0.09382277755737305
1789221669946172000,7.076171875,2.1091420249938966,9.399785355377198,0.05970540390014648
1789221669956251000,7.0862509765625,1.3340192375183104,9.583989245605467,0.06479308242797852
1789221669966330000,7.096330078125,1.5831658477783201,9.72943699645996,0.3624222763061523
1789221669976408800,7.106408935546875,1.4918869094848632,9.951349562835693,0.7327753456115722
1789221669986489000,7.116489013671875,1.1592425163269042,9.775226103210448,1.157446865081787
1789221669996568000,7.126568115234375,1.3778630554199218,9.622146834564209,0.9677063835144042
1789221670006646800,7.136646728515625,1.2913725204467772,9.492710307312011,0.4734533782958984
1789221670016727000,7.14672705078125,1.3498808235168456,9.707290631103515,0.4343979637145996
1789221670026805800,7.1568056640625,0.9133879333496093,9.415347666168213,0.45759179229736324
1789221670036885000,7.166885009765625,0.6076783088684081,10.768969429779052,0.9834183319091796
1789221670046964000,7.1769638671875,1.690007096862793,10.733355680084228,0.9781810157775879
1789221670057044000,7.1870439453125,0.7607575775146483,10.284592506408691,0.5784989761352539
1789221670067123000,7.197123046875,0.7224503509521484,9.900472777557372,0.21862053909301757
1789221670077202200,7.2072021484375,1.036838956451416,9.604639234924315,-0.018854338073730468
1789221670087281000,7.217281005859375,0.6742670425415038,9.617059156036376,-0.08274959487915039
1789221670097361000,7.22736083984375,0.347308878326416,9.662399349975585,0.3541922080993652
1789221670107439900,7.23743994140625,0.18031331253051758,10.116549477386474,0.2807201446533203
1789221670117518800,7.247518798828125,0.4584896179199218,10.466402194976807,0.6784568954467773
1789221670127599000,7.25759912109375,0.7441478034973145,10.654047750091552,0.7413046890258789
1789221670137677800,7.267677734375,0.9106944564819336,10.417919611358641,0.371550170135498
1789221670147756800,7.2777568359375,0.45819034271240233,10.194061756134033,0.694617756652832
1789221670157835800,7.287835693359375,-0.47854105682373044,10.013898081207275,0.6093243225097655
1789221670167915800,7.297915771484375,-1.3079822944641113,10.145130259704588,1.0838251640319823
1789221670177994800,7.307994873046875,-1.0518027168273925,9.857975698089598,1.6537947967529296
1789221670188073700,7.31807373046875,-0.26710312271118164,9.76789386062622,1.2119149528503417
1789221670198153700,7.32815380859375,-0.6239888076782226,10.179696546173096,0.7206546997070312
1789221670208232700,7.338232666015625,-1.0510545288085937,9.715371061706543,0.45070846252441404
1789221670218311700,7.348311767578125,-1.9406500831604003,8.623315829467773,0.5551555099487304
1789221670228390700,7.358390625,-2.2144868980407715,8.495226040649413,1.4751274978637694
1789221670238471000,7.368470947265625,-0.059256491088867186,10.377667095947265,2.1351789680480957
1789221670248549600,7.378549560546875,3.740341543579101,11.21129818649292,1.1189900009155274
1789221670258628600,7.388628662109375,2.1721394561767577,10.233117170715332,1.1553519386291504
1789221670268708600,7.39870849609375,-2.3000796073913574,11.404031420135498,0.8444049980163574
1789221670278787600,7.40878759765625,-2.592920397949219,10.518625718688964,0.10878653793334961
1789221670288866800,7.41886669921875,1.043273373413086,9.692626145935058,0.570119270324707
1789221670298945800,7.42894580078125,4.668992512512207,10.245537091827392,1.2074258247375487
1789221670309025800,7.43902587890625,4.441244079589843,11.21713405303955,1.325938806915283
1789221670319104800,7.449104736328125,0.9038111267089843,9.462483511352538,1.2969091117858886
1789221670329183700,7.459183837890625,-2.986766571044922,8.896703731536865,1.5824176597595214
1789221670339263700,7.469263671875,-1.735197653198242,9.054870678710937,0.27742811737060546
1789221670349342700,7.4793427734375,1.6461632789611815,8.430432958221434,1.2382511711120605
1789221670359421700,7.489421630859375,3.908384572601318,9.808744926452636,1.023371572113037
1789221670369500700,7.499500732421875,3.95192911529541,8.664166895294189,-1.0633248123168946
1789221670379580700,7.50958056640625,2.448370472717285,10.78318500213623,-1.6261118400573729
1789221670389659600,7.51965966796875,4.638167166137695,12.358270419311523,-2.158672071838379
1789221670399739000,7.52973876953125,4.329315151977539,9.565583820343017,-1.5269021087646484
1789221670409817600,7.539817626953125,5.3299418083190915,9.43524946746826,-0.12330138549804687
1789221670419897900,7.54989794921875,8.34454097366333,8.356212706756592,-1.0057143348693847
1789221670429976600,7.5599765625,9.311199893951416,7.7596075805664055,-1.7375918548583984
1789221670440055600,7.5700556640625,7.114819145965575,7.85283180770874,-2.309955689239502
1789221670450135800,7.5801357421875,1.8312649948120117,7.877372374725342,-0.8800187477111816
1789221670460214500,7.590214599609375,1.1804910560607909,8.002918324279785,0.6739677673339843
1789221670470293800,7.600293701171875,6.055235273742675,7.680000375366211,0.33039982910156246
1789221670480372700,7.610372802734375,8.311321425628662,9.233089064788818,0.895730696105957
1789221670490452700,7.62045263671875,6.650044748687744,12.052111882019043,0.9042600395202636
1789221670500531700,7.63053173828125,2.689586289978027,11.17912610168457,0.8607154968261719
1789221670510611000,7.64061083984375,-0.012719196319580078,9.786000010681152,1.0652701011657715
1789221670520690700,7.650690673828125,0.311545491027832,8.367884439849853,1.193210252380371
1789221670530770000,7.66077001953125,2.1282956382751466,7.620594246673583,1.7422306205749511
1789221670540848600,7.6708486328125,2.009782656097412,6.669198361968994,2.4934113914489746
1789221670550927600,7.680927734375,3.829974468231201,9.673921445465087,1.946485949707031
1789221670561007600,7.691007568359375,4.797381576538085,11.758971816253661,-0.5074211143493652
1789221670571086600,7.701086669921875,1.205330898284912,10.360159496307373,-0.004638765716552734
1789221670581165800,7.711165771484375,0.8072948722839355,9.594613515472412,0.5805939025878906
1789221670591244800,7.721244873046875,1.9220950202941893,8.078335676574707,0.7006032608032227
1789221670601324800,7.73132470703125,0.354341845703125,7.491157719421386,1.3415011177062988
1789221670611403800,7.74140380859375,1.7884686401367187,8.678382467651367,0.7188590484619141
1789221670621482500,7.751482421875,2.812289125061035,8.98932940826416,0.18405425262451172
1789221670631562800,7.761562744140625,2.9888614974975583,9.79333225326538,-0.03441664886474609
1789221670641641700,7.771641845703125,5.570708712768554,12.135310389709472,-0.2823661582946777
1789221670651720700,7.781720703125,4.908263040924072,11.125106926727295,-0.2747346405029297
1789221670661799700,7.791799560546875,1.3082815696716308,9.399037167358397,0.2733879020690918
1789221670671879700,7.801879638671875,2.3605331993103027,7.700051814270019,-0.5865794067382812
1789221670681958700,7.811958740234375,5.562478644561767,7.75706374130249,-1.0446201118469238
1789221670692038000,7.822037841796875,4.14391416091919,8.41352390899658,-1.3245920684814452
1789221670702117600,7.83211767578125,2.0636521934509275,10.696694467163086,-1.1857283721923828
1789221670712196900,7.84219677734375,1.905036333465576,10.664672019958495,-0.7923311119079589
1789221670722275800,7.85227587890625,2.677166368865967,9.961674557495117,-0.9139864837646484
1789221670732354600,7.8623544921875,5.125985754394531,9.865158303070068,-0.9328408218383788
1789221670742434800,7.872434814453125,4.302230745697021,8.850316074371337,-0.5345055206298828
1789221670752513500,7.882513427734375,0.8265981231689452,7.816020957183837,-0.03127425918579101
1789221670762592800,7.8925927734375,1.760187133026123,8.33780728149414,0.7139210075378417
1789221670772671700,7.902671630859375,2.8841151748657223,7.427262462615967,0.16879121704101563
1789221670782751700,7.912751708984375,4.324077835845947,9.500341825103758,0.012719196319580078
1789221670792830700,7.922830810546875,7.59740041809082,11.435754592132568,-0.7052420265197753
1789221670802909700,7.93290966796875,5.233425553894043,10.518176805877685,-0.2522889999389648
1789221670812989700,7.94298974609375,1.07245270614624,9.958681805419921,-0.6236895324707031
1789221670823068700,7.953068603515625,1.6666636306762694,8.624363292694092,-0.25737667846679685
1789221670833147600,7.963147705078125,3.359513842010498,8.622866916656493,-0.47165772705078124
1789221670843226600,7.9732265625,4.958391638183594,9.024344607543945,-0.5264250900268554
1789221670853307000,7.983306884765625,3.725976333618164,10.012551342773437,0.09472060317993164
1789221670863385600,7.993385498046875,1.346439158630371,9.612121115112304,0.7493851196289062
1789221670873464800,8.00346484375,1.7929577682495117,9.299677798461914,0.6482300994873047
1789221670883544600,8.013544677734375,1.4821604652404785,8.128913186645507,-0.06075286712646484
1789221670893623800,8.023623779296875,0.9268553176879882,7.878868750762939,0.7971195152282714
1789221670903702800,8.033702880859375,2.0012533126831054,8.175749756622315,0.31064766540527344
1789221670913781800,8.04378173828125,4.090194261169433,9.721206928253173,1.2873323051452636
1789221670923861800,8.05386181640625,2.8761843818664548,9.804555073547363,2.5195979721069333
1789221670933940700,8.063940673828125,2.8386253433227537,12.159850956726073,2.0632032806396485
1789221670944019700,8.074019775390624,6.14157617111206,13.10705698852539,0.87463179397583
1789221670954098700,8.0840986328125,3.1476269950866698,9.373748412322998,3.3494881225585935
1789221670964178700,8.0941787109375,3.015496990966797,8.308179035949706,3.6730046218872068
1789221670974257700,8.104257568359374,5.06867455215454,8.107365371704102,2.708141352844238
1789221670984336600,8.114336669921874,2.067991683959961,7.666084078216552,4.0429087783813475
1789221670994415900,8.124415771484376,3.746476685333252,11.260828233337401,3.195810303497314
1789221671004495600,8.13449560546875,6.451176373291015,11.611578776550292,3.035698067474365
1789221671014574800,8.144574951171874,3.3680431854248045,9.994145917510986,4.827009822082519
1789221671024653600,8.154653564453126,2.7645547294616697,8.817994351959229,3.6061166130065914
1789221671034733800,8.16473388671875,3.299209887695312,7.420977683258056,3.7421371948242186
1789221671044812800,8.174812744140626,0.18300678939819334,5.881805290985107,3.1235353408813475
1789221671054891800,8.184891845703126,-0.16505027694702148,7.889044107818603,4.4002433761596675
1789221671064970800,8.194970703125,4.190002542877197,10.882095458221436,4.043208053588867
1789221671075050800,8.20505078125,7.4691609916687005,11.965322071838377,3.4038065727233886
1789221671085129700,8.215129638671876,5.113266558074951,9.996091206359862,4.134486991882324
1789221671095208700,8.225208740234375,2.133832229614258,7.709329345703124,4.564994377899169
1789221671105287700,8.23528759765625,3.745578859710693,6.634183162689209,4.416404237365723
1789221671115367700,8.24536767578125,2.6013001037597654,9.388712172698973,3.148674458312988
1789221671125447000,8.255447021484375,3.033303865814209,9.057264880371093,1.4987702392578124
1789221671135525600,8.265525634765625,4.388122730255127,9.419387881469726,3.0398879203796385
1789221671145606400,8.2756064453125,3.4765304481506347,9.07192936553955,1.9379566062927245
1789221671155685400,8.285685302734375,3.5333927375793457,9.234136528015137,2.2897546127319335
1789221671165764400,8.295764404296875,3.4970307998657226,8.9508725440979,2.881272060394287
1789221671175843600,8.305843505859375,3.11560454788208,9.862165550994872,3.4358290199279784
1789221671185923300,8.31592333984375,2.999934680175781,9.405471584320068,2.682702960205078
1789221671196002600,8.32600244140625,0.604535919189453,7.68658442993164,3.9056910957336424
1789221671206081300,8.336081298828125,0.5249287139892578,8.955660947418213,3.5980361824035643
1789221671216160300,8.34616015625,4.40473250427246,9.804555073547363,2.080710880279541
1789221671226240500,8.356240478515625,3.3048961166381834,8.989927958679198,3.44106633605957
1789221671236319200,8.3663193359375,2.874388730621338,9.496002334594726,2.146252150726318
1789221671246398500,8.3763984375,5.0568531814575195,8.42699129333496,0.6183025787353515
1789221671256477400,8.3864775390625,1.5683517250061034,6.818835965728759,1.5269021087646484
1789221671266557400,8.396557373046875,0.405368268585205,7.108384729003906,1.447893453979492
1789221671276636400,8.406636474609375,3.7921161544799804,9.11607245864868,1.9508254402160643
1789221671286715400,8.41671533203125,5.88015927734375,10.871171913146972,0.6542156036376953
1789221671296795400,8.42679541015625,3.824587514495849,10.49647935333252,0.5307645805358886
1789221671306874400,8.436874267578125,2.5495254928588866,9.35938320236206,-0.43364977569580077
1789221671316953300,8.446953369140624,3.6846763549804686,7.408408124542236,0.5680243438720702
1789221671327032300,8.4570322265625,2.768894219970703,5.841103862762451,1.512536898803711
1789221671337112300,8.4671123046875,2.102408332824707,7.704540942382812,1.3423989433288575
1789221671347191300,8.47719140625,7.7503300491333,11.553369748687743,1.483058290863037
1789221671357270500,8.4872705078125,10.115801289367676,13.833996467590332,-0.2551321144104004
1789221671367349500,8.497349609375,4.5410523612976075,11.629834564208984,0.004638765716552734
1789221671377429500,8.507429443359374,0.8150760276794433,9.370007472229004,0.18525135345458985
1789221671387508500,8.517508544921874,1.2883797683715819,5.667374604797363,-1.5472528228759765
1789221671397587200,8.527587158203126,0.39743747558593745,4.790647884368896,-0.0900818374633789
1789221671407666400,8.53766650390625,0.680551821899414,5.881506015777587,-0.24555530776977538
1789221671417746400,8.547746337890626,4.202721739196777,10.741286473083495,0.3130418670654297
1789221671427825400,8.557825439453126,6.1744964439392085,12.687622785186766,0.8975263473510742
1789221671437904400,8.567904296875,2.7156232330322263,10.071807833862303,-2.3035212722778318
1789221671447983400,8.5779833984375,0.7140706451416016,9.32706147994995,-2.948459344482422
1789221671458063400,8.5880634765625,2.5644892532348633,8.813205948638915,-3.3207577026367185
1789221671468142300,8.598142333984375,3.2800562744140622,9.019107291412354,-1.697638614654541
1789221671478221300,8.60822119140625,2.953247747802734,9.798569569396973,-1.7797896591186522
1789221671488300300,8.61830029296875,1.3871405868530273,8.06920778274536,-2.5692776565551756
1789221671498380500,8.628380615234375,1.279401512145996,8.348132276153564,-1.2888286811828613
1789221671508459300,8.638459228515625,4.121468520355224,10.390236654663086,-2.8981811096191405
1789221671518538500,8.64853857421875,6.1447185607910155,11.966369535064697,-1.1812392440795898
1789221671528617500,8.658617431640625,3.9299323875427246,9.4358480178833,-0.9096469932556152
1789221671538697500,8.668697509765625,2.3849241287231444,9.913640886688231,-0.6723217536926269
1789221671548776400,8.6787763671875,3.284096489715576,8.993219985961913,-1.8798972160339353
1789221671558855200,8.688855224609375,1.6651672546386718,9.42402664718628,-0.4031237045288086
1789221671568935400,8.698935302734375,3.6619314392089843,9.522338552856445,-1.401954709625244
1789221671579014400,8.709014404296875,2.037914525604248,7.625233012390137,-0.4469675224304199
1789221671589093400,8.71909326171875,1.885882720184326,9.207501034545897,0.6464344482421874
1789221671599172400,8.72917236328125,5.608267751312256,11.404929245758057,0.10160393295288085
1789221671609252400,8.73925244140625,4.067748620605468,10.288632721710204,1.2304700157165527
1789221671619331300,8.749331298828125,2.5225907241821286,8.72731396408081,-0.20036475143432617
1789221671629410300,8.759410400390625,2.52169289855957,7.010821011352538,0.28371289672851563
1789221671639489500,8.769489501953124,-0.05566518859863281,6.642413230895996,0.7730278610229492
1789221671649569300,8.7795693359375,0.866401725769043,9.851990193939208,1.0883142921447753
1789221671659648500,8.7896484375,5.003133281707763,11.815085917663573,1.0378864196777342
1789221671669727200,8.799727294921874,6.196792446899414,11.70884321899414,-0.05805939025878906
1789221671679806500,8.809806396484374,4.3813890380859375,11.2868651763916,-0.3721487205505371
1789221671689886200,8.81988623046875,1.6488567558288574,9.12879165496826,-0.6821978355407714
1789221671699965400,8.82996533203125,-0.37499183502197264,8.470984748840332,0.7778162643432617
1789221671710044400,8.84004443359375,0.7872434333801269,9.502287113952637,0.6992565223693847
1789221671720123400,8.850123291015626,2.666691736602783,9.619902270507811,0.42003275375366206
1789221671730203400,8.860203369140624,3.362805869293213,9.346664006042479,-0.45444940261840816
1789221671740282400,8.870282470703126,2.356492984008789,9.270648103332519,-2.1164742675781247
1789221671750361300,8.880361328125,-0.03651157531738281,8.580818749999999,-0.3033154228210449
1789221671760440300,8.8904404296875,-1.284489190673828,7.46332512512207,-0.3757400230407715
1789221671770520600,8.9005205078125,1.0625766242980956,9.249100288391112,-0.6817489227294922
1789221671780599300,8.910599365234376,5.824494088745117,11.679065335845946,-1.4044985488891601
1789221671790678300,8.92067822265625,4.6718356269836425,11.320533637237547,-1.757493656158447
1789221671800757500,8.930757568359375,2.20251588973999,10.220397974395752,-2.1110873138427735
1789221671810837200,8.940837158203125,2.063951468658447,8.833257387542725,-1.8555062866210936
1789221671820916500,8.95091650390625,4.340238697052001,10.37497361907959,-0.5638344909667968
1789221671830995200,8.9609951171875,2.5686791061401366,8.318204755401611,-1.7337012771606444
1789221671841074400,8.971074462890625,-0.45070846252441404,8.019677735900878,-0.8726865051269531
1789221671851154400,8.981154541015625,3.3610102180480954,8.550143041229248,-1.3853449356079102
1789221671861233400,8.9912333984375,4.27095648651123,8.711602015686035,-1.6295535049438477
1789221671871312400,9.0013125,3.69649772567749,10.546757588195801,-1.186775835418701
1789221671881391400,9.011391357421875,4.362983612823486,10.82852519607544,-0.28057050704956055
1789221671891471400,9.021471435546875,0.7613561279296874,9.252841228485106,-0.6456862602233886
1789221671901550300,9.03155029296875,2.7259482276916502,8.991723609924316,-1.1662754837036131
1789221671911629300,9.04162939453125,6.284928995513916,9.236231454467774,-1.788917552947998
1789221671921708300,9.051708251953125,1.6244658264160154,7.609521063995361,-2.214636535644531
1789221671931788500,9.06178857421875,-1.0830769760131835,9.504681315612793,-2.168697791290283
1789221671941867300,9.0718671875,1.8758570007324218,10.74517705078125,-1.998859111022949
1789221671951946500,9.081946533203125,3.265541426849365,9.827449626922608,-1.122431665802002
1789221671962025500,9.092025390625,4.675726204681396,8.665812908935546,-2.230049208831787
1789221671972105200,9.102105224609375,5.175815076446533,11.244966647338867,-3.2173581184387205
1789221671982184400,9.112184326171874,3.100191874694824,11.808801138305663,-2.8493992507934567
1789221671992263400,9.122263427734374,-1.6021698234558104,8.596979611206054,-0.7220014381408691
1789221672002342400,9.13234228515625,-1.8614917907714843,6.711994716644287,-0.020051438903808592
1789221672012422400,9.14242236328125,2.2110452331542967,9.14929200668335,-1.578227806854248
1789221672022501400,9.15250146484375,5.567566323089599,12.284499080657959,-2.310554239654541
1789221672032580400,9.162580322265624,1.9237410339355467,9.952247388458252,-2.3487118286132813
1789221672042659300,9.172659423828126,-1.1773486663818358,8.512584002685546,-1.3401543792724608
1789221672052739300,9.1827392578125,2.3406313980102538,9.954791227722167,-1.815702684020996
1789221672062818300,9.192818359375,5.070919116210937,9.419238243865966,-1.0281599754333495
1789221672072897500,9.2028974609375,1.9656395629882812,9.007884471130371,-1.2490250785827637
1789221672082976300,9.212976318359376,0.6581061813354492,9.245359348297118,-1.4718354705810546
1789221672093056500,9.223056396484376,1.950975077819824,8.944587764739989,-1.3136685234069823
1789221672103135200,9.23313525390625,2.305915473937988,8.314014902496337,-1.3884873252868652
1789221672113214500,9.24321435546875,4.926818103790283,9.616310968017578,-2.488024437713623
1789221672123293400,9.25329345703125,3.343053705596924,9.589825112152099,-2.4799440071105954
1789221672133373200,9.263373291015625,1.1130044967651367,9.50677624206543,-2.733879020690918
1789221672143452400,9.273452392578125,0.26261399459838863,9.307458953857422,-2.5758617111206052
1789221672153531400,9.283531494140625,3.1009400627136228,8.801833490753173,-2.4788965438842774
1789221672163610000,9.293610107421875,3.406799324798584,9.738714527893066,-2.117671368408203
1789221672173690400,9.3036904296875,5.380968231201171,12.741941235351561,-2.6431986328124997
1789221672183769300,9.313769287109375,4.304624947357177,10.370185215759276,-2.0886416732788087
1789221672193848300,9.323848388671875,0.7707832969665527,8.065017929840087,-2.310554239654541
1789221672203927300,9.33392724609375,2.3388357467651364,9.599850831604003,-3.30070626373291
1789221672214007300,9.34400732421875,2.914940521240234,8.552686880493164,-2.217928562927246
1789221672224086300,9.354086181640625,0.8164227661132812,7.914482500457763,-2.057068138885498
1789221672234165500,9.36416552734375,2.6229975563049317,8.103025881195068,-2.66878666305542
1789221672244244200,9.374244140625,4.3716625938415525,11.671583455657958,-1.988683753967285
1789221672254324500,9.384324462890625,4.500350933074951,12.965050902557373,-3.586214811706543
1789221672264403500,9.394403564453125,1.0691606788635253,10.838102002716063,-1.881393592071533
1789221672274482200,9.404482177734375,3.4575264724731443,11.34492456665039,-2.646341022491455
1789221672284561400,9.4145615234375,6.7000237083435055,10.046070166015625,-3.277213159942627
1789221672294641200,9.42464111328125,0.34311902542114253,6.0242602897644035,-1.44924019241333
1789221672304720400,9.434720458984375,-3.1262288177490234,5.644031138610839,-2.0664953079223634
1789221672314799400,9.44479931640625,-0.6554127044677734,7.216123803710937,-2.422183892059326
1789221672324878300,9.45487841796875,4.291007925415038,10.410886643981932,-1.209820026397705
1789221672334958300,9.464958251953124,5.158157839202881,10.668412960052489,-2.7896938468933103
1789221672345037300,9.475037353515624,3.2495302032470703,11.097573607635498,-3.254019331359863
1789221672355116300,9.4851162109375,3.00053323059082,9.752930100250243,-2.2474071708679197
1789221672365195300,9.4951953125,3.167828071594238,8.760084599304198,-2.29214881439209
1789221672375275300,9.505275146484376,1.9105729248046874,7.1309800071716305,-2.689586289978027
1789221672385354200,9.515354248046876,1.3287819213867187,8.815450512695312,-2.175581121063232
1789221672395433500,9.52543359375,4.677372218322754,10.353425804138183,-3.2414497726440428
1789221672405512400,9.535512451171876,3.6885669326782224,9.177573513793945,-1.2277765388488768
1789221672415592400,9.545592529296876,0.8550292678833007,9.32182416381836,-2.278382154846191
1789221672425671400,9.55567138671875,5.8862944190979,12.469750434112548,-3.1043817276000976
1789221672435750100,9.565750244140625,4.7946880996704095,8.249221820068358,-1.7102081733703611
1789221672445829400,9.575829345703125,-0.6820481979370117,7.120804650115966,-1.0428244606018067
1789221672455909400,9.585909423828125,2.5739164222717283,9.58249286956787,-2.6039935806274412
1789221672465988400,9.59598828125,5.534197137451171,9.603442134094237,-1.66636435546875
1789221672476067300,9.6060673828125,1.9882348411560058,8.088211758422851,-1.701978105163574
1789221672486146600,9.616146484375,2.710685192108154,9.55750338973999,-2.2445640563964844
1789221672496226300,9.626226318359375,6.547692627716064,10.650606085205078,-0.6560112548828124
1789221672506305500,9.636305419921875,2.22166950302124,8.001421948242188,-0.7240963645935058
1789221672516384300,9.64638427734375,-2.2040122657775876,6.012139643859863,-1.2808978881835937
1789221672526463200,9.656463134765625,0.8960299713134765,8.860790706634521,-0.27308862686157226
1789221672536543500,9.66654345703125,5.774066216278076,9.743502931213378,-1.409137314605713
1789221672546622200,9.676622314453125,5.327697244262695,9.635614218902587,-1.0000281059265137
1789221672556701400,9.686701416015625,3.7089176467895504,9.293093743896485,-0.39698856277465816
1789221672566780400,9.696780517578125,4.327519500732421,10.44380691680908,-0.18570026626586913
1789221672576860400,9.7068603515625,1.7066168708801268,7.8615107887268065,-0.7823053924560547
1789221672586939400,9.716939453125,-0.538845011138916,5.615001443481445,1.0218751960754393
1789221672597018400,9.727018310546875,4.638167166137695,9.952546663665771,-0.6581061813354492
1789221672607097300,9.737097412109375,6.471527087402343,9.849895267486572,-1.396867031097412
1789221672617177300,9.74717724609375,2.235735437774658,10.794407822418211,1.913416039276123
1789221672627256300,9.75725634765625,4.718522559356689,12.078148825073242,-0.25752631607055665
1789221672637335300,9.767335205078124,5.0112137123107905,10.122235706329345,0.04189852905273437
1789221672647414500,9.77741455078125,1.3807061698913574,8.419808688354491,0.4499602745056152
1789221672657494300,9.787494384765624,0.9337386474609375,7.23363140335083,0.1283890640258789
1789221672667573500,9.797573486328124,1.8727146110534667,8.05080235748291,1.3500304611206053
1789221672677652500,9.807652587890624,3.4599206741333006,8.723722661590577,0.6245873580932617
1789221672687731200,9.817731201171876,4.021510601043701,10.80907230758667,0.21487959899902342
1789221672697811500,9.8278115234375,4.953004684448242,10.391134480285643,0.07122749938964844
1789221672707890200,9.83789013671875,3.3782185424804685,9.90271734161377,0.8897451919555663
1789221672717969400,9.847969482421876,4.188506166839599,11.227459047698973,-0.7012018112182616
1789221672728048400,9.85804833984375,0.7912836486816406,7.992742967224121,1.0290578010559082
1789221672738128400,9.86812841796875,-0.526125814819336,7.7310267982482905,1.4196119468688964
1789221672748207400,9.878207275390626,4.0726866615295405,8.940996462249755,-0.7760206130981445
1789221672758286300,9.888286376953126,7.43773709487915,12.360814258575438,0.33399113159179683
1789221672768365300,9.898365234375,4.725256251525878,8.996362375640869,0.5240308883666992
1789221672778445300,9.9084453125,-1.7841291496276854,7.246949150085449,1.8864812705993652
1789221672788524300,9.918524169921875,-0.6842927619934082,8.70127702102661,1.1234791290283201
1789221672798603300,9.928603271484375,3.377769629669189,9.369857834625243,1.230320378112793
1789221672808682500,9.9386826171875,5.635202519989013,10.163086772155761,0.914884309387207
1789221672818762200,9.94876220703125,5.599738407897949,9.668684129333496,1.2523171058654785
1789221672828841500,9.958841552734375,1.6365864723205565,8.819490727996826,1.8619407035827635
1789221672838920400,9.96892041015625,-2.046743144226074,6.570437543487548,1.6303016929626464
1789221672848999200,9.978999267578125,0.013018471527099609,9.791686239624022,2.9041666137695312
1789221672859079400,9.989079345703125,6.106710609436035,10.05564697265625,1.033696566772461
1789221672869158100,9.999158203125,6.438008264160156,10.269329470825195,2.6689363006591798
1789221672879237400,10.0092373046875,4.363881438446045,11.454459292602538,2.5667338172912597
1789221672889316400,10.01931640625,2.2692542610168456,10.152163227081298,2.693027954864502
1789221672899396400,10.029396240234375,0.32665888900756834,8.207772203826904,3.0099603996276856
1789221672909475300,10.039475341796875,3.1229367904663086,8.670601312255858,1.6585832000732421
1789221672919554300,10.04955419921875,5.344606293487549,8.921094660949706,2.3120506156921383
1789221672929633300,10.05963330078125,1.0414777221679687,7.982118697357177,2.7911902229309082
1789221672939713300,10.06971337890625,0.2587234169006348,9.558850128173827,2.812289125061035
1789221672949792500,10.07979248046875,3.774608554840088,9.290100991821289,2.22166950302124
1789221672959871200,10.089871337890624,3.537582590484619,10.141688594818115,2.8118402122497557
1789221672969950500,10.099950439453124,3.451989881134033,10.765378127288818,2.4576480041503905
1789221672980030200,10.1100302734375,2.0100819313049314,8.796446537017822,3.8070799148559566
1789221672990109400,10.120109375,2.985270195007324,9.548375495910644,2.7588685005187985
1789221673000188400,10.1301884765625,4.6630070083618165,9.843460850524902,2.1601684478759764
1789221673010268400,10.140268310546874,1.607556777191162,7.351396197509765,2.9927520751953125
1789221673020347400,10.150347412109374,0.9581295768737792,6.7739446846008295,2.273444113922119
1789221673030426400,10.16042626953125,1.4336778816223144,7.955632841491699,2.6550200035095215
1789221673040505300,10.17050537109375,3.8486791687011714,10.284592506408691,2.3000796073913574
1789221673050584300,10.180584228515626,3.1241338912963865,9.521291089630127,2.8598738830566406
1789221673060664300,10.190664306640626,3.2921769203186035,10.611999583435058,3.4425627120971676
1789221673070743300,10.200743408203126,5.212775564575195,10.56576156387329,2.03656778717041
1789221673080822300,10.210822265625,0.8876502655029296,7.485621128082275,2.788646383666992
1789221673090901200,10.2209013671875,-0.7236474517822266,8.884732723236084,2.3273136512756345
1789221673100981200,10.230981201171875,3.510797459411621,8.49821879272461,1.6424223388671875
1789221673111060500,10.241060546875,4.192546382141113,8.97661021194458,2.9441198539733886
1789221673121139200,10.25113916015625,4.013280532836914,10.83466033782959,1.715445489501953
1789221673131219500,10.261219482421875,4.525041137695312,10.702679971313476,1.8888754722595213
1789221673141298200,10.271298095703125,1.8381483245849608,8.093449074554442,1.933168202972412
1789221673151376600,10.281376708984375,1.0624269866943359,8.398560148620605,1.7428291709899901
1789221673161455900,10.291455810546875,2.0732290000915525,8.541464060211181,1.4863503181457518
1789221673171535600,10.30153564453125,1.9578584075927734,8.225429441070556,2.3190835830688474
1789221673181614800,10.31161474609375,2.2068553802490234,9.346664006042479,1.0935516082763672
1789221673191693800,10.32169384765625,3.662829264831543,10.714351704406738,1.3133692481994628
1789221673201773000,10.33177294921875,2.497002693939209,9.779864868927001,0.7178115852355956
1789221673211852800,10.341852783203125,2.456600540924072,11.490372317504882,1.5541361526489257
1789221673221932000,10.35193212890625,5.345204843902588,9.952546663665771,1.1350012245178223
1789221673232010800,10.3620107421875,3.681234690093994,8.764573727416991,1.4175170204162597
1789221673242089700,10.37208984375,2.9487586196899414,10.702829608917236,0.847846662902832
1789221673252169700,10.382169677734375,1.2624924629211425,8.484152857971191,0.4944026428222656
1789221673262248700,10.392248779296875,-0.8895955543518066,6.246621768951416,1.1097124694824219
1789221673272328000,10.402327880859374,-1.2484265281677245,6.337751069641113,0.15337854385375976
1789221673282407000,10.412406982421874,0.047285482788085934,8.022820125579834,0.2193687271118164
1789221673292487000,10.42248681640625,3.7949592689514158,10.716147355651854,0.5351040710449219
1789221673302566000,10.43256591796875,7.662043862915039,11.833192067718505,-0.07392097625732422
1789221673312644600,10.44264453125,7.448211727142334,11.422885758209228,0.07422025146484375
1789221673322723800,10.452723876953126,0.8485948509216308,7.5165961120605465,0.9457096557617187
1789221673332803800,10.462803955078124,-3.964049761199951,5.784540848541259,1.4809633644104003
1789221673342882800,10.4728828125,0.7917325614929199,7.96116943283081,-0.3060088996887207
1789221673352961800,10.4829619140625,5.283254875946045,8.066813581085205,-0.6132149002075195
1789221673363041000,10.493041015625,3.5699043128967283,9.23189196395874,-0.668431175994873
1789221673373120800,10.503120849609376,3.05799407043457,9.915286900329589,-1.2217910346984862
1789221673383200000,10.513199951171876,2.70036019744873,13.194744624328612,0.2985270195007324
1789221673393278700,10.52327880859375,4.335599931335449,13.937994602203368,-0.7158662963867187
1789221673403357700,10.533357666015625,3.2179566688537595,8.444349255371094,-1.2280758140563963
1789221673413438000,10.54343798828125,7.04838004989624,12.875268340301513,0.3489548919677734
1789221673423516700,10.5535166015625,5.945550910186768,12.322806307220459,-1.7401356941223143
1789221673433596000,10.563595947265625,-2.9325977584838867,6.285976458740234,0.194079972076416
1789221673443675000,10.5736748046875,-4.640860643005371,4.9549499732971185,0.6405985816955566
1789221673453755000,10.5837548828125,-1.6033669242858886,4.1088989616394045,-2.027589530944824
1789221673463833900,10.593833740234375,1.031003089904785,6.613533173370361,-1.6250643768310546
1789221673473912800,10.603912841796875,3.630208267211914,11.265616636657715,0.36930560607910157
1789221673483991800,10.61399169921875,7.7970169815063475,15.097386756134032,0.48632221221923827
1789221673494071800,10.62407177734375,7.249044076538086,13.73209325942993,-1.6832734046936033
1789221673504150800,10.63415087890625,4.67961678237915,12.768127816009521,-0.7846995941162109
1789221673514229800,10.644229736328125,4.16845472793579,8.743325187683105,-1.2361562446594239
1789221673524309000,10.65430908203125,-1.2801497001647948,3.7898715904235836,-1.6437690773010254
1789221673534388700,10.664388671875,-4.236240562438964,6.118382342529297,0.06898293533325195
1789221673544468000,10.674468017578125,-1.4579191734313963,8.718634983062744,-0.35194764404296874
1789221673554547000,10.684546875,4.910806880187988,9.905560456085205,-0.910395181274414
1789221673564625700,10.694625732421875,7.7503300491333,12.014253568267822,0.1910872200012207
1789221673574706000,10.704705810546875,4.677372218322754,11.77977144317627,-0.1370680450439453
1789221673584784600,10.71478466796875,1.648557480621338,11.286715538787842,0.7748235122680663
1789221673594863900,10.72486376953125,3.0659248634338376,9.041702569580078,0.8831611373901367
1789221673604942800,10.73494287109375,0.5773018753051757,4.977844526672363,0.23358429946899412
1789221673615022800,10.74502294921875,-1.9816507865905761,5.591657977294922,0.8900444671630859
1789221673625101800,10.755101806640624,1.9571102195739745,10.258256288146972,0.05626373901367187
1789221673635181000,10.76518115234375,4.948665193939209,12.19426760559082,-0.13347674255371092
1789221673645259800,10.775259765625,6.296151815795898,13.569886096954345,1.145326219177246
1789221673655340000,10.785340087890624,8.22333451461792,12.879158917999266,0.2302922721862793
1789221673665418800,10.795418701171876,3.8627451034545897,7.692569934082031,0.15442600708007811
1789221673675497700,10.805497802734376,-2.366668341064453,6.1942486076354975,2.4344541755676268
1789221673685577000,10.815576904296876,-1.7313070755004882,6.631340048217773,0.92565821685791
1789221673695656700,10.82565673828125,3.371784125518799,8.054094384765625,-0.25303718795776364
1789221673705736000,10.83573583984375,4.080168541717529,8.764274452209472,0.32187048568725585
1789221673715815000,10.84581494140625,1.6880618080139158,10.651503910827635,0.7362170104980469
1789221673725893600,10.8558935546875,4.735281970977783,15.089007050323486,0.7860463325500487
1789221673735974000,10.865973876953126,7.943362557983398,11.378742665100097,0.22056582794189453
1789221673746052900,10.876052978515625,4.969165545654296,10.979808813476561,1.8617910659790038
1789221673756131800,10.8861318359375,2.562543964385986,9.932046311950684,0.8243535591125488
1789221673766210800,10.8962109375,4.080767092132568,8.722824835968018,0.8081926979064941
1789221673776290800,10.906290771484375,2.376394785308838,6.346579688262939,0.11327566604614257
1789221673786369800,10.916369873046875,-0.9165303230285644,7.1872437461853025,-0.25423428878784177
1789221673796449000,10.926448974609375,-0.6760626937866211,8.087014657592773,0.13467384338378904
1789221673806528800,10.93652880859375,2.840121719360351,10.154557428741455,0.3093009269714355
1789221673816608000,10.94660791015625,5.602880797576904,11.353603547668456,-0.21996727752685546
1789221673826687000,10.95668701171875,5.4878094802856445,12.2330237449646,-0.19797054977416992
1789221673836765700,10.966765625,2.4691700996398924,8.869469687652588,0.02663549346923828
1789221673846846000,10.976845947265625,1.2609960868835448,9.391704924774169,1.0298059890747069
1789221673856924700,10.986924560546875,5.6678235176086424,11.199476815795897,-0.8315361640930176
1789221673867004000,10.99700390625,4.165611613464355,8.568997379302978,-0.36571430358886714
1789221673877083000,11.007082763671875,1.4281412902832031,9.83837317199707,0.06494272003173827
1789221673887163000,11.017162841796875,3.1153052726745605,10.463409442901611,-1.712303099822998
1789221673897241900,11.027241943359375,2.7638065414428707,6.892756941986083,-0.5312134933471679
1789221673907320800,11.03732080078125,1.8775030143737792,9.204957195281981,-0.1096843635559082
1789221673917399800,11.04739990234375,2.5374048469543458,9.612420390319823,-1.1736077262878417
1789221673927479800,11.057479736328125,-0.7248445526123046,7.6744637840270995,0.6609492958068848
1789221673937558800,11.067558837890624,3.327940307617187,12.15596037902832,0.0522235237121582
1789221673947637800,11.0776376953125,10.335020378875733,12.355876217651366,-1.898601916503906
1789221673957717000,11.087717041015624,4.339789784240723,8.281992455291748,-0.8179191421508789
1789221673967796700,11.097796630859374,-2.4779987182617185,5.9588686569213865,0.28580782318115233
1789221673977876000,11.1078759765625,-3.6194343597412106,5.039794494628906,-0.2150292366027832
1789221673987955000,11.117954833984374,-1.6579846496582031,6.767959180450439,-0.025887305450439452
1789221673998033700,11.12803369140625,4.941033676147461,10.96828671798706,-0.24750059661865234
1789221674008114000,11.138114013671874,9.041253656768799,12.12378829421997,-1.2050316230773925
1789221674018193000,11.14819287109375,4.580107775878906,11.648688902282714,-1.119738188934326
1789221674028271900,11.15827197265625,2.0106804817199704,9.364770156097412,-0.8379705810546875
1789221674038350800,11.168350830078126,1.7087117973327637,8.77789147415161,-0.3016694091796875
1789221674048430800,11.178430908203126,-0.9045593147277832,6.9339072830200195,-0.38756139373779297
1789221674058509800,11.188509765625,1.6549918975830078,8.624662567901611,0.04563946914672851
1789221674068588800,11.1985888671875,6.156240656280517,9.297433234405517,-1.71095636138916
1789221674078667800,11.208667724609375,1.9943699829101562,7.589469625091552,-1.3536217636108399
1789221674088747800,11.218747802734375,0.14933832855224607,9.942221669006347,-0.5499181938171387
1789221674098827000,11.228826904296875,4.3616368743896485,11.67008707962036,-1.671452033996582
1789221674108905700,11.23890576171875,3.723282856750488,11.162217052459717,-0.5068225639343261
1789221674118985000,11.24898486328125,4.6821606216430665,11.936741289520263,-1.7366940292358397
1789221674129064700,11.259064697265625,5.858012911987305,8.93755479736328,-2.229301020812988
1789221674139144000,11.26914404296875,0.8954314208984374,7.9858596374511714,-0.8258499351501465
1789221674149223700,11.2792236328125,-1.4398130233764648,7.105092701721191,-1.6719009468078612
1789221674159303700,11.2893037109375,0.6337152519226074,8.545205000305176,-0.6786065330505371
1789221674169382700,11.299382568359375,4.755931960296631,10.73859299621582,-1.7675193756103516
1789221674179461400,11.30946142578125,3.1759085021972653,8.839093254089354,-1.2455834136962889
1789221674189540600,11.31954052734375,2.15163910446167,11.623849060058593,-0.9677063835144042
1789221674199620600,11.32962060546875,4.5796588630676265,11.998691257476805,-2.6900352027893066
1789221674209699600,11.339699462890625,4.030339219665527,13.41950030517578,-0.5805939025878906
1789221674219778600,11.349778564453125,3.8973113899230953,10.296713152313233,-2.878578583526611
1789221674229857800,11.35985791015625,4.12476054763794,8.727014688873291,-0.5615899269104003
1789221674239937500,11.3699375,3.412934466552734,8.67568899078369,-2.59202257232666
1789221674250016800,11.380016845703125,-2.5055320373535155,4.406827430725097,-0.8562263687133789
1789221674260095500,11.390095458984375,-4.34128616027832,6.468085422515869,1.9182044425964355
1789221674270174500,11.400174560546875,1.6552911727905273,9.791536602020264,-1.0392331581115721
1789221674280254700,11.410254638671875,4.595520449066162,9.339481401062011,-0.9751882637023925
1789221674290333400,11.42033349609375,2.8718448913574215,11.354351735687255,-0.35224691925048823
1789221674300412700,11.43041259765625,5.479130499267578,13.547290818786621,-1.3712790008544922
1789221674310491600,11.44049169921875,5.501576139831543,10.981903739929198,-0.3838204536437988
1789221674320571600,11.450571533203124,1.5804723709106445,7.379528067016601,-0.37918168792724605
1789221674330650600,11.460650634765624,-2.468721186828613,3.5922003158569336,-0.6052841072082519
1789221674340729600,11.4707294921875,-1.5038579177856444,8.340201483154296,-0.34925416717529295
1789221674350808600,11.48080859375,2.9632734672546386,8.71444513015747,-1.8517653465270996
1789221674360888600,11.490888671875,6.206518891143799,13.791948300933838,0.4809352584838867
1789221674370967600,11.500967529296876,7.49489865951538,12.153266902160643,-0.3504512680053711
1789221674381046500,11.511046630859376,5.26739328994751,11.170596758270262,0.3468599655151367
1789221674391126500,11.52112646484375,1.8864812705993652,8.05125127029419,0.0047884033203125
1789221674401205500,11.53120556640625,3.7475241485595703,11.098471433258055,-0.7582137382507323
1789221674411284700,11.54128466796875,4.897339495849609,9.977386505889893,-2.5406968742370606
1789221674421363700,11.55136376953125,0.694617756652832,7.489661343383789,0.41584290084838865
1789221674431443700,11.561443603515626,3.9996635108947753,11.739219652557372,-0.929548794555664
1789221674441522700,11.571522705078126,6.502801346588134,9.463680612182616,-1.7277157730102537
1789221674451601400,11.581601318359375,-0.44068274307250976,8.316109828948974,1.036838956451416
1789221674461680600,11.5916806640625,0.9404723396301269,8.655787189483641,-1.0181342559814452
1789221674471760400,11.601760498046875,4.121917433166503,8.889820401763915,-0.39713820037841796
1789221674481839600,11.611839599609375,1.53213942489624,10.27172367248535,-1.1342530364990233
1789221674491918600,11.621918701171875,2.774430811309814,10.607959368133544,-0.4059668190002441
1789221674501997600,11.63199755859375,4.555716846466064,11.724405529785155,-0.3924994346618652
1789221674512077600,11.64207763671875,3.173663938140869,8.004414700317382,-2.3708581939697266
1789221674522156500,11.652156494140625,-1.9182044425964355,4.1189246810913085,0.30780455093383785
1789221674532235500,11.662235595703125,-4.338891958618164,4.922628250885009,-0.23508067550659179
1789221674542315500,11.6723154296875,-1.7767969070434568,6.318747093963623,-0.6235398948669433
1789221674552394800,11.682394775390625,3.610156828308105,12.751218766784667,0.12644377517700195
1789221674562473500,11.692473388671875,9.739163440704345,17.044770531463623,-0.26186580657958985
1789221674572552700,11.702552734375,11.780968544006347,13.441646670532226,-1.5001169776916503
1789221674582632400,11.712632568359375,4.2329485351562495,7.791630027770996,-0.9153332221984862
1789221674592711700,11.722711669921875,-0.8885480911254883,6.393116983032226,0.4100070343017578
1789221674602790700,11.732790771484375,-3.021781770324707,5.82883357925415,-0.8542810798645019
1789221674612869400,11.742869384765624,-1.143380930328369,7.358878077697754,-0.7818564796447753
1789221674622949600,11.75294970703125,4.6821606216430665,10.300154817199706,-0.4326023124694824
1789221674633028600,11.763028564453125,8.54236188583374,13.901183751678467,-0.5161000953674316
1789221674643107600,11.773107666015624,8.879645044708251,12.977321186065673,-0.7034463752746581
1789221674653186600,11.7831865234375,2.5499744056701656,4.722413137054443,-0.5651812294006348
1789221674663266600,11.7932666015625,-1.6617255897521972,5.026476747894287,0.9798270294189453
1789221674673345500,11.803345458984374,2.6535236274719236,11.53032555770874,-1.3335703247070312
1789221674683424500,11.813424560546874,4.966322431182861,7.368604521942138,-2.4078186820983887
1789221674693503700,11.823503662109376,-1.8306664443969725,3.5064579689025877,1.3813047203063964
1789221674703583500,11.83358349609375,-1.5255553703308105,9.061005820465088,2.1245546981811523
1789221674713662700,11.843662841796874,8.049605256652832,14.948497340393066,-0.4138976119995117
1789221674723741400,11.853741455078126,13.415460089874268,17.686117301177976,-0.6292261238098145
1789221674733821700,11.86382177734375,8.175600119018554,8.73943460998535,-0.9484031326293945
1789221674743900400,11.873900390625,0.7013514488220215,2.1933879959106446,1.6341922706604004
1789221674753979600,11.883979736328126,1.123030216217041,9.72300257949829,2.9165865348815916
1789221674764058600,11.89405859375,5.594950004577637,12.869582111358643,-1.450586930847168
1789221674774138600,11.904138671875,0.8104372619628906,4.496460355377197,-0.9835679695129393
1789221674784217600,11.914217529296875,-3.79870020904541,4.994454300689697,2.7617116149902343
1789221674794296600,11.924296630859375,1.7090110725402832,13.109151914978026,3.4816181266784665
1789221674804375600,11.93437548828125,13.113940318298338,19.927538967895508,1.105672254180908
1789221674814455600,11.94445556640625,13.946972858428953,15.286229412078857,-0.4927566291809082
1789221674824534500,11.954534423828125,6.19873773574829,11.080664558410644,3.909731311035156
1789221674834613500,11.964613525390625,2.8176760787963864,7.213879239654541,4.24551809387207
1789221674844692500,11.9746923828125,0.41808746490478516,6.000168635559081,0.5678747062683105
1789221674854772500,11.9847724609375,-2.1698948921203614,6.67159256362915,1.0628758995056151
1789221674864851500,11.9948515625,1.5285481224060058,11.657517520904541,2.7240029388427733
1789221674874930700,12.0049306640625,4.376600634765625,9.080907621765137,1.0899603057861327
1789221674885010400,12.015010498046875,3.821145849609375,9.708787007141114,4.2211271644592285
1789221674895089700,12.025089599609375,3.7027825050354,8.179939609527587,1.3596072677612303
1789221674905168600,12.035168701171875,1.4565724349975586,9.30237127532959,2.3183353950500485
1789221674915247600,12.04524755859375,3.4109891777038572,8.694842604064942,1.2057798110961913
1789221674925327600,12.05532763671875,5.661089825439452,10.314220751953124,2.3014263458251953
1789221674935406600,12.065406494140625,6.355258669281006,10.41941598739624,0.8303390632629394
1789221674945485600,12.075485595703125,4.681412433624267,7.755567365264892,1.8773533767700195
1789221674955564500,12.085564453125,1.291522158050537,7.100453936004638,1.804180588531494
1789221674965644500,12.09564453125,-2.146401788330078,4.545092576599121,1.0193313568115234
1789221674975723500,12.1057236328125,1.3673884231567381,11.336245585632323,3.3201591522216796
1789221674985802800,12.115802734375,6.533776330566406,13.123666762542724,0.02858078231811523
1789221674995881500,12.125881591796874,7.2343795913696285,15.588048458862303,2.8950387199401852
1789221675005961700,12.135961669921874,10.178948358154296,12.710068425750732,3.429095327758789
1789221675016040400,12.14604052734375,5.486163466644287,5.001636905670166,1.8400936134338377
1789221675026119400,12.156119384765624,-2.5405472366333006,4.229506870269775,2.4386440284729
1789221675036199700,12.16619970703125,-5.351339985656738,4.887613051605224,1.661127039337158
1789221675046278400,12.1762783203125,-4.049343195343018,3.8982092155456542,2.446874096679687
1789221675056357600,12.186357666015626,2.466177347564697,12.871677037811278,2.327014376068115
1789221675066436600,12.1964365234375,9.70354969100952,15.582062954711914,0.7567173622131347
1789221675076516600,12.2065166015625,9.797222830963134,9.79333225326538,2.0485387954711913
1789221675086595600,12.216595703125,3.1036335395812986,6.2772974777221675,5.1027919258117675
1789221675096674600,12.226674560546876,-0.9922469505310058,4.88402174911499,4.467430660247802
1789221675106753500,12.23675341796875,-3.379266005706787,5.255272644042968,1.6525976959228514
1789221675116833800,12.246833740234376,-0.34012627334594725,10.88583639831543,1.7120038246154785
1789221675126912500,12.25691259765625,5.984606324768066,15.503802487945556,1.7634791603088378
1789221675136991500,12.266991455078125,10.364798262023925,17.36529427871704,3.743783208465576
1789221675147071500,12.277071533203125,8.678083192443847,8.54191297302246,3.596988719177246
1789221675157150000,12.28714990234375,0.8298901504516601,3.398419618988037,4.891054716491699
1789221675167229200,12.297229248046875,-3.6736031723022458,5.501127227020263,5.44546203842163
1789221675177308200,12.30730810546875,-3.416825044250488,7.509563144683837,2.3690625427246093
1789221675187388200,12.31738818359375,2.861519896697998,11.938088027954102,1.271021806335449
1789221675197467100,12.327467041015625,7.738508678436279,10.986243230438232,2.339883209991455
1789221675207546000,12.337546142578125,3.01355170211792,4.6351744140625,4.3348517433166505
1789221675217625000,12.347625,-3.331381972503662,5.1523219726562495,5.836165821838379
1789221675227705000,12.357705078125,-4.899284784698486,3.3170167625427243,3.819050923156738
1789221675237784000,12.3677841796875,0.5392939239501953,8.716689694213867,2.4811411079406738
1789221675247863000,12.377863037109375,8.603713303375244,16.46522409210205,1.7747019805908202
1789221675257942300,12.3879423828125,12.620435501098632,16.52238565673828,2.942473840332031
1789221675268022000,12.39802197265625,10.625766242980957,9.598055180358886,4.761917464447021
1789221675278101200,12.408101318359375,3.135955261993408,4.048146094512939,6.415412985992432
1789221675288180200,12.41818017578125,-1.1924620643615722,4.234444911193847,5.475389559173584
1789221675298260000,12.428260009765625,-4.575768285369873,4.142118509674072,1.7522563400268554
1789221675308339200,12.438339111328125,-4.60958638381958,5.679495250701904,2.31758720703125
1789221675318418000,12.44841796875,2.5279776779174803,11.934047812652587,3.5702035881042478
1789221675328497200,12.4584970703125,10.996418587493896,16.073323207855225,3.610156828308105
1789221675338577200,12.4685771484375,10.224587827301026,10.043376689147948,1.5171756645202636
1789221675348656000,12.47865625,3.6023756729125975,4.848856912231445,4.750245731353759
1789221675358735000,12.488735107421874,-0.6319196006774902,2.7672482063293455,5.498583387756347
1789221675368814000,12.49881396484375,-2.8673557632446287,5.861155301666259,1.8068740653991697
1789221675378894000,12.50889404296875,3.612850305175781,14.637251124572753,0.34865561676025386
1789221675388973000,12.51897314453125,11.314697770690918,15.881188524627685,0.8457517364501953
1789221675399052000,12.529052001953126,10.0487636428833,11.76046819229126,3.5984850952148437
1789221675409132000,12.539132080078126,3.8144121574401852,8.143428034210205,6.450428185272217
1789221675419211300,12.549211181640626,2.129941651916504,5.774215853881835,2.339883209991455
1789221675429290000,12.5592900390625,-1.6575357368469237,3.327491394805908,-1.197699380493164
1789221675439369200,12.569369140625,-3.5537434516906736,4.375553171539306,-0.20470424194335937
1789221675449449000,12.579448974609376,4.715529807281494,9.419238243865966,0.5638344909667968
1789221675459528000,12.58952783203125,11.916390575408935,13.268067050170897,0.656310530090332
1789221675469607200,12.599607177734375,6.1942486076354975,8.724770124816894,-0.5966051261901855
1789221675479686100,12.60968603515625,-0.8259995727539062,7.2626610984802245,1.055394019317627
1789221675489766100,12.61976611328125,-0.8316858016967773,12.049717680358887,1.712303099822998
1789221675499845000,12.62984521484375,4.995950676727294,11.95858837966919,-1.4932336479187012
1789221675509924000,12.639924072265625,7.898172001647949,9.208698135375975,-0.27727847976684566
1789221675520004000,12.650004150390625,8.660874868011474,12.709918788146972,1.064222637939453
1789221675530083000,12.6600830078125,3.6545991966247557,5.75251840133667,-2.268356435394287
1789221675540162000,12.670162109375,-2.6493337745666503,3.923348332977295,-0.37319618377685543
1789221675550241000,12.680240966796875,-3.845985691833496,9.54433528060913,-1.0645219131469725
1789221675560321000,12.690321044921875,1.1568483146667479,11.221922456359863,-2.8330887519836425
1789221675570400000,12.70039990234375,7.550264572906494,14.400374797821044,0.1892915687561035
1789221675580479200,12.710479248046875,11.796231579589843,11.788600061798094,-1.2574047843933105
1789221675590558000,12.720557861328125,6.908618527984618,7.222707858276367,-3.0027777946472165
1789221675600638200,12.73063818359375,1.0097545501708984,8.16467657394409,-0.45190556335449217
1789221675610717200,12.74071728515625,-2.112583689880371,6.295702902984619,-1.844433103942871
1789221675620796200,12.750796142578125,-0.5903203468322754,10.169221913909912,-2.258031440734863
1789221675630876200,12.760876220703125,3.306392492675781,9.370456385040283,-1.2888286811828613
1789221675640955000,12.770954833984375,5.2642509002685545,12.659341278076171,-1.844433103942871
1789221675651034000,12.7810341796875,7.995436444091796,10.065074141693115,-4.365377814483642
1789221675661113000,12.791113037109374,3.187580235290527,4.900032972717285,-2.6235961067199707
1789221675671193000,12.801193115234375,-0.8643067993164062,7.830086891937255,-0.8649053497314453
1789221675681272000,12.81127197265625,0.5123591552734374,9.283367299652099,-2.3745991340637205
1789221675691351300,12.821351318359374,2.232443410491943,11.416451341247559,-1.5682020874023437
1789221675701430000,12.831429931640624,6.908468890380859,13.069049037170409,-3.021632132720947
1789221675711510300,12.84151025390625,9.74844097213745,9.90196915359497,-4.612429498291015
1789221675721589000,12.851589111328124,4.416254599761962,7.611765628051757,-2.836530416870117
1789221675731668000,12.86166796875,-1.5474024604797363,6.906074688720703,-1.0480617767333984
1789221675741748000,12.871748046875,-1.9852420890808105,9.300276348876952,-0.37499183502197264
1789221675751827000,12.881826904296876,1.843834553527832,10.665869120788573,-1.356015965270996
1789221675761906200,12.89190625,6.443245580291748,12.635399261474609,-2.7178677970886227
1789221675771985200,12.901985107421876,8.348880464172362,11.445331398773193,-4.475960003662109
1789221675782065200,12.912065185546876,4.620061016082763,7.357232064056396,-4.491372676849365
1789221675792144100,12.92214404296875,-1.3979144943237305,6.131251176452636,-2.611924373626709
1789221675802223000,12.93222314453125,-2.184110464477539,9.14854381866455,-1.6169839462280273
1789221675812302000,12.942302001953125,0.72140288772583,8.921543573760985,-1.3518261123657225
1789221675822382000,12.952382080078126,4.822520693969726,12.198756733703613,-1.3040917167663573
1789221675832461000,12.9624609375,9.076418493652342,10.203040012359619,-3.755903854370117
1789221675842540000,12.9725400390625,5.661987651062011,8.588300630187987,-3.662829264831543
1789221675852620000,12.9826201171875,1.1953051788330078,8.496572779083252,-2.1404162841796874
