time,seconds_elapsed,z,y,x
1789221662920928000,0.050927978515625,-0.02646835893392563,-0.0037846181076020002,0.024288827553391457
1789221662931007200,0.06100732421875,-0.04306571185588837,0.0004857605672441423,0.03738279268145561
1789221662941087000,0.0710869140625,-0.033537719398736954,-0.0025209481827914715,0.05333592742681503
1789221662951166200,0.081166259765625,-0.03277818486094475,-0.0034826158080250025,0.07414612919092178
1789221662961245200,0.0912451171875,-0.0398360975086689,0.004710865672677755,0.09918463975191116
1789221662971324200,0.10132421875,-0.04866500571370125,0.018428541719913483,0.11298540979623795
1789221662981404200,0.111404052734375,-0.06115097180008888,0.025673406198620796,0.11427011340856552
1789221662991483000,0.12148291015625,-0.0572129562497139,0.03442402184009552,0.1113201305270195
1789221663001562000,0.13156201171875,-0.06208068132400513,0.0312186386436224,0.10152316093444824
1789221663011641000,0.14164111328125,-0.06939052790403366,0.047271374613046646,0.10729663074016571
1789221663021721000,0.15172119140625,-0.07842050492763519,0.0445147380232811,0.11403842270374298
1789221663031800000,0.161800048828125,-0.10017560422420502,0.06986589729785919,0.13724200427532196
1789221663041879300,0.17187939453125,-0.12795449793338776,0.1024526059627533,0.17134273052215576
1789221663051958000,0.1819580078125,-0.1541762501001358,0.13126054406166077,0.20924003422260284
1789221663062038300,0.192038330078125,-0.16535380482673645,0.15522074699401855,0.24098224937915802
1789221663072117000,0.202116943359375,-0.16857783496379852,0.17250332236289978,0.2855720818042755
1789221663082196000,0.212196044921875,-0.1705522984266281,0.2024308741092682,0.3208850622177124
1789221663092275200,0.222275146484375,-0.16717301309108734,0.2620401382446289,0.34352487325668335
1789221663102355000,0.23235498046875,-0.15244093537330627,0.3607291579246521,0.36557984352111816
1789221663112434200,0.24243408203125,-0.12595340609550476,0.4038963317871094,0.36936846375465393
1789221663122513200,0.25251318359375,-0.0924508348107338,0.3627334535121918,0.3601347506046295
1789221663132592000,0.262592041015625,-0.06267429888248444,0.2931724786758423,0.33961641788482666
1789221663142672400,0.27267236328125,-0.047755006700754166,0.21867108345031738,0.32316821813583374
1789221663152751000,0.282751220703125,-0.03446156904101372,0.11986088752746582,0.3280889391899109
1789221663162830300,0.292830322265625,0.01599787548184395,-0.05073721334338188,0.3641909956932068
1789221663172909300,0.302909423828125,0.04512673243880272,-0.15492433309555054,0.40641143918037415
1789221663182988300,0.31298828125,0.04069043695926666,-0.16878795623779297,0.4603681266307831
1789221663193068300,0.323068359375,0.022401446476578712,-0.1544146090745926,0.50239098072052
1789221663203147300,0.333147216796875,0.07891132682561874,-0.23393793404102325,0.5894310474395752
1789221663213226200,0.343226318359375,0.03194035589694977,-0.13253434002399445,0.7545638084411621
1789221663223305200,0.35330517578125,-0.003718838095664978,-0.0006876281695440412,0.8561426401138306
1789221663233385200,0.36338525390625,-0.029090773314237595,0.05744704604148865,0.8934037089347839
1789221663243464200,0.373464111328125,-0.054553523659706116,0.05560573935508728,0.9357200264930725
1789221663253543200,0.383543212890625,-0.08860602974891663,0.09258665889501572,1.0026694536209106
1789221663263622400,0.393622314453125,-0.16242273151874542,0.1928216516971588,1.0347182750701904
1789221663273702100,0.4037021484375,-0.2845710217952728,0.2773333489894867,1.0496793985366821
1789221663283781400,0.413781494140625,-0.4205125868320465,0.34952312707901,1.003080129623413
1789221663293860000,0.423860107421875,-0.496084600687027,0.4103981852531433,0.8790585994720459
1789221663303939300,0.433939208984375,-0.5161219239234924,0.43353891372680664,0.8240185379981995
1789221663314019300,0.444019287109375,-0.47890934348106384,0.4166502058506012,0.8576691746711731
1789221663324098300,0.454098388671875,-0.45319250226020813,0.3547287881374359,0.871353805065155
1789221663334177300,0.46417724609375,-0.4445106089115143,0.34054693579673767,0.8371031880378723
1789221663344256300,0.47425634765625,-0.42798757553100586,0.37825807929039,0.8061010241508484
1789221663354336300,0.484336181640625,-0.3957103192806244,0.40834328532218933,0.7359499335289001
1789221663364415200,0.494415283203125,-0.33569011092185974,0.38401371240615845,0.6401661038398743
1789221663374494200,0.504494140625,-0.22790879011154175,0.3295550048351288,0.5272539854049683
1789221663384573200,0.5145732421875,-0.12646447122097015,0.33512020111083984,0.3845823109149933
1789221663394653400,0.5246533203125,-0.0004021373169962317,0.4626629948616028,0.1788797378540039
1789221663404732200,0.534732177734375,0.09969224035739899,0.26553791761398315,0.21056176722049713
1789221663414811400,0.544811279296875,0.02809768170118332,0.11166208237409592,0.3565267026424408
1789221663424890400,0.554890380859375,-0.0466226302087307,0.03943342715501785,0.44365814328193665
1789221663434970000,0.56497021484375,-0.08421608060598373,-0.09791164845228195,0.5339387655258179
1789221663445049300,0.57504931640625,-0.10108426958322525,-0.310043603181839,0.6264809370040894
1789221663455128300,0.58512841796875,-0.13280145823955536,-0.17569352686405182,0.6770405173301697
1789221663465207300,0.595207275390625,-0.14731355011463165,-0.13870595395565033,0.7487826347351074
1789221663475287300,0.605287353515625,-0.11170842498540878,-0.17046573758125305,0.8428683876991272
1789221663485366300,0.6153662109375,-0.07005791366100311,-0.20387829840183258,0.9827367663383484
1789221663495445200,0.6254453125,-0.04384521767497063,-0.17179013788700104,1.1197607517242432
1789221663505524200,0.635524169921875,-0.011259312741458416,-0.17553666234016418,1.1765496730804443
1789221663515604200,0.645604248046875,-0.04249286651611328,-0.09308413416147232,1.1559584140777588
1789221663525683200,0.65568310546875,-0.18256501853466034,-0.04819575697183609,1.1055889129638672
1789221663535762400,0.665762451171875,-0.27327361702919006,0.012914733029901981,1.1293866634368896
1789221663545841200,0.675841064453125,-0.24986016750335693,0.012205533683300018,1.176334261894226
1789221663555921400,0.68592138671875,-0.22828137874603271,-0.2122584581375122,1.105309009552002
1789221663566000000,0.696000244140625,-0.2813349962234497,-0.3808397650718689,0.9434748888015747
1789221663576079400,0.706079345703125,-0.4319671094417572,-0.4784211814403534,0.6397157907485962
1789221663586158300,0.716158447265625,-0.6675871014595032,-0.45871245861053467,0.21436315774917603
1789221663596238000,0.726238037109375,-0.7535805702209473,-0.15103451907634735,0.1233815923333168
1789221663606317300,0.7363173828125,-0.6624831557273865,0.17817053198814392,0.2095998376607895
1789221663616396300,0.746396240234375,-0.4654707610607147,0.2053760588169098,0.20220689475536346
1789221663626475300,0.756475341796875,-0.3770628571510315,0.02111939899623394,0.2483392357826233
1789221663636555300,0.76655517578125,-0.3700486421585083,-0.06403517723083496,0.2996503710746765
1789221663646634200,0.77663427734375,-0.38051778078079224,-0.06595371663570404,0.29949429631233215
1789221663656713200,0.786713134765625,-0.38106611371040344,0.03411642462015152,0.2718014121055603
1789221663666792200,0.796792236328125,-0.37417706847190857,0.07390645146369934,0.20199011266231537
1789221663676872200,0.8068720703125,-0.4060415029525757,0.024472853168845177,0.19676366448402405
1789221663686951200,0.816951171875,-0.3833492398262024,-0.03639289364218712,0.24000035226345062
1789221663697030400,0.827030517578125,-0.3572755753993988,-0.09279438853263855,0.3200698792934418
1789221663707109000,0.837109130859375,-0.389020711183548,-0.026008430868387222,0.3942567706108093
1789221663717189400,0.847189453125,-0.3016818165779114,-0.06653402000665665,0.3724132478237152
1789221663727268000,0.85726806640625,-0.18324731290340424,0.02322409674525261,0.43495413661003113
1789221663737347300,0.867347412109375,-0.06930743157863617,0.015669774264097214,0.4941228926181793
1789221663747426300,0.87742626953125,0.07806337624788284,-0.004197141621261835,0.5352154970169067
1789221663757505300,0.88750537109375,0.31599685549736023,-0.03458567336201668,0.5103996396064758
1789221663767585300,0.897585205078125,0.4681600034236908,-0.009838249534368515,0.37634673714637756
1789221663777664300,0.907664306640625,0.4240753650665283,0.12350942194461823,0.18527638912200928
1789221663787743200,0.9177431640625,0.3190602660179138,0.28017812967300415,0.11683740466833115
1789221663797823200,0.9278232421875,0.22384241223335266,0.34712865948677063,0.1683698296546936
1789221663807902500,0.93790234375,0.14176565408706665,0.4265694320201874,0.23906078934669495
1789221663817981200,0.947981201171875,-0.012360263615846634,0.5198434591293335,0.27908676862716675
1789221663828060200,0.95806005859375,-0.014574415050446987,0.4666425585746765,0.19875650107860565
1789221663838139400,0.968139404296875,-0.04302549734711647,0.43157777190208435,0.1588706076145172
1789221663848219100,0.97821923828125,-0.007531952112913132,0.3281717598438263,0.13413970172405243
1789221663858298400,0.98829833984375,0.012224708683788776,0.1968052089214325,0.08629760146141052
1789221663868377000,0.998377197265625,0.1168437972664833,0.11697082966566086,0.01617896929383278
1789221663878457300,1.008457275390625,0.24526861310005188,0.01769883558154106,-0.14705735445022583
1789221663888536300,1.018536376953125,0.3222406208515167,-0.012044145725667477,-0.33995383977890015
1789221663898615300,1.028615234375,0.2975296974182129,0.02659459225833416,-0.5339992046356201
1789221663908694300,1.0386943359375,0.24122540652751923,0.04873984307050705,-0.548355758190155
1789221663918773200,1.048773193359375,0.17601577937602997,-0.002531600883230567,-0.37264761328697205
1789221663928853200,1.058853271484375,0.13056066632270813,-0.05849180370569229,-0.1944432556629181
1789221663938932200,1.06893212890625,0.1013878732919693,-0.09039860218763351,-0.10122222453355789
1789221663949011200,1.07901123046875,0.09767329692840576,-0.036078374832868576,-0.057202570140361786
1789221663959090200,1.089090087890625,0.061899587512016296,-0.02328455075621605,-0.12116983532905579
1789221663969170400,1.09917041015625,0.04884743317961693,0.04529903829097748,-0.17773377895355225
1789221663979249200,1.109249267578125,0.08947901427745819,0.012721654027700424,-0.15799176692962646
1789221663989328100,1.119328125,0.11173984408378601,0.06289028376340866,-0.03967337682843208
1789221663999407400,1.129407470703125,0.15175703167915344,0.0633573979139328,0.07963916659355164
1789221664009487000,1.139487060546875,0.101559117436409,0.1594189554452896,0.1234002336859703
1789221664019566300,1.14956640625,0.061476677656173706,0.2151423990726471,0.07653871923685074
1789221664029645300,1.159645263671875,0.018010692670941353,0.20995616912841797,-0.0368855781853199
1789221664039724300,1.169724365234375,-0.025479260832071304,0.17545117437839508,-0.2080932855606079
1789221664049804300,1.17980419921875,-0.05314631015062332,0.060253486037254333,-0.29744553565979004
1789221664059883300,1.18988330078125,-0.08075263351202011,-0.0452047623693943,-0.29915767908096313
1789221664069962200,1.199962158203125,-0.1394500434398651,-0.09581760317087173,-0.3763086497783661
1789221664080041200,1.210041259765625,-0.13198865950107574,-0.06724002212285995,-0.43114447593688965
1789221664090121200,1.220121337890625,-0.06412173062562943,0.008984706364572048,-0.4458368718624115
1789221664100200200,1.2302001953125,-0.026981282979249954,0.15329474210739136,-0.5029392838478088
1789221664110279400,1.240279541015625,0.06540856510400772,0.2085513472557068,-0.4804241359233856
1789221664120358100,1.250358154296875,0.09913430362939835,0.19047939777374268,-0.37942588329315186
1789221664130438400,1.2604384765625,0.09922139346599579,0.16078728437423706,-0.2730312645435333
1789221664140517000,1.27051708984375,0.0696997195482254,0.13500522077083588,-0.17443518340587616
1789221664150596400,1.280596435546875,0.04102279990911484,0.12025876343250275,-0.14252226054668427
1789221664160675300,1.29067529296875,-0.0051934304647147655,0.14042554795742035,-0.13851526379585266
1789221664170755300,1.30075537109375,-0.0447501614689827,0.1717267483472824,-0.1892831027507782
1789221664180834300,1.310834228515625,0.025000158697366714,0.16037236154079437,-0.17891648411750793
1789221664190913500,1.32091357421875,-0.03388046845793724,0.14796096086502075,-0.13503345847129822
1789221664200992300,1.3309921875,0.0040978058241307735,0.05945666879415512,-0.007412109989672899
1789221664211072500,1.341072509765625,-0.0466788224875927,0.026521090418100357,0.1061626523733139
1789221664221151200,1.351151123046875,-0.09314645826816559,0.013546967878937721,0.1608208417892456
1789221664231230200,1.361230224609375,-0.17311425507068634,-0.0719948336482048,0.14467781782150269
1789221664241309400,1.371309326171875,-0.3129379451274872,-0.11701210588216782,0.16710510849952698
1789221664251389200,1.38138916015625,-0.38487496972084045,-0.20002096891403198,0.18276289105415344
1789221664261468400,1.391468505859375,-0.5060765147209167,-0.14165833592414856,0.19680280983448029
1789221664271547400,1.40154736328125,-0.5537947416305542,-0.07843462377786636,0.1370084583759308
1789221664281626000,1.411626220703125,-0.5447956919670105,0.006054430268704891,0.0834251195192337
1789221664291706400,1.421706298828125,-0.4309154450893402,-0.014417821541428566,0.08865876495838165
1789221664301785300,1.431785400390625,-0.2929391860961914,0.00509808911010623,0.13913178443908691
1789221664311864300,1.4418642578125,-0.20665623247623444,0.0035960664972662926,0.19231830537319183
1789221664321943300,1.451943359375,-0.1635364592075348,0.029831398278474808,0.2421838790178299
1789221664332023300,1.462023193359375,-0.002898584585636854,0.05111192166805267,0.15373016893863678
1789221664342102300,1.472102294921875,0.07280469685792923,0.005661880597472191,0.1489303559064865
1789221664352181500,1.482181396484375,0.0933254212141037,0.01575552672147751,0.19563181698322296
1789221664362260200,1.49226025390625,0.05945480614900589,0.00038056570338085294,0.22448690235614777
1789221664372340500,1.502340576171875,0.0049092709086835384,-0.05012654885649681,0.18808895349502563
1789221664382419500,1.51241943359375,-0.008712531067430973,-0.05885612592101097,0.10192450135946274
1789221664392498200,1.522498291015625,-0.012841762974858284,-0.06575797498226166,0.02503557875752449
1789221664402577400,1.532577392578125,0.027347734197974205,-0.0810525044798851,-0.012312060222029686
1789221664412657200,1.5426572265625,0.07612672448158264,-0.06470070034265518,-0.0029936593491584063
1789221664422736400,1.552736328125,0.12538056075572968,-0.06102367118000984,0.013232714496552944
1789221664432815400,1.5628154296875,0.16048714518547058,-0.05252179875969887,0.042390599846839905
1789221664442894300,1.572894287109375,0.1674949824810028,-0.048461008816957474,0.0498112328350544
1789221664452974300,1.582974365234375,0.15817791223526,-0.055445149540901184,0.025199096649885178
1789221664463053300,1.59305322265625,0.15731239318847656,-0.04752091318368912,0.040643032640218735
1789221664473132300,1.60313232421875,0.19245173037052155,-0.03345303237438202,0.10572216659784317
1789221664483211300,1.613211181640625,0.2283277064561844,-0.021323397755622864,0.1515040397644043
1789221664493291300,1.623291259765625,0.2916129529476166,0.011218300089240074,0.1535181850194931
1789221664503370200,1.633370361328125,0.24926522374153137,0.02419082447886467,0.16418974101543427
1789221664513449500,1.643449462890625,0.23292778432369232,0.0023318638559430838,0.10616771131753922
1789221664523528400,1.653528564453125,0.16494154930114746,-0.014178669080138206,0.012427907437086105
1789221664533608400,1.6636083984375,0.06684853881597519,-0.0024285365361720324,-0.036014460027217865
1789221664543687400,1.6736875,-0.021261878311634064,0.013434848748147488,-0.0423479899764061
1789221664553766100,1.68376611328125,-0.049909237772226334,0.019473299384117126,-0.056950632482767105
1789221664563845400,1.693845458984375,-0.06876042485237122,0.015546469017863274,-0.0975332111120224
1789221664573925400,1.70392529296875,-0.06795747578144073,0.032226912677288055,-0.1382598727941513
1789221664584004400,1.71400439453125,-0.04291657358407974,0.04927007853984833,-0.12279542535543442
1789221664594083300,1.724083251953125,-0.023370835930109024,0.06533533334732056,-0.06139012426137924
1789221664604162600,1.73416259765625,-0.05823587626218796,0.06510789692401886,0.0030975225381553173
1789221664614242300,1.7442421875,-0.0609525665640831,0.06590072065591812,0.04592541232705116
1789221664624321300,1.7543212890625,-0.011109109967947006,0.03804485499858856,0.08316919207572937
1789221664634400300,1.764400146484375,0.014010357670485973,0.007427556440234184,0.06824962794780731
1789221664644479200,1.774479248046875,-0.00031851406674832106,-0.009573264978826046,-0.005329251755028963
1789221664654559500,1.7845595703125,-0.0027832696214318275,-0.02472345530986786,-0.03828800097107887
1789221664664638200,1.79463818359375,-0.004296477884054184,-0.0533875897526741,-0.003968109842389822
1789221664674717400,1.804717529296875,-0.03298937529325485,-0.07985861599445343,0.012178102508187294
1789221664684796400,1.81479638671875,-0.015089204534888268,-0.10810143500566483,-0.035243209451436996
1789221664694876400,1.82487646484375,0.10884126275777817,-0.06631537526845932,-0.182980477809906
1789221664704955400,1.834955322265625,0.20092378556728363,-0.08067247271537781,-0.3567109704017639
1789221664715034400,1.845034423828125,0.16002854704856873,-0.10736160725355148,-0.43750569224357605
1789221664725113300,1.85511328125,0.08340248465538025,-0.12579387426376343,-0.43450218439102173
1789221664735193300,1.865193359375,0.050394997000694275,-0.14171266555786133,-0.28619447350502014
1789221664745272300,1.875272216796875,0.07689265161752701,-0.16207359731197357,-0.14661580324172974
1789221664755351300,1.885351318359375,0.13389389216899872,-0.141159787774086,-0.047802943736314774
1789221664765430500,1.895430419921875,0.051777176558971405,-0.11113424599170685,-0.04111574590206146
1789221664775510300,1.90551025390625,-0.0722757950425148,-0.16067969799041748,-0.04580823332071304
1789221664785589500,1.915589599609375,-0.07730676978826523,-0.16932617127895355,-0.0667332261800766
1789221664795668500,1.92566845703125,-0.05297000706195831,-0.30006393790245056,-0.23887169361114502
1789221664805747200,1.935747314453125,-0.032270852476358414,-0.3795156180858612,-0.3620743155479431
1789221664815827500,1.945827392578125,0.004323375876992941,-0.4167322516441345,-0.3557160198688507
1789221664825906200,1.95590625,0.03129853308200836,-0.3187588155269623,-0.2340867966413498
1789221664835985400,1.9659853515625,0.042383141815662384,-0.17272835969924927,-0.06003377586603165
1789221664846064400,1.976064453125,0.019810190424323082,-0.11010493338108063,0.05054759606719017
1789221664856144400,1.986144287109375,-0.12707139551639557,0.002280997345224023,0.13708089292049408
1789221664866223400,1.996223388671875,-0.17672550678253174,0.0084864292293787,0.1720370054244995
1789221664876302300,2.00630224609375,-0.11774953454732895,-0.08763904124498367,0.12393952161073685
1789221664886381300,2.01638134765625,-0.09126067161560059,-0.07941412925720215,0.16521479189395905
1789221664896461300,2.02646142578125,-0.14422322809696198,-0.03779212012887001,0.26521942019462585
1789221664906540300,2.036540283203125,-0.14818920195102692,-0.04471820220351219,0.27992725372314453
1789221664916619300,2.046619384765625,-0.1204952523112297,-0.08312444388866425,0.172186940908432
1789221664926698500,2.056698486328125,-0.08411434292793274,-0.12181272357702255,-0.006936203222721815
1789221664936778200,2.0667783203125,0.04742450639605522,-0.18947085738182068,-0.13843564689159393
1789221664946857500,2.076857421875,0.2665150463581085,-0.16312101483345032,-0.13820022344589233
1789221664956936400,2.0869365234375,0.4961024224758148,-0.030354710295796394,-0.14998896420001984
1789221664967015200,2.09701513671875,0.5680498480796814,0.12797340750694275,-0.09325511008501053
1789221664977095400,2.107095458984375,0.4826801121234894,0.26428279280662537,-0.06065695732831955
1789221664987174400,2.11717431640625,0.36455291509628296,0.1938813179731369,-0.0255154799669981
1789221664997253400,2.12725341796875,0.33095183968544006,0.12601785361766815,0.0337960459291935
1789221665007332400,2.137332275390625,0.27774161100387573,0.061232730746269226,0.06425062566995621
1789221665017412400,2.147412353515625,0.20175202190876007,-0.029895314946770668,0.06947042047977448
1789221665027491300,2.1574912109375,0.10024777054786682,-0.13022378087043762,0.03861450403928757
1789221665037570300,2.1675703125,0.0342506468296051,-0.28663763403892517,-0.03960466757416725
1789221665047649300,2.177649169921875,0.02899676375091076,-0.30057981610298157,-0.10181957483291626
1789221665057729300,2.187729248046875,0.06537581235170364,-0.19365069270133972,-0.05349038913846016
1789221665067808500,2.19780859375,0.15690626204013824,-0.11091826111078262,0.10670274496078491
1789221665077887200,2.20788720703125,0.28800463676452637,-0.1465340405702591,0.23120872676372528
1789221665087966500,2.217966552734375,0.33356359601020813,-0.09375978261232376,0.3368358016014099
1789221665098046200,2.228046142578125,0.426857054233551,-0.1826038956642151,0.36247700452804565
1789221665108125400,2.23812548828125,0.7487048506736755,-0.2016923725605011,0.39237818121910095
1789221665118204400,2.248204345703125,0.6513399481773376,-0.18499808013439178,0.3588138222694397
1789221665128283100,2.258283203125,0.4778291583061218,-0.2041933536529541,0.2830474078655243
1789221665138363400,2.26836328125,0.36774924397468567,-0.08828379213809967,0.25517183542251587
1789221665148442400,2.2784423828125,0.31851381063461304,-0.10685481131076813,0.20664185285568237
1789221665158521300,2.288521240234375,0.44185250997543335,-0.22975489497184753,0.13713282346725464
1789221665168600300,2.298600341796875,0.5671523809432983,-0.14027908444404602,0.12013360112905502
1789221665178680300,2.308680419921875,0.6458871364593506,-0.10560072958469391,0.06330573558807373
1789221665188759300,2.31875927734375,0.6605414152145386,0.040836114436388016,0.022905582562088966
1789221665198838500,2.328838623046875,0.6590545773506165,0.19331060349941254,-0.023396668955683708
1789221665208917500,2.33891748046875,0.6660485863685608,0.272079199552536,-0.0845809280872345
1789221665218997500,2.34899755859375,0.6390997767448425,0.21737758815288544,-0.13092125952243805
1789221665229076500,2.359076416015625,0.6072297692298889,0.05855785310268402,-0.11325864493846893
1789221665239155200,2.3691552734375,0.5816863179206848,0.009206813760101795,-0.14032994210720062
1789221665249234400,2.379234375,0.5728920102119446,0.06315872818231583,-0.19100190699100494
1789221665259314200,2.389314208984375,0.5569764375686646,0.12978196144104004,-0.2244054079055786
1789221665269393400,2.399393310546875,0.547459602355957,0.14222238957881927,-0.2691046893596649
1789221665279472400,2.409472412109375,0.48157063126564026,0.08857860416173935,-0.31433796882629395
1789221665289551600,2.419551513671875,0.35545557737350464,0.01973455585539341,-0.378814160823822
1789221665299631400,2.42963134765625,0.23446150124073029,-0.003914047963917255,-0.47929149866104126
1789221665309710300,2.43971044921875,0.11532951891422272,-0.015123825520277023,-0.4572863280773163
1789221665319789300,2.449789306640625,0.03729384392499924,-0.06298509240150452,-0.4971836805343628
1789221665329868300,2.459868408203125,0.0024527714122086763,-0.00881905760616064,-0.5748864412307739
1789221665339948300,2.4699482421875,-0.060333382338285446,-0.058758389204740524,-0.5463930368423462
1789221665350027300,2.48002734375,-0.08668456226587296,-0.04523112624883652,-0.5215467810630798
1789221665360106500,2.4901064453125,-0.16008128225803375,0.003996339626610279,-0.5265634059906006
1789221665370185500,2.500185546875,-0.24706225097179413,0.09500107914209366,-0.47870534658432007
1789221665380265500,2.510265380859375,-0.2734893262386322,0.10545451939105988,-0.48554566502571106
1789221665390344400,2.520344482421875,-0.33066606521606445,0.032635707408189774,-0.487043172121048
1789221665400423200,2.530423095703125,-0.270961731672287,-0.028910212218761444,-0.43282386660575867
1789221665410502400,2.54050244140625,-0.17647942900657654,-0.03611406311392784,-0.4321567416191101
1789221665420582400,2.55058251953125,-0.11234385520219803,-0.032648757100105286,-0.3799015283584595
1789221665430661400,2.560661376953125,-0.03178083151578903,-0.03455611318349838,-0.2695220112800598
1789221665440740400,2.570740234375,0.016747288405895233,-0.05601799488067627,-0.14129987359046936
1789221665450819600,2.580819580078125,0.035169970244169235,-0.11105728149414062,0.013413277454674244
1789221665460899300,2.5908994140625,0.03454679250717163,-0.1282205581665039,0.014169881120324135
1789221665470978600,2.600978515625,0.024642761796712875,-0.14330069720745087,0.01901603490114212
1789221665481057300,2.611057373046875,0.026145849376916885,-0.13566595315933228,-0.005085838492959738
1789221665491137300,2.62113720703125,0.02755492925643921,-0.13939836621284485,-0.028550684452056885
1789221665501216500,2.631216552734375,0.014734204858541489,-0.11344107240438461,-0.021438978612422943
1789221665511295200,2.641295166015625,-0.028480377048254013,-0.08782093226909637,-0.04507027193903923
1789221665521374500,2.65137451171875,-0.11403442919254303,-0.15942028164863586,-0.03263118118047714
1789221665531454200,2.6614541015625,-0.19811202585697174,-0.2653435170650482,0.014240188524127007
1789221665541533400,2.671533447265625,-0.17482614517211914,-0.2658796012401581,0.06504211574792862
1789221665551612400,2.6816123046875,-0.11004874110221863,-0.23723359405994415,0.09439734369516373
1789221665561691400,2.69169140625,-0.03537450358271599,-0.2177853286266327,0.09413821995258331
1789221665571771400,2.701771484375,0.035958267748355865,-0.1435406506061554,0.041792452335357666
1789221665581850400,2.711850341796875,0.053302101790905,-0.17977455258369446,0.041060350835323334
1789221665591929300,2.721929443359375,0.04759175330400467,-0.16568776965141296,0.08752478659152985
1789221665602008300,2.73200830078125,-0.010362359695136547,-0.17863258719444275,0.11013875156641006
1789221665612088300,2.74208837890625,-0.06619127094745636,-0.16277213394641876,0.08041148632764816
1789221665622167300,2.752167236328125,-0.11326024681329727,-0.15469397604465485,-0.005791310220956802
1789221665632246500,2.76224658203125,-0.13180303573608398,-0.12396934628486633,0.009521599858999252
1789221665642325500,2.772325439453125,-0.13476234674453735,-0.09171047806739807,0.042208172380924225
1789221665652405200,2.7824052734375,-0.1619417667388916,-0.0770372599363327,0.039374303072690964
1789221665662484500,2.792484375,-0.16601213812828064,-0.04502313584089279,0.016755543649196625
1789221665672563200,2.802563232421875,-0.1820952296257019,-0.02394315041601658,-0.05109833925962448
1789221665682642400,2.812642333984375,-0.169345885515213,0.044010866433382034,-0.10353411734104156
1789221665692722400,2.822722412109375,-0.10472694784402847,0.09530201554298401,-0.047392815351486206
1789221665702801400,2.832801513671875,-0.08090363442897797,0.13516607880592346,0.06166309863328934
1789221665712880400,2.84288037109375,-0.1357967108488083,0.21023578941822052,0.16818422079086304
1789221665722959400,2.85295947265625,-0.25800544023513794,0.28294914960861206,0.23076370358467102
1789221665733039400,2.863039306640625,-0.2866136431694031,0.24186909198760986,0.16102297604084015
1789221665743118300,2.873118408203125,-0.32505133748054504,0.28191423416137695,0.09641814976930618
1789221665753197300,2.883197265625,-0.3779297173023224,0.29762235283851624,0.059659868478775024
1789221665763276300,2.8932763671875,-0.3955196440219879,0.27249675989151,0.04138205945491791
1789221665773356500,2.9033564453125,-0.3915794789791107,0.22401899099349976,0.07556693255901337
1789221665783435300,2.913435302734375,-0.3955710232257843,0.1790246069431305,0.10401587933301926
1789221665793514500,2.923514404296875,-0.42083004117012024,0.1717139631509781,0.1451587826013565
1789221665803594200,2.93359423828125,-0.4434690475463867,0.14421123266220093,0.22125515341758728
1789221665813673500,2.943673583984375,-0.4617772102355957,0.10108800232410431,0.366637647151947
1789221665823752400,2.95375244140625,-0.4368114173412323,0.010698983445763588,0.48674407601356506
1789221665833831400,2.96383154296875,-0.29056018590927124,-0.058883022516965866,0.5491677522659302
1789221665843911400,2.973911376953125,-0.12677977979183197,-0.10110504925251007,0.562323272228241
1789221665853990400,2.983990478515625,-0.18871958553791046,0.06467113643884659,0.4611351191997528
1789221665864069400,2.9940693359375,-0.2778622508049011,0.05465259402990341,0.27444326877593994
1789221665874148400,3.0041484375,-0.2667459547519684,0.062255118042230606,0.11255424469709396
1789221665884228400,3.014228271484375,-0.186792254447937,0.06870848685503006,-0.01122309360653162
1789221665894307300,3.024307373046875,-0.1226058080792427,0.04321564733982086,-0.1143670529127121
1789221665904386300,3.03438623046875,-0.09220263361930847,0.037155888974666595,-0.12013998627662659
1789221665914465500,3.044465576171875,-0.058634817600250244,0.034147851169109344,-0.08274814486503601
1789221665924545300,3.054545166015625,-0.024715999141335487,0.03687412664294243,-0.0413983054459095
1789221665934624500,3.06462451171875,-0.02159104496240616,0.04659067094326019,-0.03302133455872536
1789221665944703200,3.074703125,-0.031017569825053215,0.05312207341194153,-0.03563762083649635
1789221665954782500,3.084782470703125,-0.01991112343966961,0.07177751511335373,-0.01113227941095829
1789221665964862500,3.094862548828125,-0.00443869037553668,0.08698815852403641,0.012234828434884548
1789221665974941400,3.10494140625,0.005061337724328041,0.09273073822259903,0.010543720796704292
1789221665985020400,3.1150205078125,0.00945182517170906,0.09768128395080566,0.0013009541435167193
1789221665995099400,3.125099365234375,0.012413792312145233,0.10351893305778503,0.00936181005090475
1789221666005179400,3.135179443359375,0.01612037979066372,0.1134067177772522,0.009526659734547138
1789221666015258400,3.14525830078125,0.01805916242301464,0.11919137090444565,0.002668753731995821
1789221666025337300,3.15533740234375,0.01534460112452507,0.12043240666389465,0.003995274193584919
1789221666035416300,3.165416259765625,0.01441196259111166,0.11317209154367447,0.011387676931917667
1789221666045496600,3.17549658203125,0.01606978103518486,0.1056867465376854,0.013852965086698532
1789221666055575300,3.1855751953125,0.017012538388371468,0.10198149085044861,0.009008941240608692
1789221666065654300,3.195654296875,0.02160888910293579,0.10099052637815475,0.006707170978188515
1789221666075733500,3.2057333984375,0.020559603348374367,0.09983950853347778,0.004978513345122337
1789221666085813200,3.215813232421875,0.020125774666666985,0.08892267942428589,0.005371595732867718
1789221666095892500,3.225892578125,0.015305719338357449,0.08006181567907333,0.005714877508580685
1789221666105971500,3.235971435546875,0.010154632851481438,0.07541060447692871,0.004517253953963518
1789221666116051500,3.246051513671875,0.012076903134584427,0.07209949195384979,0.008082693442702293
1789221666126130400,3.25613037109375,0.010550378821790218,0.06434889882802963,0.0067782774567604065
1789221666136209400,3.26620947265625,0.00782623142004013,0.05715915933251381,0.005830991081893444
1789221666146288000,3.2762880859375,0.003436543047428131,0.0443514846265316,0.0037555897142738104
1789221666156368100,3.2863681640625,-0.0018676748732104897,0.03815404325723648,-0.00021784658019896597
1789221666166447000,3.296447021484375,-0.006243514828383923,0.03134087845683098,0.008052067831158638
1789221666176526300,3.3065263671875,-0.009325590915977955,0.02864975482225418,0.0017443705582991242
1789221666186605300,3.316605224609375,-0.012133628129959106,0.019278090447187424,0.003221892286092043
1789221666196685300,3.326685302734375,-0.017401892691850662,0.011802330613136292,-0.0003105245705228299
1789221666206764300,3.336764404296875,-0.016717728227376938,0.002561694709584117,0.002796319080516696
1789221666216843000,3.346843017578125,-0.020308732986450195,-0.0040735709480941296,0.002630936913192272
1789221666226922200,3.356922119140625,-0.021950572729110718,-0.006500243674963713,-0.0005052016349509358
1789221666237002200,3.367002197265625,-0.028476914390921593,-0.01224627997726202,-0.0035236284602433443
1789221666247081200,3.377081298828125,-0.02979464642703533,-0.018217619508504868,0.0013795174891129136
1789221666257160200,3.38716015625,-0.03482881933450699,-0.026945063844323158,-0.0005328985280357301
1789221666267239200,3.3972392578125,-0.03430471196770668,-0.030117422342300415,0.00063383235828951
1789221666277319200,3.407319091796875,-0.03380297124385834,-0.030284402891993523,-0.001981658162549138
1789221666287398100,3.417398193359375,-0.0328596793115139,-0.032812006771564484,-0.0010279801208525896
1789221666297477000,3.42747705078125,-0.03912822902202606,-0.030256172642111778,-0.0011611381778493524
1789221666307556000,3.43755615234375,-0.0354892835021019,-0.03135126456618309,-0.0010000169277191162
1789221666317636400,3.44763623046875,-0.03720435872673988,-0.02714453637599945,0.0016671388875693083
1789221666327715000,3.457715087890625,-0.0351896770298481,-0.019595805555582047,0.00022264027211349458
1789221666337794300,3.467794189453125,-0.03056882880628109,-0.014212225563824177,-0.0002639192680362612
1789221666347873300,3.477873291015625,-0.03193769231438637,-0.010866495780646801,0.00019254654762335122
1789221666357953300,3.487953369140625,-0.027955202385783195,-0.00555269094184041,0.004253867082297802
1789221666368032300,3.4980322265625,-0.02491280622780323,-0.0004918858758173883,0.003144660498946905
1789221666378111200,3.508111328125,-0.02340971864759922,0.005914880894124508,0.005872536450624466
1789221666388191200,3.518191162109375,-0.019997943192720413,0.013560815714299679,0.004658135119825602
1789221666398270200,3.528270263671875,-0.018625615164637566,0.0232296884059906,0.00663340138271451
1789221666408349200,3.53834912109375,-0.0156500656157732,0.028776787221431732,0.004188353195786476
1789221666418428200,3.54842822265625,-0.012472115457057953,0.03194674849510193,0.005341768264770508
1789221666428508200,3.558508056640625,-0.010299509391188622,0.035882368683815,0.005809685681015253
1789221666438587100,3.568587158203125,-0.010325874201953411,0.03398832678794861,0.0015717976493760943
1789221666448666000,3.578666015625,-0.005554821342229843,0.031862590461969376,0.008535430766642094
1789221666458745300,3.588745361328125,-0.03684110566973686,-0.00812344066798687,0.010388725437223911
1789221666468825000,3.5988251953125,-0.014345116913318634,-0.022550050169229507,-0.021028319373726845
1789221666478904300,3.608904296875,-0.04876008257269859,-0.05386136844754219,0.007999070920050144
1789221666488983000,3.618983154296875,-0.01751694269478321,-0.021614214405417442,0.0007648598402738571
1789221666499062300,3.629062255859375,-0.03690715134143829,-0.019727632403373718,-0.0033334787003695965
1789221666509142300,3.639142333984375,-0.014461230486631393,-0.043587423861026764,-0.004054929129779339
1789221666519221200,3.64922119140625,-0.04096394404768944,-0.06203993409872055,-0.025301894173026085
1789221666529300200,3.65930029296875,-0.027056384831666946,-0.09275896847248077,0.03579208627343178
1789221666539379200,3.669379150390625,-0.04801439866423607,-0.1009359359741211,-0.028684908524155617
1789221666549459200,3.679459228515625,-0.03298031911253929,-0.10467128455638885,0.001130778226070106
1789221666559538200,3.6895380859375,-0.042933084070682526,-0.10326593369245529,-0.03063194453716278
1789221666569617200,3.6996171875,-0.04183559864759445,-0.11420407146215439,0.006642722524702549
1789221666579696000,3.709696044921875,-0.04464283585548401,-0.12797901034355164,-0.03494733199477196
1789221666589776400,3.7197763671875,-0.03983316570520401,-0.1472240686416626,-0.008158594369888306
1789221666599855000,3.729855224609375,-0.045942459255456924,-0.15350887179374695,-0.013599964790046215
1789221666609934300,3.739934326171875,-0.03876816853880882,-0.15925437211990356,-0.021995846182107925
1789221666620014000,3.75001416015625,-0.05143442749977112,-0.1658555418252945,-0.016998425126075745
1789221666630093000,3.760093017578125,-0.050153981894254684,-0.17437472939491272,-0.02171781286597252
1789221666640172300,3.77017236328125,-0.04765087738633156,-0.17941050231456757,-0.01750575751066208
1789221666650251300,3.780251220703125,-0.031561654061079025,-0.17131103575229645,-0.018064754083752632
1789221666660331300,3.790331298828125,-0.038475751876831055,-0.1724945455789566,-0.021581724286079407
1789221666670410200,3.80041015625,-0.051478102803230286,-0.17012113332748413,-0.02875867672264576
1789221666680489200,3.8104892578125,-0.04428916797041893,-0.18936246633529663,-0.021441375836730003
1789221666690568200,3.820568115234375,-0.08212655782699585,-0.2229321449995041,-0.018215222284197807
1789221666700648200,3.830648193359375,-0.056605223566293716,-0.2696128487586975,-0.02804574929177761
1789221666710727200,3.84072705078125,-0.0848696157336235,-0.313405841588974,-0.026101374998688698
1789221666720806100,3.85080615234375,-0.07468009740114212,-0.3565591871738434,-0.03910106420516968
1789221666730885400,3.860885498046875,-0.10381081700325012,-0.3741046190261841,-0.03899400308728218
1789221666740965000,3.870965087890625,-0.10835123807191849,-0.3770221173763275,-0.02598792500793934
1789221666751044400,3.88104443359375,-0.11434867978096008,-0.38265684247016907,-0.04069496691226959
1789221666761123000,3.891123046875,-0.12771934270858765,-0.4036473333835602,-0.029800506308674812
1789221666771202300,3.901202392578125,-0.1246844083070755,-0.44450074434280396,-0.03707413002848625
1789221666781282300,3.9112822265625,-0.14499367773532867,-0.4909425675868988,-0.02315671741962433
1789221666791361300,3.921361328125,-0.14733192324638367,-0.5223164558410645,-0.04062731936573982
1789221666801440300,3.931440185546875,-0.15677176415920258,-0.5368248224258423,-0.042144522070884705
1789221666811519200,3.941519287109375,-0.14972157776355743,-0.550741970539093,-0.04933266341686249
1789221666821599200,3.95159912109375,-0.14589089155197144,-0.5641747117042542,-0.04627135768532753
1789221666831678200,3.96167822265625,-0.14516118168830872,-0.5763565301895142,-0.03512469679117203
1789221666841757200,3.971757080078125,-0.13568300008773804,-0.5837641358375549,-0.02321770414710045
1789221666851836200,3.981836181640625,-0.11660677194595337,-0.5590808391571045,-0.02954857051372528
1789221666861916400,3.99191650390625,-0.11885261535644531,-0.5334663391113281,-0.031810928136110306
1789221666871995100,4.0019951171875,-0.11159443855285645,-0.5199454426765442,-0.03868081793189049
1789221666882074000,4.01207421875,-0.11471939086914062,-0.5225740075111389,-0.02424941398203373
1789221666892154000,4.022154052734375,-0.10689342767000198,-0.5276393294334412,-0.03127430006861687
1789221666902233000,4.032233154296875,-0.1086263433098793,-0.5314364433288574,-0.037103958427906036
1789221666912312300,4.042312255859375,-0.10075856745243073,-0.5324311256408691,-0.02201448753476143
1789221666922391300,4.052391357421875,-0.09496805816888809,-0.5246691107749939,-0.01606045849621296
1789221666932471300,4.06247119140625,-0.0892140343785286,-0.5160415172576904,-0.010193249210715294
1789221666942550300,4.07255029296875,-0.0844256654381752,-0.4893667697906494,-0.01960565894842148
1789221666952629200,4.082629150390625,-0.07235994935035706,-0.4610850512981415,-0.010671552270650864
1789221666962708200,4.092708251953125,-0.05384538695216179,-0.429995059967041,-0.007124222349375486
1789221666972788000,4.1027880859375,-0.046239666640758514,-0.40387824177742004,-0.018399247899651527
1789221666982867200,4.1128671875,-0.041549574583768845,-0.39113447070121765,-0.019660519436001778
1789221666992946200,4.1229462890625,-0.04397544637322426,-0.3766849637031555,-0.017061807215213776
1789221667003025400,4.133025390625,-0.03855564817786217,-0.36828482151031494,-0.008463259786367416
1789221667013105200,4.143105224609375,-0.031810395419597626,-0.35944870114326477,-0.005585980135947466
1789221667023184400,4.153184326171875,-0.027362115681171417,-0.34441331028938293,-0.004656270612031221
1789221667033263000,4.16326318359375,-0.02406192570924759,-0.3231479525566101,-0.0054640076123178005
1789221667043342000,4.173342041015625,-0.014128069393336773,-0.29959389567375183,-0.004805141594260931
1789221667053422300,4.18342236328125,-0.005510879214853048,-0.2703321576118469,-0.002058623591437936
1789221667063501000,4.1935009765625,-0.0010631339391693473,-0.23280128836631775,0.0010154632618650794
1789221667073580300,4.203580322265625,0.01498214527964592,-0.19499585032463074,-0.003597398055717349
1789221667083659300,4.2136591796875,0.024987375363707542,-0.14925047755241394,-0.009194563142955303
1789221667093739300,4.2237392578125,0.04571502283215523,-0.10966204851865768,0.00022317290131468326
1789221667103818200,4.233818359375,0.05956079810857773,-0.07142011821269989,0.002700711600482464
1789221667113897200,4.243897216796875,0.07054793834686279,-0.039565254002809525,-0.003079146845266223
1789221667123977200,4.253977294921875,0.07976114004850388,-0.009503223933279514,0.004692756105214357
1789221667134056400,4.264056396484375,0.08672663569450378,0.028422852978110313,0.0027806065045297146
1789221667144134400,4.274134521484375,0.09360984712839127,0.061343785375356674,0.0033888723701238632
1789221667154213600,4.284213623046875,0.10662657767534256,0.09678273648023605,0.003501257859170437
1789221667164293600,4.294293701171875,0.11407836526632309,0.1249627098441124,0.0005656554130837321
1789221667174372600,4.30437255859375,0.12537284195423126,0.1523732990026474,0.001139033935032785
1789221667184451600,4.31445166015625,0.12614968419075012,0.18038921058177948,0.005238970275968313
1789221667194530600,4.324530517578125,0.12939846515655518,0.20308201014995575,0.005319131538271904
1789221667204610600,4.334610595703125,0.12504632771015167,0.2158460021018982,0.004191282670944929
1789221667214689500,4.344689453125,0.1139603927731514,0.21388565003871918,0.010370882228016853
1789221667224768500,4.3547685546875,0.10826681554317474,0.1937849223613739,0.012088887393474579
1789221667234847500,4.364847412109375,0.08748271316289902,0.1492566019296646,0.006452306639403105
1789221667244927700,4.374927734375,0.05859912931919098,0.10658716410398483,-0.007103449665009975
1789221667255006500,4.38500634765625,0.04339833930134773,0.05253750830888748,-0.00003355582884978503
1789221667265085700,4.395085693359375,0.020444821566343307,0.02472425438463688,0.0010157296201214194
1789221667275164700,4.40516455078125,0.005323392804712057,0.009844374842941761,-0.0038309572264552116
1789221667285244700,4.41524462890625,-0.008138620294630527,-0.006932474672794342,0.007730624172836542
1789221667295323600,4.42532373046875,-0.024653946980834007,-0.05037875100970268,-0.0054429685696959496
1789221667305402600,4.435402587890625,-0.03838121145963669,-0.1156589537858963,-0.0057228668592870235
1789221667315482600,4.445482666015625,-0.0474812313914299,-0.18957792222499847,-0.0021662150975316763
1789221667325561600,4.4555615234375,-0.07261668145656586,-0.24492107331752777,-0.0002378202771069482
1789221667335640600,4.465640625,-0.10023073107004166,-0.2779117822647095,-0.011895275674760342
1789221667345719600,4.475719482421875,-0.12593156099319458,-0.29449182748794556,-0.011832957156002522
1789221667355799600,4.485799560546875,-0.14002341032028198,-0.3070555329322815,-0.007466704584658146
1789221667365878500,4.49587841796875,-0.13643373548984528,-0.3313864469528198,-0.009197493083775043
1789221667375957500,4.50595751953125,-0.12653504312038422,-0.34188491106033325,-0.01178981363773346
1789221667386036700,4.51603662109375,-0.1181841641664505,-0.3439267575740814,-0.01010722853243351
1789221667396116500,4.526116455078125,-0.1280708760023117,-0.32628196477890015,-0.010627077892422676
1789221667406195700,4.53619580078125,-0.12955772876739502,-0.30793970823287964,-0.003001915058121085
1789221667416274400,4.5462744140625,-0.12845464050769806,-0.29188379645347595,-0.007725031115114689
1789221667426353700,4.556353759765625,-0.11244291812181473,-0.2775823473930359,0.0033992587123066187
1789221667436433700,4.56643359375,-0.10512775182723999,-0.259306937456131,-0.005480519030243158
1789221667446512600,4.5765126953125,-0.09310384094715118,-0.23190966248512268,-0.006170810665935278
1789221667456591600,4.586591552734375,-0.09322342276573181,-0.19654980301856995,-0.0035268242936581373
1789221667466670600,4.596670654296875,-0.09390226006507874,-0.17726585268974304,-0.007797735743224621
1789221667476750600,4.60675048828125,-0.08615752309560776,-0.165721595287323,-0.004883971065282822
1789221667486829600,4.61682958984375,-0.0681670680642128,-0.1469537615776062,-0.0013187973527237773
1789221667496908500,4.626908447265625,-0.07351203262805939,-0.12530039250850677,-0.0037380128633230925
1789221667506987500,4.636987548828125,-0.050023484975099564,-0.10450643301010132,-0.004741225857287645
1789221667517067800,4.64706787109375,-0.05866171419620514,-0.0822266936302185,-0.013381851837038994
1789221667527146500,4.657146484375,-0.0586065873503685,-0.07610728591680527,0.004428037907928228
1789221667537225500,4.6672255859375,-0.05571599304676056,-0.07345663756132126,-0.0019014970166608691
1789221667547305500,4.677305419921875,-0.06263461709022522,-0.060132578015327454,-0.021017400547862053
1789221667557384400,4.687384521484375,-0.05489467456936836,-0.058222558349370956,-0.006125004030764103
1789221667567463700,4.697463623046875,-0.04960084334015846,-0.05343978852033615,0.007878695614635944
1789221667577542700,4.707542724609375,-0.05066397786140442,-0.04771319404244423,-0.014360031113028526
1789221667587622700,4.71762255859375,-0.052616871893405914,-0.04632382094860077,-0.00025539714260958135
1789221667597701600,4.72770166015625,-0.06415794789791107,-0.039137549698352814,-0.0034469293896108866
1789221667607780600,4.737780517578125,-0.06685226410627365,-0.031921446323394775,0.00563977612182498
1789221667617859600,4.747859619140625,-0.07935580611228943,-0.04357597231864929,-0.0018485001055523753
1789221667627939600,4.757939697265625,-0.0747770369052887,-0.05879620462656021,0.0022333269007503986
1789221667638018600,4.7680185546875,-0.07490140199661255,-0.07125580310821533,-0.00634977500885725
1789221667648097500,4.77809765625,-0.072551429271698,-0.08009617030620575,-0.009828928858041763
1789221667658176800,4.7881767578125,-0.07941199839115143,-0.0776660293340683,-0.004935636185109615
1789221667668256500,4.798256591796875,-0.08852720260620117,-0.07406251132488251,0.005513009615242481
1789221667678335700,4.808335693359375,-0.10223183035850525,-0.0801297202706337,-0.00011851066665258259
1789221667688414500,4.81841455078125,-0.10799490660429001,-0.10544972866773605,-0.0059569585137069225
1789221667698494700,4.82849462890625,-0.11144903302192688,-0.13646170496940613,0.009414806962013245
1789221667708573700,4.83857373046875,-0.11742249876260757,-0.16514049470424652,0.000028495824153651483
1789221667718652400,4.84865234375,-0.11680544912815094,-0.1843770295381546,-0.00555242458358407
1789221667728731600,4.858731689453125,-0.13016173243522644,-0.1922924816608429,-0.012507270090281963
1789221667738811400,4.868811279296875,-0.13587048649787903,-0.19563128054141998,-0.002281796419993043
1789221667748890600,4.878890625,-0.14414918422698975,-0.20298880338668823,0.0025744778104126453
1789221667758969600,4.888969482421875,-0.13937759399414062,-0.21644628047943115,-0.0016735304379835725
1789221667769048600,4.899048583984375,-0.13066932559013367,-0.21853287518024445,-0.006892793346196413
1789221667779128600,4.909128662109375,-0.11643819510936737,-0.21554534137248993,0.0019566244445741177
1789221667789207800,4.919207763671875,-0.11390526592731476,-0.20764267444610596,0.007957525551319122
1789221667799286500,4.92928662109375,-0.11941774189472198,-0.2028106302022934,0.004829110112041235
1789221667809365500,4.939365478515625,-0.11993013322353363,-0.2026606947183609,0.0012181298807263374
1789221667819445500,4.949445556640625,-0.12210540473461151,-0.20187214016914368,-0.00449807895347476
1789221667829524500,4.9595244140625,-0.10005469620227814,-0.1885179877281189,0.0068235513754189014
1789221667839603700,4.969603759765625,-0.08470822870731354,-0.1724596470594406,-0.0016948357224464417
1789221667849683500,4.979683349609375,-0.06311745196580887,-0.15920643508434296,0.008374310098588467
1789221667859762700,4.9897626953125,-0.05042269453406334,-0.14488208293914795,0.0025185514241456985
1789221667869841700,4.999841552734375,-0.048718005418777466,-0.13925322890281677,-0.002010686555877328
1789221667879920400,5.00992041015625,-0.0537327378988266,-0.14367540180683136,0.0083660539239645
1789221667890000600,5.020000732421875,-0.06617528945207596,-0.1549871861934662,0.01588761992752552
1789221667900079600,5.03007958984375,-0.07534775137901306,-0.15983253717422485,-0.0017784589435905218
1789221667910158600,5.04015869140625,-0.06185378134250641,-0.1528414785861969,-0.0154340835288167
1789221667920237600,5.050237548828125,-0.05506698042154312,-0.12244868278503418,0.009515474550426006
1789221667930317600,5.060317626953125,-0.047259923070669174,-0.10401880741119385,0.02472478710114956
1789221667940396500,5.070396484375,-0.04369768127799034,-0.10577569901943207,0.011234012432396412
1789221667950475800,5.080475830078125,-0.0485084131360054,-0.12520559132099152,-0.010578874498605728
1789221667960554500,5.090554443359375,-0.04527267441153526,-0.14660727977752686,0.0018692727899178863
1789221667970634800,5.100634765625,-0.039149533957242966,-0.15629826486110687,0.00935941282659769
1789221667980713700,5.110713623046875,-0.042507778853178024,-0.13992594182491302,-0.0007717840489931405
1789221667990792400,5.12079248046875,-0.05024585872888565,-0.11829175800085068,0.01392966415733099
1789221668000871700,5.13087158203125,-0.060394901782274246,-0.11457211524248123,0.0012799152173101902
1789221668010951400,5.140951416015625,-0.059777844697237015,-0.12934386730194092,0.008321579545736313
1789221668021030700,5.15103076171875,-0.059910472482442856,-0.1488877534866333,-0.0010913633741438389
1789221668031109600,5.161109619140625,-0.05517856776714325,-0.15870362520217896,0.006585198454558849
1789221668041189600,5.171189697265625,-0.05904574319720268,-0.15942934155464172,-0.0037883466575294733
1789221668051268600,5.1812685546875,-0.06650526076555252,-0.17047053575515747,-0.015296132303774357
1789221668061347600,5.19134765625,-0.06884936988353729,-0.193123921751976,0.005917544011026621
1789221668071426600,5.201426513671875,-0.07378953695297241,-0.21137189865112305,0.002213353058323264
1789221668081506600,5.211506591796875,-0.0790277048945427,-0.22228392958641052,0.018129736185073853
1789221668091585500,5.22158544921875,-0.08885183930397034,-0.21103447675704956,0.017286578193306923
1789221668101664500,5.23166455078125,-0.09551001340150833,-0.198637455701828,-0.004332696553319693
1789221668111743700,5.24174365234375,-0.08807899057865143,-0.18760158121585846,-0.004529770463705063
1789221668121823500,5.251823486328125,-0.0758630707859993,-0.18878670036792755,-0.008374310098588467
1789221668131902700,5.26190283203125,-0.070868581533432,-0.1889994740486145,-0.004082093480974436
1789221668141981700,5.271981689453125,-0.06857400387525558,-0.19837114214897156,-0.009824134409427643
1789221668152060700,5.282060791015625,-0.07931452989578247,-0.19401288032531738,0.013079582713544369
1789221668162141000,5.292140869140625,-0.08466215431690216,-0.18868735432624817,0.002404301892966032
1789221668172219600,5.3022197265625,-0.08906835317611694,-0.1818867176771164,0.007272826507687569
1789221668182298600,5.312298583984375,-0.09002416580915451,-0.1733371615409851,0.01925997994840145
1789221668192377900,5.3223779296875,-0.0869964137673378,-0.174950510263443,-0.01660427637398243
1789221668202457600,5.33245751953125,-0.0881010964512825,-0.17200957238674164,0.009120794013142586
1789221668212536800,5.342536865234375,-0.07624656707048416,-0.15062598884105682,-0.04358076676726341
1789221668222615800,5.35261572265625,-0.05164987966418266,-0.11858337372541428,0.0196852870285511
1789221668232695800,5.36269580078125,-0.023371901363134384,-0.09624584019184113,0.04777471348643303
1789221668242774800,5.37277490234375,-0.041247572749853134,-0.08944013714790344,-0.05251274257898331
1789221668252853800,5.382853759765625,-0.05994855612516403,-0.09005878865718842,-0.021643776446580887
1789221668262932700,5.3929326171875,-0.07312347739934921,-0.08892907202243805,0.04063477739691734
1789221668273012700,5.4030126953125,-0.09003721177577972,-0.09142471849918365,0.02110901288688183
1789221668283091700,5.413091796875,-0.07867243885993958,-0.11196301877498627,-0.029682528227567673
1789221668293170700,5.423170654296875,-0.048233307898044586,-0.1364598423242569,-0.02448749914765358
1789221668303250000,5.43325,-0.047814395278692245,-0.15499676764011383,0.012663863599300385
1789221668313329700,5.44332958984375,-0.04964425042271614,-0.15398690104484558,0.030240725725889206
1789221668323409000,5.453408935546875,-0.048296693712472916,-0.13296763598918915,-0.0002740392810665071
1789221668333487900,5.46348779296875,-0.05555726960301399,-0.110124371945858,-0.01775849051773548
1789221668343566600,5.473566650390625,-0.049981940537691116,-0.09911113977432251,0.023511184379458427
1789221668353646800,5.483646728515625,-0.0362810418009758,-0.09642667323350906,0.01619121991097927
1789221668363725600,5.4937255859375,-0.030251113697886467,-0.0972309485077858,-0.031747810542583466
1789221668373804800,5.5038046875,-0.033125728368759155,-0.11020559817552567,-0.01992150954902172
1789221668383884500,5.513884521484375,-0.032643165439367294,-0.13392530381679535,0.02424728311598301
1789221668393963800,5.5239638671875,-0.051363322883844376,-0.1220737099647522,-0.02598952315747738
1789221668404042800,5.534042724609375,-0.04890549182891846,-0.09186680614948273,-0.03635534271597862
1789221668414122000,5.5441220703125,-0.018731076270341873,-0.019113507121801376,0.04170510172843933
1789221668424201700,5.55420166015625,0.06393370777368546,0.04345746338367462,0.045216478407382965
1789221668434281000,5.564281005859375,0.09458056837320328,0.07999683171510696,-0.009286709129810333
1789221668444359700,5.574359619140625,0.10967350006103516,0.10005123168230057,-0.012945093214511871
1789221668454438700,5.584438720703125,0.10458792746067047,0.14227059483528137,-0.041847847402095795
1789221668464519000,5.594518798828125,0.10123421251773834,0.1831306666135788,0.015456986613571644
1789221668474597600,5.60459765625,0.12029551714658737,0.21324196457862854,0.06880329549312592
1789221668484676900,5.6146767578125,0.14763712882995605,0.21524439752101898,0.0512128546833992
1789221668494755800,5.624755859375,0.1578519493341446,0.20767489075660706,-0.0062616243958473206
1789221668504835800,5.6348359375,0.120313361287117,0.18744046986103058,-0.06285885721445084
1789221668514914800,5.644914794921875,0.17049157619476318,0.22132626175880432,-0.05708245933055878
1789221668524993500,5.65499365234375,0.1740117371082306,0.2987630069255829,0.032042887061834335
1789221668535073800,5.66507373046875,0.2397814393043518,0.2965424656867981,0.022126873955130577
1789221668545152800,5.67515283203125,0.2610158920288086,0.28602510690689087,-0.02359241060912609
1789221668555231700,5.685231689453125,0.2652684152126312,0.2739849388599396,-0.0012506204657256603
1789221668565310700,5.695310791015625,0.2183658927679062,0.2928803265094757,-0.0016849819803610444
1789221668575390700,5.705390625,0.179920494556427,0.33868643641471863,0.032707080245018005
1789221668585469700,5.7154697265625,0.18310324847698212,0.3551202714443207,-0.017882859334349632
1789221668595549000,5.725548828125,0.17616277933120728,0.3557477295398712,0.027172498404979706
1789221668605627600,5.735627685546875,0.1593310683965683,0.32601672410964966,0.07916352897882462
1789221668615707600,5.745707763671875,0.17222821712493896,0.26988208293914795,0.03039518930017948
1789221668625787000,5.755786865234375,0.14359630644321442,0.2602859139442444,-0.007766842842102051
1789221668635865600,5.765865478515625,0.20055653154850006,0.24565982818603516,0.04855528473854065
1789221668645944800,5.77594482421875,0.1612192541360855,0.2113276869058609,-0.16305789351463318
1789221668656024600,5.786024658203125,0.12926717102527618,0.1593121588230133,-0.08651651442050934
1789221668666103800,5.796103759765625,0.007908256724476814,0.09970182925462723,0.05537058040499687
1789221668676182800,5.806182861328125,-0.011205783113837242,0.05486218258738518,0.12394537776708603
1789221668686262800,5.8162626953125,0.018455173820257187,0.04085315763950348,0.0388169027864933
1789221668696341800,5.826341796875,0.09451957792043686,-0.016575515270233154,-0.1229698657989502
1789221668706420700,5.836420654296875,0.1529301553964615,-0.07875872403383255,-0.042627353221178055
1789221668716499700,5.846499755859375,0.145437091588974,-0.1178712397813797,0.1365509182214737
1789221668726579700,5.856579833984375,0.1120905876159668,-0.13340891897678375,0.06768370419740677
1789221668736658700,5.86665869140625,0.06186363473534584,-0.1201154887676239,-0.05872216820716858
1789221668746737700,5.876737548828125,0.03982917219400406,-0.08202749490737915,-0.028058266267180443
1789221668756817000,5.88681689453125,0.05230874568223953,-0.07809267193078995,0.040473923087120056
1789221668766896600,5.896896728515625,0.09190408885478973,-0.05927104502916336,-0.05578283965587616
1789221668776976000,5.906975830078125,0.09779021143913269,-0.05890432745218277,0.07653791457414627
1789221668787054800,5.917054931640625,0.09777289628982544,-0.01383858360350132,0.0444612093269825
1789221668797133600,5.927133544921875,0.07220282405614853,0.012488095089793205,0.02208133414387703
1789221668807213800,5.9372138671875,0.10129652917385101,0.05312447249889374,0.11128631234169006
1789221668817292800,5.947292724609375,0.13186988234519958,0.06803098320960999,0.019342271611094475
1789221668827371800,5.957371826171875,0.13099662959575653,0.07626201212406158,-0.05044133588671684
1789221668837451800,5.96745166015625,0.12079060077667236,0.07987725734710693,-0.10979121178388596
1789221668847530800,5.97753076171875,0.06073871627449989,0.06551802158355713,-0.03820490837097168
1789221668857609700,5.987609619140625,0.05397561565041542,0.03494839742779732,0.08058831840753555
1789221668867688700,5.997688720703125,0.004406732507050037,-0.006441654171794653,0.02486034296452999
1789221668877768700,6.007768798828125,-0.01883520744740963,-0.07175567746162415,-0.05558789521455765
1789221668887847700,6.01784765625,-0.0008239820599555969,-0.102754607796669,-0.007517304737120867
1789221668897927000,6.027927001953125,0.018038921058177948,-0.1084737479686737,0.043777041137218475
1789221668908005600,6.038005615234375,0.04794781655073166,-0.10943222045898438,0.01558109000325203
1789221668918086000,6.0480859375,0.054675228893756866,-0.10978642106056213,-0.004828577395528555
1789221668928164600,6.05816455078125,0.035581961274147034,-0.12212856858968735,0.00330231967382133
1789221668938243800,6.068243896484375,0.01366414688527584,-0.12779152393341064,0.006301837973296642
1789221668948322800,6.07832275390625,-0.0046506780199706554,-0.1325327455997467,-0.0012519520241767168
1789221668958402800,6.08840283203125,0.008864331990480423,-0.13590377569198608,0.005657885689288378
1789221668968481800,6.098481689453125,0.023665914312005043,-0.13891127705574036,0.016051670536398888
1789221668978560800,6.108560791015625,0.03877189755439758,-0.12783145904541016,0.019718045368790627
1789221668988640800,6.118640869140625,0.04577441141009331,-0.10333038121461868,0.03453826904296875
1789221668998719700,6.1287197265625,0.05546459183096886,-0.06738782674074173,0.02418736182153225
1789221669008798700,6.138798828125,0.05366509407758713,-0.020246416330337524,0.013376791961491108
1789221669018877700,6.148877685546875,0.05799592658877373,0.04138099402189255,-0.008859271183609962
1789221669028958000,6.1589580078125,0.04500369355082512,0.10920931398868561,-0.043836697936058044
1789221669039036700,6.16903662109375,0.04843198135495186,0.13548699021339417,0.0009065400226972997
1789221669049115600,6.17911572265625,0.052854958921670914,0.11429301649332047,0.01563781499862671
1789221669059195000,6.18919482421875,0.04634459689259529,0.08668269962072372,-0.013004748150706291
1789221669069274600,6.199274658203125,0.0321294404566288,0.0638791173696518,-0.026190858334302902
1789221669079353900,6.209353759765625,0.030889471992850304,0.07364412397146225,0.017307350412011147
1789221669089432800,6.219432861328125,0.011960255913436413,0.09024067968130112,0.029084116220474243
1789221669099512800,6.229512939453125,0.010566623881459236,0.07883808761835098,-0.007112238090485334
1789221669109591800,6.239591796875,-0.005941512528806925,0.0409221313893795,-0.016770724207162857
1789221669119670800,6.2496708984375,0.0020149475894868374,-0.0026288062799721956,0.00654578348621726
1789221669129749800,6.259749755859375,-0.012204734608530998,-0.014973090030252934,0.007275489624589682
1789221669139829800,6.269829833984375,-0.008668589405715466,-0.002287122653797269,-0.011153585277497768
1789221669149909000,6.279908935546875,-0.00885101594030857,0.019950006157159805,-0.004736431874334812
1789221669159988000,6.289988037109375,-0.014900652691721916,0.02767077647149563,0.011108044534921646
1789221669170067000,6.30006689453125,-0.02269279584288597,0.010616159066557884,-0.0027659591287374496
1789221669180147000,6.31014697265625,-0.02971714921295643,-0.015870044007897377,-0.017073791474103928
1789221669190226200,6.32022607421875,-0.03609781712293625,-0.04454270005226135,0.0007294398383237422
1789221669200305000,6.330304931640625,-0.04201243072748184,-0.06602668762207031,0.010929080657660961
1789221669210384000,6.3403837890625,-0.04802398383617401,-0.07771636545658112,-0.004601409658789635
1789221669220463900,6.3504638671875,-0.045287586748600006,-0.07897444069385529,-0.0007518103811889887
1789221669230542800,6.36054296875,-0.023507723584771156,-0.06071874126791954,0.012630308046936989
1789221669240622000,6.3706220703125,-0.014199442230165005,-0.028185565024614334,-0.005793973337858915
1789221669250701800,6.380701904296875,-0.011313374154269695,0.011205783113837242,-0.01233496330678463
1789221669260781000,6.390781005859375,-0.012864666059613228,0.04082093387842178,-0.0002846919232979417
1789221669270860000,6.400860107421875,-0.014461496844887733,0.0471147820353508,0.0015760586829856038
1789221669280938800,6.410938720703125,-0.010824950411915779,0.04248753935098648,0.004699414130300283
1789221669291019000,6.42101904296875,-0.011514176614582539,0.03875245526432991,-0.026200179010629654
1789221669301098000,6.431097900390625,0.003567304229363799,0.0524166040122509,0.010482468642294407
1789221669311177000,6.441177001953125,0.00911786500364542,0.09028089046478271,0.012835904024541378
1789221669321256000,6.451255859375,0.0003299656673334539,0.12026515603065491,-0.023547137156128883
1789221669331336000,6.4613359375,0.009793242439627647,0.1291433423757553,0.00199337606318295
1789221669341415000,6.471414794921875,-0.004051466938108206,0.11856792867183685,-0.05107836425304413
1789221669351494100,6.481494140625,0.0023238742724061012,0.10717572271823883,0.025487249717116356
1789221669361574000,6.491573974609375,0.009081912226974964,0.10600180178880692,-0.002697782125324011
1789221669371653000,6.501653076171875,0.013758156448602676,0.10622124373912811,-0.01732439547777176
1789221669381732000,6.511732177734375,-0.0018109495285898447,0.10796721279621124,-0.007984423078596592
1789221669391810800,6.521810791015625,0.0010285128373652697,0.0923142209649086,0.00333134806714952
1789221669401891000,6.53189111328125,0.00552233075723052,0.07125979661941528,0.01395576260983944
1789221669411969800,6.5419697265625,0.013001818209886551,0.05319797247648239,-0.015918511897325516
1789221669422049000,6.552049072265625,0.017194699496030807,0.041973281651735306,-0.013307017274200916
1789221669432128000,6.5621279296875,0.019400063902139664,0.04550916329026222,-0.021327126771211624
1789221669442208000,6.5722080078125,0.009052351117134094,0.05019046738743782,0.002674879040569067
1789221669452287000,6.582286865234375,0.014671887271106243,0.04676883667707443,0.008107993751764297
1789221669462366000,6.592365966796875,0.01534779742360115,0.029283586889505386,-0.009047823026776314
1789221669472446000,6.602446044921875,0.024328775703907013,0.01420503482222557,-0.0075631109066307545
1789221669482525000,6.61252490234375,0.015600265003740788,0.013045494444668293,0.006112753413617611
1789221669492604000,6.62260400390625,0.017403224483132362,0.013826332986354828,0.015681225806474686
1789221669502683000,6.632682861328125,0.01822773925960064,0.03496810421347618,-0.003269829088822007
1789221669512763100,6.64276318359375,0.025043034926056862,0.05409199744462967,-0.0084837656468153
1789221669522841900,6.652841796875,0.03181944787502289,0.06378057599067688,-0.006789728999137878
1789221669532921000,6.662921142578125,0.030962975695729256,0.08023598045110703,-0.011709120124578476
1789221669543000000,6.673,0.03326234966516495,0.0934029147028923,0.00047084689140319824
1789221669553080000,6.683080078125,0.03606452792882919,0.11191721260547638,-0.009337308816611767
1789221669563159000,6.693158935546875,0.04574538394808769,0.13153991103172302,0.003180613275617361
1789221669573238000,6.703238037109375,0.050762247294187546,0.14111077785491943,-0.005250155925750732
1789221669583318000,6.713318115234375,0.05745530501008034,0.15092585980892181,-0.012504872865974903
1789221669593397000,6.72339697265625,0.06113659217953682,0.15806633234024048,-0.00022317290131468326
1789221669603476000,6.73347607421875,0.05452529340982437,0.16257773339748383,-0.010602043941617012
1789221669613555000,6.743554931640625,0.04982241615653038,0.16231860220432281,-0.020606208592653275
1789221669623635000,6.753635009765625,0.04117539897561073,0.15149684250354767,-0.008196410723030567
1789221669633714000,6.7637138671875,0.04387451335787773,0.1322549730539322,0.0020506340079009533
1789221669643793000,6.77379296875,0.03473560884594917,0.10376235097646713,-0.003094060579314828
1789221669653873000,6.783872802734375,0.04102360084652901,0.07786071300506592,-0.003192597534507513
1789221669663952000,6.793951904296875,0.03971545398235321,0.04722796753048897,0.0009203884401358664
1789221669674031000,6.804031005859375,0.035771578550338745,0.024399882182478905,0.002314287004992366
1789221669684109800,6.81410986328125,0.02293141558766365,0.002725212834775448,-0.002314553363248706
1789221669694190000,6.824190185546875,0.0107668936252594,-0.01623755879700184,-0.01600666344165802
1789221669704269000,6.83426904296875,0.010243049822747707,-0.029260151088237762,-0.004477039910852909
1789221669714348000,6.84434814453125,0.010758904740214348,-0.042449191212654114,-0.0003406183095648885
1789221669724427000,6.854427001953125,0.023152191191911697,-0.06344448775053024,-0.004452805500477552
1789221669734506800,6.8645068359375,0.028868932276964188,-0.0825800970196724,0.000627973407972604
1789221669744586000,6.8745859375,0.03007694147527218,-0.09787649661302567,0.01793905347585678
1789221669754665000,6.8846650390625,0.0334482379257679,-0.10206085443496704,0.019806994125247
1789221669764745000,6.894744873046875,0.0381455197930336,-0.09289105981588364,0.010633469559252262
1789221669774824000,6.904823974609375,0.047092944383621216,-0.07172505557537079,0.01555472519248724
1789221669784903200,6.914903076171875,0.056179117411375046,-0.05010630935430527,-0.0013028184184804559
1789221669794982000,6.92498193359375,0.07147178798913956,-0.031732361763715744,0.002639192622154951
1789221669805062100,6.935062255859375,0.08503073453903198,-0.012884639203548431,-0.004339354578405619
1789221669815140900,6.945140869140625,0.09883390367031097,0.009710418060421944,-0.00538544449955225
1789221669825219800,6.9552197265625,0.10936084389686584,0.03796602413058281,-0.0070829433389008045
1789221669835300000,6.965300048828125,0.11198405921459198,0.07196340709924698,0.017669009044766426
1789221669845378800,6.97537890625,0.11772742867469788,0.11301390081644058,0.02678154595196247
1789221669855458000,6.9854580078125,0.12366441637277603,0.1586730033159256,0.009949303232133389
1789221669865537000,6.995537109375,0.13669367134571075,0.18381190299987793,0.013931527733802795
1789221669875617000,7.005616943359375,0.1328107714653015,0.2062932550907135,0.01804904080927372
1789221669885696000,7.015696044921875,0.14128682017326355,0.2102762758731842,-0.0115546565502882
1789221669895775000,7.02577490234375,0.13460654020309448,0.2125825732946396,0.02815680392086506
1789221669905854000,7.03585400390625,0.14132943749427795,0.2048596739768982,0.011604990810155869
1789221669915934000,7.045933837890625,0.1372060626745224,0.20963925123214722,0.034031469374895096
1789221669926013000,7.056012939453125,0.14564375579357147,0.20639711618423462,-0.014542724005877972
1789221669936092000,7.066091796875,0.15541568398475647,0.205190971493721,0.018693527206778526
1789221669946172000,7.076171875,0.16078488528728485,0.21142542362213135,0.01595127023756504
1789221669956251000,7.0862509765625,0.17513452470302582,0.22728614509105682,0.00845473725348711
1789221669966330000,7.096330078125,0.17985951900482178,0.24765586853027344,0.024824656546115875
1789221669976408800,7.106408935546875,0.16763107478618622,0.2589050531387329,0.004483165219426155
1789221669986489000,7.116489013671875,0.1401568353176117,0.26800107955932617,-0.006991596892476082
1789221669996568000,7.126568115234375,0.1428474336862564,0.2747170627117157,0.011465707793831825
1789221670006646800,7.136646728515625,0.14281706511974335,0.28264155983924866,0.03597770631313324
1789221670016727000,7.14672705078125,0.15651743113994598,0.2602454423904419,0.060257479548454285
1789221670026805800,7.1568056640625,0.15096953511238098,0.26988714933395386,-0.005538576282560825
1789221670036885000,7.166885009765625,0.1404189020395279,0.2522607445716858,0.0010290454374626279
1789221670046964000,7.1769638671875,0.13012844324111938,0.25405436754226685,0.01883627101778984
1789221670057044000,7.1870439453125,0.13149544596672058,0.27515992522239685,-0.02195616438984871
1789221670067123000,7.197123046875,0.12593954801559448,0.2999422550201416,0.0036187032237648964
1789221670077202200,7.2072021484375,0.13776612281799316,0.30301153659820557,0.02420014515519142
1789221670087281000,7.217281005859375,0.14773300290107727,0.30906009674072266,0.04532007873058319
1789221670097361000,7.22736083984375,0.14876604080200195,0.29729026556015015,0.024775920435786247
1789221670107439900,7.23743994140625,0.16513462364673615,0.2869342863559723,0.005329518113285303
1789221670117518800,7.247518798828125,0.1346970945596695,0.27432236075401306,-0.015786953270435333
1789221670127599000,7.25759912109375,0.16051164269447327,0.2641264498233795,0.03618437051773071
1789221670137677800,7.267677734375,0.15297463536262512,0.2728094160556793,0.10407660156488419
1789221670147756800,7.2777568359375,0.1585555523633957,0.2812977135181427,0.1422860324382782
1789221670157835800,7.287835693359375,0.16058515012264252,0.29438474774360657,0.1028619334101677
1789221670167915800,7.297915771484375,0.12332379817962646,0.27826517820358276,-0.00006311691686278209
1789221670177994800,7.307994873046875,0.08432100713253021,0.24302570521831512,-0.0023723437916487455
1789221670188073700,7.31807373046875,0.07728839665651321,0.20281702280044556,0.06060635671019554
1789221670198153700,7.32815380859375,0.07665643095970154,0.17983022332191467,0.13801299035549164
1789221670208232700,7.338232666015625,0.09975162893533707,0.1599971204996109,0.08827792853116989
1789221670218311700,7.348311767578125,0.10980000346899033,0.13252262771129608,-0.07774113118648529
1789221670228390700,7.358390625,0.04911401495337486,0.11111027747392654,-0.22294652462005615
1789221670238471000,7.368470947265625,0.028786374256014824,0.07119135558605194,-0.155861496925354
1789221670248549600,7.378549560546875,0.027113908901810646,0.04278821125626564,0.16131086647510529
1789221670258628600,7.388628662109375,0.0010937602492049336,0.053819555789232254,0.14802780747413635
1789221670268708600,7.39870849609375,0.036138828843832016,0.08087487518787384,-0.13340438902378082
1789221670278787600,7.40878759765625,0.06491614878177643,0.11004128307104111,-0.3706393241882324
1789221670288866800,7.41886669921875,0.06553400307893753,0.11974956840276718,-0.2139810025691986
1789221670298945800,7.42894580078125,0.05425737798213959,0.10799624025821686,0.042871568351984024
1789221670309025800,7.43902587890625,0.047036752104759216,0.07141505926847458,0.22848963737487793
1789221670319104800,7.449104736328125,-0.005679191090166569,0.07150054723024368,0.17886322736740112
1789221670329183700,7.459183837890625,0.0009715211344882846,0.05662093311548233,-0.14731568098068237
1789221670339263700,7.469263671875,0.027034547179937363,0.07364066690206528,-0.20235976576805115
1789221670349342700,7.4793427734375,-0.08487015217542648,0.11748029291629791,-0.1967245191335678
1789221670359421700,7.489421630859375,-0.11845394223928452,0.1830284148454666,0.038000114262104034
1789221670369500700,7.499500732421875,-0.07970654964447021,0.2931285500526428,-0.011391138657927513
1789221670379580700,7.50958056640625,0.005431250669062138,0.2648217976093292,-0.1425424963235855
1789221670389659600,7.51965966796875,0.15284813940525055,0.23814092576503754,-0.15589000284671783
1789221670399739000,7.52973876953125,0.11260218173265457,0.2952984869480133,-0.413486123085022
1789221670409817600,7.539817626953125,0.026375947520136833,0.3209492564201355,-0.4538130462169647
1789221670419897900,7.54989794921875,0.012881710194051266,0.39571431279182434,-0.17950931191444397
1789221670429976600,7.5599765625,0.08954213559627533,0.34947970509529114,0.17459124326705933
1789221670440055600,7.5700556640625,0.21068346500396729,0.3621824383735657,0.20482265949249268
1789221670450135800,7.5801357421875,0.20164737105369568,0.3509676158428192,-0.17571216821670532
1789221670460214500,7.590214599609375,0.2343619018793106,0.32145100831985474,-0.3069908320903778
1789221670470293800,7.600293701171875,0.261476069688797,0.3093447983264923,-0.052738845348358154
1789221670480372700,7.610372802734375,0.27327415347099304,0.29236236214637756,0.18719226121902466
1789221670490452700,7.62045263671875,0.25703978538513184,0.321729838848114,0.23707006871700287
1789221670500531700,7.63053173828125,0.19585952162742615,0.41816502809524536,0.09119994938373566
1789221670510611000,7.64061083984375,0.15128245949745178,0.4373815953731537,-0.1445515900850296
1789221670520690700,7.650690673828125,0.13970117270946503,0.42976894974708557,-0.1330464631319046
1789221670530770000,7.66077001953125,0.1219799667596817,0.3705596923828125,-0.07174769043922424
1789221670540848600,7.6708486328125,0.04265345260500908,0.25557583570480347,-0.09842004626989365
1789221670550927600,7.680927734375,0.05187944322824478,0.20093150436878204,0.08284614980220795
1789221670561007600,7.691007568359375,0.12593023478984833,0.20992447435855865,0.1132168397307396
1789221670571086600,7.701086669921875,0.09762828797101974,0.1840239018201828,-0.05441663786768913
1789221670581165800,7.711165771484375,0.10198894888162613,0.16013453900814056,0.009176986292004585
1789221670591244800,7.721244873046875,0.08112281560897827,0.1417323648929596,-0.005115665961056948
1789221670601324800,7.73132470703125,0.04410620778799057,0.10568435490131378,-0.10091596096754074
1789221670611403800,7.74140380859375,0.06067293509840965,0.10915018618106842,-0.06636597216129303
1789221670621482500,7.751482421875,0.07325930148363113,0.12455257773399353,-0.09409747272729874
1789221670631562800,7.761562744140625,0.08698470145463943,0.15474297106266022,-0.09041751176118851
1789221670641641700,7.771641845703125,0.1283494532108307,0.1599622368812561,0.07456957548856735
1789221670651720700,7.781720703125,0.11310551315546036,0.21634694933891296,0.0243719182908535
1789221670661799700,7.791799560546875,0.10763591527938843,0.25913888216018677,-0.15434616804122925
1789221670671879700,7.801879638671875,0.10369443893432617,0.3089429438114166,-0.0911450907588005
1789221670681958700,7.811958740234375,0.14622539281845093,0.3717415928840637,0.13961276412010193
1789221670692038000,7.822037841796875,0.18416397273540497,0.3733096718788147,0.11909709870815277
1789221670702117600,7.83211767578125,0.24131807684898376,0.3917374014854431,0.026608174666762352
1789221670712196900,7.84219677734375,0.25763288140296936,0.42430761456489563,-0.10311227291822433
1789221670722275800,7.85227587890625,0.2885604202747345,0.4600679874420166,-0.08934532850980759
1789221670732354600,7.8623544921875,0.27808433771133423,0.5294039249420166,0.11548824608325958
1789221670742434800,7.872434814453125,0.28647491335868835,0.5772028565406799,0.09469002485275269
1789221670752513500,7.882513427734375,0.24768702685832977,0.5820021629333496,-0.07790811359882355
1789221670762592800,7.8925927734375,0.2446451634168625,0.5857465863227844,-0.08491462469100952
1789221670772671700,7.902671630859375,0.22715432941913605,0.5694975256919861,-0.16027489304542542
1789221670782751700,7.912751708984375,0.282026082277298,0.5467046499252319,-0.036142025142908096
1789221670792830700,7.922830810546875,0.307462215423584,0.5486162304878235,0.20782031118869781
1789221670802909700,7.93290966796875,0.330814927816391,0.5622329711914062,0.09695397317409515
1789221670812989700,7.94298974609375,0.3483337461948395,0.5832219123840332,-0.05012069270014763
1789221670823068700,7.953068603515625,0.3173010051250458,0.637109100818634,-0.07520873099565506
1789221670833147600,7.963147705078125,0.33314359188079834,0.6420258283615112,-0.003703924361616373
1789221670843226600,7.9732265625,0.3291701674461365,0.657817006111145,0.13755813241004944
1789221670853307000,7.983306884765625,0.3515995740890503,0.6494728326797485,0.08680813014507294
1789221670863385600,7.993385498046875,0.3023262917995453,0.6352179646492004,0.04219512268900871
1789221670873464800,8.00346484375,0.36309272050857544,0.6322776079177856,0.043469447642564774
1789221670883544600,8.013544677734375,0.32604867219924927,0.6638791561126709,-0.009219597093760967
1789221670893623800,8.023623779296875,0.3381167948246002,0.6982046365737915,-0.04782078415155411
1789221670903702800,8.033702880859375,0.34615659713745117,0.7030097842216492,0.010524014011025429
1789221670913781800,8.04378173828125,0.29841944575309753,0.7090053558349609,0.1101379543542862
1789221670923861800,8.05386181640625,0.21817627549171448,0.6910167932510376,-0.051849614828825
1789221670933940700,8.063940673828125,0.2768017649650574,0.6209216117858887,0.009189503267407417
1789221670944019700,8.074019775390624,0.3308362364768982,0.6236603856086731,0.07771716266870499
1789221670954098700,8.0840986328125,0.24086721241474152,0.5372762084007263,-0.04572141543030739
1789221670964178700,8.0941787109375,0.25858256220817566,0.5069385766983032,0.09458988904953003
1789221670974257700,8.104257568359374,0.19604194164276123,0.5395340323448181,0.1584721952676773
1789221670984336600,8.114336669921874,0.06235392019152641,0.5406166315078735,0.001103880233131349
1789221670994415900,8.124415771484376,0.07894647866487503,0.4917747974395752,0.11109589785337448
1789221671004495600,8.13449560546875,-0.027309652417898178,0.47089800238609314,0.16693413257598877
1789221671014574800,8.144574951171874,-0.048889510333538055,0.3485231101512909,0.07552458345890045
1789221671024653600,8.154653564453126,-0.07455413043498993,0.25178590416908264,0.17863819003105164
1789221671034733800,8.16473388671875,-0.08215931802988052,0.21377752721309662,0.26791107654571533
1789221671044812800,8.174812744140626,-0.14069586992263794,0.13711684942245483,0.011817244812846184
1789221671054891800,8.184891845703126,-0.2398778349161148,0.08314362168312073,-0.15832573175430298
1789221671064970800,8.194970703125,-0.2503853440284729,0.00960042979568243,-0.07319245487451553
1789221671075050800,8.20505078125,-0.2520045340061188,-0.05372261628508568,0.2155783623456955
1789221671085129700,8.215129638671876,-0.3385258615016937,-0.13018330931663513,0.058336012065410614
1789221671095208700,8.225208740234375,-0.43737494945526123,-0.21051782369613647,0.10561510920524597
1789221671105287700,8.23528759765625,-0.5222959518432617,-0.2919948399066925,0.1309865117073059
1789221671115367700,8.24536767578125,-0.46873021125793457,-0.39193981885910034,0.028173580765724182
1789221671125447000,8.255447021484375,-0.4801034927368164,-0.42069849371910095,0.022486666217446327
1789221671135525600,8.265525634765625,-0.5009195804595947,-0.43105340003967285,0.035588089376688004
1789221671145606400,8.2756064453125,-0.5234304666519165,-0.46146827936172485,-0.006563360337167978
1789221671155685400,8.285685302734375,-0.5337227582931519,-0.4582626521587372,0.053229667246341705
1789221671165764400,8.295764404296875,-0.5854658484458923,-0.5096185207366943,0.048233840614557266
1789221671175843600,8.305843505859375,-0.525481104850769,-0.5996384024620056,0.112422414124012
1789221671185923300,8.31592333984375,-0.5480127930641174,-0.6317960619926453,0.1443483829498291
1789221671196002600,8.32600244140625,-0.6840949654579163,-0.6515604853630066,-0.07031916826963425
1789221671206081300,8.336081298828125,-0.6976299285888672,-0.7081731557846069,-0.07323186844587326
1789221671216160300,8.34616015625,-0.7296318411827087,-0.7118403315544128,0.07860186696052551
1789221671226240500,8.356240478515625,-0.7988370060920715,-0.7603774666786194,-0.0669417455792427
1789221671236319200,8.3663193359375,-0.7474204301834106,-0.8145925402641296,0.041560493409633636
1789221671246398500,8.3763984375,-0.7458387613296509,-0.809270977973938,0.15150563418865204
1789221671256477400,8.3864775390625,-0.7345709204673767,-0.8583413362503052,0.010493920184671879
1789221671266557400,8.396557373046875,-0.7229747176170349,-0.9188803434371948,-0.07227073609828949
1789221671276636400,8.406636474609375,-0.72565758228302,-0.9354878067970276,0.0032748891972005367
1789221671286715400,8.41671533203125,-0.7188990116119385,-0.9070806503295898,0.10235007107257843
1789221671296795400,8.42679541015625,-0.7349075675010681,-0.8693473935127258,0.00860174372792244
1789221671306874400,8.436874267578125,-0.6833098530769348,-0.8464490175247192,-0.0976269543170929
1789221671316953300,8.446953369140624,-0.7484840750694275,-0.8596811890602112,-0.012978382408618927
1789221671327032300,8.4570322265625,-0.7304656505584717,-0.85716313123703,-0.16240862011909485
1789221671337112300,8.4671123046875,-0.7917886972427368,-0.9336547255516052,-0.21529899537563324
1789221671347191300,8.47719140625,-0.7861148118972778,-0.9170967936515808,0.01350462343543768
1789221671357270500,8.4872705078125,-0.7392541170120239,-0.9437366724014282,0.29716989398002625
1789221671367349500,8.497349609375,-0.7825773358345032,-0.9474762678146362,0.10367020219564438
1789221671377429500,8.507429443359374,-0.7291748523712158,-0.9492427706718445,0.020684771239757538
1789221671387508500,8.517508544921874,-0.6980113387107849,-0.8957656621932983,0.021680261939764023
1789221671397587200,8.527587158203126,-0.6995410323143005,-0.8986498713493347,-0.07578770816326141
1789221671407666400,8.53766650390625,-0.6023457646369934,-0.9954065084457397,-0.09075573831796646
1789221671417746400,8.547746337890626,-0.6758748888969421,-1.0063161849975586,0.06135869771242142
1789221671427825400,8.557825439453126,-0.6713826656341553,-0.9184909462928772,0.15597228705883026
1789221671437904400,8.567904296875,-0.629953145980835,-0.7741859555244446,-0.0022503710351884365
1789221671447983400,8.5779833984375,-0.5790239572525024,-0.6627747416496277,-0.07997232675552368
1789221671458063400,8.5880634765625,-0.494775652885437,-0.5735296010971069,-0.008649148046970367
1789221671468142300,8.598142333984375,-0.5229691863059998,-0.5490626096725464,0.0383942611515522
1789221671478221300,8.60822119140625,-0.39605334401130676,-0.5121573209762573,0.04356265813112259
1789221671488300300,8.61830029296875,-0.45714491605758667,-0.4756413698196411,-0.06624719500541687
1789221671498380500,8.628380615234375,-0.3968064785003662,-0.5037968158721924,-0.11094462871551514
1789221671508459300,8.638459228515625,-0.35494130849838257,-0.49194762110710144,-0.03645308315753937
1789221671518538500,8.64853857421875,-0.3548094928264618,-0.5215497612953186,0.1208377406001091
1789221671528617500,8.658617431640625,-0.3751310110092163,-0.5537923574447632,0.02671496756374836
1789221671538697500,8.668697509765625,-0.33278408646583557,-0.5500785708427429,0.08716978877782822
1789221671548776400,8.6787763671875,-0.3395373225212097,-0.5182495713233948,0.02143178880214691
1789221671558855200,8.688855224609375,-0.34696727991104126,-0.5464974045753479,-0.0008114652009680867
1789221671568935400,8.698935302734375,-0.28185564279556274,-0.527653694152832,0.114896759390831
1789221671579014400,8.709014404296875,-0.3363247513771057,-0.5551918745040894,-0.05452476069331169
1789221671589093400,8.71909326171875,-0.3005009889602661,-0.6363034844398499,-0.0347188301384449
1789221671599172400,8.72917236328125,-0.3480093777179718,-0.6530036330223083,0.10240839421749115
1789221671609252400,8.73925244140625,-0.3759653866291046,-0.6704771518707275,0.024868331849575043
1789221671619331300,8.749331298828125,-0.3831106424331665,-0.6753020286560059,0.1109427660703659
1789221671629410300,8.759410400390625,-0.40531155467033386,-0.6813750863075256,0.13134603202342987
1789221671639489500,8.769489501953124,-0.38719937205314636,-0.7478872537612915,-0.0641651377081871
1789221671649569300,8.7795693359375,-0.40129682421684265,-0.816365659236908,-0.10772167146205902
1789221671659648500,8.7896484375,-0.41607311367988586,-0.7857821583747864,0.010301639325916767
1789221671669727200,8.799727294921874,-0.4565390348434448,-0.7380183935165405,0.14673298597335815
1789221671679806500,8.809806396484374,-0.44554978609085083,-0.7259196639060974,0.22972214221954346
1789221671689886200,8.81988623046875,-0.4183080494403839,-0.7187778353691101,0.15533100068569183
1789221671699965400,8.82996533203125,-0.43103793263435364,-0.7966436147689819,0.0023313311394304037
1789221671710044400,8.84004443359375,-0.39289775490760803,-0.8258704543113708,-0.015988022089004517
1789221671720123400,8.850123291015626,-0.468924880027771,-0.7947860956192017,0.049253564327955246
1789221671730203400,8.860203369140624,-0.4156757593154907,-0.7504766583442688,0.1634368598461151
1789221671740282400,8.870282470703126,-0.41486483812332153,-0.7057573795318604,0.18830598890781403
1789221671750361300,8.880361328125,-0.43364331126213074,-0.7098232507705688,0.09269451349973679
1789221671760440300,8.8904404296875,-0.3967191278934479,-0.7429407238960266,-0.14609968662261963
1789221671770520600,8.9005205078125,-0.3710361421108246,-0.7525187730789185,-0.08267197757959366
1789221671780599300,8.910599365234376,-0.3520589768886566,-0.6777082085609436,0.13439881801605225
1789221671790678300,8.92067822265625,-0.37389689683914185,-0.6443499326705933,0.11212733387947083
1789221671800757500,8.930757568359375,-0.30977755784988403,-0.5766462683677673,0.04837232455611229
1789221671810837200,8.940837158203125,-0.3499138057231903,-0.5790636539459229,0.059128567576408386
1789221671820916500,8.95091650390625,-0.27475860714912415,-0.6072832942008972,0.2560940980911255
1789221671830995200,8.9609951171875,-0.2515278458595276,-0.6047016382217407,0.0553538016974926
1789221671841074400,8.971074462890625,-0.25301840901374817,-0.6145473122596741,-0.10221824795007706
1789221671851154400,8.981154541015625,-0.242084801197052,-0.5527758598327637,0.07984556257724762
1789221671861233400,8.9912333984375,-0.2220354676246643,-0.5391979813575745,0.04024196043610573
1789221671871312400,9.0013125,-0.23964960873126984,-0.5389907956123352,0.14279577136039734
1789221671881391400,9.011391357421875,-0.26223400235176086,-0.5363638401031494,0.10239215195178986
1789221671891471400,9.021471435546875,-0.266924113035202,-0.5619142055511475,-0.14482110738754272
1789221671901550300,9.03155029296875,-0.27768513560295105,-0.5527811646461487,0.0602758564054966
1789221671911629300,9.04162939453125,-0.2576480507850647,-0.5421428680419922,0.33317050337791443
1789221671921708300,9.051708251953125,-0.22034142911434174,-0.5548847913742065,0.1529962122440338
1789221671931788500,9.06178857421875,-0.1396481841802597,-0.6089080572128296,-0.012863866984844208
1789221671941867300,9.0718671875,-0.1363258808851242,-0.5870464444160461,-0.08442966639995575
1789221671951946500,9.081946533203125,-0.19827686250209808,-0.5778958201408386,-0.026007631793618202
1789221671962025500,9.092025390625,-0.1509980410337448,-0.4998779892921448,0.17739954590797424
1789221671972105200,9.102105224609375,-0.06483332812786102,-0.4954392910003662,0.36551061272621155
1789221671982184400,9.112184326171874,0.00740358792245388,-0.4699384868144989,0.2624177634716034
1789221671992263400,9.122263427734374,-0.07838668674230576,-0.5095183849334717,-0.015873238444328308
1789221672002342400,9.13234228515625,-0.09556913375854492,-0.4762229919433594,-0.1276695430278778
1789221672012422400,9.14242236328125,-0.08776713907718658,-0.4546109139919281,0.057801514863967896
1789221672022501400,9.15250146484375,-0.01793798804283142,-0.37319621443748474,0.24436552822589874
1789221672032580400,9.162580322265624,-0.02022537589073181,-0.32128456234931946,0.06371559947729111
1789221672042659300,9.172659423828126,0.01728125289082527,-0.30806276202201843,-0.13990384340286255
1789221672052739300,9.1827392578125,0.02852165699005127,-0.29483404755592346,0.04192188382148743
1789221672062818300,9.192818359375,0.013563479296863079,-0.26219725608825684,0.16874587535858154
1789221672072897500,9.2028974609375,0.03713884577155113,-0.2811965048313141,0.05618524178862572
1789221672082976300,9.212976318359376,0.03972211107611656,-0.2932281494140625,0.00395719101652503
1789221672093056500,9.223056396484376,0.037755101919174194,-0.2580517828464508,-0.09337788075208664
1789221672103135200,9.23313525390625,0.023962058126926422,-0.26049017906188965,-0.022962307557463646
1789221672113214500,9.24321435546875,0.06531855463981628,-0.19624194502830505,0.15717044472694397
1789221672123293400,9.25329345703125,0.06844057887792587,-0.18889428675174713,0.1610139161348343
1789221672133373200,9.263373291015625,0.13616688549518585,-0.15430568158626556,-0.006188920233398676
1789221672143452400,9.273452392578125,0.16131804883480072,-0.1783044934272766,-0.041910432279109955
1789221672153531400,9.283531494140625,0.18702474236488342,-0.1322573721408844,0.0062275356613099575
1789221672163610000,9.293610107421875,0.1961500644683838,-0.13706570863723755,0.011858523823320866
1789221672173690400,9.3036904296875,0.21298258006572723,-0.0961366519331932,0.15661543607711792
1789221672183769300,9.313769287109375,0.16882097721099854,-0.0462292805314064,0.10289149731397629
1789221672193848300,9.323848388671875,0.2173997014760971,-0.02166161872446537,0.004366785287857056
1789221672203927300,9.33392724609375,0.2899993360042572,-0.03332093730568886,0.10261213034391403
1789221672214007300,9.34400732421875,0.2700575888156891,-0.01685408130288124,-0.005077582783997059
1789221672224086300,9.354086181640625,0.34071630239486694,-0.04255065694451332,-0.004786232952028513
1789221672234165500,9.36416552734375,0.2943735718727112,0.01925811730325222,0.05435618385672569
1789221672244244200,9.374244140625,0.3471800684928894,0.06265406310558319,0.17442239820957184
1789221672254324500,9.384324462890625,0.37024515867233276,0.12804238498210907,0.10045177489519119
1789221672264403500,9.394403564453125,0.3471217453479767,0.18112850189208984,-0.14290522038936615
1789221672274482200,9.404482177734375,0.43003180623054504,0.21888414025306702,0.13979332149028778
1789221672284561400,9.4145615234375,0.4273766279220581,0.2646028995513916,0.40498051047325134
1789221672294641200,9.42464111328125,0.3966682553291321,0.29342254996299744,0.2098855823278427
1789221672304720400,9.434720458984375,0.484167218208313,0.2798367142677307,-0.1685788929462433
1789221672314799400,9.44479931640625,0.46001100540161133,0.2990034818649292,-0.18433229625225067
1789221672324878300,9.45487841796875,0.44767072796821594,0.3546387851238251,0.05570134520530701
1789221672334958300,9.464958251953124,0.5007973313331604,0.40261536836624146,0.053530603647232056
1789221672345037300,9.475037353515624,0.5342136025428772,0.4419712722301483,-0.014932876452803612
1789221672355116300,9.4851162109375,0.5099143981933594,0.49866944551467896,-0.010694722644984722
1789221672365195300,9.4951953125,0.5589386820793152,0.508237898349762,0.10392746329307556
1789221672375275300,9.505275146484376,0.5359355807304382,0.5311184525489807,-0.023563116788864136
1789221672385354200,9.515354248046876,0.6253954172134399,0.5304409861564636,-0.092640720307827
1789221672395433500,9.52543359375,0.6306029558181763,0.5772361755371094,0.11052997410297394
1789221672405512400,9.535512451171876,0.5882411599159241,0.6061362624168396,-0.01854039542376995
1789221672415592400,9.545592529296876,0.6245594620704651,0.6122676730155945,-0.13303129374980927
1789221672425671400,9.55567138671875,0.6634983420372009,0.6588716506958008,0.1794523149728775
1789221672435750100,9.565750244140625,0.6061687469482422,0.6839290857315063,0.10198654979467392
1789221672445829400,9.575829345703125,0.6398550868034363,0.6351907849311829,-0.13781511783599854
1789221672455909400,9.585909423828125,0.6890934705734253,0.6888077259063721,0.01489292923361063
1789221672465988400,9.59598828125,0.6645388603210449,0.7103968858718872,0.0927634909749031
1789221672476067300,9.6060673828125,0.7053129076957703,0.7346641421318054,-0.10428965091705322
1789221672486146600,9.616146484375,0.6901933550834656,0.766150176525116,0.03045297972857952
1789221672496226300,9.626226318359375,0.6397759914398193,0.7884823679924011,0.32788679003715515
1789221672506305500,9.636305419921875,0.6703442931175232,0.7766848206520081,0.14547143876552582
1789221672516384300,9.64638427734375,0.6514413952827454,0.7528226375579834,-0.23334351181983948
1789221672526463200,9.656463134765625,0.6558742523193359,0.7655192613601685,-0.1771036684513092
1789221672536543500,9.66654345703125,0.682235836982727,0.8081258535385132,0.040098682045936584
1789221672546622200,9.676622314453125,0.6658123731613159,0.8128145933151245,0.06814869493246078
1789221672556701400,9.686701416015625,0.6270314455032349,0.8164684772491455,0.042747195810079575
1789221672566780400,9.696780517578125,0.6845914125442505,0.8304002285003662,0.11706457287073135
1789221672576860400,9.7068603515625,0.6201258301734924,0.8344663381576538,-0.06016773357987404
1789221672586939400,9.716939453125,0.522422730922699,0.8127235174179077,-0.2351187765598297
1789221672597018400,9.727018310546875,0.6775976419448853,0.7852740287780762,0.09484422206878662
1789221672607097300,9.737097412109375,0.6113978624343872,0.7923383712768555,0.06067932769656181
1789221672617177300,9.74717724609375,0.5783858299255371,0.7165852785110474,-0.06699767708778381
1789221672627256300,9.75725634765625,0.6071570515632629,0.7459617853164673,0.1432034969329834
1789221672637335300,9.767335205078124,0.5251287817955017,0.7699989676475525,0.11288979649543762
1789221672647414500,9.77741455078125,0.5483595132827759,0.745611846446991,0.03480085730552673
1789221672657494300,9.787494384765624,0.4959924519062042,0.7417784929275513,-0.060140833258628845
1789221672667573500,9.797573486328124,0.489624559879303,0.6976054310798645,-0.013521933928132057
1789221672677652500,9.807652587890624,0.47678253054618835,0.68314129114151,-0.010995925404131413
1789221672687731200,9.817731201171876,0.5177688598632812,0.6825330257415771,0.027245203033089638
1789221672697811500,9.8278115234375,0.43614456057548523,0.6925965547561646,0.08299794793128967
1789221672707890200,9.83789013671875,0.4757670760154724,0.6674307584762573,0.15765860676765442
1789221672717969400,9.847969482421876,0.531831681728363,0.7013461589813232,0.239059180021286
1789221672728048400,9.85804833984375,0.37850815057754517,0.676048755645752,-0.07721222937107086
1789221672738128400,9.86812841796875,0.4225027859210968,0.6934807300567627,-0.18475359678268433
1789221672748207400,9.878207275390626,0.43252184987068176,0.7256882190704346,-0.06990025192499161
1789221672758286300,9.888286376953126,0.4564596712589264,0.7007455825805664,0.3730020821094513
1789221672768365300,9.898365234375,0.4173434376716614,0.7275383472442627,0.31822696328163147
1789221672778445300,9.9084453125,0.36749812960624695,0.652508020401001,-0.05301341786980629
1789221672788524300,9.918524169921875,0.3670688271522522,0.6588814854621887,-0.1288519948720932
1789221672798603300,9.928603271484375,0.3381498157978058,0.6548492312431335,-0.09564849734306335
1789221672808682500,9.9386826171875,0.377094566822052,0.6351346373558044,0.15794995427131653
1789221672818762200,9.94876220703125,0.31798648834228516,0.6282447576522827,0.3100324273109436
1789221672828841500,9.958841552734375,0.3434372544288635,0.6349790692329407,0.24270930886268616
1789221672838920400,9.96892041015625,0.23578590154647827,0.6203213334083557,-0.21646812558174133
1789221672848999200,9.978999267578125,0.22421233355998993,0.6099696159362793,-0.21527715027332306
1789221672859079400,9.989079345703125,0.23580320179462433,0.6003957986831665,0.08080430328845978
1789221672869158100,9.999158203125,0.1835610419511795,0.5179278254508972,0.19217316806316376
1789221672879237400,10.0092373046875,0.1653362363576889,0.45283085107803345,0.194282665848732
1789221672889316400,10.01931640625,0.08041468262672424,0.41216224431991577,0.027992751449346542
1789221672899396400,10.029396240234375,0.06381306797266006,0.3390166759490967,-0.10394397377967834
1789221672909475300,10.039475341796875,0.07313759624958038,0.3055058419704437,0.10635653138160706
1789221672919554300,10.04955419921875,0.04555629938840866,0.2892744243144989,0.22285091876983643
1789221672929633300,10.05963330078125,-0.018936140462756157,0.22695991396903992,-0.03400110825896263
1789221672939713300,10.06971337890625,-0.03981718793511391,0.20161087810993195,-0.028267323970794678
1789221672949792500,10.07979248046875,-0.06321865320205688,0.19860151410102844,0.07359858602285385
1789221672959871200,10.089871337890624,-0.05942950397729874,0.12795770168304443,0.07051064819097519
1789221672969950500,10.099950439453124,-0.12211525440216064,0.07980774343013763,0.025248898193240166
1789221672980030200,10.1100302734375,-0.18165874481201172,0.019959859549999237,-0.09505487978458405
1789221672990109400,10.120109375,-0.14553296566009521,-0.030184267088770866,0.05031856521964073
1789221673000188400,10.1301884765625,-0.19699536263942719,-0.05806836113333702,0.07110320776700974
1789221673010268400,10.140268310546874,-0.21810144186019897,-0.0738060474395752,-0.00839907769113779
1789221673020347400,10.150347412109374,-0.22339341044425964,-0.08812133967876434,-0.06444264203310013
1789221673030426400,10.16042626953125,-0.26807114481925964,-0.1255856156349182,-0.06113952025771141
1789221673040505300,10.17050537109375,-0.23220235109329224,-0.1347053498029709,0.041012149304151535
1789221673050584300,10.180584228515626,-0.3364240825176239,-0.1912120282649994,-0.06341013312339783
1789221673060664300,10.190664306640626,-0.3060339689254761,-0.235097736120224,0.03778572753071785
1789221673070743300,10.200743408203126,-0.3236241340637207,-0.2573641538619995,0.18734006583690643
1789221673080822300,10.210822265625,-0.3745405673980713,-0.275703489780426,-0.09263672679662704
1789221673090901200,10.2209013671875,-0.33768004179000854,-0.32060784101486206,-0.18454641103744507
1789221673100981200,10.230981201171875,-0.3892372250556946,-0.30174148082733154,-0.06932288408279419
1789221673111060500,10.241060546875,-0.3986440598964691,-0.3306191861629486,-0.03683258220553398
1789221673121139200,10.25113916015625,-0.4051602780818939,-0.37039509415626526,0.0009970874525606632
1789221673131219500,10.261219482421875,-0.3830256760120392,-0.35630112886428833,0.03271480277180672
1789221673141298200,10.271298095703125,-0.43665561079978943,-0.3999439477920532,-0.029195701703429222
1789221673151376600,10.281376708984375,-0.38717567920684814,-0.4452480375766754,-0.03226499632000923
1789221673161455900,10.291455810546875,-0.4378527104854584,-0.4513714611530304,-0.028620725497603416
1789221673171535600,10.30153564453125,-0.4216947853565216,-0.4964267909526825,-0.07273013144731522
1789221673181614800,10.31161474609375,-0.42971035838127136,-0.503520667552948,-0.07731076329946518
1789221673191693800,10.32169384765625,-0.4128405749797821,-0.48975610733032227,0.0399697870016098
1789221673201773000,10.33177294921875,-0.4348055124282837,-0.5017131567001343,-0.10707052797079086
1789221673211852800,10.341852783203125,-0.42436566948890686,-0.5247284770011902,-0.08545098453760147
1789221673221932000,10.35193212890625,-0.43334585428237915,-0.5110083818435669,0.020111659541726112
1789221673232010800,10.3620107421875,-0.4313926696777344,-0.5549787878990173,0.07697734236717224
1789221673242089700,10.37208984375,-0.3790024518966675,-0.5616801381111145,0.12885092198848724
1789221673252169700,10.382169677734375,-0.40610170364379883,-0.5377191305160522,0.06611963361501694
1789221673262248700,10.392248779296875,-0.4007892310619354,-0.547595202922821,-0.009017730131745338
1789221673272328000,10.402327880859374,-0.34060871601104736,-0.4911383092403412,-0.17298296093940735
1789221673282407000,10.412406982421874,-0.36836472153663635,-0.4460291564464569,-0.3464895188808441
1789221673292487000,10.42248681640625,-0.36866724491119385,-0.39981743693351746,-0.2655762732028961
1789221673302566000,10.43256591796875,-0.31206175684928894,-0.3633979260921478,0.10600925981998444
1789221673312644600,10.44264453125,-0.29896458983421326,-0.38400784134864807,0.3993905484676361
1789221673322723800,10.452723876953126,-0.3379881680011749,-0.40044382214546204,0.05194975063204765
1789221673332803800,10.462803955078124,-0.37449130415916443,-0.47888830304145813,-0.42000019550323486
1789221673342882800,10.4728828125,-0.27637138962745667,-0.38503795862197876,-0.20406419038772583
1789221673352961800,10.4829619140625,-0.3022964894771576,-0.38353222608566284,-0.03376755118370056
1789221673363041000,10.493041015625,-0.22013849020004272,-0.37484070658683777,0.013637248426675797
1789221673373120800,10.503120849609376,-0.204016774892807,-0.2954297959804535,-0.050880223512649536
1789221673383200000,10.513199951171876,-0.24415647983551025,-0.2953498959541321,-0.16371463239192963
1789221673393278700,10.52327880859375,-0.19145092368125916,-0.19547681510448456,-0.19791148602962494
1789221673403357700,10.533357666015625,-0.2775977849960327,-0.11667628586292267,-0.11464589089155197
1789221673413438000,10.54343798828125,-0.17660114169120789,-0.2381334751844406,0.4862101078033447
1789221673423516700,10.5535166015625,-0.08219233900308609,-0.23054292798042297,0.4493248164653778
1789221673433596000,10.563595947265625,-0.2145807445049286,-0.1840236335992813,0.07783380895853043
1789221673443675000,10.5736748046875,-0.22380167245864868,-0.18231947720050812,-0.30354470014572144
1789221673453755000,10.5837548828125,-0.0441908985376358,-0.15622608363628387,-0.17953993380069733
1789221673463833900,10.593833740234375,-0.043411657214164734,-0.11191108822822571,-0.3521591126918793
1789221673473912800,10.603912841796875,-0.14702992141246796,-0.15905089676380157,-0.31604665517807007
1789221673483991800,10.61399169921875,-0.17882300913333893,-0.10463213920593262,0.032217323780059814
1789221673494071800,10.62407177734375,-0.10248535871505737,-0.04873131960630417,0.05507070943713188
1789221673504150800,10.63415087890625,-0.1330009251832962,-0.1345796436071396,0.23805996775627136
1789221673514229800,10.644229736328125,-0.011838549748063087,-0.03544454276561737,0.34252166748046875
1789221673524309000,10.65430908203125,0.005560946650803089,-0.01654488779604435,0.13060647249221802
1789221673534388700,10.664388671875,-0.011204184964299202,-0.10159160196781158,-0.3518858551979065
1789221673544468000,10.674468017578125,0.03822248801589012,-0.05976879224181175,-0.4552290439605713
1789221673554547000,10.684546875,0.02413969114422798,-0.0036874127108603716,-0.18582366406917572
1789221673564625700,10.694625732421875,0.014823420904576778,0.013559751212596893,0.10974034667015076
1789221673574706000,10.704705810546875,0.009767143055796623,0.02106027863919735,-0.022532206028699875
1789221673584784600,10.71478466796875,-0.04045155271887779,-0.006822485942393541,0.000011984225238848012
1789221673594863900,10.72486376953125,-0.03032461553812027,-0.024834509938955307,0.19095930457115173
1789221673604942800,10.73494287109375,-0.02141501009464264,-0.04144864156842232,-0.04422631859779358
1789221673615022800,10.74502294921875,-0.05283711478114128,-0.13094310462474823,-0.2761934995651245
1789221673625101800,10.755101806640624,0.021352693438529968,-0.09422770142555237,-0.18988844752311707
1789221673635181000,10.76518115234375,-0.029111012816429138,-0.08569599688053131,-0.18213118612766266
1789221673645259800,10.775259765625,-0.06415794789791107,-0.10535278916358948,-0.11839721351861954
1789221673655340000,10.785340087890624,0.021811023354530334,-0.12406282871961594,0.3104289770126343
1789221673665418800,10.795418701171876,-0.034339599311351776,-0.11633353680372238,0.2763764560222626
1789221673675497700,10.805497802734376,-0.14228923618793488,-0.18549290299415588,-0.14229989051818848
1789221673685577000,10.815576904296876,-0.08175584673881531,-0.1992824822664261,-0.2088695913553238
1789221673695656700,10.82565673828125,-0.05072629451751709,-0.19567203521728516,0.003096190979704261
1789221673705736000,10.83573583984375,-0.050696201622486115,-0.1826678216457367,0.01506896410137415
1789221673715815000,10.84581494140625,-0.08620412647724152,-0.19876928627490997,-0.24031326174736023
1789221673725893600,10.8558935546875,-0.07371310144662857,-0.2304806113243103,-0.13644705712795258
1789221673735974000,10.865973876953126,-0.0698896050453186,-0.16609762609004974,0.12184175103902817
1789221673746052900,10.876052978515625,-0.14251533150672913,-0.2538469135761261,0.05324484407901764
1789221673756131800,10.8861318359375,-0.13035374879837036,-0.2652881145477295,0.01587989740073681
1789221673766210800,10.8962109375,-0.15542447566986084,-0.24782125651836395,0.22172920405864716
1789221673776290800,10.906290771484375,-0.10576797276735306,-0.23851563036441803,0.17436274886131287
1789221673786369800,10.916369873046875,-0.07545960694551468,-0.258482962846756,-0.030919833108782768
1789221673796449000,10.926448974609375,-0.07628864794969559,-0.24230052530765533,-0.16933682560920715
1789221673806528800,10.93652880859375,-0.05877756327390671,-0.21403533220291138,-0.08795329183340073
1789221673816608000,10.94660791015625,-0.06278455257415771,-0.1877957284450531,0.006382531952112913
1789221673826687000,10.95668701171875,-0.0464005209505558,-0.15133492648601532,0.08323097229003906
1789221673836765700,10.966765625,-0.0911506786942482,-0.13880768418312073,-0.04693235456943512
1789221673846846000,10.976845947265625,-0.13731737434864044,-0.18419460952281952,-0.06551456451416016
1789221673856924700,10.986924560546875,-0.03080025687813759,-0.1541549414396286,0.11801105737686157
1789221673867004000,10.99700390625,-0.12344817072153091,-0.19876688718795776,0.10788465291261673
1789221673877083000,11.007082763671875,-0.03385916352272034,-0.20191527903079987,-0.0020303940400481224
1789221673887163000,11.017162841796875,0.025014007464051247,-0.18900826573371887,0.12595020234584808
1789221673897241900,11.027241943359375,-0.017740115523338318,-0.15579038858413696,0.024095483124256134
1789221673907320800,11.03732080078125,0.030173880979418755,-0.17823338508605957,0.11342988908290863
1789221673917399800,11.04739990234375,0.009216401726007462,-0.1039719358086586,0.059111788868904114
1789221673927479800,11.057479736328125,-0.07439354062080383,-0.0862581878900528,-0.3763970732688904
1789221673937558800,11.067558837890624,-0.01992017775774002,-0.14705681800842285,-0.10740847885608673
1789221673947637800,11.0776376953125,0.11035420745611191,-0.09616408497095108,0.5174378156661987
1789221673957717000,11.087717041015624,0.07051544636487961,-0.09815532714128494,0.41721880435943604
1789221673967796700,11.097796630859374,0.0508570559322834,-0.11730451881885529,0.13874615728855133
1789221673977876000,11.1078759765625,0.046234872192144394,-0.09126733243465424,-0.2409183382987976
1789221673987955000,11.117954833984374,0.02400200627744198,-0.07632672786712646,-0.49731123447418213
1789221673998033700,11.12803369140625,0.05210874229669571,-0.07310803234577179,-0.05495725944638252
1789221674008114000,11.138114013671874,0.09354326874017715,0.028199946507811546,0.24723482131958008
1789221674018193000,11.14819287109375,0.11202800273895264,0.013109942898154259,0.08574393391609192
1789221674028271900,11.15827197265625,0.11079229414463043,0.03722672909498215,0.15898911654949188
1789221674038350800,11.168350830078126,0.14924274384975433,0.02352316863834858,0.0968538448214531
1789221674048430800,11.178430908203126,0.0931382030248642,0.0044288369826972485,-0.23358452320098877
1789221674058509800,11.188509765625,0.10066003352403641,0.01678776927292347,-0.05711149051785469
1789221674068588800,11.1985888671875,0.16185787320137024,0.07153650373220444,0.24810567498207092
1789221674078667800,11.208667724609375,0.12118927389383316,0.08004796504974365,-0.02888704091310501
1789221674088747800,11.218747802734375,0.19125331938266754,0.054360974580049515,-0.12361275404691696
1789221674098827000,11.228826904296875,0.20009315013885498,0.10493600368499756,0.007737281732261181
1789221674108905700,11.23890576171875,0.1803886890411377,0.11566933989524841,-0.11978978663682938
1789221674118985000,11.24898486328125,0.2519150674343109,0.14737772941589355,0.10212503373622894
1789221674129064700,11.259064697265625,0.22496946156024933,0.2292182743549347,0.24280598759651184
1789221674139144000,11.26914404296875,0.23484472930431366,0.2024276703596115,0.0834360346198082
1789221674149223700,11.2792236328125,0.2487911731004715,0.20151767134666443,-0.12869885563850403
1789221674159303700,11.2893037109375,0.25625309348106384,0.17516808211803436,-0.12052774429321289
1789221674169382700,11.299382568359375,0.33749014139175415,0.1782751977443695,0.12894652783870697
1789221674179461400,11.30946142578125,0.2466806173324585,0.16843055188655853,-0.01745808683335781
1789221674189540600,11.31954052734375,0.37750282883644104,0.18923810124397278,-0.024657942354679108
1789221674199620600,11.32962060546875,0.32037773728370667,0.23598189651966095,0.033678602427244186
1789221674209699600,11.339699462890625,0.3688336908817291,0.28832605481147766,0.021765217185020447
1789221674219778600,11.349778564453125,0.3805457353591919,0.370931476354599,0.04748868942260742
1789221674229857800,11.35985791015625,0.3671950399875641,0.3865663409233093,0.30110791325569153
1789221674239937500,11.3699375,0.5261785984039307,0.4159817695617676,0.4150161147117615
1789221674250016800,11.380016845703125,0.3873482644557953,0.4196965992450714,0.0549604557454586
1789221674260095500,11.390095458984375,0.3232600688934326,0.3303736448287964,-0.31466740369796753
1789221674270174500,11.400174560546875,0.42506662011146545,0.35655277967453003,-0.03765283524990082
1789221674280254700,11.410254638671875,0.375601589679718,0.3809491991996765,-0.0797044187784195
1789221674290333400,11.42033349609375,0.4012203812599182,0.3574303090572357,-0.1825258731842041
1789221674300412700,11.43041259765625,0.4310334324836731,0.38320037722587585,0.07320896536111832
1789221674310491600,11.44049169921875,0.38684704899787903,0.4201453626155853,0.24823004007339478
1789221674320571600,11.450571533203124,0.43152371048927307,0.444234699010849,0.24931874871253967
1789221674330650600,11.460650634765624,0.36353906989097595,0.4537070393562317,-0.18709158897399902
1789221674340729600,11.4707294921875,0.48071494698524475,0.48549026250839233,-0.3087594509124756
1789221674350808600,11.48080859375,0.4383469820022583,0.5653715133666992,-0.28158533573150635
1789221674360888600,11.490888671875,0.444797158241272,0.4942336976528168,-0.057317085564136505
1789221674370967600,11.500967529296876,0.3966978192329407,0.49709552526474,0.1112879067659378
1789221674381046500,11.511046630859376,0.4033690392971039,0.49247947335243225,0.030526749789714813
1789221674391126500,11.52112646484375,0.3446255624294281,0.5047537088394165,-0.11252334713935852
1789221674401205500,11.53120556640625,0.4583262801170349,0.5304707884788513,0.10864631831645966
1789221674411284700,11.54128466796875,0.4766909182071686,0.571064829826355,0.1213993951678276
1789221674421363700,11.55136376953125,0.396041601896286,0.5700376629829407,-0.2293354570865631
1789221674431443700,11.561443603515626,0.5321243405342102,0.5510618090629578,0.14965873956680298
1789221674441522700,11.571522705078126,0.48173707723617554,0.6254910230636597,0.24847079813480377
1789221674451601400,11.581601318359375,0.4028065800666809,0.5574142336845398,-0.11396944522857666
1789221674461680600,11.5916806640625,0.43491604924201965,0.6079993844032288,0.08747578412294388
1789221674471760400,11.601760498046875,0.4184284210205078,0.5741530060768127,0.07485000789165497
1789221674481839600,11.611839599609375,0.48866501450538635,0.5597946047782898,-0.009007076732814312
1789221674491918600,11.621918701171875,0.4224415421485901,0.5602808594703674,0.025081384927034378
1789221674501997600,11.63199755859375,0.5159264802932739,0.5752627849578857,0.2544908821582794
1789221674512077600,11.64207763671875,0.49822577834129333,0.6123166680335999,0.37034371495246887
1789221674522156500,11.652156494140625,0.40690410137176514,0.6677170395851135,0.13799621164798737
1789221674532235500,11.662235595703125,0.44798603653907776,0.5924500226974487,-0.22178219258785248
1789221674542315500,11.6723154296875,0.45049339532852173,0.6054614186286926,-0.4230647087097168
1789221674552394800,11.682394775390625,0.4278267025947571,0.6040387749671936,-0.5186524987220764
1789221674562473500,11.692473388671875,0.4291417598724365,0.6124335527420044,0.02828277088701725
1789221674572552700,11.702552734375,0.5376016497612,0.6780011057853699,0.5013427138328552
1789221674582632400,11.712632568359375,0.44888031482696533,0.6815103888511658,0.5170844197273254
1789221674592711700,11.722711669921875,0.44306159019470215,0.7068564891815186,0.25507116317749023
1789221674602790700,11.732790771484375,0.479461669921875,0.7260189652442932,-0.13558392226696014
1789221674612869400,11.742869384765624,0.47521552443504333,0.7158603668212891,-0.30227622389793396
1789221674622949600,11.75294970703125,0.5041835308074951,0.7279353737831116,-0.20291449129581451
1789221674633028600,11.763028564453125,0.5144430994987488,0.720045268535614,0.09654278308153152
1789221674643107600,11.773107666015624,0.5533044934272766,0.7635117769241333,0.4007932245731354
1789221674653186600,11.7831865234375,0.4584141671657562,0.8729090690612793,0.2320132553577423
1789221674663266600,11.7932666015625,0.3709985911846161,0.8091477155685425,-0.16403287649154663
1789221674673345500,11.803345458984374,0.5492308735847473,0.7751351594924927,0.15976889431476593
1789221674683424500,11.813424560546874,0.609920859336853,0.8438745141029358,0.3216661810874939
1789221674693503700,11.823503662109376,0.43357327580451965,0.8462319374084473,-0.3449459373950958
1789221674703583500,11.83358349609375,0.3620777726173401,0.769214928150177,-0.6717669367790222
1789221674713662700,11.843662841796874,0.43436184525489807,0.7729470729827881,-0.3368232846260071
1789221674723741400,11.853741455078126,0.550733208656311,0.7378777861595154,0.28939372301101685
1789221674733821700,11.86382177734375,0.6045207977294922,0.7878013849258423,0.4700543284416199
1789221674743900400,11.873900390625,0.328939288854599,0.851331353187561,0.08150338381528854
1789221674753979600,11.883979736328126,0.30129274725914,0.7412059307098389,0.11116167157888412
1789221674764058600,11.89405859375,0.5606617331504822,0.694871723651886,0.4396793842315674
1789221674774138600,11.904138671875,0.5491361021995544,0.8295573592185974,0.34108221530914307
1789221674784217600,11.914217529296875,0.3517415225505829,0.8841279149055481,-0.6581754684448242
1789221674794296600,11.924296630859375,0.1854151338338852,0.7921718955039978,-0.7416442632675171
1789221674804375600,11.93437548828125,0.41864171624183655,0.7053959965705872,0.17218321561813354
1789221674814455600,11.94445556640625,0.463133305311203,0.7352606654167175,0.48656752705574036
1789221674824534500,11.954534423828125,0.25145992636680603,0.6174507141113281,0.5123152136802673
1789221674834613500,11.964613525390625,0.1899867206811905,0.6391969919204712,0.6371724605560303
1789221674844692500,11.9746923828125,0.2967680096626282,0.701747477054596,0.42276591062545776
1789221674854772500,11.9847724609375,0.19090816378593445,0.6144698262214661,0.006114617921411991
1789221674864851500,11.9948515625,0.2650710940361023,0.6226153373718262,0.11529756337404251
1789221674874930700,12.0049306640625,0.1494787037372589,0.6372571587562561,0.10055243968963623
1789221674885010400,12.015010498046875,0.10577996075153351,0.5518522262573242,0.24435248970985413
1789221674895089700,12.025089599609375,0.09951061010360718,0.5574025511741638,0.154141366481781
1789221674905168600,12.035168701171875,0.06894657760858536,0.5470508337020874,-0.058693140745162964
1789221674915247600,12.04524755859375,0.07654723525047302,0.5522986054420471,0.028596490621566772
1789221674925327600,12.05532763671875,0.0534224770963192,0.5246999859809875,0.11912079900503159
1789221674935406600,12.065406494140625,0.11608825623989105,0.546040415763855,0.25572603940963745
1789221674945485600,12.075485595703125,0.015528892166912556,0.5651986598968506,0.4459620416164398
1789221674955564500,12.085564453125,0.08479318767786026,0.563967227935791,0.3570539951324463
1789221674965644500,12.09564453125,-0.04892706125974655,0.5565671324729919,-0.13253913819789886
1789221674975723500,12.1057236328125,-0.018385931849479675,0.5006012916564941,-0.001198688754811883
1789221674985802800,12.115802734375,0.08403338491916656,0.5417934656143188,-0.021044299006462097
1789221674995881500,12.125881591796874,-0.07117457687854767,0.3932673931121826,0.0453680157661438
1789221675005961700,12.135961669921874,-0.00987313687801361,0.3499548137187958,0.7036178112030029
1789221675016040400,12.14604052734375,-0.04699813574552536,0.35015934705734253,0.9265155792236328
1789221675026119400,12.156119384765624,-0.05357135087251663,0.39778703451156616,0.5485525727272034
1789221675036199700,12.16619970703125,-0.11120002716779709,0.4513980746269226,0.06709275394678116
1789221675046278400,12.1762783203125,-0.22507359087467194,0.4261148273944855,-0.3965875506401062
1789221675056357600,12.186357666015626,-0.21714936196804047,0.5083918571472168,-0.3604881465435028
1789221675066436600,12.1964365234375,-0.07521113008260727,0.4052004814147949,0.18025100231170654
1789221675076516600,12.2065166015625,-0.07968417555093765,0.3429882526397705,0.5478194355964661
1789221675086595600,12.216595703125,-0.2743071913719177,0.2553497552871704,0.5984189510345459
1789221675096674600,12.226674560546876,-0.2959432303905487,0.2846575677394867,0.42723867297172546
1789221675106753500,12.23675341796875,-0.309634804725647,0.21775655448436737,-0.06763310730457306
1789221675116833800,12.246833740234376,-0.29778003692626953,0.2755495607852936,-0.23113174736499786
1789221675126912500,12.25691259765625,-0.3443232774734497,0.26832467317581177,-0.17201490700244904
1789221675136991500,12.266991455078125,-0.2988586127758026,0.052070923149585724,0.3796085715293884
1789221675147071500,12.277071533203125,-0.2457120269536972,-0.06055096164345741,0.7677475214004517
1789221675157150000,12.28714990234375,-0.43493202328681946,-0.03910692408680916,0.5751327872276306
1789221675167229200,12.297229248046875,-0.5860480070114136,-0.12011761963367462,0.09214537590742111
1789221675177308200,12.30730810546875,-0.5459496378898621,-0.06205085292458534,-0.27560147643089294
1789221675187388200,12.31738818359375,-0.4647575616836548,-0.1318613588809967,-0.09248146414756775
1789221675197467100,12.327467041015625,-0.3593376576900482,-0.20199570059776306,0.5235042572021484
