time,seconds_elapsed,z,y,x
1789224566112682200,0.05168212890625,8.742427362060546,4.09872360458374,-1.0886135673522948
1789224566122720500,0.061720458984375,8.768165029907227,4.078223252868652,-1.0770914718627929
1789224566132758300,0.07175830078125,8.779687125396729,4.0812160049438475,-1.0136451278686522
1789224566142795300,0.081795166015625,8.801234940338134,4.05398196105957,-0.9527426231384277
1789224566152833500,0.09183349609375,8.749909242248535,4.058171813964844,-0.9290998817443847
1789224566162871300,0.101871337890625,8.775646910095213,4.089595710754394,-0.9334393722534179
1789224566172908300,0.111908203125,8.853458464050293,4.180276098632812,-0.9439140045166015
1789224566182946600,0.121946533203125,8.902838873291016,4.263175331115723,-0.9458592933654785
1789224566192983300,0.1319833984375,8.945036677551268,4.266018445587158,-0.8400655075073241
1789224566203021600,0.142021484375,8.921244298553466,4.284573508453369,-0.7059902145385741
1789224566213059300,0.152059326171875,8.820238916015624,4.251353960418701,-0.60648120803833
1789224566223096300,0.162096435546875,8.83041427307129,4.228758682250977,-0.5138555313110351
1789224566233134600,0.172134521484375,9.114725720214842,4.211699995422363,-0.26261399459838863
1789224566243172400,0.18217236328125,9.469067565917967,4.19449167098999,-0.08783727340698241
1789224566253209300,0.192209228515625,9.766846397399902,4.505438611602783,-0.19318214645385742
1789224566263247600,0.20224755859375,9.837176071166992,4.633229125213623,-0.36960488128662106
1789224566273284400,0.212284423828125,9.70459715423584,4.420294815063476,-0.4478653480529785
1789224566283322400,0.222322265625,9.437942944335937,4.30926371307373,-0.565031591796875
1789224566293360400,0.2323603515625,9.18056626586914,4.288314448547363,-0.7498340324401855
1789224566303397400,0.2423974609375,9.000701866149901,4.291756113433838,-0.956333925628662
1789224566313435400,0.252435302734375,8.96344210281372,4.434061474609375,-0.9509469718933105
1789224566323473400,0.262473388671875,9.079560883331299,4.9075148529052735,-0.30690672531127927
1789224566333510400,0.272510498046875,9.344419441986084,5.7882817886352536,1.2376526206970213
1789224566343548400,0.28254833984375,9.30850641708374,5.725433995056152,1.7515081520080564
1789224566353585400,0.29258544921875,9.018209465789795,5.719149215698242,1.607556777191162
1789224566363623400,0.30262353515625,8.805275155639649,6.000767185974121,1.3654431343078612
1789224566373661400,0.312661376953125,8.63812995223999,6.077531276702881,0.9056067779541015
1789224566383698400,0.322698486328125,8.438214113616944,5.974580605316162,0.40880993347167965
1789224566393736400,0.332736328125,8.48490104598999,5.9498904006958,0.10788871231079102
1789224566403774500,0.3427744140625,8.467094171142577,5.983558861541748,-0.21742343826293944
1789224566413811500,0.3528115234375,8.372672843170166,5.982511398315429,-0.4878185882568359
1789224566423849500,0.362849365234375,8.2743609375,5.971587853240966,-0.6640916854858399
1789224566433886500,0.372886474609375,8.041524826049804,5.862502040100098,-0.9744400756835937
1789224566443924500,0.382924560546875,8.130559200286864,5.786935050201416,-1.388636962890625
1789224566453962200,0.392962158203125,7.6753616096496575,5.774515129089355,-1.8180968856811521
1789224566463999500,0.40299951171875,7.491606632232665,5.596446380615234,-2.2035633529663086
1789224566474037500,0.41303759765625,7.936778503417968,5.504568891906738,-2.6759692680358884
1789224566484075300,0.4230751953125,6.9816416786193845,5.410596476745605,-2.722805838012695
1789224566494112500,0.433112548828125,6.268768134307861,5.1425955284118645,-2.430563597869873
1789224566504150300,0.443150390625,6.76765990524292,5.948394024658203,-2.3190835830688474
1789224566514188500,0.4531884765625,7.363965756225586,5.978171907806396,-2.4961048683166505
1789224566524225500,0.4632255859375,7.383867557525634,5.414487054443359,-2.607435245513916
1789224566534263300,0.47326318359375,7.167641220092773,5.848735380554199,-2.523787825012207
1789224566544300300,0.48330029296875,6.962936978149414,6.485443384552002,-2.683151873016357
1789224566554338600,0.493338623046875,6.788459532165527,6.463895569610595,-2.68779063873291
1789224566564376300,0.503376220703125,6.833201175689696,6.327575712585449,-2.5516204193115235
1789224566574413600,0.51341357421875,7.200711130523681,6.207715991973877,-2.6431986328124997
1789224566584451300,0.523451416015625,7.356483876037597,6.027402679443359,-2.762459803009033
1789224566594489300,0.5334892578125,7.3374799003601066,5.8536734214782715,-2.7834090675354
1789224566604526600,0.543526611328125,7.4185834815979,5.757606079864502,-2.758718862915039
1789224566614564400,0.553564453125,7.756315553283691,5.7040358177185055,-2.7442040153503418
1789224566624602400,0.563602294921875,7.92944626083374,5.675006122589111,-2.8024130432128906
1789224566634639600,0.5736396484375,8.002020498657226,5.672013370513915,-2.8407202697753906
1789224566644677400,0.583677490234375,7.836820584106444,5.553650025939941,-2.816030065155029
1789224566654715600,0.593715576171875,8.388085516357421,5.361814617919921,-3.05185892868042
1789224566664752400,0.60375244140625,8.579322373962402,5.462820000457763,-3.3008559013366696
1789224566674790400,0.613790283203125,8.60595786743164,5.51594134979248,-3.303100465393066
1789224566684827400,0.623827392578125,8.670900587463379,5.436783057403564,-3.0674212394714355
1789224566694865400,0.633865478515625,8.01189658050537,5.308393993377686,-2.797624639892578
1789224566704903400,0.6439033203125,8.079981690216064,5.54167901763916,-2.900575311279297
1789224566714940400,0.6539404296875,8.183530912017822,5.808482865142822,-3.093607820129394
1789224566724978400,0.663978515625,7.640496047973633,5.919663604736328,-3.26898309173584
1789224566735016400,0.674016357421875,7.249792264556884,5.925050558471679,-3.3487399345397946
1789224566745053400,0.684053466796875,7.054215916442871,5.848585742950439,-3.1501708343505856
1789224566755091500,0.694091552734375,6.975506536865234,5.600336958312988,-2.9501053581237793
1789224566765129700,0.704129638671875,6.711695441436767,5.603928260803222,-2.897283283996582
1789224566775166700,0.714166748046875,6.505045910644531,5.785588311767578,-2.8356325912475584
1789224566785204700,0.724204833984375,6.328323900604247,5.762843395996094,-2.5477298416137693
1789224566795242800,0.73424267578125,6.053439622497558,5.607369925689697,-2.2590789039611816
1789224566805279700,0.74427978515625,5.875670149230957,5.544372494506836,-2.1205144828796385
1789224566815317500,0.7543173828125,6.110301911926269,5.466860215759277,-2.0618565422058106
1789224566825355800,0.764355712890625,6.573729570770263,5.481823976135254,-1.901295393371582
1789224566835392800,0.774392822265625,7.019499992370605,5.4418707359313965,-1.575683967590332
1789224566845430500,0.784430419921875,7.46347476272583,5.26095887298584,-1.497722776031494
1789224566855468800,0.79446875,7.666682628631591,5.196465065765381,-1.5075988578796387
1789224566865505800,0.804505859375,7.596652230072021,5.058948107910156,-1.4474445411682129
1789224566875543800,0.814543701171875,7.67401487121582,5.0291702247619625,-1.5442600708007812
1789224566885581800,0.824581787109375,7.737311577606201,4.960187289428711,-1.663670878601074
1789224566895618600,0.83461865234375,7.622240260314941,4.932055419921875,-1.7444751846313475
1789224566905656800,0.84465673828125,7.53320588607788,4.837334816741943,-1.5277999343872068
1789224566915693800,0.85469384765625,7.600692445373535,4.601655590820312,-1.1563994018554686
1789224566925731600,0.864731689453125,7.746439471435546,4.335899206542969,-0.7918821990966797
1789224566935769900,0.874769775390625,7.591564551544189,4.012681982421875,-0.26231471939086914
1789224566945806800,0.884806884765625,7.43743781967163,3.8616976402282712,-0.014814122772216796
1789224566955844600,0.8948447265625,7.588571799468994,3.8304233810424804,-0.16864157943725586
1789224566965883000,0.9048828125,7.623437361145019,3.85616104888916,-0.24031799163818357
1789224566975919600,0.914919677734375,7.738359040832519,3.863792566680908,-0.2545335639953613
1789224566985957600,0.92495751953125,7.797765169525146,3.7391444427490232,-0.19722236175537108
1789224566995995600,0.93499560546875,7.720851441192626,3.524564118957519,0.34386721343994137
1789224567006032600,0.94503271484375,7.684040590667724,3.596390168762207,0.9437643669128417
1789224567016070700,0.955070556640625,7.805995237731933,3.565115909576416,1.4770727867126463
1789224567026108700,0.965108642578125,7.760655043792724,3.483862690734863,2.0205565635681153
1789224567036145700,0.975145751953125,7.798962270355224,3.5027170288085934,2.512864279937744
1789224567046184000,0.985183837890625,8.03194801940918,3.49224239654541,2.5561095474243163
1789224567056221700,0.9952216796875,7.974636817169189,3.4856583419799803,2.3910592704772946
1789224567066258700,1.0052587890625,7.593509840393066,3.5057097808837887,2.4741081405639647
1789224567076296700,1.015296630859375,7.415291454315185,3.540874617767334,2.5692776565551756
1789224567086334700,1.025334716796875,7.387608497619628,3.501071015167236,2.671180864715576
1789224567096371700,1.035371826171875,7.4108023262023925,3.3857004226684566,3.0687679779052734
1789224567106409700,1.04540966796875,7.711723547363281,3.285293590545654,3.902099793243408
1789224567116447700,1.05544775390625,8.660276317596436,3.13460852355957,4.657320779418945
1789224567126484700,1.065484619140625,9.805602536773682,3.4204163467407223,4.806958383178711
1789224567136522800,1.075522705078125,9.928604647064208,3.2986113372802732,4.959738376617431
1789224567146560800,1.085560791015625,9.966462960815429,3.496731524658203,4.6450504959106445
1789224567156597500,1.095597412109375,10.174309592437744,3.5863644493103024,4.242824617004394
1789224567166635800,1.1056357421875,10.215160658264159,3.4802713882446286,3.801244048309326
1789224567176673500,1.115673583984375,10.027515103149414,3.5878608253479003,3.70951619720459
1789224567186710800,1.125710693359375,9.536105212402344,3.2570120834350584,4.062810579681396
1789224567196748800,1.135748779296875,9.435548742675781,3.443610175323486,4.332457541656494
1789224567206786600,1.14578662109375,9.501987838745116,3.786429925537109,4.471919788360595
1789224567216823800,1.15582373046875,8.990676146697998,3.7982512962341306,4.414907861328125
1789224567226861800,1.16586181640625,8.481160105895995,3.8308722938537594,4.260182579040527
1789224567236899600,1.175899658203125,8.271068910217284,3.53698404006958,3.9214030441284176
1789224567246936800,1.185936767578125,7.968202400207519,3.5908535774230956,3.633500294494629
1789224567256974600,1.195974609375,7.566575071716308,3.3873464363098145,3.887584945678711
1789224567267012900,1.206012939453125,7.247697338104247,3.2185552192687985,4.3351510185241695
1789224567277049900,1.2160498046875,7.08055213470459,3.0980969482421874,4.642207381439209
1789224567287087600,1.226087646484375,6.907122151947021,2.854636566925049,4.996100314331055
1789224567297126000,1.2361259765625,6.806266407012939,2.853140190887451,4.995950676727294
1789224567307163000,1.246162841796875,7.00363840637207,2.646939572906494,4.472967251586914
1789224567317200600,1.25620068359375,7.131728195190429,2.296488304901123,3.9074867469787598
1789224567327239000,1.266239013671875,7.1854480949401855,1.9720739799499512,3.67749375
1789224567337275600,1.276275634765625,7.326257080078125,1.5685013626098632,3.6113539291381835
1789224567347313700,1.286313720703125,7.235427054595947,1.2662334030151365,3.5262101325988766
1789224567357351700,1.2963515625,6.9253779396057125,0.9427169036865234,3.6743513603210447
1789224567367388700,1.306388671875,7.227645899200439,1.0651204635620117,4.126855474090576
1789224567377426700,1.3164267578125,7.078906121063232,1.375169578552246,4.670189613342285
1789224567387464700,1.326464599609375,6.560411824035644,1.3956699302673339,4.998195240783691
1789224567397502700,1.336502685546875,6.396109735107421,1.5729904907226562,5.268141477966308
1789224567407539700,1.346539794921875,6.253954011535644,1.8659809188842773,5.323806666564941
1789224567417577700,1.35657763671875,6.172401517486572,1.8158523216247557,5.276820458984375
1789224567427615700,1.36661572265625,6.425438705444336,1.5469535476684568,5.31153638305664
1789224567437652700,1.37665283203125,6.564003126525878,1.2847884658813475,5.317222611999512
1789224567447690800,1.386690673828125,7.275230657196045,1.068711766052246,5.2919338569641114
1789224567457728500,1.396728515625,8.374468494415282,1.0069114356994628,5.715408275604248
1789224567467765800,1.406765869140625,8.290671436309815,1.3901333389282227,6.149506964111327
1789224567477803800,1.4168037109375,8.289923248291014,1.6234183631896972,6.565499502563476
1789224567487841500,1.426841552734375,8.773252708435058,1.6579846496582031,6.957101111602783
1789224567497878800,1.436878662109375,7.127837617492675,1.557128904724121,7.36112264175415
1789224567507916800,1.446916748046875,7.659948936462402,1.3911808021545409,7.542184142303467
1789224567517954800,1.456954833984375,8.097938202667235,1.2880804931640624,7.409006674957275
1789224567527991800,1.46699169921875,8.42744020614624,1.0057143348693847,7.218069092559814
1789224567538029600,1.477029541015625,9.02045402984619,0.6952163070678711,7.222857495880127
1789224567548067800,1.48706787109375,9.196278214263916,0.6548141540527344,7.3675570587158195
1789224567558104800,1.497104736328125,9.006537732696533,0.6585550941467285,7.609221788787841
1789224567568142600,1.507142578125,8.991424334716797,0.4896142395019531,7.781155395507812
1789224567578180900,1.517180908203125,9.0780645072937,0.3274070770263672,7.803152123260498
1789224567588217900,1.5272177734375,9.037512716674804,0.13198036651611328,7.766191635131835
1789224567598255600,1.537255615234375,9.337087199401855,-0.1854009910583496,7.551162398529052
1789224567608294000,1.5472939453125,10.576984384155272,-0.5406406623840332,7.042095270538329
1789224567618330600,1.55733056640625,10.39337904434204,-0.370951619720459,6.38398908920288
1789224567628368600,1.56736865234375,8.14612151107788,-0.514603719329834,6.408529656219482
1789224567638406700,1.57740673828125,7.3675570587158195,-0.6676829879760742,6.27595073928833
1789224567648444700,1.587444580078125,7.600393170166015,-0.7220014381408691,6.0790276527404785
1789224567658481700,1.597481689453125,7.951742263793945,-0.8128314636230468,6.133196465301514
1789224567668519700,1.607519775390625,7.761103956604003,-0.5250783515930175,5.96934328918457
1789224567678557700,1.6175576171875,7.273135730743408,-0.5960065757751465,6.001964286804199
1789224567688595000,1.627594970703125,7.0382046928405755,-0.6750152305603027,5.914276651000976
1789224567698632700,1.6376328125,6.855646816253662,-0.8987234481811522,5.718550665283203
1789224567708670700,1.647670654296875,6.975656174468994,-1.1249755050659178,5.417330168914795
1789224567718707700,1.657707763671875,5.647173528289795,-1.5038579177856444,5.251531703948975
1789224567728745700,1.667745849609375,8.29291600036621,-1.942745009613037,4.940135850524902
1789224567738783500,1.677783447265625,9.475950895690918,-1.472882933807373,4.216937311553955
1789224567748820700,1.68782080078125,8.704868323516845,-1.9997569366455077,4.821473230743408
1789224567758858800,1.697858642578125,9.307159678649901,-1.7591396697998045,5.279513935852051
1789224567768896300,1.707896240234375,9.600599019622802,-1.3218985916137695,5.521178665924072
1789224567778934300,1.717934326171875,9.192387636566162,-0.8007108177185058,5.557091690826415
1789224567788971300,1.72797119140625,8.366687339019775,-0.8096890739440917,5.895422312927246
1789224567799009300,1.73800927734375,7.589319987487793,-1.248127252960205,6.546046614074706
1789224567809047300,1.74804736328125,7.193977438354492,-0.9916484001159668,8.035688959503174
1789224567819084300,1.758084228515625,11.117924321746825,0.33264439315795896,12.834267636871337
1789224567829122300,1.768122314453125,15.126416451263427,2.3178864822387695,13.995904354858398
1789224567839160300,1.778160400390625,8.566603177642822,4.082113830566406,6.200084474182129
1789224567849197300,1.788197265625,6.048950494384766,-0.06913257293701172,5.392041413879395
1789224567859235300,1.7982353515625,5.293729508209228,-2.733729383087158,6.849062761688232
1789224567869273000,1.808273193359375,4.546289677429199,-1.420509772491455,5.6501662803649895
1789224567879311400,1.818311279296875,6.042665715026855,-1.375917766571045,6.0802247535705565
1789224567889348400,1.828348388671875,7.141454639434814,-0.628178660583496,5.832873794555664
1789224567899386400,1.838386474609375,9.075371030426025,-0.4565443290710449,5.186439346313477
1789224567909424400,1.84842431640625,9.13028803100586,-0.20560206756591795,4.188955079650879
1789224567919461400,1.85846142578125,9.258976370239257,-0.9398737892150878,3.919308117675781
1789224567929499400,1.86849951171875,8.891915328216552,-1.6787842765808105,3.8883331336975093
1789224567939537400,1.878537353515625,9.79378116607666,-1.1137526847839354,3.149123371124267
1789224567949574100,1.88857421875,11.221174268341064,-0.5192424850463867,3.3439515312194823
1789224567959612400,1.8986123046875,10.836156713867187,-0.26231471939086914,3.625719139099121
1789224567969650200,1.908650146484375,11.093832667541504,0.07227496261596679,3.378517817687988
1789224567979688400,1.9186884765625,11.305120964050293,0.7977180656433105,3.7159506141662595
1789224567989725400,1.928725341796875,10.807127018737793,1.5171756645202636,4.239981502532959
1789224567999763200,1.93876318359375,10.18957262802124,2.2028151649475096,4.512621216583252
1789224568009801500,1.948801513671875,9.649979428863524,2.8393735313415527,4.600907402801513
1789224568019838200,1.958838134765625,8.596081785583495,3.7434839332580565,4.221426439666748
1789224568029876200,1.968876220703125,8.40888514328003,4.35385571899414,4.169801466369629
1789224568039914500,1.97891455078125,8.757091847229004,4.365976364898682,4.383783239746093
1789224568049951200,1.988951171875,8.849867161560057,4.402637577819824,5.074510418701172
1789224568059989200,1.9989892578125,4.095281939697266,5.1325698089599605,6.170456228637695
1789224568070027300,2.00902734375,6.962637702941894,4.341735073089599,5.860107838439941
1789224568080065300,2.019065185546875,8.684068696594238,3.5271079582214355,4.57756393661499
1789224568090102300,2.029102294921875,7.7772648178100585,3.3343747245788573,4.146158724975586
1789224568100140300,2.039140380859375,7.763498158264159,3.2146646415710447,3.7084687339782714
1789224568110178300,2.04917822265625,7.548468921661376,2.7545290100097652,3.8795045150756833
1789224568120215300,2.05921533203125,7.662193500518798,2.182763726043701,4.137629381561279
1789224568130253300,2.06925341796875,7.794173867034911,2.3747487716674804,3.86244582824707
1789224568140291300,2.079291259765625,8.003965787506104,2.6589105812072753,3.6152445068359373
1789224568150329300,2.089329345703125,8.351723578643798,2.7347768463134763,3.571400688934326
1789224568160366300,2.099366455078125,8.798840738677978,2.7281927917480466,3.5509003372192383
1789224568170404000,2.109404052734375,9.441534246826171,2.7180174346923827,3.3762732536315916
1789224568180442400,2.1194423828125,9.510966094970703,2.6414029815673827,3.1534628616333005
1789224568190479400,2.129479248046875,9.443479535675047,2.657114929962158,3.1789012542724606
1789224568200517400,2.139517333984375,9.346664006042479,2.7328315574645994,3.2890345306396482
1789224568210555400,2.149555419921875,9.128342742156981,2.631077986907959,3.3137247352600094
1789224568220593200,2.15959326171875,9.073725016784667,2.4628853202819823,3.209427325439453
1789224568230630400,2.16963037109375,9.14929200668335,2.519897247314453,3.1171009239196774
1789224568240668400,2.17966845703125,9.30177272491455,2.542043612670898,2.992452799987793
1789224568250706200,2.1897060546875,9.555558100891112,2.577806999969482,2.9007249488830564
1789224568260743400,2.199743408203125,9.727491707611083,2.4519617752075193,2.8567314933776853
1789224568270781200,2.20978125,9.828048177337646,2.2376807266235352,2.8562825805664063
1789224568280819500,2.2198193359375,9.757568865966796,2.103605433654785,2.808398547363281
1789224568290857200,2.229857177734375,9.676166009521484,2.03656778717041,2.7439047401428223
1789224568300894200,2.239894287109375,9.852738381958007,2.0745757385253905,2.6665420989990234
1789224568310932500,2.249932373046875,10.363002610778809,2.36217921295166,2.5794530136108396
1789224568320970200,2.25997021484375,10.415974322509765,2.6104279975891114,2.5035867485046386
1789224568331007200,2.27000732421875,9.697115274047851,2.5848399673461913,2.277035416412353
1789224568341045500,2.28004541015625,8.22333451461792,2.2854151222229,2.103156520843506
1789224568351083300,2.290083251953125,6.181379773712158,2.345719076538086,2.540098323822021
1789224568361121500,2.30012158203125,6.003460662841796,2.832041288757324,3.1200936759948728
1789224568371158300,2.310158203125,7.165097380828857,3.5326445495605467,3.5179800643920895
1789224568381196300,2.3201962890625,9.165003955078124,3.590554302215576,3.2399533966064453
1789224568391234300,2.330234375,9.496002334594726,3.4829648651123044,3.5513492500305173
1789224568401271300,2.340271240234375,10.048165092468262,3.1419407661437986,2.908057191467285
1789224568411309300,2.350309326171875,10.069563269805908,3.099742961883545,2.1583727966308595
1789224568421347300,2.360347412109375,9.39739115371704,3.3354221878051757,2.0808605178833006
1789224568431385300,2.37038525390625,8.736591495513915,3.6285622535705566,2.2590789039611816
1789224568441422300,2.38042236328125,8.199542135620117,3.831919757080078,2.552967157745361
1789224568451460400,2.39046044921875,8.149563175964355,3.580977495574951,2.9447184043884276
1789224568461498400,2.400498291015625,8.49133546295166,3.234716080474853,2.797774277496338
1789224568471535000,2.41053515625,8.590545194244385,2.9554923118591305,2.4435820693969723
1789224568481573400,2.420573486328125,8.149263900756836,3.1842882080078123,2.9707553474426267
1789224568491611100,2.430611083984375,8.117091815948486,3.660734338378906,1.5575778175354003
1789224568501649400,2.4406494140625,8.617330325317383,3.188178785705566,1.3441945945739746
1789224568511686400,2.450686279296875,8.968230506134033,2.9052140769958497,1.716792227935791
1789224568521724200,2.46072412109375,8.894459167480468,2.3593360984802243,2.009184105682373
1789224568531762400,2.470762451171875,9.64025298461914,1.953070004272461,2.5350106452941894
1789224568541800200,2.48080029296875,9.871443082427978,3.165433869934082,7.4405802093505855
1789224568551837200,2.490837158203125,9.154529322814941,3.649810793304443,3.808875566101074
1789224568561875500,2.50087548828125,9.823559049224853,2.8956372703552242,1.936909143066406
1789224568571913200,2.510913330078125,12.124386844635008,3.4395699600219722,0.7897872726440429
1789224568581950200,2.5209501953125,12.765583976745605,3.8639422042846676,0.19991583862304688
1789224568591988200,2.53098828125,12.364405561065674,3.614047406005859,1.3956699302673339
1789224568602026200,2.541026123046875,10.705223810577392,3.125031716918945,3.5187282524108885
1789224568612064300,2.551064208984375,10.185682050323486,2.8493992507934567,4.605396530914306
1789224568622101200,2.561101318359375,10.47687682723999,2.5348610076904294,4.629937097930908
1789224568632139300,2.57113916015625,10.043675964355469,2.6659435485839844,3.3617584060668944
1789224568642177300,2.58117724609375,9.044396046447753,2.7156232330322263,2.7986721031188964
1789224568652215300,2.59121533203125,8.818742539978027,2.664147897338867,4.531026641845703
1789224568662252300,2.601252197265625,6.934056920623779,2.9050644393920897,5.646724615478515
1789224568672290300,2.611290283203125,13.344531865692138,0.8690952026367187,0.41853637771606444
1789224568682328300,2.621328369140625,13.793594314575195,-0.2316390106201172,-1.2499229042053221
1789224568692365300,2.631365234375,3.0391397323608396,3.6694133193969725,3.6982933769226074
1789224568702403300,2.6414033203125,9.502586389160156,1.9194015434265135,1.0634744499206543
1789224568712441000,2.651441162109375,7.747935847473144,2.562543964385986,0.0430956298828125
1789224568722479400,2.661479248046875,8.007108177185058,1.408389126586914,-3.7250785079956055
1789224568732516400,2.671516357421875,9.986813674926758,0.9756371765136718,-1.4963760375976562
1789224568742554000,2.68155419921875,5.203647670745849,3.7174469902038574,2.9920038871765136
1789224568752592400,2.69159228515625,9.94730934753418,3.594893792724609,-0.4321533996582031
1789224568762630400,2.70163037109375,6.893654767608642,3.029862200927734,2.7181670722961426
1789224568772667400,2.71166748046875,10.57833112258911,3.4856583419799803,-0.2045546043395996
1789224568782705700,2.72170556640625,11.092934841918945,2.536656658935547,0.1867477294921875
1789224568792743400,2.731743408203125,7.894281423950195,3.526060494995117,1.1143512351989746
1789224568802781700,2.74178173828125,9.774777190399169,3.6076129890441893,0.2561795776367187
1789224568812818400,2.751818359375,6.675034228515624,2.5673323677062987,0.5651812294006348
1789224568822856400,2.7618564453125,9.26466259918213,3.9221512321472165,-0.4638765716552734
1789224568832894500,2.77189453125,9.073725016784667,2.9426234779357907,-2.535908470916748
1789224568842931500,2.781931396484375,8.799439289093018,3.893869725036621,-2.2958897544860837
1789224568852969500,2.791969482421875,7.220912207031249,4.50693498764038,-0.10654197387695312
1789224568863007500,2.802007568359375,9.29518867034912,4.952106858825683,-3.700986853790283
1789224568873045500,2.81204541015625,9.643545011901855,3.987542864990234,-2.2117934211730956
1789224568883082500,2.82208251953125,7.825148851013183,3.9797617095947264,0.07541735229492187
1789224568893120500,2.83212060546875,8.027309253692627,3.585466623687744,-0.19557634811401367
1789224568903158500,2.842158447265625,8.846575134277343,4.19479094619751,-2.4953566802978515
1789224568913196500,2.852196533203125,9.524283841705321,5.048772750854492,-4.525340412902832
1789224568923233500,2.862233642578125,9.363573055267333,4.5325230178833005,-1.3684358863830566
1789224568933271300,2.872271240234375,8.008155640411376,4.473116889190673,-0.7134720947265625
1789224568943309600,2.8823095703125,8.490287999725341,3.731363287353515,-1.0467150382995605
1789224568953347300,2.892347412109375,8.89969648361206,3.6433763763427733,-0.6771101570129394
1789224568963384300,2.90238427734375,8.832209924316405,3.548506135559082,-0.5219359619140624
1789224568973422600,2.912422607421875,9.029282648468017,3.3831565834045407,-0.4677671493530273
1789224568983460400,2.92246044921875,9.29548794555664,3.8476317054748534,-1.0134954902648925
1789224568993498600,2.93249853515625,10.021379961395263,4.790647884368896,-2.530521517181396
1789224569003535600,2.94253564453125,8.435969549560546,4.699967496490478,-1.8463783927917479
1789224569013573400,2.952573486328125,9.37898572845459,4.4111669212341305,-1.6710031211853027
1789224569023611600,2.962611572265625,9.286659326934814,4.873846392059326,-1.308131932067871
1789224569033649400,2.9726494140625,10.360608409118651,4.981735104370117,-0.8738836059570312
1789224569043686400,2.982686279296875,9.443778810882568,4.351760792541504,-0.6106710609436035
1789224569053724400,2.992724365234375,8.852111725616455,3.8271313537597655,-0.5168482833862305
1789224569063762400,3.002762451171875,9.492261394500732,3.8619969154357907,-0.5493196434020996
1789224569073800400,3.012800537109375,9.302820188140869,3.8335657707214352,-0.405368268585205
1789224569083837400,3.02283740234375,9.309703517913817,3.6303579048156736,-0.2947860794067383
1789224569093875500,3.03287548828125,9.122057962799072,3.8824972671508786,-0.30092122116088865
1789224569103913500,3.04291357421875,9.020304392242432,3.875913212585449,-0.2750339157104492
1789224569113951500,3.052951416015625,8.92528451385498,3.956268605804443,-0.25573066482543944
1789224569123988500,3.062988525390625,8.871714251708983,3.8777088638305663,-0.10654197387695312
1789224569134026500,3.073026611328125,8.946981966400147,3.8099230293273925,0.04773439559936523
1789224569144064500,3.083064453125,8.934113132476806,3.603423136138916,0.20560206756591795
1789224569154102500,3.0931025390625,8.856151940917968,3.5571851165771484,0.31753099517822264
1789224569164139500,3.103139404296875,8.844330570220947,3.8928222618103026,0.3103483901977539
1789224569174177500,3.113177490234375,9.008931934356688,3.944447235107422,0.058957215881347655
1789224569184215600,3.123215576171875,9.278728533935546,4.037222549438476,-0.17702128524780272
1789224569194253600,3.133253662109375,9.340977777099608,4.3430818115234375,-0.3730465461730957
1789224569204290300,3.143290283203125,9.170241271209717,4.327220225524902,-0.31049802780151364
1789224569214328600,3.15332861328125,9.434351641845703,4.307019149017334,-1.0030208580017088
1789224569224366300,3.163366455078125,10.051457119750976,4.0858547706604,-1.2937667221069336
1789224569234404600,3.173404541015625,10.562319898986816,3.912275150299072,-0.6398503936767578
1789224569244441600,3.183441650390625,10.311676912689208,4.415506411743164,-0.39324762268066404
1789224569254479400,3.193479248046875,9.590872575378418,4.810400048065185,-0.263661457824707
1789224569264517600,3.203517578125,9.098564859008789,5.156062912750244,-0.4885667762756347
1789224569274555400,3.213555419921875,9.119364485931396,5.647323165893554,-0.7071873153686523
1789224569284592400,3.22359228515625,9.482385312652587,6.114491764831542,-0.9554361000061035
1789224569294630400,3.23363037109375,9.835230782318115,6.19873773574829,-1.2521674682617188
1789224569304668400,3.24366845703125,9.821164847564697,6.517914744567871,-1.5070003074645995
1789224569314706700,3.253706787109375,9.798120656585693,6.853102976989746,-1.405695649719238
1789224569324743400,3.263743408203125,10.55962642211914,6.765864253997802,-1.4963760375976562
1789224569334781400,3.273781494140625,11.067496449279785,7.0658876495361325,-1.5300444984436035
1789224569344819500,3.2838193359375,10.84693062133789,7.553556600189209,-1.2834417274475096
1789224569354857500,3.293857421875,10.561422073364257,7.816918782806396,-1.1103110198974608
1789224569364894500,3.30389453125,9.99683939437866,7.887098818969726,-1.02142628326416
1789224569374932500,3.313932373046875,9.589825112152099,7.7130702857971185,-1.0440215614318846
1789224569384970500,3.323970458984375,9.26466259918213,7.573907314300537,-0.9585784896850585
1789224569395008500,3.334008544921875,8.889072213745116,7.463624400329589,-0.7646481552124023
1789224569405045500,3.34404541015625,8.902988510894774,6.983886242675781,-0.6477811866760254
1789224569415083500,3.35408349609375,8.45242968597412,6.636128451538085,-0.5939116493225097
1789224569425121500,3.36412158203125,7.5342533493041985,6.561010374450683,-0.5886743331909179
1789224569435159600,3.37415966796875,6.853701527404785,6.389974593353271,-1.023371572113037
1789224569445196300,3.3841962890625,6.033537821197509,6.302137319946289,-1.0383353324890137
1789224569455234600,3.394234619140625,5.288791467285156,6.423194141387939,-0.6681319007873535
1789224569465272300,3.404272216796875,4.965274967956542,6.634183162689209,-0.023343466186523436
1789224569475310600,3.414310546875,5.248090039062499,6.323685134887695,0.38367081604003905
1789224569485347600,3.42434765625,5.112967282867431,6.158634857940673,0.7662941688537597
1789224569495385300,3.43438525390625,5.086780702209472,6.241085177612304,0.7628525039672851
1789224569505423600,3.444423583984375,5.55424857635498,5.647173528289795,-0.22430676803588867
1789224569515461400,3.45446142578125,4.023904802703857,5.230732077026367,-0.949300958251953
1789224569525498400,3.464498291015625,2.316240468597412,5.5829789962768555,-1.5984288833618163
1789224569535536600,3.47453662109375,1.9364602302551268,5.989993278503418,-2.134879692840576
1789224569546202400,3.485202392578125,2.278382154846191,6.335656143188476,-2.2560861518859863
1789224569556240600,3.49524072265625,2.647538123321533,6.457610790252685,-2.2177789253234863
1789224569566277400,3.50527734375,3.178153066253662,6.453720212554932,-2.179022785949707
1789224569576315400,3.5153154296875,3.395726142120361,6.589740794372558,-1.8649334556579589
1789224569586353700,3.525353759765625,3.6906618591308593,6.732644705963135,-1.9934721572875975
1789224569596391400,3.535391357421875,3.725377783203125,7.008875722503662,-1.9629460861206054
1789224569606428400,3.545428466796875,3.5509003372192383,7.2906433303833005,-2.1715409057617188
1789224569616466400,3.555466552734375,3.378068904876709,7.503128727722167,-2.7289409797668456
1789224569626504400,3.56550439453125,2.9601310775756833,7.702595653533935,-3.1548096000671384
1789224569636542500,3.57554248046875,2.980631429290771,8.002619049072266,-3.4509424179077146
1789224569646580500,3.58558056640625,3.394529041290283,8.269722171783446,-3.6035727737426755
1789224569656617500,3.595617431640625,3.623175299835205,8.424746729278564,-3.6917093223571773
1789224569666655500,3.605655517578125,3.644872752380371,8.526051387023925,-3.7651813858032224
1789224569676693500,3.615693603515625,3.7401919059753417,8.54266116104126,-3.9852983009338376
1789224569686731500,3.6257314453125,4.000710974121094,8.531887253570556,-4.018966761779785
1789224569696768500,3.6357685546875,4.004751189422607,8.515576754760742,-3.8845921936035155
1789224569706806500,3.645806640625,3.9264907226562498,8.762478800964354,-3.998466410064697
1789224569716844500,3.655844482421875,4.056226525115966,8.762778076171875,-4.090792811584472
1789224569726882600,3.665882568359375,4.903923550415039,8.310573237609862,-3.845836054229736
1789224569736919300,3.675919189453125,4.254795625305175,8.336011630249024,-3.4056022239685055
1789224569746957600,3.68595751953125,3.8507740951538083,8.598176712036132,-3.528753971862793
1789224569756995300,3.695995361328125,3.4677018295288082,8.716240781402588,-3.6079122642517087
1789224569767033300,3.706033447265625,2.929904281616211,8.81619870071411,-3.7861306503295897
1789224569777071400,3.7160712890625,3.50496159286499,8.838345066070556,-3.9496845512390135
1789224569787108400,3.7261083984375,3.9740754806518552,9.062053283691405,-4.220378976440429
1789224569797146400,3.736146484375,4.15648371963501,9.715670336914062,-4.722712412261963
1789224569807184400,3.746184326171875,2.74525147857666,10.565312651062012,-4.947168817901611
1789224569817222400,3.756222412109375,0.25094226150512694,10.80907230758667,-4.7010149597167965
1789224569827259600,3.766259765625,2.4735095901489257,9.928903922271727,-4.341884710693359
1789224569837297400,3.77629736328125,5.655852509307861,9.05965908203125,-3.697245913696289
1789224569847335400,3.78633544921875,5.438429071044921,8.613140472412109,-2.6978163581848142
1789224569857373400,3.79637353515625,4.965723880767822,8.498966980743408,-2.412158172607422
1789224569867410400,3.806410400390625,4.529081352996826,8.543708624267577,-2.4467244590759276
1789224569877448400,3.816448486328125,3.7186440910339353,8.320598957061767,-2.51540811920166
1789224569887486500,3.826486572265625,3.2882863426208493,8.104073344421387,-2.43265852432251
1789224569897524500,3.8365244140625,3.2588077346801754,7.794024229431152,-2.302922721862793
1789224569907562500,3.8465625,2.995744827270508,7.723844193267822,-1.9463363121032713
1789224569917599500,3.856599609375,2.7829601547241207,7.642590974426269,-1.5957354064941405
1789224569927637200,3.86663720703125,2.618059515380859,7.606528311920165,-1.2894272315979003
1789224569937675500,3.876675537109375,2.711283742523193,7.837868047332763,-1.1804910560607909
1789224569947713300,3.88671337890625,2.6116250984191893,7.774870616149902,-1.038185694885254
1789224569957750300,3.896750244140625,2.666691736602783,7.83352855682373,-1.248725803375244
1789224569967788500,3.90678857421875,2.6587609436035153,8.167070775604248,-1.4953285743713378
1789224569977826300,3.916826416015625,2.4389433036804196,8.516474580383301,-1.573140128326416
1789224569987864600,3.926864501953125,2.57915373840332,8.857498679351806,-1.8186954360961913
1789224569997902300,3.93690234375,2.94980608291626,9.094674281311034,-2.062754367828369
1789224570007939300,3.946939208984375,3.1919197257995604,9.390657461547852,-2.03656778717041
1789224570017977600,3.9569775390625,3.166032420349121,9.590722937774657,-2.110488763427734
1789224570028015400,3.967015380859375,2.9575872383117674,9.740210903930663,-2.280626718902588
1789224570038053600,3.9770537109375,2.6132711120605467,9.840019185638427,-2.447622284698486
1789224570048090400,3.98709033203125,2.4664766227722166,9.90271734161377,-2.4533085136413573
1789224570058128400,3.99712841796875,2.480392919921875,9.95239702606201,-2.375796234893799
1789224570068166400,4.00716650390625,2.4666262603759765,9.942969857025146,-2.292747364807129
1789224570078204400,4.017204345703125,2.535908470916748,9.752630825042724,-2.0835539947509765
1789224570088242400,4.027242431640625,2.775777549743652,9.558251577758789,-2.051830822753906
1789224570098279400,4.037279541015625,2.8272528854370114,9.375095150756835,-1.992424694061279
1789224570108317400,4.0473173828125,2.624493932342529,9.322422714233397,-2.0917840629577635
1789224570118355500,4.05735546875,2.4028806411743164,9.196128576660156,-2.2828712829589843
1789224570128393500,4.0673935546875,2.330904953765869,8.95042363128662,-2.4814403831481933
1789224570138430500,4.077430419921875,2.221070952606201,8.680477394104003,-2.5158570320129394
1789224570148468500,4.087468505859375,2.1517887420654294,8.576030346679687,-2.3632266761779785
1789224570158506500,4.097506591796875,2.197428211212158,8.412626083374024,-2.3223756103515623
1789224570168544500,4.10754443359375,2.3529016815185546,8.149413538360594,-2.352003855895996
1789224570178582500,4.11758251953125,2.5912743843078614,8.091054872894286,-2.1718401809692383
1789224570188619300,4.127619384765625,2.775777549743652,8.128314636230469,-1.962646810913086
1789224570198657500,4.137657470703125,1.5189713157653808,8.267028694915771,-2.0956746406555173
1789224570208695300,4.1476953125,0.12060790863037109,8.751704893493653,-2.57286895904541
1789224570218733300,4.1577333984375,0.8137292892456054,9.095123194122314,-2.4346038131713867
1789224570228770600,4.1677705078125,1.4131775299072264,9.041702569580078,-2.035370686340332
1789224570238808300,4.177808349609375,1.6180314094543455,9.098265583801268,-1.6106991668701172
1789224570248846600,4.1878466796875,1.8966566276550292,9.484031326293945,-1.3895347885131835
1789224570258884400,4.19788427734375,2.1594202598571774,9.938181453704834,-1.1595417915344237
1789224570268922400,4.20792236328125,2.4371476524353026,10.219649786376953,-1.2527660186767577
1789224570278959600,4.217959716796875,2.788197470855713,10.465205094146729,-1.603067649078369
1789224570288997400,4.227997314453125,2.652476164245605,10.57234561843872,-2.0121768577575683
1789224570299035400,4.238035400390625,2.6605565948486327,10.653898112487793,-2.7431565521240233
1789224570309073400,4.248073486328125,2.731335181427002,10.731709666442871,-3.2824504760742186
1789224570319111400,4.258111328125,2.4850316856384276,10.494085151672362,-3.6227263870239255
1789224570329148400,4.2681484375,2.2194249389648437,9.858873523712157,-3.753210377502441
1789224570339186400,4.2781865234375,2.216132911682129,9.405321946716308,-3.5654151847839355
1789224570349224400,4.288224365234375,2.0253449668884276,9.118017747497557,-3.3342250869750973
1789224570359262500,4.298262451171875,1.7845780624389647,8.072350172424317,-3.122637515258789
1789224570369300500,4.308300537109375,2.168697791290283,7.502679814910889,-2.5225907241821286
1789224570379337200,4.318337158203125,2.2022166145324706,7.400327693939208,-2.1230583221435544
1789224570389375500,4.32837548828125,1.862988166809082,7.789984014129638,-2.4664766227722166
1789224570399413200,4.338413330078125,1.5562310791015623,8.597428524017333,-2.627187409210205
1789224570409451500,4.348451416015625,1.7515081520080564,8.524106098175048,-2.9568390502929685
1789224570419488500,4.358488525390625,1.9015946685791014,9.176675688171386,-3.2237925354003902
1789224570429526300,4.3685263671875,2.139219183349609,9.226205735015869,-3.3364696510314937
1789224570439564500,4.378564453125,2.5611972259521485,9.029133010864257,-3.1310172210693357
1789224570449602300,4.388602294921875,2.050035171508789,9.012223961639403,-2.8067525337219235
1789224570459640600,4.398640625,2.05572140045166,8.987833032226561,-2.5308207923889157
1789224570469677600,4.408677490234375,2.6418518943786617,9.011775048828124,-2.133084041595459
1789224570479715300,4.41871533203125,2.262071656036377,9.251494490051268,-1.9234417587280273
1789224570489753600,4.428753662109375,1.9535189170837401,9.42911432571411,-2.015319247436523
1789224570499791400,4.438791259765625,1.9891326667785643,9.39769042892456,-2.0265420677185055
1789224570509829600,4.44882958984375,2.043600754547119,9.407716148376464,-2.0298340950012204
1789224570519866400,4.458866455078125,2.2896049751281735,9.472359593200682,-2.2480057212829587
1789224570529904400,4.468904296875,2.1519383796691893,9.317783948516846,-2.7979239151000974
1789224570539942400,4.4789423828125,2.0132243209838867,9.049783000183105,-3.207482036590576
1789224570549980400,4.48898046875,1.81315884475708,8.890418952178955,-3.2439936119079587
1789224570560018400,4.499018310546875,1.6168343086242676,8.895506630706787,-3.1860838592529297
1789224570570055400,4.509055419921875,1.4974235008239745,9.127145641326903,-3.014748802947998
1789224570580093400,4.519093505859375,1.5933412048339843,9.434351641845703,-2.8794764091491696
1789224570590131500,4.52913134765625,1.9871873779296874,9.592518589019775,-3.0023288818359375
1789224570600169500,4.53916943359375,2.3301567657470703,9.529521157836914,-3.2697312797546383
1789224570610207200,4.549207275390625,2.1329344039916993,9.452158516693114,-3.2433950614929197
1789224570620244500,4.559244384765625,1.7800889343261719,9.266757525634764,-3.0105589500427246
1789224570630282500,4.569282470703125,1.506102481842041,8.954314208984375,-2.7932851493835447
1789224570640320500,4.579320556640625,1.3857938484191894,8.741828811645508,-2.625242120361328
1789224570650358500,4.589358642578125,1.2120645904541014,8.622567641448974,-2.422782442474365
1789224570660395300,4.599395263671875,1.5192705909729003,8.556727095794677,-2.302922721862793
1789224570670433500,4.60943359375,1.5505448501586914,8.253860585784912,-2.3684639923095703
1789224570680471300,4.61947119140625,1.546205359649658,7.692719571685791,-3.0493150894165035
1789224570690509300,4.62950927734375,1.6165350334167479,7.133074933624267,-3.609707915496826
1789224570700547600,4.639547607421875,1.2542623947143554,7.036857954406738,-3.5544916397094726
1789224570710584300,4.649584228515625,0.7836521308898925,7.18200643005371,-3.2167595680236816
1789224570720622600,4.65962255859375,0.7683890953063964,7.180210778808593,-2.70036019744873
1789224570730660400,4.669660400390625,1.5804723709106445,7.579443905639648,-2.1594202598571774
1789224570740698400,4.679698486328125,2.356492984008789,8.117091815948486,-1.5786767196655274
1789224570750736400,4.689736328125,2.4787469062805174,8.694692966461181,-1.0805331367492674
1789224570760772900,4.69977294921875,2.2073042930603024,9.02733735961914,-0.7324760704040527
1789224570770811000,4.709810791015625,2.2948422912597657,9.418190780639648,-0.6290764862060546
1789224570780848600,4.7198486328125,2.2411223915100096,9.80051485824585,-0.4116530479431152
1789224570790887000,4.729886962890625,2.2143372604370115,10.051307482147216,-0.36975451889038086
1789224570800924700,4.739924560546875,2.2254104431152344,10.496628990936278,-0.5832873794555664
1789224570810961700,4.749961669921875,1.7881693649291992,11.091737741088867,-0.7196072364807129
1789224570821000000,4.76,1.1752537399291991,11.739668565368651,-0.6018424423217773
1789224570831037700,4.77003759765625,1.5825672973632812,11.867608716583252,-0.8809165733337402
1789224570841076000,4.780075927734375,2.8157307899475095,12.419322561645506,-1.4377180969238281
1789224570851113700,4.79011376953125,5.725882907867431,12.862399506378173,-2.9836241813659665
1789224570861150700,4.800150634765625,2.0211551139831543,12.408847929382324,-1.6811784782409667
1789224570871189000,4.81018896484375,2.9140426956176757,13.305177175903319,-2.2273557319641113
1789224570881226800,4.820226806640625,2.64304899520874,12.637643825531006,-1.7868226264953613
1789224570891265000,4.83026513671875,1.9168577041625976,12.056152097320556,-1.3862427612304686
1789224570901302800,4.840302734375,3.666570204925537,11.202020655059814,-2.044947492980957
1789224570911339800,4.85033984375,3.3885435371398924,10.793210721588133,-1.6442179901123046
1789224570921377800,4.860377685546875,3.2626983123779296,10.903044722747802,-1.8857330825805663
1789224570931415800,4.870415771484375,3.1153052726745605,11.111639542388914,-1.6297031425476074
1789224570941453800,4.880453857421875,2.6714801399230956,11.372757160949707,-1.4136264427185057
1789224570951491800,4.890491943359375,2.8559833053588863,11.646444338226317,-1.7132009254455565
1789224570961528800,4.90052880859375,2.693626505279541,11.743259867858885,-1.4190133964538574
1789224570971566800,4.91056689453125,2.508375151824951,11.609633487701416,-1.2867337547302244
1789224570981604900,4.92060498046875,2.2631191192626954,11.382184329986572,-1.6334440826416015
1789224570991643000,4.930642822265625,1.8415899894714354,10.600627125549316,-2.3906103576660156
1789224571001681000,4.940680908203125,1.1783961296081542,9.183409380340576,-3.2894834434509277
1789224571011718700,4.95071875,0.3437175758361816,7.876474549102783,-3.8257846153259276
1789224571021756000,4.960755859375,-0.2973299186706543,6.74192223739624,-3.7343560394287105
1789224571031794000,4.9707939453125,-0.1240495735168457,5.6568999725341795,-3.4395699600219722
1789224571041831700,4.980831787109375,0.08469488372802735,4.734982695770263,-3.071461454772949
1789224571051870000,4.990869873046875,-0.016609774017333982,4.274697426605225,-2.699761647033691
1789224571061907700,5.00090771484375,0.07990648040771484,4.170848929595947,-2.359635373687744
1789224571071945000,5.010945068359375,0.08993219985961913,4.37989266204834,-2.091335150146484
1789224571081983000,5.02098291015625,-0.24136545486450195,4.329464789581299,-2.0724808120727536
1789224571092020700,5.031020751953125,-0.14290391159057617,4.198681523895264,-2.2014684265136717
1789224571102059000,5.04105908203125,-0.4791396072387695,4.660014256286621,-2.013523596191406
1789224571112096800,5.0510966796875,-0.3703530693054199,4.317942694091797,-1.1851298217773436
1789224571122133800,5.0611337890625,0.43574470214843747,4.270357936096191,-0.24824878463745115
1789224571132171800,5.071171875,1.8433856407165525,5.543175393676758,0.5319616813659668
1789224571142209800,5.081209716796875,2.0581156021118163,6.72261898651123,1.290325057220459
1789224571152247800,5.091247802734375,2.0268413429260255,7.743895632171631,1.7559972801208494
1789224571162285800,5.101285888671875,2.506429862976074,8.891167140197753,1.906383071899414
1789224571172322800,5.11132275390625,2.8667572128295897,9.279626359558105,1.8025345748901367
1789224571182360800,5.12136083984375,2.9596821647644043,9.478794010162353,1.650353131866455
1789224571192398800,5.13139892578125,3.1286230194091793,10.491092399597168,1.4233528869628906
1789224571202436900,5.141436767578125,3.5606267814636228,10.493785876464843,1.1724106254577635
1789224571212475000,5.151474853515625,3.175160314178467,9.976189405059813,0.5306149429321289
1789224571222511900,5.161511962890625,2.069637697601318,10.691906063842772,-0.2980781066894531
1789224571232550000,5.1715498046875,-1.2732663703918456,19.32479869995117,-1.5310919616699217
1789224571242588000,5.181587890625,5.104138664245605,8.659677767181396,-0.7146691955566405
1789224571252626000,5.1916259765625,2.5665841796874997,8.359504734039307,-1.9922750564575193
1789224571262664000,5.201663818359375,-0.5802946273803711,10.515782604217529,-2.2233155166625975
1789224571272701700,5.21170166015625,1.4643535903930662,9.450213227844237,-1.9084779983520506
1789224571282739000,5.221739013671875,3.0934581825256346,9.104550363159179,-1.8828899681091307
1789224571292776700,5.231776611328125,6.656179890441894,11.653327667999267,-4.9549499732971185
1789224571302814700,5.241814697265625,0.8230068206787109,10.91711065750122,-3.075950582885742
1789224571312852700,5.251852783203125,0.5193921226501464,10.684124908447265,-4.173093493652344
1789224571322890800,5.261890869140625,1.0172364303588866,11.723956616973876,-5.089773454284668
1789224571332928000,5.271927978515625,0.8026561065673827,11.75283667449951,-4.518756358337402
1789224571342965800,5.2819658203125,2.49640414352417,12.007070963287353,-4.435258575439453
1789224571353003800,5.292003662109375,3.0680197898864745,12.51254678878784,-4.242974254608154
1789224571363041800,5.302041748046875,2.7211598243713375,12.294225524902343,-4.219331513214111
1789224571373079800,5.312079833984375,2.6129718368530273,11.069890650939941,-4.4199955398559565
1789224571383116800,5.32211669921875,2.4452280830383297,10.013898081207275,-4.176834433746338
1789224571393154800,5.33215478515625,2.353200956726074,9.459341121673583,-3.261501211547851
1789224571403192800,5.34219287109375,2.2878093238830566,9.165602505493164,-2.166004314422607
1789224571413230800,5.35223095703125,2.595613874816894,8.984391367340088,-1.7788918334960937
1789224571423268900,5.362268798828125,2.5176526832580564,8.314164540100098,-1.80029001083374
1789224571433307000,5.372306884765625,1.597979970550537,9.022100043487548,-1.7571943809509276
1789224571443344000,5.38234375,2.168697791290283,8.646360020446776,-1.5990274337768553
1789224571453382000,5.3923818359375,1.3548188644409178,8.601618376922607,-1.9801544105529785
1789224571463420000,5.402419921875,1.5966332321166992,8.429086219787598,-1.6392799491882324
1789224571473458000,5.4124580078125,2.014122146606445,8.522160809326172,-1.953070004272461
1789224571483496000,5.422495849609375,2.1541829437255857,8.813954136657715,-2.900425673675537
1789224571493533000,5.432532958984375,2.608482708740234,8.681375219726561,-3.3215058906555175
1789224571503570700,5.44257080078125,2.7064953392028808,9.12415288925171,-3.8130654190063473
1789224571513609000,5.45260888671875,2.0944775398254394,9.789292037963866,-4.775983399200439
1789224571523646700,5.462646728515625,0.22475568084716796,9.87668039855957,-4.829703298950195
1789224571533684700,5.472684814453125,-1.363647483062744,10.034847345733642,-4.482992971038818
1789224571543722800,5.48272265625,0.008678981018066407,9.291447730255127,-3.821594762420654
1789224571553759700,5.492759765625,-5.0766053451538085,10.08003790206909,-2.084601457977295
1789224571563798000,5.502798095703125,10.086173043823242,6.46748687210083,0.7811082916259765
1789224571573835800,5.512835693359375,5.027075298309326,10.659883616638183,-1.4921861846923827
1789224571583873800,5.522873779296875,1.9101240119934082,8.149263900756836,-0.8610147720336914
1789224571593911800,5.532911865234375,16.03037721557617,4.086902233886718,6.663661770629883
1789224571603948800,5.54294873046875,22.514922774505614,9.38422304458618,5.064933612060546
1789224571613986800,5.55298681640625,3.846584242248535,10.388590641021727,2.3198317710876464
1789224571624024800,5.56302490234375,-1.3832500091552733,8.441057228088379,2.4465748214721676
1789224571634062800,5.573062744140625,0.3434183006286621,7.9655089233398435,4.555267933654785
1789224571644100900,5.583100830078125,-0.726490566253662,8.679429930877685,5.077054257965088
1789224571654139000,5.593138916015625,-0.105344873046875,10.017489383697509,4.947468093109131
1789224571664175900,5.60317578125,0.17642273483276366,8.473229312896729,5.31797080001831
1789224571674214000,5.6132138671875,3.024325609588623,7.968052762603759,5.1039890266418455
1789224571684252000,5.623251953125,13.40034669189453,7.764545621490478,2.3255180000305176
1789224571694290000,5.6332900390625,7.860612963104248,9.569324760437011,2.088192760467529
1789224571704328000,5.643327880859375,0.6865373260498047,9.594014965057372,1.504157192993164
1789224571714364700,5.65336474609375,0.6705261024475098,8.842385281372069,1.2678794166564942
1789224571724403000,5.66340283203125,1.045667575073242,9.09796630859375,1.2521674682617188
1789224571734440700,5.673440673828125,4.772242459106445,9.228749574279785,2.4187422271728516
1789224571744479000,5.68347900390625,8.173804467773436,8.836699052429198,2.5094226150512693
1789224571754516700,5.693516845703125,3.8468835174560545,9.259425283050536,1.7060183204650878
1789224571764555300,5.70355517578125,1.3896844261169432,9.188646696472167,1.1399392654418945
1789224571774592500,5.713592529296875,2.5878327194213866,8.620622352600098,1.970876879119873
1789224571784630300,5.72363037109375,4.693682717132568,8.878447943878173,2.3527520439147946
1789224571794668300,5.733668212890625,5.5175873634338375,9.004293168640137,2.076820302581787
1789224571804706300,5.743706298828125,3.567510111236572,9.090334790802002,1.3702315376281737
1789224571814744300,5.753744384765625,2.1185691940307616,9.153332221984863,1.2994529510498045
1789224571824782300,5.7637822265625,3.117400199127197,9.090185153198242,1.943493197631836
1789224571834819300,5.7738193359375,4.902576811981201,8.976759849548339,2.335992632293701
1789224571844857000,5.783857177734375,4.7283986412048336,8.913313505554198,2.2541408630371094
1789224571854895400,5.793895263671875,3.5748423538208005,8.935609508514403,1.9422960968017577
1789224571864933400,5.803933349609375,2.806602896118164,8.917652996063232,1.7124527374267577
1789224571874971400,5.813971435546875,3.3674446350097655,8.834604125976561,1.732055263519287
1789224571885008400,5.82400830078125,3.9811084480285643,8.699780644989014,1.6178817718505858
1789224571895046100,5.834046142578125,3.9323265892028805,8.82323166809082,1.5147814628601073
1789224571905084400,5.84408447265625,3.9558196929931637,8.731803092193603,1.6829741294860838
1789224571915122200,5.8541220703125,3.8757635749816894,8.746916490173339,1.690605647277832
1789224571925160400,5.864160400390625,3.3660978965759276,8.811111022186278,1.67908355178833
1789224571935198200,5.8741982421875,3.3831565834045407,9.04080474395752,1.512536898803711
1789224571945235200,5.884235107421875,4.459350229644775,8.990526509094238,1.595436131286621
1789224571955273500,5.8942734375,4.3369466697692864,9.012074324035645,1.4618097511291503
1789224571965311200,5.904311279296875,3.2257378242492676,9.03392141418457,1.5116390731811522
1789224571975349200,5.914349365234375,3.245190712738037,9.099462684631348,1.7022773803710936
1789224571985387300,5.92438720703125,4.319588707733154,9.09781667098999,1.9250877723693847
1789224571995425300,5.93442529296875,4.895543844604492,9.176974963378905,2.0932804389953614
1789224572005462500,5.944462646484375,4.096628678131103,9.188497058868407,2.179172423553467
1789224572015500300,5.954500244140625,3.289633081054687,9.211092337036133,2.118868469238281
1789224572025538300,5.964538330078125,3.5015199279785154,9.226654647827148,2.0412065528869627
1789224572035576300,5.974576416015625,3.9514802024841305,9.356390450286865,1.6843208679199217
1789224572045614300,5.9846142578125,4.160224659729003,9.546729482269287,0.2561795776367187
1789224572055652400,5.99465234375,3.0948049209594726,9.491213931274414,-0.49574938125610346
1789224572065689300,6.004689453125,2.886359738922119,9.26316622314453,-1.1938088027954101
1789224572075727000,6.01472705078125,3.0253730728149413,8.63109698486328,-0.7923311119079589
1789224572085765400,6.024765380859375,4.091690637207031,7.5433812431335445,2.586037068176269
1789224572095803100,6.03480322265625,3.9802106224060054,6.431723484802245,4.3537060813903805
1789224572105841400,6.04484130859375,2.9926024375915525,7.119008998870849,5.505915630340576
1789224572115879400,6.05487939453125,2.180219886779785,8.049455619049072,3.725826696014404
1789224572125916200,6.064916259765625,3.4311902542114256,8.80332986679077,2.2514473861694335
1789224572135954400,6.074954345703125,5.10129554977417,9.651625442504882,2.6952725189208984
1789224572145992200,6.0849921875,5.137358212280273,10.466701470184326,2.2149358108520505
1789224572156030500,6.095030517578125,4.379144474029541,11.028291397094726,1.6165350334167479
1789224572166068200,6.105068115234375,2.9842227317810055,10.289680184936524,2.8675054008483887
1789224572176106200,6.115106201171875,3.2951696723937984,9.784802909851074,3.267037802886963
1789224572186143500,6.1251435546875,4.955398886108398,9.102006523895263,3.338265302276611
1789224572196181200,6.13518115234375,4.784363105010986,8.68930601272583,3.157054164123535
1789224572206219300,6.14521923828125,3.2869396041870114,8.536526019287109,2.4253262817382812
1789224572216257300,6.15525732421875,2.198326036834717,8.036137872314452,2.065896757507324
1789224572226295300,6.16529541015625,2.1815666252136228,7.457788533782958,1.9883844787597655
1789224572236332500,6.17533251953125,2.987365121459961,7.223456046295166,1.9197008186340332
1789224572246370300,6.185370361328125,2.8562825805664063,6.884077960968018,2.4314614234924314
1789224572256408300,6.195408203125,1.988085203552246,6.755239984130859,2.7875989204406735
1789224572266446300,6.2054462890625,2.1333833168029783,7.1404071762084955,2.478447631072998
1789224572276484400,6.215484375,3.2022447204589843,7.9843632614135736,1.9776105712890624
1789224572286522400,6.2255224609375,4.076427601623535,8.743923738098143,1.70467158203125
1789224572296559400,6.235559326171875,4.3637318008422845,9.438391857147217,1.7025766555786133
1789224572306597000,6.24559716796875,4.183867401123047,9.566780921173095,1.9750667320251463
1789224572316635400,6.255635498046875,3.095104196166992,9.668684129333496,1.914613140106201
1789224572326673200,6.265673095703125,2.35574479598999,9.32137525100708,2.0979192047119137
1789224572336711400,6.27571142578125,4.734084870147705,9.417891505432129,1.459415549468994
1789224572346749200,6.285749267578125,5.848585742950439,9.416245491790772,1.6439187149047851
1789224572356787200,6.295787109375,4.774187747955322,9.440935696411133,1.7542016288757323
1789224572366824400,6.305824462890625,3.8359599723815916,9.49300958251953,2.051830822753906
1789224572376862200,6.3158623046875,4.840028293609619,9.592817864227294,2.966116581726074
1789224572386900200,6.325900146484375,4.619761740875244,9.770886612701416,2.970456072235107
1789224572396938200,6.335938232421875,3.9354689788818358,9.622745384979247,2.71951381072998
1789224572406976300,6.345976318359375,4.300884007263184,9.60808089981079,2.6515783386230467
1789224572417014300,6.35601416015625,4.262277505493164,9.574562076568602,2.9230209518432617
1789224572427051300,6.36605126953125,3.54985287399292,9.18685104522705,2.578555187988281
1789224572437089300,6.37608935546875,2.210147407531738,8.145522960662841,1.4106336906433106
1789224572447127300,6.386127197265625,5.950788226318359,8.180238884735108,2.363376313781738
1789224572457165300,6.396165283203125,4.423437204742432,8.07668966293335,1.8975544532775879
1789224572467203300,6.406203369140625,4.049043920135498,8.301894256591796,2.8088474601745603
1789224572477241300,6.416241455078125,4.8038159934997555,8.327482286834716,2.9689596961975098
1789224572487278300,6.4262783203125,3.609558277893066,8.741828811645508,5.521328303527832
1789224572497316400,6.43631640625,4.720617485809326,7.84594847793579,6.064063892364501
1789224572507354400,6.446354248046875,1.8691233085632324,7.096712995910644,5.683535466003417
1789224572517392400,6.456392333984375,3.840299462890625,7.981969059753418,7.211933950805664
1789224572527430400,6.466430419921875,2.034023947906494,8.464550331878662,3.1102175941467283
1789224572537468200,6.47646826171875,6.0531403472900385,9.776123928833007,1.986289552307129
1789224572547505400,6.48650537109375,2.0226514900207517,9.343371978759764,1.11075993270874
1789224572557543200,6.496543212890625,8.147917162322997,7.50133307647705,10.566210476684569
1789224572567581400,6.50658154296875,2.0012533126831054,9.076568131256103,-1.7642273483276367
1789224572577619200,6.516619140625,2.880673509979248,9.450961415863036,4.877138419342041
1789224572587657200,6.5266572265625,4.680514608001709,7.7310267982482905,1.5304934112548827
1789224572597695200,6.5366953125,3.558681492614746,7.5813891944885246,6.467786147308349
1789224572607732200,6.546732177734375,2.668038475036621,7.823951750183105,1.2101193016052245
1789224572617770200,6.556770263671875,1.3931260910034178,6.456862602233886,-4.033780884552002
1789224572627808300,6.566808349609375,7.511658071136474,6.298845292663574,-1.6000748970031737
1789224572637846300,6.57684619140625,2.6613047828674317,7.85283180770874,-9.86366192703247
1789224572647884300,6.58688427734375,2.70694425201416,9.280823460388183,-14.003535872650145
1789224572657922300,6.59692236328125,3.860051626586914,10.431237358093261,-12.904447673034667
1789224572667959300,6.606959228515625,1.3691840744018553,10.213664282226562,-7.954585378265381
1789224572677997300,6.616997314453125,3.168576259613037,10.31062944946289,-5.029619137573242
1789224572688035300,6.627035400390625,1.7000328163146972,9.323320539855956,-5.029319862365722
1789224572698073300,6.6370732421875,2.485480598449707,8.151807740020752,-4.5325230178833005
1789224572708111400,6.647111328125,4.770746083068848,8.19729757156372,-3.566163372802734
1789224572718149000,6.657149169921875,7.581538832092285,6.853851165008544,0.8994716361999511
1789224572728187400,6.6671875,5.63071339187622,7.877372374725342,2.4250270065307618
1789224572738224400,6.677224365234375,3.9372646301269527,9.17323402328491,1.028608888244629
1789224572748262400,6.687262451171875,4.453364725494384,7.413645440673828,3.797353470611572
1789224572758300400,6.697300537109375,2.307411849975586,7.7495818611145015,5.778106431579589
1789224572768338400,6.70733837890625,2.401084989929199,8.243086678314208,3.796605282592773
1789224572778376700,6.717376708984375,3.5538930892944336,7.879317663574218,2.586037068176269
1789224572788414500,6.72741455078125,3.09001651763916,8.399158699035643,3.374477602386474
1789224572798451500,6.737451416015625,4.052784860229492,9.071031539916993,1.668160006713867
1789224572808489500,6.747489501953125,4.854393503570557,9.294440482330321,0.2741360900878906
1789224572818527500,6.757527587890625,4.568884955596924,9.83777462158203,0.47165772705078124
1789224572828565200,6.767565185546875,5.035155728912353,9.854384395599364,0.7505822204589844
1789224572838603500,6.777603515625,4.827159459686279,9.980678533172608,1.5197195037841795
1789224572848641300,6.787641357421875,4.286069884490966,9.877428586578368,2.065447844696045
1789224572858678500,6.797678466796875,4.384681065368652,9.752630825042724,1.9137153144836425
1789224572868716500,6.807716552734375,4.187159428405762,9.78121160736084,1.1876736610412597
1789224572878754300,6.81775439453125,2.455403440093994,9.114576082611084,0.35523967132568357
1789224572888792600,6.82779248046875,4.937891286468505,8.649951322937012,0.8322843521118164
1789224572898830300,6.837830322265625,4.924723177337646,8.76607010345459,0.6964134078979491
1789224572908868600,6.84786865234375,4.56514401550293,8.654739726257324,1.084722989654541
1789224572918906400,6.85790625,4.1469069129943845,8.923039949798584,1.0287585258483887
1789224572928943400,6.867943359375,4.395754248046875,9.091831166839599,1.5714941146850585
1789224572938981600,6.877981689453125,4.5605052497863765,9.382128118133544,1.4561235221862792
1789224572949019400,6.888019287109375,4.196137684631347,9.636811319732665,0.7631517791748046
1789224572959057700,6.8980576171875,4.017620023345947,9.570821136474608,0.4939537300109863
1789224572969095400,6.908095458984375,4.1757869705200195,9.67885948638916,0.04773439559936523
1789224572979133400,6.918133544921875,4.2791865547180175,9.597456629943848,0.011222820281982421
1789224572989170400,6.92817041015625,4.505887524414062,9.443479535675047,0.2485480598449707
1789224572999208400,6.93820849609375,4.578611399841308,9.33349589691162,0.41090485992431636
1789224573009246500,6.94824658203125,4.337096307373047,9.215581465148926,0.4342483261108398
1789224573019284500,6.958284423828125,4.187159428405762,9.200019154357909,0.35239655685424803
1789224573029322500,6.968322509765625,3.6076129890441893,9.13552534713745,0.3742436470031738
1789224573039360500,6.978360595703125,3.6219781990051265,9.018808016204833,0.45504795303344725
1789224573049398500,6.9883984375,3.8838440055847165,9.126247815704344,0.5096656784057617
1789224573059435300,6.998435302734375,4.0632594924926755,9.241319132995605,0.445620783996582
1789224573069473500,7.0084736328125,3.766079211425781,9.199121328735352,0.7336731712341308
1789224573079511300,7.01851123046875,2.8259061470031734,9.253290141296386,0.6112696113586426
1789224573089549600,7.028549560546875,2.726546778106689,8.908375464630126,0.4176385520935058
1789224573099587300,7.03858740234375,4.599710301971435,8.827870433807373,0.36571430358886714
1789224573109625600,7.04862548828125,3.4118870033264157,8.802581678771972,0.08230068206787108
1789224573119663400,7.058663330078125,2.5553613594055173,8.330923951721191,0.5349544334411621
1789224573129700400,7.068700439453125,1.9553145683288573,8.259247539520263,0.9943418769836425
1789224573139738600,7.078738525390625,2.737619960784912,8.062025177764893,1.2900257820129393
1789224573149776400,7.0887763671875,3.656694123077392,8.398410511016845,0.44277766952514647
1789224573159814400,7.098814453125,3.9811084480285643,8.442104691314697,0.06239888076782226
1789224573169852400,7.108852294921875,3.001879969024658,8.531587978363037,0.46791678695678707
1789224573179890400,7.118890380859375,2.699013459014892,8.731354179382324,0.14694412689208983
1789224573189927700,7.128927734375,3.424007649230957,9.020753305053711,-0.008230068206787108
1789224573199965400,7.13896533203125,4.1109938880920405,9.372850586700439,0.30885201416015623
1789224573210003500,7.14900341796875,4.356249920654297,9.533860648345946,-0.10519523544311522
1789224573220041500,7.15904150390625,3.6234745750427244,9.76220763168335,0.3947439987182617
1789224573230079500,7.16907958984375,3.6619314392089843,9.759663792419433,0.19722236175537108
1789224573240117500,7.179117431640625,4.002207350158691,9.730035546875,0.4836287353515625
1789224573250155500,7.189155517578125,4.403535403442382,9.578751929473876,0.6021417175292968
1789224573260192500,7.199192626953125,3.9598599082946775,9.438840769958496,0.5382464607238769
1789224573270230500,7.20923046875,3.4075475128173824,9.159317726135253,0.5900210716247558
1789224573280268500,7.2192685546875,3.2146646415710447,8.997559476470947,0.5074211143493652
1789224573290306600,7.229306640625,3.508253620147705,8.82936680984497,0.6362590911865234
1789224573300344600,7.239344482421875,3.69021294631958,8.706663974761963,0.6581061813354492
1789224573310382300,7.24938232421875,3.458274660491943,8.630648072052,0.7550713485717773
1789224573320420600,7.259420654296875,3.2769138847351074,8.579172736358641,0.8315361640930176
1789224573330457300,7.269457275390625,3.370287749481201,8.636184663391113,0.8511386901855468
1789224573340495400,7.279495361328125,3.7243303199768065,8.769062855529784,0.86191259765625
1789224573350533400,7.289533447265625,3.8610990898132322,8.958354424285888,0.8019079185485839
1789224573360571400,7.2995712890625,3.8591538009643553,9.119514123535156,0.7824550300598144
1789224573370609400,7.309609375,3.8877345832824703,9.251943402862548,0.806995597076416
1789224573380647400,7.3196474609375,4.006846115875244,9.363124142456055,0.7770680763244628
1789224573390684400,7.329684326171875,4.319139794921875,9.423727371978758,0.7794622779846191
1789224573400722400,7.339722412109375,4.393210408782958,9.402478832244872,0.6630442222595214
1789224573410760400,7.349760498046875,4.170100741577148,9.341576327514648,0.5428852264404297
1789224573420798500,7.359798583984375,4.00938995513916,9.17413184890747,0.5087678527832031
1789224573430836500,7.36983642578125,4.064905506134033,9.026888446807861,0.4914098907470703
1789224573440874500,7.37987451171875,4.259284753417968,8.822483480072021,0.5710170959472656
1789224573450912500,7.38991259765625,4.17563733291626,8.634987562561035,0.6049848320007324
1789224573460949500,7.399949462890625,3.822492588043213,8.502408645629883,0.6382043800354004
1789224573470987500,7.409987548828125,3.797353470611572,8.405144203186035,0.6172551155090331
1789224573481025500,7.420025634765625,4.012382707214355,8.42115542678833,0.5773018753051757
1789224573491063300,7.430063232421875,4.273500325775146,8.50405465927124,0.5469254417419434
1789224573501101600,7.4401015625,4.396053523254395,8.699331732177734,0.1897404815673828
1789224573511139300,7.450139404296875,4.412812934875488,8.801683853149413,-0.313490779876709
1789224573521177600,7.460177490234375,4.026299004364013,8.691999489593506,-0.19946692581176756
1789224573531214600,7.470214599609375,3.7578491432189938,8.919448647308348,-0.16953940505981444
1789224573541252400,7.48025244140625,4.661660269927978,8.84837078552246,0.11252747802734374
1789224573551290600,7.49029052734375,5.0103158866882325,8.96359174041748,0.6512228515624999
1789224573561328400,7.500328369140625,4.450970523834228,9.187299958038329,0.316034619140625
1789224573571366700,7.51036669921875,4.146009087371826,8.970624707794189,0.6911760917663574
1789224573581404400,7.520404296875,3.84314257736206,8.980351152038574,0.6510732139587402
1789224573591442700,7.530442626953125,4.037372187042236,8.77923821258545,0.7873930709838867
1789224573601479400,7.5404794921875,3.9935283691406247,8.662520881652831,0.9979331794738769
1789224573611517400,7.550517333984375,3.6234745750427244,8.711452378082274,0.9338882850646972
1789224573621555500,7.560555419921875,4.398298087310791,8.77205560760498,1.3735235649108886
1789224573631593500,7.570593505859375,4.4930186904907226,8.960449350738525,1.132607022857666
1789224573641631500,7.580631591796875,3.8480806182861325,9.064148210144042,1.256357321166992
1789224573651669500,7.59066943359375,3.4865561676025387,9.166350693511962,0.8608651344299316
1789224573661707500,7.60070751953125,3.4118870033264157,9.186252494812011,0.8110358123779297
1789224573671744500,7.61074462890625,3.531896361541748,9.108440940856934,1.022024833679199
1789224573681782500,7.620782470703125,3.437475033569336,8.96942760696411,1.329230834197998
1789224573691820300,7.6308203125,3.5351883888244626,8.715492593383788,1.9928736068725585
1789224573701858600,7.640858642578125,3.586663724517822,8.527697400665282,2.658012755584717
1789224573711896300,7.650896240234375,4.046350443267822,8.53009160232544,3.1610943794250486
1789224573721934600,7.6609345703125,4.591629871368408,8.855852665710449,3.4120366409301757
1789224573731972400,7.670972412109375,4.6550762153625485,9.367463632965087,2.11961665725708
1789224573742010400,7.68101025390625,3.8476317054748534,9.832686943054199,-0.4103063095092773
1789224573752047600,7.691047607421875,2.7730840728759762,9.935936889648437,-1.2020388710021972
1789224573762085600,7.701085693359375,2.4230817176818844,9.88895068206787,-2.161215911102295
1789224573772123600,7.71112353515625,3.402010921478271,9.56363853149414,-2.1734861946105957
1789224573782161400,7.721161376953125,4.436605313873291,9.191938723754882,-0.5059247383117675
1789224573792199700,7.73119970703125,4.652233100891113,8.910320753479004,0.08858546142578125
1789224573802237400,7.741237548828125,3.9202059432983396,8.624064017486571,0.34177228698730466
1789224573812275700,7.751275634765625,3.0226795959472654,8.412177170562744,0.34237083740234375
1789224573822312700,7.761312744140625,2.6988638214111327,8.40185217590332,-0.23927052841186522
1789224573832350500,7.7713505859375,3.154659962463379,8.66940421142578,-0.6826467483520507
1789224573842388700,7.781388671875,4.022857339477539,9.007585195922852,-1.4260463638305663
1789224573852426500,7.791426513671875,4.182670300292968,9.388263259887696,-1.9502268898010253
1789224573862464800,7.80146484375,3.8423943893432613,9.623044660186768,-2.1260510742187497
1789224573872502500,7.81150244140625,4.121468520355224,9.722104753875731,-1.799092910003662
1789224573882540800,7.821540771484375,5.082291574096679,9.572167874908446,-1.0199299072265624
1789224573892577500,7.83157763671875,5.474791008758545,9.349357482910156,-0.2796726814270019
1789224573902615600,7.841615478515625,4.837634091949463,9.028384822845458,0.23567922592163085
1789224573912653600,7.851653564453125,3.72193611831665,8.790012120056153,0.3098994773864746
1789224573922691600,7.861691650390625,3.201047619628906,8.680178118896483,-0.09322422714233398
1789224573932729600,7.8717294921875,3.2390555709838864,8.627804957580565,-0.43978491744995113
1789224573942767600,7.881767578125,3.675997373962402,8.60580822982788,-0.6274304725646972
1789224573952805600,7.8918056640625,3.6529531829833983,8.422053252410889,-0.5262754524230957
1789224573962843600,7.90184375,2.583792504119873,8.435071723937988,-0.07721300354003906
1789224573972880600,7.911880615234375,2.4730606773376462,8.647557121276854,0.36541502838134765
1789224573982918400,7.92191845703125,3.5571851165771484,8.978106587982177,0.8447042732238769
1789224573992956700,7.931956787109375,3.937563905334472,9.487622628784179,0.9879074600219726
1789224574002994400,7.941994384765625,3.2555157073974605,9.871143807220458,1.1692682357788085
1789224574013032700,7.95203271484375,3.0068180099487303,10.16398459777832,1.4797662635803221
1789224574023070500,7.962070556640625,3.6399347114562985,10.320206256103514,1.6482582054138182
1789224574033108500,7.9721083984375,4.300584732055664,10.399663823699951,1.5400702178955077
1789224574043145700,7.982145751953125,4.358644122314453,10.244788903808594,1.3040917167663573
1789224574053183500,7.99218359375,3.5591304054260253,9.950751012420653,1.1162965240478515
1789224574063221800,8.0022216796875,2.770091320800781,9.505429503631591,1.2556091331481933
1789224574073259500,8.012259521484374,2.540247961425781,9.093327542877196,1.5212158798217772
1789224574083297500,8.022297607421875,3.1453824310302734,8.711602015686035,1.9023428565979004
1789224574093335600,8.03233544921875,3.4949358734130858,8.579472011566162,2.01127903213501
1789224574103373600,8.04237353515625,3.4247558372497555,8.434772448730468,1.8589479515075682
1789224574113411600,8.05241162109375,2.7608137893676754,8.327631924438476,1.4662988792419434
1789224574123448600,8.062448486328124,1.606359676361084,8.321197507476807,0.9364321243286132
1789224574133486600,8.072486572265625,1.4935329231262207,8.8865283744812,0.8973767097473144
1789224574143524600,8.082524658203125,4.658517880249023,8.922890312194824,0.9054571403503417
1789224574153562600,8.092562744140626,4.535366132354736,9.20585502090454,0.802506468963623
1789224574163600600,8.1026005859375,2.7621605278015133,9.73602105102539,1.0034697708129883
1789224574173638700,8.112638671875,4.30327820892334,9.223362620544433,0.9141361213684082
1789224574183676400,8.122676513671875,4.157980095672607,9.1799677154541,1.4474445411682129
1789224574193713700,8.132713623046875,3.369539561462402,8.834155213165282,1.8082208038330077
1789224574203751700,8.142751708984376,3.248482740020752,9.011924686431884,1.765274811553955
1789224574213789700,8.152789794921874,3.918559929656982,9.348160382080078,0.7462427299499511
1789224574223827700,8.16282763671875,3.374477602386474,9.65252326812744,-0.3434183006286621
1789224574233865500,8.172865478515625,1.8094179046630858,9.943867682647705,-0.42871173477172847
1789224574243903700,8.18290380859375,2.6315268997192383,9.816226806640625,-0.23208792343139648
1789224574253941500,8.19294140625,4.185962327575683,9.33993031387329,0.5789478889465332
1789224574263979800,8.202979736328125,3.407996425628662,9.208099584960937,1.0525509048461914
1789224574274016500,8.2130166015625,2.736123584747314,9.187299958038329,1.1568483146667479
1789224574284054500,8.223054443359375,3.1063270164489745,9.233986890411376,0.5891232460021972
1789224574294092500,8.233092529296876,2.5972598884582516,9.501688563537597,0.32785598983764647
1789224574304130600,8.243130615234374,2.0632032806396485,9.675268183898925,0.16774375381469725
1789224574314168600,8.25316845703125,2.5591022994995116,9.917531464385986,0.06718728408813476
1789224574324206600,8.26320654296875,4.145410536956787,9.678260935974121,0.3737947341918945
1789224574334244600,8.27324462890625,4.18790761642456,9.454403080749511,0.6175543907165527
1789224574344281600,8.283281494140626,3.9701849029541014,9.047837711334228,1.230320378112793
1789224574354319600,8.293319580078125,4.421342278289795,8.429535132598877,1.5312415992736816
1789224574364357600,8.303357666015625,3.9273885482788082,8.124424058532714,1.776048719024658
1789224574374395600,8.313395751953125,3.2864906913757324,8.122329132080077,1.5551836158752441
1789224574384433400,8.323433349609376,3.224690361022949,8.367136251831054,0.8246528343200683
1789224574394471700,8.3334716796875,3.1477766326904293,8.743474825286865,0.2032078659057617
1789224574404509400,8.343509521484375,2.9979893913269042,8.961496813964843,-0.02259527816772461
1789224574414547700,8.353547607421875,3.248333102416992,9.02718772201538,0.2620154441833496
1789224574424584700,8.363584716796876,3.8798037902832028,9.003694618225097,0.5874772323608398
1789224574434622500,8.37362255859375,4.020463137817383,9.041852207183837,0.6763619689941406
1789224574444660700,8.38366064453125,3.4548329956054684,9.453355617523194,0.5015852478027344
1789224574454698500,8.393698486328125,3.687519469451904,9.74948843536377,0.21338322296142576
1789224574464736800,8.40373681640625,4.155286618804931,9.935787252044678,0.2702455123901367
1789224574474774500,8.4137744140625,3.4950855110168453,9.798569569396973,0.6120177993774414
1789224574484812500,8.4238125,2.6562171043395995,9.686790279388427,1.2921207084655761
1789224574494850600,8.4338505859375,3.2460885383605955,9.324218365478515,1.9316718269348143
1789224574504887600,8.443887451171875,3.1630396682739255,9.273940130615234,2.2191256637573242
1789224574514925600,8.453925537109376,3.463362339019775,9.520542901611327,2.4639327835083007
1789224574524963600,8.463963623046874,4.967519532012939,9.098564859008789,2.460640756225586
1789224574535001600,8.474001708984375,3.624970951080322,9.05921016921997,1.7408838821411132
1789224574545039600,8.48403955078125,2.37489840927124,8.788515744018554,2.008585555267334
1789224574555077600,8.49407763671875,3.4247558372497555,8.49732096710205,1.734599102783203
1789224574565115600,8.50411572265625,3.8298248306274414,8.538770583343505,1.8953098892211913
1789224574575152600,8.514152587890624,3.6969466384887695,8.466345983123778,2.0310311958312988
1789224574585190700,8.524190673828125,3.51154564743042,8.533084354400634,2.2053590042114255
1789224574595228700,8.534228759765625,3.9577649818420406,8.526799575042723,2.2170307373046874
1789224574605266700,8.5442666015625,3.793013980102539,8.656086464691162,2.0172645362854005
1789224574615304700,8.5543046875,3.466055815887451,8.911368216705322,1.7043723068237304
1789224574625342700,8.5643427734375,4.062511304473877,9.068786975860595,1.2620435501098632
1789224574635380500,8.57438037109375,4.382137226104736,9.170989459228515,0.9578303016662597
1789224574645418800,8.584418701171876,3.9202059432983396,9.192088361358643,0.8117840003967285
1789224574655455500,8.59445556640625,3.6547488342285153,9.189394884490966,0.840813695526123
1789224574665493500,8.604493408203124,4.0815152801513666,9.184905756378173,0.8879495407104492
1789224574675531500,8.614531494140625,4.275894527435303,9.183559017944335,0.9118915573120117
1789224574685569500,8.624569580078125,3.7077205459594724,9.167398156738281,1.073200894165039
1789224574695607600,8.634607666015626,3.574692716217041,9.247454274749755,0.9834183319091796
1789224574705645600,8.6446455078125,4.413261847686767,9.146299254608154,0.8491934013366699
1789224574715683600,8.65468359375,4.565592928314209,9.044994596862793,0.6545148788452148
1789224574725721600,8.6647216796875,3.934122240447998,9.006837007904052,0.18315642700195311
1789224574735758600,8.674758544921875,3.8340146835327147,8.79165813369751,-0.18899229354858396
1789224574745796600,8.684796630859376,3.6598365127563475,8.667608560180664,-0.5925649108886718
1789224574755834600,8.694834716796874,3.614795594024658,8.749161054229736,-0.6666355247497558
1789224574765872400,8.704872314453125,5.295225884246826,8.415469197845459,-0.6675333503723144
1789224574775910400,8.714910400390625,3.924395796203613,7.994987531280517,-0.7761702507019043
1789224574785948400,8.724948486328126,1.3958195678710936,8.653991538238525,-1.1794435928344726
1789224574795986400,8.734986328125,3.331232334899902,8.845378033447265,-1.4936825607299804
1789224574806024200,8.745024169921875,6.0808233039855955,9.072827191162109,-1.0191817192077637
1789224574816061400,8.7550615234375,4.739771099090576,9.144204328155517,-0.3188777336120605
1789224574826099500,8.765099365234375,2.2849662094116208,9.542240354156494,1.055394019317627
1789224574836137500,8.775137451171876,5.453991381835937,8.775497272491455,-0.1140238540649414
1789224574846175500,8.785175537109374,2.129792014312744,9.76804349822998,-0.39968203964233395
1789224574856213200,8.795213134765625,0.7071873153686523,9.965415497589111,-1.4065934753417968
1789224574866251500,8.80525146484375,3.8419454765319823,9.273790493011473,-0.07676409072875977
1789224574876289300,8.815289306640626,5.211129550933838,8.812457760620116,0.9569324760437011
1789224574886327600,8.82532763671875,4.451868349456787,8.827271883392333,2.0317793838500977
1789224574896364500,8.835364501953125,5.820902786254883,9.427468312072753,1.9439421104431152
1789224574906402300,8.84540234375,4.8804304466247554,10.104279193878174,0.6063315704345703
1789224574916440600,8.855440673828125,2.6253917579650876,11.176282987213135,-1.0905588562011719
1789224574926478300,8.865478271484376,4.089745348358154,11.448922701263427,-0.9903016616821289
1789224574936516600,8.8755166015625,5.795614031219482,10.858003804016112,-0.513256980895996
1789224574946554400,8.885554443359375,4.251204322814941,10.112060349273682,0.8147767524719238
1789224574956592400,8.89559228515625,2.4904186393737793,9.523236378479004,0.9204209007263183
1789224574966630400,8.90563037109375,2.466775897979736,8.585906428527831,0.1867477294921875
1789224574976667400,8.91566748046875,0.12015899581909179,6.491877801513671,-0.25947160491943355
1789224574986705700,8.92570556640625,-0.4330512252807617,7.139958263397216,-0.7113771682739257
1789224574996743400,8.935743408203125,0.5478232673645019,7.717858689117431,-0.9917980377197265
1789224575006781400,8.945781494140626,0.15248071823120116,9.840168823242188,-1.515679288482666
1789224575016819500,8.9558193359375,0.2551321144104004,10.362852973175048,-0.3447650390625
1789224575026857500,8.965857421875,0.19557634811401367,8.150311363983153,1.444751064300537
1789224575036895500,8.9758955078125,0.2694973243713379,7.19472562637329,4.461445156097412
1789224575046933500,8.98593359375,6.484246283721923,7.380575530242919,8.570194480133056
1789224575056971300,8.99597119140625,16.003143171691892,9.00923120956421,6.600963614654541
1789224575067008500,9.006008544921874,2.547879479217529,13.62405490951538,0.11028291397094726
1789224575077046300,9.01604638671875,-0.8667010009765624,13.281235159301756,-0.8122329132080077
1789224575087084500,9.02608447265625,0.799962629699707,13.10615916290283,-2.4322096115112304
1789224575097122300,9.036122314453126,0.7703343841552734,12.488904047393799,-2.2495020973205566
1789224575107160300,9.046160400390624,0.6120177993774414,10.091260722351073,1.1379939765930176
1789224575117198600,9.056198486328125,0.04414309310913086,8.514379653930664,3.8913258857727047
1789224575127236400,9.066236328125,3.4383728591918943,7.032668101501464,5.9302878746032714
1789224575137274600,9.076274658203126,13.103615323638916,6.196193896484375,2.974346649932861
1789224575147311400,9.086311279296876,4.505139336395263,8.576179984283447,0.8681973770141601
1789224575157349400,9.096349365234374,-1.344493869781494,7.705139492797851,2.1779753227233885
1789224575167387400,9.106387451171875,0.06584054565429687,6.95844785003662,0.7079355033874511
1789224575177425400,9.11642529296875,0.3699041564941406,7.993940068054199,-0.23882161560058593
1789224575187463400,9.12646337890625,1.9743185440063475,8.162731285095214,1.5822680221557617
1789224575197501400,9.13650146484375,6.006752690124511,7.914931413269042,1.583914035797119
1789224575207539200,9.146539306640625,3.469048567962646,9.539247602081298,0.6458358978271485
1789224575217577500,9.156577392578125,1.6365864723205565,9.893589447784423,0.24630349578857422
1789224575227615200,9.166615234375,3.5776854682922363,9.983072734832763,0.2102408332824707
1789224575237652500,9.176652587890626,4.0806174545288085,10.16338604736328,0.22176292877197265
1789224575247690500,9.1866904296875,3.459022848510742,10.258405925750731,0.9810241302490234
1789224575257728300,9.196728271484375,4.122964896392822,10.394725782775879,1.345840608215332
1789224575267766500,9.2067666015625,4.738873273468017,10.491242037200927,1.2835913650512694
1789224575277804300,9.21680419921875,3.0162451789855957,10.504410146331786,0.790385823059082
1789224575287842600,9.226842529296874,0.7754220626831054,10.657339777374267,0.7918821990966797
1789224575297880300,9.23688037109375,1.9360113174438476,10.23446390914917,0.7682394577026367
1789224575307918300,9.24691845703125,3.8093244789123535,9.736469963836669,0.8333318153381347
1789224575317955600,9.25695556640625,3.517082238769531,9.015665626525879,1.1055226165771483
1789224575327993300,9.266993408203126,1.9083283607482908,8.438663026428221,1.0532990928649901
1789224575338031600,9.277031494140624,1.5363292778015136,7.988253839111327,0.7755717002868652
1789224575348069400,9.2870693359375,2.2848165718078612,7.854926734161377,0.49844285812377925
1789224575358107400,9.297107421875,2.4543559768676757,8.26074391555786,0.5283703788757323
1789224575368145400,9.3071455078125,2.687341725921631,8.671199862670898,0.4438251327514648
1789224575378183400,9.317183349609374,2.133832229614258,8.91825154647827,0.5512649322509765
1789224575388221400,9.327221435546875,0.21443068618774414,9.271396291351317,0.7064391273498535
1789224575398259500,9.337259521484375,-0.046537294769287106,9.578303016662597,1.1674725845336913
1789224575408296400,9.34729638671875,0.817769504547119,10.325593209838866,1.764676261138916
1789224575418334500,9.35733447265625,5.057002819061279,9.928455009460448,1.845779842376709
1789224575428372500,9.36737255859375,6.406434729766845,10.248829119110107,1.6711527587890624
1789224575438410500,9.377410400390625,5.242254172515869,10.856806703186034,1.5598223815917969
1789224575448448500,9.387448486328125,5.421819297027588,10.516680429840088,1.4344260696411133
1789224575458486300,9.397486328125,3.5775358306884764,10.906785662841797,1.3437456817626952
1789224575468524500,9.407524658203124,1.9780594841003416,11.331457182312011,1.2497732666015624
1789224575478562300,9.417562255859375,1.8442834663391112,10.982502290344238,1.0494085151672363
1789224575488600600,9.4276005859375,1.1677718597412108,10.762235737609863,1.6632219657897949
1789224575498637300,9.43763720703125,2.3116017028808593,9.924564431762695,2.2566847023010252
1789224575508675300,9.44767529296875,3.4174235946655274,8.34469061126709,2.7588685005187985
1789224575518713600,9.457713623046875,2.0790648666381837,7.213729602050781,2.8275521606445313
1789224575528751400,9.46775146484375,0.30151977157592774,6.075286712646484,2.3555951583862305
1789224575538789600,9.47778955078125,-0.47016135101318357,5.519383014678954,1.6470611045837402
1789224575548827400,9.487827392578126,0.5861304939270019,6.46733723449707,0.2305915473937988
1789224575558865400,9.497865478515624,5.266794739532471,7.894580699157714,0.9683049339294433
1789224575568903400,9.5079033203125,8.115445802307129,9.30910496749878,0.8678981018066406
1789224575578941400,9.51794140625,4.407126705932617,10.778546236419677,0.27952304382324217
1789224575588978400,9.527978515625,0.17941548690795897,11.641057384490965,0.5776011505126952
1789224575599016400,9.538016357421874,0.23343466186523437,11.846958727264404,0.7537246101379395
1789224575609054200,9.54805419921875,0.6055833824157715,12.309787835693358,1.5679028121948242
1789224575619092500,9.558092529296875,1.9758149200439452,11.969661562347412,2.9755437507629394
1789224575629130200,9.568130126953125,7.720103253173828,10.144232434082031,3.920654856109619
1789224575639168500,9.57816845703125,7.903110042572021,9.789890588378906,2.1772271347045895
1789224575649206300,9.588206298828124,4.137928656768799,8.650849148559569,1.4730325714111328
1789224575659244500,9.59824462890625,1.9666870262145995,7.387907772827148,1.2665326782226562
1789224575669282600,9.608282470703125,0.3978863883972168,7.021594918823242,0.38456864166259763
1789224575679319300,9.6183193359375,-0.13871405868530273,6.937648223114013,0.5958569381713866
1789224575689357600,9.628357666015624,-0.2305915473937988,7.177218026733398,0.42287586822509765
1789224575699395300,9.638395263671875,0.06853402252197265,7.490110256195068,0.7305307815551757
1789224575709433300,9.648433349609375,0.19946692581176756,7.778312281036376,2.2117934211730956
1789224575719471400,9.658471435546875,0.9081506172180175,8.160486721038819,2.9864672958374023
1789224575729509400,9.66850927734375,5.10099627456665,7.982717247772216,4.635473689270019
1789224575739547400,9.67854736328125,7.433846517181396,8.609100257110596,4.083759844207764
1789224575749585400,9.68858544921875,5.381716419219971,9.831489842224121,2.9448680419921875
1789224575759623400,9.69862353515625,2.7986721031188964,10.153061052703857,3.1139585342407226
1789224575769661400,9.708661376953126,1.6487071182250976,11.291503942108154,2.233939786529541
1789224575779698400,9.718698486328124,3.1235353408813475,11.46672957611084,2.4078186820983887
1789224575789736400,9.728736328125,2.9135937828063962,11.275941631317139,3.5500025115966793
1789224575799774500,9.7387744140625,3.7855320999145508,11.192443848419188,4.670488888549804
1789224575809812200,9.748812255859375,8.607005330657959,10.079888264465332,6.357353595733642
1789224575819850500,9.7588505859375,9.04020619354248,9.655964933013916,5.352387448883056
1789224575829888300,9.76888818359375,4.008941042327881,9.286360051727295,2.8960861831665037
1789224575839926500,9.778926513671875,0.8294412376403808,8.14582223587036,1.6380828483581542
1789224575849964300,9.78896435546875,-0.2893991256713867,7.710676084136963,1.5435118827819823
1789224575860002600,9.79900244140625,0.2677016731262207,7.9289973480224605,-0.20006547622680662
1789224575870039600,9.80903955078125,3.9559693305969237,7.770830400848388,-0.14649521408081054
1789224575880077300,9.819077392578125,4.531475554656982,7.749282585906982,1.4468459907531737
1789224575890115600,9.829115478515625,2.5493758552551267,7.96087015762329,0.6789058082580566
1789224575900153300,9.8391533203125,1.6781857261657713,7.466018601989746,0.6696282768249512
1789224575910191600,9.849191650390624,1.5318401496887206,7.811831104278564,0.30705636291503907
1789224575920229400,9.8592294921875,4.110544975280762,8.365041325378417,-0.30735563812255856
1789224575930267400,9.869267333984375,6.019621524047851,8.84926861114502,-1.1112088455200195
1789224575940305400,9.879305419921875,3.611503566741943,10.127323384857178,-1.7076643341064452
1789224575950343400,9.889343505859374,2.7474960426330566,11.369165858459471,-2.4902690017700193
1789224575960381400,9.89938134765625,4.4562078399658205,11.539752726745604,-2.629132698059082
1789224575970418400,9.90941845703125,3.866336405944824,11.202469567871093,-1.2431892120361328
1789224575980456400,9.91945654296875,2.7410616256713864,10.920253047180175,0.38352117843627925
1789224575990494500,9.929494384765626,4.586242917633056,10.108917959594725,1.2274772636413573
1789224576000532500,9.939532470703124,5.032462252044677,9.255235430145262,0.9630676177978515
1789224576010570500,9.949570556640625,1.077540384674072,8.550442316436767,0.2653074714660644
1789224576020608500,9.9596083984375,-0.6031891807556152,7.330746208190917,0.4164414512634277
1789224576030646300,9.969646240234376,0.22071546554565427,7.267000588989258,-0.5889736083984375
1789224576040684500,9.9796845703125,0.5895721588134766,7.580790644073486,-0.5026327110290527
1789224576050722300,9.989722412109375,5.40101967010498,7.120655012512207,1.951723265838623
1789224576060760600,9.999760498046875,10.880449444580078,8.11409906387329,1.5791256324768066
1789224576070797600,10.009797607421875,4.942081139373779,10.130166499328613,1.0109516510009764
1789224576080835300,10.01983544921875,-0.30137013397216794,10.370933403778075,0.6414964073181152
1789224576090873600,10.02987353515625,0.08604162216186523,10.116699114990233,0.12285247268676758
1789224576100911400,10.039911376953125,0.7327753456115722,12.613103258514403,0.6088754096984863
1789224576110949600,10.04994970703125,0.7927800247192383,13.740173690032957,1.6596306632995605
1789224576120987400,10.0599873046875,1.2421417488098143,12.105532506561278,1.6686089195251463
1789224576131025400,10.070025390625,11.975198153686522,10.0495118309021,4.3725604194641114
1789224576141063400,10.0800634765625,18.372953902435302,9.605237785339355,1.6223708999633788
1789224576151101400,10.090101318359375,4.2594343910217285,12.433089221191405,-1.0956465347290039
1789224576161139500,10.100139404296876,-0.5575497116088867,10.032153868865967,-0.48662148742675776
1789224576171176400,10.110176513671876,-0.13407529296874998,8.030152368164062,-1.1917138763427733
1789224576181214200,10.120214111328124,0.658854369354248,9.35953283996582,-3.2399533966064453
1789224576191252500,10.13025244140625,1.5551836158752441,11.164910529327392,-3.315520386505127
1789224576201290500,10.14029052734375,1.1311106468200682,8.0054621635437,0.18734627990722655
1789224576211328500,10.15032861328125,3.3533787002563473,5.2551230064392085,0.963366893005371
1789224576221366500,10.160366455078124,0.31797990798950193,8.438214113616944,-1.2609960868835448
1789224576231404500,10.170404541015625,2.019509100341797,8.12711753540039,-0.17253215713500974
1789224576241442600,10.180442626953125,6.944830828094482,6.30752427368164,-0.263661457824707
1789224576251480300,10.190480224609376,2.7138275817871094,8.178742508697509,-0.7206546997070312
1789224576261518600,10.2005185546875,1.8088193542480469,8.672696238708495,-0.25004443588256836
1789224576271556400,10.210556396484375,5.044133985137939,8.011597305297851,-0.8372223930358886
1789224576281593300,10.22059326171875,2.101061594390869,9.000701866149901,-0.5548562347412109
1789224576291631400,10.23063134765625,1.604414387512207,9.706392805480956,-0.13901333389282225
1789224576301669400,10.24066943359375,6.999747828674316,9.393799851226806,0.48198272171020506
1789224576311707400,10.250707275390624,4.410119458007812,9.67811129837036,-0.3480570663452148
1789224576321745400,10.260745361328125,0.10160393295288085,10.477325740051269,-0.2528875503540039
1789224576331783400,10.270783447265625,2.5686791061401366,10.580126773834229,1.0040683212280272
1789224576341821400,10.280821533203126,8.942193563079833,10.120440055084227,0.5626373901367188
1789224576351859500,10.290859375,8.251017471313476,9.989656789398193,0.6226420692443847
1789224576361897500,10.3008974609375,3.644124564361572,9.256133255767821,1.1978490180969237
1789224576371935500,10.310935546875,2.8248586837768555,8.198345034790039,0.9810241302490234
1789224576381973500,10.320973388671876,4.991611186218261,8.020725199127197,0.8141782020568847
1789224576392010500,10.331010498046876,6.886771437835693,7.5798928184509275,1.0274117874145507
1789224576402048300,10.34104833984375,4.087051871490479,7.721150716400146,0.5431845016479492
1789224576412086500,10.35108642578125,0.8291419624328613,7.683442040252685,0.7179612228393554
1789224576422124300,10.361124267578125,0.24271219329833982,7.052869178009033,0.9488520454406738
1789224576432162600,10.37116259765625,1.8695722213745116,6.558017622375488,0.591816722869873
1789224576442200300,10.381200439453124,5.428253713989258,6.417358274841308,2.1836615516662596
1789224576452238300,10.39123828125,10.571747068023681,5.919663604736328,3.123684978485107
1789224576462276400,10.4012763671875,7.273435005950927,6.949768869018555,2.670582314300537
1789224576472314400,10.411314453125,2.6411037063598632,8.162731285095214,1.534084713745117
1789224576482352400,10.421352294921874,1.2550105827331541,8.479963005065917,1.1336544860839843
1789224576492390400,10.431390380859375,0.38531682968139647,9.47355669403076,0.5193921226501464
1789224576502427400,10.441427490234375,0.895730696105957,11.445630673980713,1.1716624374389648
1789224576512465400,10.45146533203125,5.364358457183838,12.119598441314697,3.485209429168701
1789224576522503400,10.46150341796875,9.53805050125122,11.850101116943359,3.9502831016540525
1789224576532541400,10.47154150390625,7.781454670715331,12.169278125762938,3.973028017425537
1789224576542579500,10.481579345703125,6.0619689659118645,12.119748078918457,4.880280809020996
1789224576552617200,10.4916171875,2.9460651428222655,11.21698441543579,1.765274811553955
1789224576562655500,10.501655517578126,-0.3869628433227539,10.268132369995117,-0.1924339584350586
1789224576572693200,10.511693359375,0.40940848388671874,10.55962642211914,-2.5501240432739256
1789224576582731500,10.5217314453125,1.2689268798828124,12.09251403503418,-3.3602620300292965
1789224576592769300,10.531769287109375,8.985588468170166,7.840860799407959,0.7770680763244628
1789224576602807600,10.5418076171875,10.61723689956665,6.756137809753418,1.1477204208374023
1789224576612845300,10.55184521484375,-0.4686649749755859,9.393350938415526,-0.08065466842651367
1789224576622882300,10.56188232421875,0.28311434631347654,7.037755780029296,0.509516040802002
1789224576632920600,10.571920654296875,1.7848773376464844,7.829039428710937,-1.0996867500305174
1789224576642958300,10.581958251953125,0.8123825508117676,10.375422531890868,-2.5412954246520996
1789224576652996600,10.59199658203125,6.4728738258361815,9.369558559417724,-1.2328642173767088
1789224576663034400,10.602034423828124,5.255571919250488,8.075642199707032,-0.6404489440917969
1789224576673072400,10.612072265625,-0.44143093109130854,8.191910617828368,0.027383681488037107
1789224576683110400,10.6221103515625,0.3408744613647461,7.492654095458984,1.1299135459899903
1789224576693148400,10.6321484375,4.932653970336914,7.478438523101806,0.4230255058288574
1789224576703186400,10.6421865234375,8.93201820602417,8.119635655212402,-0.7891887222290038
1789224576713224400,10.652224365234375,5.475389559173584,8.623315829467773,-1.1472715080261229
1789224576723262200,10.66226220703125,-0.3082534637451172,8.652794437408447,-1.2574047843933105
1789224576733300500,10.672300537109376,0.4354454269409179,8.768913217926025,-2.0028993263244628
1789224576743337500,10.68233740234375,3.6085108146667477,8.916605532836913,-1.0181342559814452
1789224576753375500,10.69237548828125,5.897666876983642,9.386467608642578,-0.3821744400024414
1789224576763413000,10.7024130859375,3.884891468811035,10.44500401763916,-1.05973350982666
1789224576773450800,10.71245068359375,2.749590969085693,9.539546877288817,-0.960224503326416
1789224576783489000,10.722489013671876,0.9337386474609375,8.614636848449706,-0.838269856262207
1789224576793526800,10.73252685546875,0.3534440200805664,8.488641986083984,-0.761655403137207
1789224576803565000,10.74256494140625,4.621108479309082,8.496423141479491,-0.0234931037902832
1789224576813602800,10.752602783203125,10.619182188415527,8.290372161102294,-0.635211627960205
1789224576823640800,10.762640869140625,4.742464575958252,9.326462929534912,-1.820790362548828
1789224576833678800,10.772678955078124,-0.3887584945678711,9.958831443023682,-1.9596540588378906
1789224576843716900,10.782716796875,1.1155483360290526,10.426598592376708,-1.6123451805114746
1789224576853755000,10.7927548828125,5.302408489227295,10.40026237411499,0.462230558013916
1789224576863791900,10.8027919921875,7.998578833770751,10.611251395416259,1.6864157943725584
1789224576873830000,10.812829833984376,5.411943215179443,10.078541526031493,1.975964557647705
1789224576883868000,10.822867919921874,1.9500772521972656,9.758915604400634,2.924666965484619
1789224576893906000,10.832906005859375,2.291550263977051,9.936834715270995,4.8512511138916015
1789224576903944000,10.84294384765625,5.814767644500732,10.657339777374267,3.9323265892028805
1789224576913982000,10.85298193359375,4.8692076263427735,10.845583882904052,1.6418237884521483
1789224576924019700,10.863019775390624,-0.3968389251708984,10.83406178741455,2.6713305023193357
1789224576934058000,10.87305810546875,0.282815071105957,11.079766732788086,3.162291480255127
1789224576944095700,10.883095703125,2.399887889099121,9.689932669067382,4.544194750976562
1789224576954134000,10.893134033203125,7.516147199249267,5.674557209777832,4.73722725982666
1789224576964171800,10.903171875,0.16774375381469725,6.098630178833007,3.0588918960571285
1789224576974210000,10.9132099609375,-0.9196727127075195,5.083189399719238,3.5983354576110838
1789224576984247800,10.923247802734375,-0.009576806640625,4.48164623260498,3.858704888153076
1789224576994285800,10.933285888671875,4.444236831665039,5.3761798278808595,1.8770541015625
1789224577004323000,10.943322998046876,8.513781103515624,6.565948415374756,0.6823474731445313
1789224577014360800,10.95336083984375,2.3549966079711915,8.619574889373778,0.661398208618164
1789224577024399000,10.963399169921875,0.15876549758911132,9.251494490051268,-0.4321533996582031
1789224577034436900,10.973436767578125,0.9320926338195801,10.511293476104736,-0.7417536018371581
1789224577044475000,10.983474853515625,3.389591000366211,10.78318500213623,0.8180687797546387
1789224577054513000,10.993512939453124,6.136937405395507,10.164732785797119,2.2195745765686032
1789224577064551000,11.003551025390625,4.229057957458496,9.815777893829345,2.140565921783447
1789224577074589000,11.0135888671875,6.004508126068115,10.425700766754149,2.9185318237304685
1789224577084627000,11.023626953125,11.661258460998534,11.105055487823485,2.646341022491455
1789224577094664700,11.033664794921876,8.539818046569824,11.971606851196288,-0.7460930923461914
1789224577104703000,11.043702880859374,1.412130066680908,11.850849304962157,-1.2196961082458495
1789224577114740700,11.05374072265625,-0.4970961196899414,11.229853249359131,-1.5970821449279784
1789224577124779000,11.063779052734375,0.7026981872558593,11.412860038757323,-3.2837972145080565
1789224577134816000,11.07381591796875,0.7905354606628417,9.925013344573975,-2.6569652923583984
1789224577144853800,11.083853759765624,0.9953893402099608,8.277353689575195,-0.07032967376708985
1789224577154892000,11.09389208984375,4.692784891510009,6.777535987091064,3.6290111663818356
1789224577164929800,11.1039296875,9.424774835205078,5.298068998718262,4.510975202941895
1789224577174968000,11.113968017578125,1.587206063079834,6.555324145507812,1.1043255157470702
1789224577185005800,11.124005859375,-1.3305775726318358,6.010194355010986,1.0940005210876464
1789224577195044000,11.134044189453125,0.07092822418212891,6.837989579010009,-0.8438064476013183
1789224577205081900,11.144081787109375,0.826149210357666,9.953594126892089,-3.1515175727844236
1789224577215120000,11.154119873046875,0.9952397026062011,10.822988604736327,-1.917755529785156
1789224577225158000,11.164157958984376,1.843834553527832,10.676792665863037,-0.14649521408081054
1789224577235196000,11.17419580078125,13.380295252990722,9.398737892150878,1.6620248649597167
1789224577245234000,11.18423388671875,11.424681409454346,11.019762053680418,0.5951087501525879
1789224577255272000,11.19427197265625,-0.9169792358398436,12.498331216430664,0.5096656784057617
1789224577265309700,11.204309814453126,0.28042086944580075,10.178050532531739,0.1649006393432617
1789224577275347000,11.214346923828124,0.6024409927368164,9.897031112670899,0.8167220413208007
1789224577285385000,11.224385009765625,0.8319850769042968,9.534608836364745,0.8870517150878906
1789224577295423000,11.234423095703125,0.985064345550537,9.514258122253418,0.8716390419006347
1789224577305461000,11.2444609375,4.007444666290283,9.809942027282714,2.398391513061523
1789224577315498800,11.254498779296876,17.785177394866942,7.231686114501953,2.0235493156433106
1789224577325537000,11.264537109375,7.430704127502441,9.611073651885986,-1.3474866218566894
1789224577335574800,11.27457470703125,-2.261173830413818,9.184157568359375,-0.2002151138305664
1789224577345613000,11.284613037109375,0.4722562774658203,8.017882084655762,-1.8619407035827635
1789224577355650800,11.29465087890625,0.9195230751037597,10.155006341552733,-3.1754595893859863
1789224577365689000,11.304689208984374,0.4644751220703125,9.178172064208983,0.8219593574523926
1789224577375726800,11.314726806640625,1.1219827529907227,7.893982148742675,3.0035259826660154
1789224577385764900,11.324764892578125,10.295216776275634,5.915773027038574,1.234809506225586
1789224577395803000,11.334802978515626,4.736329434204102,8.42744020614624,0.05835866546630859
1789224577405841000,11.3448408203125,-0.9319429962158202,10.666168395996094,0.1406593475341797
1789224577415879000,11.35487890625,4.349815503692627,10.458770677185058,-1.377713417816162
1789224577425916000,11.364916015625,8.32523772277832,9.628132338714599,-1.9651906501770018
1789224577435954000,11.374953857421875,1.2764087600708007,10.188674802398682,0.39848493881225583
1789224577445992000,11.384991943359376,0.8687959274291992,8.66386762008667,1.4333786064147949
1789224577456030000,11.395030029296874,4.657470417022704,7.142502102661132,2.5897780082702635
1789224577466068000,11.40506787109375,5.615151081085204,7.966855661773681,1.978508396911621
1789224577476106000,11.41510595703125,6.7377323844909665,8.425046004486083,2.0368670623779295
1789224577486143700,11.425143798828126,5.496638098907471,9.006088819885253,2.3977929626464842
1789224577496182000,11.43518212890625,4.292653939056396,9.758915604400634,1.9123685760498046
1789224577506219800,11.4452197265625,0.8710404914855957,9.708188456726074,1.5975310577392576
1789224577516258000,11.455258056640625,0.11941080780029296,9.969754988098144,1.684769780731201
1789224577526295800,11.4652958984375,0.5660790550231933,10.425251853942871,2.080710880279541
1789224577536334000,11.475333984375,0.6721721160888672,9.323021264648437,2.712181568145752
1789224577546371800,11.485371826171875,4.516811069488525,7.529315308380126,4.42463430557251
1789224577556409900,11.495409912109375,10.579827498626708,7.126790154266357,6.058377663421631
1789224577566447900,11.50544775390625,9.37838717803955,8.639775965881347,3.999214598083496
1789224577576486000,11.51548583984375,4.894945294189453,9.872640183258056,2.0588637901306153
1789224577586523000,11.52552294921875,2.0483891578674314,9.906458281707764,1.4356231704711913
1789224577596561000,11.535560791015625,-0.16909049224853515,9.636811319732665,0.37409400939941406
1789224577606599000,11.545598876953125,0.2688987739562988,6.233304022216797,0.1910872200012207
1789224577616637000,11.555636962890626,0.4128501487731933,9.143605777740477,1.8586486763000487
1789224577626675000,11.565675048828124,1.792059942626953,12.782343388366698,1.3108254089355469
1789224577636713000,11.575712890625,0.5255272644042969,9.322572351837158,2.1097405754089356
1789224577646751000,11.5857509765625,11.315894871520996,6.813149736785888,8.12681826019287
1789224577656788700,11.595788818359376,16.313790837097166,8.422502165222168,3.0410850212097165
1789224577666827000,11.605826904296874,3.9577649818420406,10.870423725128173,-0.029478607940673827
1789224577676864800,11.61586474609375,0.3265092514038086,8.827870433807373,0.9943418769836425
1789224577686903000,11.625903076171875,-0.23822306518554687,8.097638927459716,-0.05596446380615234
1789224577696940800,11.63594091796875,-0.24899697265624998,9.426121573638916,-1.1022305892944335
1789224577706979000,11.64597900390625,0.08529343414306641,8.915558069610595,0.08274959487915039
1789224577717016800,11.656016845703125,0.35224691925048823,7.642590974426269,1.6210241615295409
1789224577727054800,11.666054931640625,2.4435820693969723,7.360075178527832,2.327014376068115
1789224577737092900,11.6760927734375,9.644592475128173,8.247725444030761,2.03656778717041
1789224577747131000,11.686130859375,10.528801075744628,9.866505041503906,0.07676409072875977
1789224577757167900,11.69616796875,5.142445890808105,10.137648379516602,-0.7519289588928222
1789224577767206700,11.70620654296875,1.2744634712219238,9.711630121612549,-1.422455061340332
1789224577777244700,11.71624462890625,-0.3854664672851562,10.17101756515503,-2.4078186820983887
1789224577787282700,11.72628271484375,0.8004115425109862,11.32562131576538,-2.461837857055664
1789224577797320700,11.73632080078125,6.185719264221191,10.302698656463622,0.4296095603942871
1789224577807358500,11.7463583984375,9.010278672790527,9.4098110748291,2.2105963203430172
1789224577817396700,11.756396728515625,2.934243772125244,9.39739115371704,1.0868179161071776
1789224577827434500,11.7664345703125,-0.8316858016967773,7.670872481536865,0.4487631736755371
1789224577837472800,11.77647265625,-0.31184476623535157,7.930942636871338,1.5592238311767577
1789224577847510500,11.786510498046875,-0.2576759536743164,8.808567182922364,1.317708738708496
1789224577857548500,11.796548583984375,0.43409868850708005,8.289474335479737,0.7713818473815918
1789224577867586600,11.806586669921876,7.968800950622558,7.087734739685058,0.39055414581298825
1789224577877624600,11.81662451171875,9.942072031402587,8.22288560180664,0.2856581855773926
1789224577887662600,11.82666259765625,1.593490842437744,9.452158516693114,0.7000047103881836
1789224577897700600,11.83670068359375,1.3386580032348632,8.167070775604248,0.6878840644836426
1789224577907738600,11.846738525390625,0.8200140686035156,8.747963953399658,0.34491467666625975
1789224577917776600,11.856776611328126,-0.20305822830200193,10.253018972015381,0.34326866302490233
1789224577927814400,11.866814453125,2.1167735427856442,10.109067597198486,0.862511148071289
1789224577937852700,11.876852783203125,4.508880276489258,9.716119249725342,0.7404068634033203
1789224577947889700,11.8868896484375,5.087678527832031,10.780641162872314,1.7947534194946289
1789224577957927700,11.896927734375,8.283638468933106,10.7896194190979,2.5752631607055663
1789224577967965700,11.906965576171874,8.178742508697509,10.590751043701172,1.5554828910827636
1789224577978003500,11.91700341796875,4.547935691070556,10.290278735351562,0.2458545829772949
1789224577988041700,11.927041748046875,0.256029940032959,10.580874961853027,-0.36017771224975587
1789224577998079500,11.93707958984375,2.2481553588867187,10.84648170852661,-0.1753752716064453
1789224578008117800,11.94711767578125,4.948964469146728,9.548375495910644,-0.7176619476318359
1789224578018155500,11.957155517578125,-0.23867197799682616,9.803058697509766,-0.0770633659362793
1789224578028193500,11.967193603515625,-0.019003975677490233,10.274716424560546,0.43350013809204097
1789224578038231600,11.9772314453125,0.6141127258300781,9.705644617462157,1.1399392654418945
1789224578048269600,11.98726953125,0.9195230751037597,8.06307264099121,1.502960092163086
1789224578058307600,11.9973076171875,6.643460694122314,6.489932512664795,1.8294693435668945
1789224578068345600,12.007345703125,8.514978204345702,7.727285858154296,1.5123872611999511
1789224578078383600,12.017383544921875,5.351489623260497,8.029853092956543,1.1941080780029296
1789224578088421600,12.027421630859376,1.5638625968933104,7.2063973594665525,0.62563482131958
1789224578098459400,12.03745947265625,-0.948702407836914,7.369651985168456,-0.056114101409912104
1789224578108497700,12.04749755859375,0.14903905334472656,9.209296685791015,-0.6153098266601562
1789224578118535400,12.057535400390625,0.4816834465026855,10.813262160491943,0.20335750350952148
1789224578128573700,12.06757373046875,0.6703764648437499,10.230423693847655,1.2964601989746094
1789224578138611500,12.077611572265624,0.5904699844360352,10.87206973876953,1.8110639183044432
1789224578148649700,12.087649658203125,5.063736511230468,10.250624770355223,3.7014357666015623
1789224578158687500,12.0976875,15.969474710845946,7.736862664794922,1.0703577796936035
1789224578168724500,12.107724365234375,2.983923456573486,10.83406178741455,0.5557540603637695
1789224578178762800,12.1177626953125,-1.5548843406677244,9.665990652465819,1.350180098724365
1789224578188800500,12.127800537109374,0.29568390502929687,8.660874868011474,1.0818798751831054
1789224578198838500,12.137838623046875,-0.04608838195800781,8.879495407104491,0.8834604125976562
1789224578208876500,12.14787646484375,5.217563967895508,8.345438799285889,1.54500825881958
1789224578218914600,12.15791455078125,7.902062579345703,8.538770583343505,1.6141408317565917
1789224578228952600,12.16795263671875,2.8493992507934567,8.917952271270751,1.6322469818115233
1789224578238990600,12.177990478515625,1.2440870376586914,9.258527457427977,1.5336358009338378
1789224578249028600,12.188028564453125,2.8731916297912594,9.463979887390137,0.4987421333312988
1789224578259066600,12.198066650390626,4.0267479171752925,10.147524461364746,0.09202712631225586
1789224578269104400,12.2081044921875,4.168305090332031,9.774777190399169,-0.6820481979370117
1789224578279142700,12.218142578125,1.894860976409912,9.495553421783447,-0.7633014167785644
1789224578289180400,12.228180419921875,1.3977648567199705,8.595932147979736,-0.8611644096374511
1789224578299218700,12.23821875,0.2166752502441406,7.959224143981933,-1.5007155281066893
1789224578309256400,12.24825634765625,0.5660790550231933,8.761580975341797,-1.1490671592712403
1789224578319294700,12.258294677734375,6.64585489578247,8.251915296936035,2.0483891578674314
1789224578329332500,12.26833251953125,12.44341421585083,8.320598957061767,1.0283096130371092
1789224578339370500,12.27837060546875,4.444386469268799,9.555258825683593,0.3146878807067871
1789224578349408500,12.288408447265626,-1.488894157409668,9.490615380859374,-0.08289923248291015
1789224578359446500,12.298446533203125,0.010474632263183592,9.64668740158081,-1.061828436279297
1789224578369484500,12.308484619140625,0.22430676803588867,10.600327850341797,-0.41748891448974607
1789224578379522600,12.3185224609375,1.5075988578796387,8.839991079711913,1.7196353424072264
1789224578389560600,12.328560546875,8.284237019348144,7.674314146423339,2.7259482276916502
1789224578399598600,12.3385986328125,9.420884257507323,9.008483021545409,2.494159579467773
1789224578409636600,12.34863671875,3.4706945816040036,8.939350448608398,1.4317325927734375
1789224578419674600,12.358674560546875,-0.6793547210693359,9.137021723175048,1.285835929107666
1789224578429711600,12.368711669921876,1.3474866218566894,10.360009858703613,0.35030163040161133
1789224578439749400,12.378749267578126,7.479635623931884,10.02392380065918,-0.3987842140197754
1789224578449787600,12.38878759765625,6.49277562713623,10.402207662963866,-0.5514145698547362
1789224578459825400,12.398825439453125,1.686715069580078,9.975740492248535,-0.45415012741088867
1789224578469863700,12.40886376953125,0.10818798751831055,8.896404456329345,-0.6753145057678223
1789224578479901400,12.4189013671875,-0.42452188186645506,8.278401152801512,-1.5165771141052244
1789224578489939700,12.428939697265625,0.680551821899414,9.363722692871093,-1.064970825958252
1789224578499977500,12.4389775390625,7.028478248596191,8.336011630249024,2.7341782958984373
1789224578510015500,12.449015380859375,11.796381217193602,7.4697595420837395,2.0413561904907227
1789224578520053500,12.459053466796876,3.1847371208190918,8.870517150878905,1.2237363235473633
1789224578530091500,12.469091552734374,-1.1219827529907227,8.396016309356689,1.493383285522461
1789224578540129500,12.479129638671875,0.33010055389404297,8.857947592163086,1.7054197700500486
1789224578550167600,12.48916748046875,5.504568891906738,9.511265370178222,2.3898621696472166
1789224578560205800,12.499205810546876,14.539238494110107,8.267028694915771,3.3167174873352048
1789224578570243600,12.50924365234375,4.377049547576904,8.46619634552002,1.9107225624084472
1789224578580281600,12.519281494140625,-1.9675848518371581,8.840439992523192,2.0012533126831054
1789224578590319600,12.529319580078125,0.3124433166503906,10.616189436340331,1.25126964263916
1789224578600357600,12.539357666015626,0.47719431838989257,10.822090779113768,0.3790320503234863
1789224578610395600,12.549395751953124,3.586214811706543,9.765499658966064,2.0886416732788087
1789224578620433700,12.55943359375,17.53303803253174,7.9035589553833,3.0009821434020996
1789224578630471700,12.5694716796875,13.405584008026123,9.181913004302977,1.3260884445190428
1789224578640509700,12.579509765625,-1.8478747688293455,8.265233043670653,1.2071265495300292
1789224578650547500,12.58954736328125,-1.1463736824035644,6.332513753509521,1.9388544319152832
1789224578660585700,12.599585693359375,0.19512743530273435,9.917531464385986,2.443432431793213
1789224578670623500,12.60962353515625,0.46716859893798823,10.13794765472412,3.384952234649658
1789224578680661800,12.619661865234375,0.3511994560241699,8.691101663970947,3.4777275489807127
1789224578690699500,12.629699462890626,0.827346311187744,8.864531646728516,3.8889316841125487
1789224578700737500,12.639737548828125,14.357279167938232,6.465391945648193,3.3837551338195797
1789224578710775600,12.649775634765625,15.200187789916992,9.184756118774413,0.7794622779846191
1789224578720813600,12.6598134765625,-1.108365731048584,11.719317851257324,1.6162357582092284
1789224578730851600,12.6698515625,-0.3703530693054199,9.907505744934081,0.5874772323608398
1789224578740889600,12.6798896484375,0.12973580245971678,10.048015454864501,0.4004302276611328
1789224578750927600,12.689927734375,2.577806999969482,10.3169142288208,2.814982601928711
1789224578760965600,12.699965576171875,12.019041971588134,8.822034567260742,4.690540327453613
1789224578771003000,12.7100029296875,10.026318002319336,8.37656342086792,3.4569279220581053
1789224578781040600,12.72004052734375,-0.9967360786437988,8.43447317352295,2.677016731262207
1789224578791078700,12.73007861328125,-1.0733505317687988,7.309348030853271,2.536656658935547
1789224578801116700,12.74011669921875,-0.32022447204589843,8.699481369781493,2.219724214172363
1789224578811153700,12.750153564453125,2.660855870056152,8.704419410705565,1.9125182136535643
1789224578821191700,12.760191650390626,11.668590703582764,6.546944439697265,1.0377367820739745
1789224578831229700,12.770229736328124,2.8369793296813963,8.917204083251953,1.0947487091064452
1789224578841267700,12.780267822265625,-1.7120038246154785,8.735244757080078,1.0218751960754393
1789224578851305700,12.7903056640625,0.11851298217773437,8.707262525177,1.8914193115234375
1789224578861343700,12.80034375,2.214636535644531,9.696666361236572,2.6569652923583984
1789224578871381800,12.8103818359375,13.429526024627684,8.402600363922119,2.5119664543151856
1789224578881419800,12.820419677734375,9.339481401062011,9.274688318634032,1.8347066596984862
1789224578891457500,12.83045751953125,-1.7497125007629393,9.917980377197265,1.9756652824401855
1789224578901495800,12.840495849609376,-0.5131073432922363,8.164526936340332,2.0919337005615235
1789224578911533600,12.850533447265626,-0.21652561264038084,8.689156375122069,2.216731462097168
1789224578921571800,12.86057177734375,-0.3072060005187988,9.881468801879882,2.907907553863525
1789224578931609600,12.870609619140625,-0.1427542739868164,8.640973066711425,2.986616933441162
1789224578941648000,12.88064794921875,0.36930560607910157,7.917774527740478,2.2571336151123047
1789224578951685600,12.890685546875,9.264512961578369,7.651868505859374,2.4492682983398435
1789224578961723600,12.9007236328125,18.356793041229245,8.703521585083008,1.2683283294677734
1789224578971761700,12.91076171875,5.9302878746032714,9.8694977935791,0.471807364654541
1789224578981799700,12.920799560546875,-2.4262241073608397,8.719383171081542,-0.2841618095397949
1789224578991837700,12.930837646484376,-0.16879121704101563,9.829843828582764,-1.0084078117370605
1789224579001875700,12.940875732421874,-0.49096097793579097,11.538405988311768,0.654365241241455
1789224579011913700,12.950913818359375,-0.2246060432434082,10.136900191497801,2.4871266120910644
1789224579021951700,12.96095166015625,0.7778162643432617,10.008062214660644,2.581099027252197
1789224579031989500,12.970989501953126,7.136217323303223,8.475024964141845,3.950582376861572
1789224579042027800,12.98102783203125,12.446556605529784,8.921693211364746,2.140565921783447
