time,seconds_elapsed,z,y,x
1789224566107664400,0.046664306640625,-0.00281948852352798,-0.038897596299648285,-0.08552129566669464
1789224566117701600,0.05670166015625,-0.000639424950350076,-0.038780417293310165,-0.09679658710956573
1789224566127739400,0.066739501953125,-0.003049852093681693,-0.04457172751426697,-0.11174703389406204
1789224566137776400,0.0767763671875,-0.01575605943799019,-0.06703868508338928,-0.12701307237148285
1789224566147814400,0.086814453125,-0.037031788378953934,-0.08333563804626465,-0.1449446678161621
1789224566157852400,0.096852294921875,-0.047981373965740204,-0.09958411753177643,-0.15992522239685059
1789224566167889400,0.106889404296875,-0.044549889862537384,-0.14481471478939056,-0.16866011917591095
1789224566177927400,0.116927490234375,-0.03707785904407501,-0.17726746201515198,-0.17420189082622528
1789224566187965400,0.12696533203125,-0.01955372840166092,-0.19985239207744598,-0.17215178906917572
1789224566198002400,0.13700244140625,0.004908472299575806,-0.21113966405391693,-0.1710931807756424
1789224566208040400,0.14704052734375,0.02315911464393139,-0.1851365715265274,-0.18027763068675995
1789224566218077400,0.157077392578125,0.04079483449459076,-0.13325180113315582,-0.19816474616527557
1789224566228115200,0.167115234375,0.0661449283361435,-0.10411814600229263,-0.19818872213363647
1789224566238153500,0.177153564453125,0.07660023868083954,-0.10920052230358124,-0.17014722526073456
1789224566248190500,0.1871904296875,0.07733100652694702,-0.12903735041618347,-0.09626208990812302
1789224566258228500,0.197228515625,0.08770056068897247,-0.12231738865375519,0.029751770198345184
1789224566268266500,0.2072666015625,0.08774077147245407,-0.10353518277406693,0.15571822226047516
1789224566278303500,0.217303466796875,0.08650372922420502,-0.07829959690570831,0.26056209206581116
1789224566288341500,0.227341552734375,0.10270826518535614,-0.030004505068063736,0.33530423045158386
1789224566298378500,0.23737841796875,0.14606399834156036,0.01775502786040306,0.37586602568626404
1789224566308416300,0.247416259765625,0.19284269213676453,0.010361560620367527,0.3897578716278076
1789224566318454500,0.25745458984375,0.13268613815307617,-0.05284244194626808,0.398090660572052
1789224566328491500,0.267491455078125,-0.2008071392774582,-0.034569695591926575,0.4653541147708893
1789224566338529300,0.277529296875,-0.5843228101730347,-0.002743055811151862,0.5581998825073242
1789224566348567600,0.287567626953125,-0.8982877135276794,0.04410620778799057,0.6178885102272034
1789224566358604500,0.2976044921875,-1.1236814260482788,0.10393918305635452,0.6439523696899414
1789224566368642300,0.307642333984375,-1.2747877836227417,0.15371152758598328,0.651395857334137
1789224566378679600,0.317679443359375,-1.369707703590393,0.21435171365737915,0.6467862129211426
1789224566388717300,0.32771728515625,-1.419942855834961,0.2235500067472458,0.6469641327857971
1789224566398755300,0.33775537109375,-1.4247357845306396,0.19510717689990997,0.6376028656959534
1789224566408792600,0.34779248046875,-1.3939179182052612,0.1660294532775879,0.6282708644866943
1789224566418830300,0.357830322265625,-1.3495893478393555,0.10550165921449661,0.6252478957176208
1789224566428868600,0.36786865234375,-1.311761498451233,0.09301276504993439,0.6203354597091675
1789224566438905600,0.377905517578125,-1.2545901536941528,0.01936996914446354,0.6399639844894409
1789224566448943400,0.387943359375,-1.1711103916168213,-0.044608745723962784,0.6656017303466797
1789224566458981600,0.397981689453125,-1.059496521949768,0.006329535041004419,0.6713136434555054
1789224566469018400,0.408018310546875,-0.7973440289497375,-0.23231686651706696,0.7801581025123596
1789224566479056400,0.418056396484375,-0.396448016166687,-0.17455236613750458,0.8543505668640137
1789224566489093600,0.42809375,0.02919224090874195,0.31497257947921753,0.8434579968452454
1789224566499131400,0.43813134765625,0.38659459352493286,0.8346189856529236,0.8129317760467529
1789224566509169400,0.44816943359375,0.595125138759613,1.1391985416412354,0.716911792755127
1789224566519206400,0.458206298828125,0.6033974885940552,1.2418447732925415,0.5504716634750366
1789224566529244400,0.468244384765625,0.5295408368110657,1.2020792961120605,0.3244553208351135
1789224566539282400,0.478282470703125,0.4351749122142792,1.1015803813934326,0.07519115507602692
1789224566549319400,0.4883193359375,0.2842935025691986,0.9769499897956848,-0.17788664996623993
1789224566559357400,0.498357421875,0.10057906806468964,0.8122047185897827,-0.4020425081253052
1789224566569395500,0.5083955078125,-0.053832072764635086,0.5458148717880249,-0.5691574811935425
1789224566579432400,0.518432373046875,-0.15821094810962677,0.28305673599243164,-0.6672454476356506
1789224566589470500,0.528470458984375,-0.20893031358718872,0.12144440412521362,-0.7120504379272461
1789224566599507500,0.538507568359375,-0.23544847965240479,0.05849659815430641,-0.723268985748291
1789224566609545500,0.54854541015625,-0.2540951371192932,0.007867510430514812,-0.7204878926277161
1789224566619583500,0.55858349609375,-0.2647448480129242,-0.02100781351327896,-0.6987053155899048
1789224566629620200,0.5686201171875,-0.2647158205509186,-0.023060046136379242,-0.6538084149360657
1789224566639658500,0.578658447265625,-0.24700047075748444,0.0776551142334938,-0.6351535320281982
1789224566649696300,0.5886962890625,-0.21557916700839996,0.024222781881690025,-0.5268965363502502
1789224566659733500,0.5987333984375,-0.14662326872348785,-0.11002237349748611,-0.3455464839935303
1789224566669771500,0.608771484375,-0.0865229070186615,-0.24552640318870544,-0.1273515671491623
1789224566679809300,0.618809326171875,-0.06763444095849991,-0.3792426586151123,0.14516198635101318
1789224566689846500,0.628846435546875,-0.1141020730137825,-0.38510987162590027,0.4369296431541443
1789224566699884300,0.63888427734375,-0.16806037724018097,-0.42425939440727234,0.7069907188415527
1789224566709922300,0.64892236328125,-0.21307311952114105,-0.6612631678581238,0.881743848323822
1789224566719959600,0.65895947265625,-0.21699276566505432,-0.9277476072311401,0.9781550765037537
1789224566729997300,0.668997314453125,-0.1857762634754181,-1.1400736570358276,1.0294395685195923
1789224566740035600,0.67903564453125,-0.1306472271680832,-1.2823679447174072,1.0582337379455566
1789224566750072600,0.689072509765625,-0.0905354917049408,-1.360671877861023,1.0829193592071533
1789224566760110600,0.699110595703125,-0.04575710371136665,-1.3403064012527466,1.120102882385254
1789224566770147800,0.70914794921875,0.02538951300084591,-1.2679022550582886,1.1288727521896362
1789224566780185600,0.719185546875,0.10175592452287674,-1.208042860031128,1.0569937229156494
1789224566790223600,0.7292236328125,0.1671019047498703,-1.1571840047836304,0.9042497277259827
1789224566800260900,0.7392607421875,0.22779321670532227,-1.106131911277771,0.6867879629135132
1789224566810298600,0.749298583984375,0.28299468755722046,-1.1419317722320557,0.4490813910961151
1789224566820337000,0.7593369140625,0.33655378222465515,-1.263393759727478,0.23146331310272217
1789224566830374000,0.769373779296875,0.3565799593925476,-1.349326729774475,0.05271594226360321
1789224566840411600,0.77941162109375,0.3381524682044983,-1.4271824359893799,-0.019993947818875313
1789224566850450000,0.789449951171875,0.3037841320037842,-1.4762107133865356,0.0008996158139780164
1789224566860486700,0.799486572265625,0.2631341516971588,-1.408952236175537,0.022847525775432587
1789224566870524700,0.809524658203125,0.2700812816619873,-1.3303717374801636,0.07695550471544266
1789224566880562700,0.819562744140625,0.32329311966896057,-1.266085147857666,0.10929959267377853
1789224566890599700,0.829599609375,0.4367040991783142,-1.1752886772155762,0.14900092780590057
1789224566900637700,0.8396376953125,0.6030371189117432,-1.0746270418167114,0.20057198405265808
1789224566910675700,0.84967578125,0.7899289727210999,-1.0241968631744385,0.2344849407672882
1789224566920712700,0.859712646484375,0.9819032549858093,-1.0280894041061401,0.24130024015903473
1789224566930750700,0.869750732421875,1.1721171140670776,-1.041025161743164,0.2142992466688156
1789224566940788700,0.879788818359375,1.3258475065231323,-0.9680859446525574,0.15742610394954681
1789224566950825700,0.88982568359375,1.4440298080444336,-0.9014768004417419,0.11690371483564377
1789224566960863700,0.89986376953125,1.535962462425232,-0.8466037511825562,0.05541292577981949
1789224566970901800,0.90990185546875,1.5859150886535645,-0.8461430072784424,-0.011688081547617912
1789224566980938800,0.919938720703125,1.6240168809890747,-0.8638447523117065,-0.0365806482732296
1789224566990976800,0.929976806640625,1.6580777168273926,-0.8782638907432556,-0.021582789719104767
1789224567001014800,0.940014892578125,1.6941657066345215,-0.9417885541915894,-0.014029532670974731
1789224567011051800,0.9500517578125,1.7039873600006104,-1.1218315362930298,-0.014360563829541206
1789224567021089800,0.96008984375,1.668451189994812,-1.3307746648788452,0.00028309403569437563
1789224567031127800,0.9701279296875,1.5685347318649292,-1.5261732339859009,0.009302155114710331
1789224567041164500,0.98016455078125,1.4017119407653809,-1.7290738821029663,0.006515157409012318
1789224567051202800,0.990202880859375,1.220436453819275,-1.8433465957641602,0.004188619554042816
1789224567061240600,1.000240478515625,1.0662407875061035,-1.7606754302978516,-0.036986514925956726
1789224567071277600,1.010277587890625,0.9682009816169739,-1.5398229360580444,-0.1587132215499878
1789224567081315800,1.02031591796875,0.9422023892402649,-1.2804433107376099,-0.3182799816131592
1789224567091353600,1.030353515625,0.9965724349021912,-0.9765515923500061,-0.46218013763427734
1789224567101390600,1.040390625,1.108490228652954,-0.6921305060386658,-0.5594595670700073
1789224567111428900,1.050428955078125,1.1483787298202515,-0.49075692892074585,-0.5095633864402771
1789224567121466600,1.060466552734375,1.178971290588379,-0.6557472348213196,-0.45027104020118713
1789224567131503900,1.07050390625,1.1449557542800903,-0.8678767681121826,-0.3632040321826935
1789224567141541600,1.080541748046875,1.0607197284698486,-1.0082844495773315,-0.2454417198896408
1789224567151579600,1.09057958984375,0.9618037939071655,-1.0836540460586548,-0.15608413517475128
1789224567161617000,1.100616943359375,0.8673252463340759,-1.2010307312011719,-0.0362221859395504
1789224567171654700,1.110654541015625,0.8500346541404724,-1.2683727741241455,0.08293057233095169
1789224567181692700,1.120692626953125,0.8696754574775696,-1.174264669418335,0.2428147792816162
1789224567191729700,1.130729736328125,0.9052923321723938,-1.0016255378723145,0.4285891652107239
1789224567201767700,1.140767578125,0.980146050453186,-0.9637132883071899,0.5630369782447815
1789224567211805700,1.1508056640625,1.0917503833770752,-0.9188257455825806,0.6215745806694031
1789224567221842700,1.1608427734375,1.2352676391601562,-0.779676616191864,0.6085900664329529
1789224567231880700,1.170880615234375,1.3580586910247803,-0.6553027629852295,0.5764608979225159
1789224567241918700,1.180918701171875,1.522866129875183,-0.5235529541969299,0.5487592816352844
1789224567251955700,1.190955810546875,1.6964967250823975,-0.37661013007164,0.5401676297187805
1789224567261993700,1.20099365234375,1.841552972793579,-0.25370338559150696,0.5455621480941772
1789224567272031700,1.21103173828125,1.9536603689193726,-0.24401399493217468,0.529444694519043
1789224567282068700,1.22106884765625,2.012706995010376,-0.32904019951820374,0.4959796667098999
1789224567292106800,1.231106689453125,2.009356737136841,-0.45919156074523926,0.4595196545124054
1789224567302144800,1.241144775390625,1.9497127532958984,-0.6048063039779663,0.42045533657073975
1789224567312181800,1.251181640625,1.8882418870925903,-0.6922426223754883,0.3983636200428009
1789224567322219500,1.261219482421875,1.8817592859268188,-0.6417722702026367,0.3944983184337616
1789224567332257800,1.2712578125,1.954754114151001,-0.527513861656189,0.39024817943573
1789224567342294800,1.281294677734375,2.107891798019409,-0.3142165243625641,0.38066184520721436
1789224567352332800,1.291332763671875,2.2836246490478516,0.0641784518957138,0.4135545492172241
1789224567362370800,1.301370849609375,2.452483654022217,0.3211982548236847,0.45903390645980835
1789224567372407600,1.311407470703125,2.5981733798980713,0.38094067573547363,0.45764797925949097
1789224567382445800,1.32144580078125,2.6625936031341553,0.410531610250473,0.4020683467388153
1789224567392483600,1.331483642578125,2.621922492980957,0.38963964581489563,0.2903418242931366
1789224567402520600,1.3415205078125,2.495911121368408,0.3629712760448456,0.12841017544269562
1789224567412558800,1.351558837890625,2.3284912109375,0.3923826813697815,-0.0681697353720665
1789224567422596600,1.3615966796875,2.162782907485962,0.42789754271507263,-0.2878032922744751
1789224567432633600,1.371633544921875,2.0638136863708496,0.586389422416687,-0.5525574684143066
1789224567442671900,1.381671875,2.0597405433654785,0.8252550363540649,-0.8313614130020142
1789224567452709600,1.391709716796875,2.083056688308716,0.7823712229728699,-0.9502968192100525
1789224567462746600,1.40174658203125,2.145505428314209,0.79648756980896,-0.9914653301239014
1789224567472784600,1.41178466796875,2.218994617462158,0.9452282786369324,-0.9987237453460693
1789224567482822700,1.42182275390625,2.1668756008148193,0.6538649201393127,-0.7659711837768555
1789224567492859600,1.431859619140625,2.077087640762329,1.1733282804489136,-0.718783438205719
1789224567502897700,1.441897705078125,1.9853298664093018,1.6783478260040283,-0.792680561542511
1789224567512935700,1.451935791015625,1.8486220836639404,1.9670445919036865,-0.9661858081817627
1789224567522973000,1.461972900390625,1.6793148517608643,2.016509771347046,-1.152303695678711
1789224567533010700,1.4720107421875,1.4679687023162842,1.8079804182052612,-1.2327284812927246
1789224567543048700,1.482048583984375,1.231273889541626,1.4672001600265503,-1.1887751817703247
1789224567553086700,1.492086669921875,1.0218943357467651,1.2369933128356934,-1.1039992570877075
1789224567563123700,1.502123779296875,0.8714065551757812,1.1637097597122192,-1.0403162240982056
1789224567573161700,1.51216162109375,0.7520692348480225,1.164689064025879,-0.9911015033721924
1789224567583199700,1.52219970703125,0.6585267782211304,1.2517954111099243,-0.9735891222953796
1789224567593236700,1.53223681640625,0.5741972327232361,1.3533260822296143,-0.9983237385749817
1789224567603274800,1.542274658203125,0.39738330245018005,1.0026873350143433,-0.8308199644088745
1789224567613312800,1.552312744140625,0.038952458649873734,0.035346806049346924,-0.21690887212753296
1789224567623349800,1.562349853515625,-0.2930089831352234,-0.2494170218706131,0.2904118597507477
1789224567633387800,1.5723876953125,-0.48511847853660583,-0.14976926147937775,0.5940761566162109
1789224567643425800,1.58242578125,-0.5839635729789734,-0.16298332810401917,0.7546634078025818
1789224567653462500,1.592462646484375,-0.6555996537208557,-0.35685959458351135,0.6954464316368103
1789224567663500800,1.602500732421875,-0.646613359451294,-0.5867249965667725,0.48413950204849243
1789224567673538600,1.61253857421875,-0.5957723259925842,-0.6556188464164734,0.18861599266529083
1789224567683575600,1.622575439453125,-0.5389060974121094,-0.5567905306816101,-0.15252801775932312
1789224567693613800,1.63261376953125,-0.486299604177475,-0.2815190255641937,-0.4650385081768036
1789224567703651600,1.642651611328125,-0.42269185185432434,0.03159334510564804,-0.7268751859664917
1789224567713689900,1.65268994140625,-0.3762790858745575,0.49419161677360535,-0.7434802651405334
1789224567723726800,1.662726806640625,-0.3983154296875,0.07819866389036179,-0.7207342386245728
1789224567733764600,1.6727646484375,-0.27396443486213684,-0.5584781765937805,-0.9059615731239319
1789224567743803000,1.682802978515625,-0.1888279765844345,-0.9527527689933777,-0.8753980994224548
1789224567753839600,1.692839599609375,-0.07513763010501862,-1.3336650133132935,-0.7176998257637024
1789224567763877400,1.70287744140625,0.09229584038257599,-1.7624073028564453,-0.4674588143825531
1789224567773915400,1.712915283203125,0.31983792781829834,-2.1114444732666016,-0.24392291903495789
1789224567783952100,1.7229521484375,0.5354871153831482,-2.383517265319824,-0.0519992858171463
1789224567793990400,1.732990478515625,0.659830629825592,-2.569304943084717,0.059550147503614426
1789224567804028200,1.743028076171875,0.6166650652885437,-2.5335144996643066,0.148967906832695
1789224567814066400,1.75306640625,-0.13173966109752655,-1.2555334568023682,0.9374843835830688
1789224567824103400,1.763103515625,-1.1108430624008179,-0.3864550292491913,1.4895864725112915
1789224567834141200,1.77314111328125,-1.014431118965149,-0.09750311821699142,0.9962648749351501
1789224567844179500,1.783179443359375,-0.8551996350288391,0.627993643283844,0.36257287859916687
1789224567854216400,1.793216552734375,-1.0163030624389648,1.7397844791412354,-0.14056962728500366
1789224567864254200,1.803254150390625,-1.089295744895935,2.7736270427703857,-0.7286624312400818
1789224567874292500,1.81329248046875,-1.136018991470337,3.4278130531311035,-1.1652554273605347
1789224567884329200,1.8233291015625,-1.202059268951416,3.8232102394104004,-1.3597456216812134
1789224567894367200,1.8333671875,-1.3273791074752808,3.70576810836792,-1.2633682489395142
1789224567904405200,1.8434052734375,-1.4374686479568481,3.4295780658721924,-1.0333850383758545
1789224567914443300,1.853443359375,-1.5256317853927612,3.0879595279693604,-0.7305210828781128
1789224567924480300,1.863480224609375,-1.7315250635147095,2.920638084411621,-0.18808841705322266
1789224567934518300,1.873518310546875,-1.7504984140396118,2.5125622749328613,0.4399835169315338
1789224567944556300,1.883556396484375,-1.66254460811615,1.5391448736190796,0.9099017381668091
1789224567954593300,1.89359326171875,-1.661055088043213,1.0370887517929077,1.5627509355545044
1789224567964631300,1.90363134765625,-1.6067100763320923,0.5225790739059448,2.1849348545074463
1789224567974669300,1.91366943359375,-1.4144206047058105,-0.11460700631141663,2.672112226486206
1789224567984706300,1.923706298828125,-1.1950969696044922,-0.5795307755470276,3.0937230587005615
1789224567994744300,1.933744384765625,-0.9598953723907471,-0.836609959602356,3.4049220085144043
1789224568004782000,1.943781982421875,-0.7161940336227417,-1.003746747970581,3.5856435298919678
1789224568014819300,1.9538193359375,-0.40589451789855957,-1.0513062477111816,3.5597264766693115
1789224568024857300,1.963857421875,-0.0884997695684433,-1.1316522359848022,3.3421690464019775
1789224568034895000,1.97389501953125,0.21542362868785858,-1.3465168476104736,2.949676752090454
1789224568044933400,1.983933349609375,0.3462657928466797,-1.2726794481277466,2.4447391033172607
1789224568054970400,1.993970458984375,0.36308419704437256,0.574791669845581,0.8970940709114075
1789224568065008400,2.00400830078125,0.18093623220920563,0.9832148551940918,-0.25981345772743225
1789224568075046400,2.01404638671875,0.0946253091096878,0.5908539891242981,-0.6827445030212402
1789224568085083100,2.024083251953125,-0.012182630598545074,0.547824501991272,-0.7608342170715332
1789224568095121400,2.034121337890625,-0.06629540026187897,0.6878649592399597,-0.7796406745910645
1789224568105159200,2.0441591796875,-0.1118391826748848,0.8603972792625427,-0.841465175151825
1789224568115197200,2.054197265625,-0.19441741704940796,0.9583097696304321,-0.9382801055908203
1789224568125234400,2.064234375,-0.26097434759140015,1.1158655881881714,-1.001276969909668
1789224568135272200,2.074272216796875,-0.28346019983291626,1.2813283205032349,-1.0351645946502686
1789224568145310500,2.084310546875,-0.2991190552711487,1.4041002988815308,-1.0650262832641602
1789224568155347500,2.094347412109375,-0.31067559123039246,1.4742546081542969,-1.0798313617706299
1789224568165385200,2.10438525390625,-0.31999796628952026,1.401475429534912,-1.0573958158493042
1789224568175423500,2.114423583984375,-0.3205612301826477,1.2734395265579224,-0.9753803610801697
1789224568185461200,2.124461181640625,-0.31500187516212463,1.201689600944519,-0.8276137709617615
1789224568195498200,2.134498291015625,-0.2784380316734314,1.0995895862579346,-0.6644788980484009
1789224568205536300,2.144536376953125,-0.21996964514255524,1.0257577896118164,-0.4751020669937134
1789224568215574300,2.15457421875,-0.1571640521287918,0.9005337953567505,-0.30718469619750977
1789224568225611300,2.164611328125,-0.0942591205239296,0.765474259853363,-0.14679184556007385
1789224568235649300,2.174649169921875,-0.04399009421467781,0.6408798694610596,-0.0018495653057470918
1789224568245687300,2.184687255859375,0.017773671075701714,0.5255798697471619,0.1337420791387558
1789224568255725300,2.194725341796875,0.07641594111919403,0.3960900902748108,0.2534855306148529
1789224568265762300,2.20476220703125,0.10892941057682037,0.30033665895462036,0.37365293502807617
1789224568275800300,2.21480029296875,0.11665470898151398,0.22358755767345428,0.48896434903144836
1789224568285838300,2.22483837890625,0.114169180393219,0.12824185192584991,0.5896579623222351
1789224568295875300,2.234875244140625,0.042753588408231735,-0.014117416925728321,0.6525554060935974
1789224568305913000,2.2449130859375,0.06478884816169739,-0.30533355474472046,0.7287918925285339
1789224568315951400,2.254951416015625,0.03828533738851547,-0.5943280458450317,0.8289206027984619
1789224568325989000,2.264989013671875,-0.03762007877230644,-0.8297815918922424,0.9091938734054565
1789224568336026000,2.275026123046875,-0.14463654160499573,-0.7676774859428406,0.9749736785888672
1789224568346064400,2.285064453125,-0.22996102273464203,-0.10611019283533096,0.8111218810081482
1789224568356102100,2.29510205078125,-0.20986054837703705,0.6146868467330933,0.47527438402175903
1789224568366139400,2.305139404296875,-0.03476517274975777,1.347664475440979,0.0052054147236049175
1789224568376177400,2.315177490234375,-0.021350029855966568,0.9071445465087891,-0.20247800648212433
1789224568386215200,2.325215087890625,-0.06294727325439453,0.6019386053085327,-0.31190037727355957
1789224568396253400,2.33525341796875,-0.1065855622291565,0.4501256048679352,-0.29505932331085205
1789224568406290200,2.345290283203125,-0.0842730700969696,0.35764893889427185,-0.19958794116973877
1789224568416328200,2.355328125,-0.02822045236825943,0.43525826930999756,-0.08386719971895218
1789224568426366200,2.3653662109375,0.026020681485533714,0.5572688579559326,0.0022503710351884365
1789224568436403200,2.3754033203125,0.08696472644805908,0.7095787525177002,0.037933532148599625
1789224568446441500,2.38544140625,0.10988282412290573,0.8577658534049988,0.0632905587553978
1789224568456479200,2.395479248046875,0.11140695214271545,0.957880437374115,0.09879662096500397
1789224568466517200,2.405517333984375,0.10455703735351562,1.0437610149383545,0.12034318596124649
1789224568476554500,2.415554443359375,0.07016630470752716,0.9465596079826355,0.0345369391143322
1789224568486592300,2.42559228515625,0.07540766894817352,1.0493125915527344,-0.046610645949840546
1789224568496630300,2.43563037109375,0.14760836958885193,1.1710917949676514,0.027593543753027916
1789224568506668300,2.445668212890625,0.163257896900177,1.113283634185791,-0.016323313117027283
1789224568516705300,2.455705322265625,0.10194341093301773,1.0294533967971802,-0.13122805953025818
1789224568526743300,2.465743408203125,-0.02792857028543949,0.9621076583862305,-0.19646485149860382
1789224568536781300,2.47578125,-0.3795473277568817,0.6008973121643066,-0.42259520292282104
1789224568546818300,2.485818359375,-0.44290846586227417,0.5831928849220276,-0.4409358501434326
1789224568556856300,2.495856201171875,-0.43913689255714417,0.8528349995613098,-0.17360880970954895
1789224568566894300,2.505894287109375,-0.3616727292537689,0.8729730248451233,0.15020547807216644
1789224568576932000,2.51593212890625,-0.24460388720035553,0.6056084036827087,0.22538837790489197
1789224568586969300,2.52596923828125,-0.1914847493171692,0.2062852680683136,0.037811826914548874
1789224568597007400,2.53600732421875,-0.27472904324531555,0.30856209993362427,0.0431557260453701
1789224568607045400,2.54604541015625,-0.4995754659175873,0.38653385639190674,0.01788206212222576
1789224568617082400,2.556082275390625,-0.8328860402107239,0.2119780331850052,-0.054059505462646484
1789224568627120400,2.566120361328125,-1.0786724090576172,-0.06118985265493393,-0.05197212100028992
1789224568637158400,2.576158447265625,-1.1382778882980347,-0.12213336676359177,0.03844273090362549
1789224568647196400,2.586196533203125,-1.318906545639038,-0.25745630264282227,0.1301545351743698
1789224568657233200,2.596233154296875,-1.7797609567642212,-0.06036560609936714,-0.02582121081650257
1789224568667271400,2.606271484375,-1.9938637018203735,-0.4367067515850067,0.12928661704063416
1789224568677309200,2.61630908203125,-1.6776822805404663,-1.0349421501159668,1.1518776416778564
1789224568687347500,2.626347412109375,-1.8927996158599854,-0.31272515654563904,0.9142634868621826
1789224568697384400,2.636384521484375,-1.9408981800079346,-0.47913676500320435,1.0612577199935913
1789224568707422200,2.646422119140625,-1.9273877143859863,-0.3812791705131531,1.1061471700668335
1789224568717460500,2.65646044921875,-1.6113868951797485,-0.17220185697078705,1.1907216310501099
1789224568727498200,2.666498291015625,-1.2487080097198486,-0.4308459460735321,1.5225398540496826
1789224568737535200,2.67653515625,-1.6077396869659424,-0.05932058021426201,1.2499679327011108
1789224568747573200,2.6865732421875,-1.5644267797470093,-0.18966394662857056,1.4106484651565552
1789224568757611300,2.696611328125,-1.8978711366653442,0.35562628507614136,1.1737877130508423
1789224568767648500,2.7066484375,-1.97732412815094,0.7771205306053162,0.7015698552131653
1789224568777686300,2.716686279296875,-2.0941226482391357,0.6980685591697693,0.5579807162284851
1789224568787724500,2.726724609375,-2.52186918258667,0.4445771872997284,0.1494470089673996
1789224568797762300,2.73676220703125,-2.729081153869629,-0.060877200216054916,0.22779828310012817
1789224568807799600,2.746799560546875,-3.044679880142212,0.23748978972434998,-0.007299724500626326
1789224568817837600,2.756837646484375,-2.6660008430480957,0.5619751811027527,-0.24539963901042938
1789224568827875300,2.766875244140625,-2.293166160583496,0.11056379228830338,-0.35562413930892944
1789224568837913600,2.77691357421875,-1.9120292663574219,-0.2480207234621048,-0.46365875005722046
1789224568847950300,2.786950439453125,-1.711381435394287,0.006380401086062193,-0.46205711364746094
1789224568857988400,2.79698828125,-1.2567003965377808,0.021946843713521957,-0.2805054187774658
1789224568868026400,2.8070263671875,-0.8356083035469055,0.14835990965366364,0.029022863134741783
1789224568878064400,2.817064453125,-0.791782796382904,0.11815647035837173,-0.042321089655160904
1789224568888101600,2.8271015625,-0.8648655414581299,-0.029811425134539604,-0.26183825731277466
1789224568898139400,2.837139404296875,-0.7845438122749329,-0.15042519569396973,-0.33285120129585266
1789224568908177400,2.847177490234375,-0.2332516312599182,-0.09010698646306992,-0.14974422752857208
1789224568918215400,2.85721533203125,0.04591209813952446,-0.13330639898777008,0.05999542772769928
1789224568928252400,2.86725244140625,0.14257977902889252,-0.16939115524291992,0.09632094204425812
1789224568938290400,2.87729052734375,0.05880339443683624,0.21574001014232635,0.12019538134336472
1789224568948328400,2.887328369140625,-0.04749001935124397,0.3318530321121216,0.12604555487632751
1789224568958365400,2.897365478515625,-0.11639585345983505,0.252622127532959,0.05752401426434517
1789224568968403500,2.907403564453125,-0.14337366819381714,0.04578826203942299,0.0007664577569812536
1789224568978441500,2.91744140625,-0.0782785564661026,-0.258706659078598,-0.05259290337562561
1789224568988479500,2.9274794921875,0.20535928010940552,-0.7702423930168152,0.013734454289078712
1789224568998516500,2.9375166015625,0.3245551884174347,-1.3254674673080444,-0.045044705271720886
1789224569008554500,2.947554443359375,0.20254458487033844,-1.3207052946090698,-0.10221824795007706
1789224569018592300,2.95759228515625,0.03886084631085396,-0.8405024409294128,-0.03315049782395363
1789224569028630500,2.967630615234375,0.05862283334136009,-0.5015941262245178,-0.06329215317964554
1789224569038667500,2.97766748046875,0.04507453367114067,-0.08790481835603714,-0.07089574635028839
1789224569048705500,2.98770556640625,0.07421936839818954,-0.00014381069922819734,0.011656655929982662
1789224569058743600,2.99774365234375,0.08527601510286331,0.012054798193275928,0.02261529676616192
1789224569068781300,3.00778125,0.09087664633989334,-0.05306801199913025,0.0032597091048955917
1789224569078818600,3.017818603515625,0.08598441630601883,-0.08591970056295395,0.004679440520703793
1789224569088856600,3.027856689453125,0.07833821326494217,-0.114206463098526,-0.009672068059444427
1789224569098894300,3.037894287109375,0.07662633806467056,-0.09151766449213028,0.0004293015517760068
1789224569108932600,3.0479326171875,0.08209646493196487,-0.06142580881714821,0.010259827598929405
1789224569118969300,3.05796923828125,0.08589333295822144,-0.007526625879108906,0.03585759922862053
1789224569129007600,3.068007568359375,0.0747394859790802,0.027525899931788445,0.04037432000041008
1789224569139045400,3.07804541015625,0.05600787699222565,0.09208651632070541,0.07065712660551071
1789224569149083400,3.08808349609375,0.027473969385027885,0.24961063265800476,0.08634980022907257
1789224569159120600,3.09812060546875,-0.005773467011749744,0.49565955996513367,0.12234508991241455
1789224569169158400,3.108158447265625,-0.017899904400110245,0.5719221234321594,0.14155153930187225
1789224569179196400,3.118196533203125,0.005920739844441414,0.4860000014305115,0.1436152160167694
1789224569189234400,3.128234375,0.014896657317876816,0.32843807339668274,0.12113893777132034
1789224569199271400,3.138271484375,0.02785533294081688,0.31711989641189575,0.1183743104338646
1789224569209309700,3.148309814453125,0.10364144295454025,0.4685978293418884,0.20708288252353668
1789224569219347500,3.158347412109375,0.22386345267295837,0.5975819230079651,0.3249426782131195
1789224569229385500,3.168385498046875,0.2766190767288208,0.6059900522232056,0.4280799627304077
1789224569239422500,3.17842236328125,0.301186203956604,0.5075780153274536,0.5066378712654114
1789224569249460500,3.18846044921875,0.3045383393764496,0.4181295931339264,0.5438779592514038
1789224569259498200,3.198498291015625,0.309294193983078,0.37469157576560974,0.5516197681427002
1789224569269536500,3.20853662109375,0.3423592150211334,0.520333468914032,0.6425813436508179
1789224569279573500,3.218573486328125,0.38977253437042236,0.798430860042572,0.82218998670578
1789224569289611500,3.228611572265625,0.4159713685512543,0.8893280029296875,1.0595426559448242
1789224569299649500,3.2386494140625,0.4458672106266022,0.9134759902954102,1.295588731765747
1789224569309687300,3.248687255859375,0.4627450108528137,1.1456247568130493,1.463428258895874
1789224569319724500,3.258724609375,0.4683043658733368,1.2011163234710693,1.5579923391342163
1789224569329762600,3.268762451171875,0.44882839918136597,1.005031704902649,1.6798421144485474
1789224569339800300,3.27880029296875,0.375980019569397,0.8201401829719543,1.8158845901489258
1789224569349838600,3.288838623046875,0.26363351941108704,0.6492571234703064,2.1185004711151123
1789224569359875300,3.298875244140625,0.16115054488182068,0.770179808139801,2.5136501789093018
1789224569369913600,3.30891357421875,0.08694102615118027,0.9381006360054016,2.8193483352661133
1789224569379951400,3.318951416015625,0.022841399535536766,0.9711906313896179,3.0392720699310303
1789224569389989400,3.3289892578125,-0.047260455787181854,1.0279886722564697,3.171870470046997
1789224569400026600,3.339026611328125,-0.12053200602531433,1.0156124830245972,3.2350566387176514
1789224569410064400,3.349064453125,-0.18498502671718597,1.0060276985168457,3.227532148361206
1789224569420102400,3.359102294921875,-0.20445594191551208,1.0909695625305176,3.1396756172180176
1789224569430140400,3.369140380859375,-0.21914459764957428,1.0885028839111328,3.0094099044799805
1789224569440177400,3.379177490234375,-0.2694666385650635,1.0801714658737183,2.8889424800872803
1789224569450215700,3.389215576171875,-0.3601166307926178,1.09056556224823,2.812021017074585
1789224569460253400,3.39925341796875,-0.5121884346008301,1.0459825992584229,2.817610263824463
1789224569470291500,3.40929150390625,-0.7296621799468994,0.7882022261619568,2.9210667610168457
1789224569480329500,3.41932958984375,-0.9632722735404968,0.556796669960022,3.0889124870300293
1789224569490366500,3.429366455078125,-1.1198928356170654,0.560154139995575,3.2386362552642822
1789224569500404500,3.439404541015625,-1.1808533668518066,0.19655300676822662,3.2439420223236084
1789224569510442500,3.4494423828125,-1.1539088487625122,-0.11614764481782913,3.0233371257781982
1789224569520480500,3.45948046875,-1.037440538406372,-0.18532457947731018,2.5945942401885986
1789224569530517500,3.469517578125,-0.9014642834663391,-0.2743825614452362,2.0400311946868896
1789224569541183500,3.48018359375,-0.8037907481193542,-0.4721142649650574,1.4654076099395752
1789224569551221200,3.49022119140625,-0.7606661915779114,-0.6463891267776489,1.047600507736206
1789224569561258500,3.500258544921875,-0.751131534576416,-0.8382837176322937,0.7980356812477112
1789224569571296500,3.510296630859375,-0.7816321849822998,-0.8278145790100098,0.7235150933265686
1789224569581334300,3.520334228515625,-0.789762556552887,-0.6592367887496948,0.7413601279258728
1789224569591372500,3.53037255859375,-0.799323320388794,-0.4604365825653076,0.7657613158226013
1789224569601410300,3.540410400390625,-0.7839025259017944,-0.2445402443408966,0.755242645740509
1789224569611447600,3.550447509765625,-0.7529826760292053,-0.24605104327201843,0.6744053363800049
1789224569621485600,3.560485595703125,-0.724303126335144,-0.31232914328575134,0.5223278999328613
1789224569631523300,3.5705234375,-0.6887549757957458,-0.3361005187034607,0.3261863589286804
1789224569641561600,3.5805615234375,-0.667904257774353,-0.339816689491272,0.13234153389930725
1789224569651598300,3.590598388671875,-0.6556612253189087,-0.34722933173179626,-0.042102180421352386
1789224569661636400,3.60063623046875,-0.6260412335395813,-0.31281915307044983,-0.19069644808769226
1789224569671674400,3.61067431640625,-0.5516424179077148,-0.22974584996700287,-0.2929210960865021
1789224569681712400,3.62071240234375,-0.47555482387542725,-0.1868756115436554,-0.30459585785865784
1789224569691749600,3.63074951171875,-0.4383251667022705,-0.1562196910381317,-0.2460222840309143
1789224569701787400,3.640787353515625,-0.4007924199104309,-0.12321247905492783,-0.16707287728786469
1789224569711825400,3.650825439453125,-0.3496682643890381,-0.0944756418466568,-0.07676934450864792
1789224569721863400,3.660863525390625,-0.33386877179145813,-0.26711317896842957,0.1192355826497078
1789224569731901400,3.6709013671875,-0.38305923342704773,-0.32506224513053894,0.2914251983165741
1789224569741938400,3.6809384765625,-0.41197264194488525,-0.36079466342926025,0.38744279742240906
1789224569751976400,3.6909765625,-0.4029751420021057,-0.3601107895374298,0.40492910146713257
1789224569762014500,3.701014404296875,-0.3335425555706024,-0.2266978621482849,0.38330450654029846
1789224569772052500,3.711052490234375,-0.21506011486053467,-0.12368838489055634,0.4217051565647125
1789224569782089500,3.72108935546875,-0.03809705004096031,-0.01324043795466423,0.5210897922515869
1789224569792127500,3.73112744140625,0.2349829524755478,0.04748895391821861,0.6138442158699036
1789224569802165500,3.74116552734375,0.6016080975532532,0.24920183420181274,0.6274380683898926
1789224569812203500,3.75120361328125,0.9977301359176636,0.750164806842804,0.3943427801132202
1789224569822240300,3.761240234375,1.2871856689453125,0.8062232732772827,0.06568021327257156
1789224569832278500,3.771278564453125,1.5188335180282593,0.40186914801597595,0.0823340192437172
1789224569842316300,3.78131640625,1.6596089601516724,0.2749879062175751,0.3290444612503052
1789224569852354600,3.7913544921875,1.7206326723098755,0.23573583364486694,0.6296898126602173
1789224569862392300,3.801392333984375,1.7318933010101318,0.09176933765411377,0.8799023032188416
1789224569872429300,3.81142919921875,1.7203874588012695,0.047809600830078125,1.0480324029922485
1789224569882467600,3.821467529296875,1.6720225811004639,0.07463828474283218,1.1181329488754272
1789224569892505300,3.83150537109375,1.5081244707107544,-0.001942776027135551,1.0416054725646973
1789224569902543400,3.84154345703125,1.2442344427108765,-0.031368840485811234,0.8826269507408142
1789224569912580600,3.85158056640625,0.9049416184425354,-0.059245746582746506,0.6677138805389404
1789224569922618400,3.861618408203125,0.5516051054000854,-0.07477277517318726,0.4475351572036743
1789224569932656600,3.87165673828125,0.2559873163700104,-0.03966725245118141,0.27704304456710815
1789224569942694400,3.8816943359375,-0.029440179467201233,0.00811811350286007,0.16200488805770874
1789224569952732400,3.891732421875,-0.28393158316612244,-0.02743402123451233,0.10374850034713745
1789224569962769400,3.901769287109375,-0.47020798921585083,-0.0992506891489029,0.0511539988219738
1789224569972807400,3.911807373046875,-0.5870299339294434,-0.08341632783412933,-0.02087518759071827
1789224569982845200,3.92184521484375,-0.6293725967407227,-0.06427965313196182,-0.09969543665647507
1789224569992883500,3.931883544921875,-0.6056973934173584,-0.10983941704034805,-0.1504579484462738
1789224570002920400,3.94192041015625,-0.5748981833457947,-0.18260416388511658,-0.12133362144231796
1789224570012958500,3.95195849609375,-0.5065867900848389,-0.1908503770828247,-0.04638374224305153
1789224570022996500,3.96199658203125,-0.38679006695747375,-0.18494722247123718,0.02767210826277733
1789224570033034200,3.9720341796875,-0.2333323210477829,-0.18092530965805054,0.08746620267629623
1789224570043072500,3.982072509765625,-0.0887511745095253,-0.18090400099754333,0.14180773496627808
1789224570053109500,3.992109619140625,0.02136574313044548,-0.1697421669960022,0.20209664106369019
1789224570063147300,4.002147216796875,0.08970538526773453,-0.13964471220970154,0.25924035906791687
1789224570073185500,4.012185546875,0.11994664371013641,-0.0421232171356678,0.3121405839920044
1789224570083223300,4.022223388671875,0.13555942475795746,0.005209143273532391,0.35233381390571594
1789224570093260500,4.032260498046875,0.09401677548885345,-0.06139411777257919,0.3770713806152344
1789224570103298300,4.04229833984375,0.036917004734277725,-0.10331067442893982,0.3900761306285858
1789224570113336300,4.05233642578125,0.0013970943400636315,-0.06401706486940384,0.4021117687225342
1789224570123374300,4.062374267578125,-0.000925182132050395,-0.030434871092438698,0.42035627365112305
1789224570133412400,4.072412353515625,0.026030268520116806,-0.02195722982287407,0.415949285030365
1789224570143449300,4.082449462890625,0.01992843486368656,-0.04453444480895996,0.40151920914649963
1789224570153487400,4.0924873046875,-0.025120534002780914,-0.06632283329963684,0.3849617838859558
1789224570163525400,4.102525390625,0.009132511913776398,-0.09785705804824829,0.3975159525871277
1789224570173563400,4.1125634765625,0.2502966523170471,-0.2533547580242157,0.4554242491722107
1789224570183600400,4.122600341796875,0.8471640348434448,-0.6182312965393066,0.6128988265991211
1789224570193638400,4.132638427734375,1.3856767416000366,-0.7376990914344788,0.7272301912307739
1789224570203676400,4.142676513671875,1.38481605052948,-0.1764698475599289,0.3950410485267639
1789224570213714400,4.15271435546875,1.2269457578659058,0.15351632237434387,0.08996903896331787
1789224570223752400,4.16275244140625,0.830708384513855,0.17791327834129333,-0.1978510320186615
1789224570233789400,4.17278955078125,0.39759424328804016,0.0988546758890152,-0.3507116734981537
1789224570243827500,4.182827392578125,-0.016566459089517593,0.0031819448340684175,-0.33145782351493835
1789224570253865500,4.192865478515625,-0.4723920524120331,-0.10617464035749435,-0.21182623505592346
1789224570263903500,4.202903564453125,-0.8747296333312988,-0.1900506317615509,-0.037031788378953934
1789224570273941500,4.21294140625,-1.1147888898849487,-0.283550500869751,0.12152669578790665
1789224570283978500,4.222978515625,-1.1944756507873535,-0.25821131467819214,0.2392573207616806
1789224570294016300,4.233016357421875,-1.107312798500061,-0.2828633785247803,0.29823142290115356
1789224570304054500,4.243054443359375,-0.9556066393852234,-0.3637143075466156,0.3350712060928345
1789224570314092300,4.25309228515625,-0.7953855395317078,-0.3024064600467682,0.4035528004169464
1789224570324129300,4.26312939453125,-0.6513708233833313,-0.12713079154491425,0.42733773589134216
1789224570334167600,4.27316748046875,-0.589359700679779,-0.004194212146103382,0.44299209117889404
1789224570344205300,4.283205322265625,-0.5663813948631287,0.08683689683675766,0.4598946273326874
1789224570354243600,4.29324365234375,-0.5681675672531128,0.22199897468090057,0.4489618241786957
1789224570364281300,4.30328125,-0.6898194551467896,0.1672835350036621,0.4173184037208557
1789224570374318300,4.313318359375,-0.8299674987792969,0.07431204617023468,0.3414177894592285
1789224570384356600,4.323356689453125,-0.8618862628936768,-0.06012006103992462,0.23480477929115295
1789224570394394400,4.333394287109375,-0.8651204109191895,-0.15836088359355927,0.06440509110689163
1789224570404432600,4.3434326171875,-0.8268705010414124,-0.19990618526935577,0.0901072546839714
1789224570414470400,4.353470458984375,-0.6894497871398926,-0.13464808464050293,0.10795389860868454
1789224570424507400,4.36350732421875,-0.41296520829200745,0.05602411925792694,0.0030370689928531647
1789224570434545400,4.37354541015625,-0.15813584625720978,0.056173522025346756,-0.061100639402866364
1789224570444583400,4.38358349609375,-0.043355196714401245,0.0339885950088501,-0.07747774571180344
1789224570454621400,4.393621337890625,0.04463591054081917,0.16814160346984863,0.001743571599945426
1789224570464658400,4.403658447265625,0.11237021535634995,0.16777755320072174,0.12835131585597992
1789224570474696400,4.413696533203125,0.1920272260904312,0.12361461669206619,0.2118171751499176
1789224570484734500,4.423734375,0.3113166093826294,0.09210702031850815,0.17607197165489197
1789224570494772500,4.4337724609375,0.3990773558616638,-0.009730657562613487,0.13498391211032867
1789224570504810200,4.443810302734375,0.4428535997867584,-0.07300177216529846,0.1187085434794426
1789224570514847500,4.453847412109375,0.4802965819835663,-0.09142525494098663,0.15566176176071167
1789224570524885500,4.463885498046875,0.5531063079833984,-0.03864406421780586,0.2379598319530487
1789224570534923300,4.47392333984375,0.6488022208213806,0.02576421946287155,0.3093101680278778
1789224570544961500,4.48396142578125,0.7528654932975769,0.09910394996404648,0.3360115587711334
1789224570554999300,4.493999267578125,0.827053964138031,0.11962520331144333,0.2506953477859497
1789224570565036500,4.50403662109375,0.8533630967140198,0.10718797147274017,0.0843401774764061
1789224570575074600,4.514074462890625,0.841841459274292,0.09788155555725098,-0.05553196743130684
1789224570585112300,4.5241123046875,0.8136532306671143,0.08123280107975006,-0.0770106315612793
1789224570595150600,4.534150634765625,0.7880277633666992,0.054018761962652206,0.06754601746797562
1789224570605188400,4.544188232421875,0.7589268684387207,0.10459298640489578,0.28682243824005127
1789224570615225300,4.554225341796875,0.6911424994468689,0.19750481843948364,0.3925153315067291
1789224570625263400,4.564263427734375,0.5875005125999451,0.2840319871902466,0.32580873370170593
1789224570635301400,4.57430126953125,0.42699259519577026,0.27179956436157227,0.16642573475837708
1789224570645339400,4.58433935546875,0.22580942511558533,0.24786946177482605,0.03411402925848961
1789224570655377400,4.59437744140625,0.043594881892204285,0.22842544317245483,-0.025909096002578735
1789224570665414400,4.604414306640625,-0.10814937204122543,0.2582664489746094,-0.08547788113355637
1789224570675452400,4.614452392578125,-0.1663104146718979,0.32842981815338135,-0.08650346845388412
1789224570685490400,4.624490478515625,-0.12999369204044342,0.34757766127586365,-0.06261517852544785
1789224570695528400,4.634528564453125,-0.04145503044128418,0.3468780517578125,-0.1288413405418396
1789224570705566500,4.64456640625,0.041190579533576965,0.38464221358299255,-0.30173322558403015
1789224570715603500,4.654603515625,0.08491355925798416,0.5023576617240906,-0.5622180700302124
1789224570725641500,4.664641357421875,0.11472392082214355,0.4230998754501343,-0.8030338883399963
1789224570735679500,4.674679443359375,0.12682399153709412,0.2075750231742859,-0.9456381797790527
1789224570745717500,4.684717529296875,0.13302063941955566,0.03861583396792412,-0.9843927621841431
1789224570755755000,4.694755126953125,0.15497998893260956,0.08633755147457123,-0.9578657746315002
1789224570765792000,4.7047919921875,0.14685043692588806,0.17824403941631317,-0.9053748846054077
1789224570775829800,4.714829833984375,0.06067826226353645,0.20698140561580658,-0.9607361555099487
1789224570785868000,4.724867919921875,-0.0889170914888382,0.10204487293958664,-1.0055140256881714
1789224570795905800,4.73490576171875,-0.22294706106185913,-0.07082357257604599,-0.9215251207351685
1789224570805943800,4.74494384765625,-0.2742469906806946,-0.03997058421373367,-0.7401247024536133
1789224570815980800,4.754980712890625,-0.23365962505340576,0.2824159860610962,-0.6797441840171814
1789224570826018800,4.765018798828125,-0.10824178159236908,0.5557321906089783,-0.7620925903320312
1789224570836056800,4.775056884765625,0.07944129407405853,0.7177237868309021,-0.8602718710899353
1789224570846094800,4.7850947265625,0.44069191813468933,0.20555955171585083,-0.37722185254096985
1789224570856132900,4.7951328125,0.5559830665588379,0.4193280339241028,0.2076546549797058
1789224570866169900,4.805169921875,0.6914530396461487,0.5812892317771912,0.4740962088108063
1789224570876207900,4.815207763671875,0.7587308883666992,0.5478087663650513,0.5262355804443359
1789224570886245600,4.82524560546875,0.6848191022872925,0.5540887713432312,0.2994450330734253
1789224570896284000,4.835283935546875,0.5554776191711426,-0.038475219160318375,0.36822834610939026
1789224570906321700,4.84532177734375,0.34652280807495117,-0.2347872108221054,0.6402660012245178
1789224570916359000,4.85535888671875,0.14582191407680511,-0.18840692937374115,1.010015606880188
1789224570926397000,4.86539697265625,-0.03533561900258064,-0.055084824562072754,1.3114830255508423
1789224570936434700,4.8754345703125,-0.21706946194171906,0.2321336418390274,1.336983323097229
1789224570946473000,4.885472900390625,-0.35162752866744995,0.13015879690647125,1.2077357769012451
1789224570956510700,4.8955107421875,-0.49164244532585144,-0.07667800039052963,1.1325188875198364
1789224570966547700,4.905547607421875,-0.62501460313797,-0.26350727677345276,1.2788400650024414
1789224570976586000,4.9155859375,-0.7156736850738525,-0.2648257911205292,1.5093241930007935
1789224570986623700,4.925623779296875,-0.7205650806427002,-0.16823215782642365,1.6653385162353516
1789224570996662000,4.935662109375,-0.601093590259552,0.04430141672492027,1.7788715362548828
1789224571006699800,4.94569970703125,-0.3454388976097107,0.3465251922607422,1.847970962524414
1789224571016736800,4.95573681640625,-0.0008269115351140499,0.5471938252449036,1.786198616027832
1789224571026774800,4.96577490234375,0.40126219391822815,0.5365049839019775,1.6345734596252441
1789224571036812800,4.975812744140625,0.8435554504394531,0.44542673230171204,1.4497112035751343
1789224571046850800,4.985850830078125,1.3158252239227295,0.43047842383384705,1.2526044845581055
1789224571056888800,4.995888916015625,1.7399238348007202,0.4066750705242157,0.9651015996932983
1789224571066925800,5.00592578125,2.0700230598449707,0.33066633343696594,0.5649624466896057
1789224571076963800,5.0159638671875,2.3096530437469482,0.33048897981643677,0.10990413278341293
1789224571087001900,5.026001953125,2.3807342052459717,0.27201661467552185,-0.4764304459095001
1789224571097040000,5.036039794921875,2.1634490489959717,0.3096159100532532,-1.2247984409332275
1789224571107078000,5.046077880859375,1.8524413108825684,0.4045293629169464,-1.828418493270874
1789224571117115000,5.056114990234375,1.48568856716156,0.5407862663269043,-2.0089774131774902
1789224571127153000,5.06615283203125,1.0091934204101562,0.2118677794933319,-2.0780181884765625
1789224571137191000,5.07619091796875,0.4893915355205536,-0.1723874807357788,-2.217845916748047
1789224571147229000,5.08622900390625,-0.10084059089422226,-0.3308045566082001,-2.369126558303833
1789224571157267000,5.096266845703125,-0.694943368434906,-0.43691501021385193,-2.4670567512512207
1789224571167304700,5.1063046875,-1.2522153854370117,-0.5830690264701843,-2.4701666831970215
1789224571177342000,5.116342041015625,-1.7209469079971313,-0.6533650159835815,-2.37052583694458
1789224571187379700,5.126379638671875,-1.9859144687652588,-0.6196296811103821,-2.002769947052002
1789224571197417700,5.136417724609375,-2.1348297595977783,-0.874869704246521,-1.6631752252578735
1789224571207456000,5.1464560546875,-2.210455894470215,-1.0679595470428467,-1.3423335552215576
1789224571217493800,5.15649365234375,-2.3831279277801514,-1.0414302349090576,-1.2888953685760498
1789224571227531000,5.166531005859375,-1.6282329559326172,1.0180468559265137,1.3936175107955933
1789224571237568800,5.17656884765625,-1.6027041673660278,-0.17813831567764282,2.0152599811553955
1789224571247606800,5.186606689453125,-1.357309341430664,-0.8481619358062744,1.5130078792572021
1789224571257644800,5.196644775390625,-1.0703585147857666,-0.3853796422481537,0.8929824233055115
1789224571267682800,5.206682861328125,-0.8613536357879639,-0.320084810256958,0.16567525267601013
1789224571277719800,5.2167197265625,-0.8224688172340393,-0.691053032875061,-0.3203878700733185
1789224571287757800,5.2267578125,-0.39765575528144836,-1.0535483360290527,0.3348589539527893
1789224571297795800,5.2367958984375,-0.21935845911502838,-0.4485732614994049,0.5825286507606506
1789224571307833900,5.246833740234375,-0.10568994283676147,-0.4227967858314514,0.3627808690071106
1789224571317871900,5.256871826171875,-0.12650440633296967,-0.2561526894569397,0.0610087588429451
1789224571327910000,5.266909912109375,-0.27646276354789734,0.07593151926994324,-0.01613103225827217
1789224571337947000,5.27694677734375,-0.256695955991745,0.01739203929901123,-0.04572487622499466
1789224571347985000,5.28698486328125,-0.060018330812454224,-0.12795104086399078,-0.1855810433626175
1789224571358023000,5.29702294921875,0.1269339770078659,-0.0685761347413063,-0.28684666752815247
1789224571368061000,5.30706103515625,0.24860022962093353,0.09117278456687927,-0.34576085209846497
1789224571378098700,5.3170986328125,0.39237096905708313,0.15463830530643463,-0.3811228573322296
1789224571388136000,5.327135986328125,0.4692037105560303,0.061535000801086426,-0.33166128396987915
1789224571398173700,5.337173583984375,0.4605705440044403,-0.09546207636594772,-0.3126250207424164
1789224571408212000,5.3472119140625,0.4192292094230652,-0.11286663264036179,-0.3049987852573395
1789224571418249700,5.357249755859375,0.410382479429245,-0.0939246341586113,-0.18551181256771088
1789224571428287700,5.367287841796875,0.4215267300605774,-0.17797692120075226,-0.26709508895874023
1789224571438325000,5.377324951171875,0.43736615777015686,-0.24501560628414154,-0.2807283401489258
1789224571448362800,5.38736279296875,0.48135730624198914,-0.27011963725090027,-0.3601248860359192
1789224571458400800,5.39740087890625,0.4919327199459076,-0.3973662555217743,-0.4715006947517395
1789224571468438800,5.407438720703125,0.5088637471199036,-0.5946545600891113,-0.5511470437049866
1789224571478476800,5.417476806640625,0.6079900860786438,-0.9507397413253784,-0.6197758913040161
1789224571488514800,5.427514892578125,0.7910043597221375,-1.314940094947815,-0.5503821969032288
1789224571498551800,5.4375517578125,1.0447226762771606,-1.676360011100769,-0.5331670045852661
1789224571508589800,5.44758984375,1.3404350280761719,-2.530405044555664,-0.5612998008728027
1789224571518627800,5.4576279296875,1.6649055480957031,-3.2551536560058594,-0.5961486101150513
1789224571528665900,5.467665771484375,2.0017879009246826,-3.15219783782959,-0.8697271347045898
1789224571538704000,5.477703857421875,2.3157565593719482,-2.9588825702667236,-1.1374506950378418
1789224571548740900,5.487740966796875,2.666135311126709,-0.24601642787456512,-1.9165997505187988
1789224571558779000,5.49777880859375,2.685579299926758,0.7285175919532776,-1.7909047603607178
1789224571568817000,5.50781689453125,2.8702752590179443,0.4751153886318207,-1.5476199388504028
1789224571578855000,5.51785498046875,3.0074939727783203,-0.07984369993209839,-1.8252227306365967
1789224571588893000,5.527892822265625,2.4339206218719482,1.35052490234375,-0.5847744941711426
1789224571598931000,5.537930908203125,2.0527260303497314,-1.2051187753677368,0.8305227756500244
1789224571608967700,5.5479677734375,1.773269534111023,-0.8912327289581299,0.9891068339347839
1789224571619006000,5.558005859375,1.7464203834533691,-0.04206010326743126,0.6983346343040466
1789224571629043700,5.568043701171875,1.4318112134933472,-0.1273137480020523,0.5275383591651917
1789224571639082000,5.57808203125,1.114113688468933,-0.23395630717277527,0.10543560981750488
1789224571649119700,5.58811962890625,0.7957788705825806,-0.13083390891551971,-0.34604689478874207
1789224571659156700,5.59815673828125,0.41732239723205566,-0.18166886270046234,-0.6611182689666748
1789224571669195000,5.608195068359375,0.10034551471471786,0.312210351228714,-0.7337440252304077
1789224571679232800,5.618232666015625,-0.015004515647888184,0.02257268689572811,-0.02652588300406933
1789224571689270800,5.628270751953125,-0.0303973201662302,-0.2089257836341858,0.3198014497756958
1789224571699308800,5.638308837890625,0.01750602386891842,-0.1290661096572876,0.12961632013320923
1789224571709346800,5.648346923828125,0.039268042892217636,-0.028855616226792336,-0.030100377276539803
1789224571719384000,5.658384033203125,0.08400914818048477,-0.0062272693030536175,-0.20759446918964386
1789224571729421800,5.668421875,0.051422975957393646,0.0966716781258583,-0.21448300778865814
1789224571739459800,5.6784599609375,-0.008439024910330772,-0.04791346192359924,0.10771580785512924
1789224571749497900,5.688497802734375,0.009194829501211643,-0.11291350424289703,0.17968401312828064
1789224571759536400,5.698536376953125,0.10029038786888123,-0.10616078972816467,0.025671275332570076
1789224571769573000,5.708572998046875,0.1120905876159668,-0.06897614151239395,-0.05909900739789009
1789224571779611400,5.718611328125,0.07804793119430542,-0.06536755710840225,-0.035895150154829025
1789224571789649200,5.728649169921875,0.03165300190448761,-0.09717635065317154,0.07364492863416672
1789224571799687400,5.7386875,0.04477626085281372,-0.10763538628816605,0.1046779453754425
1789224571809725200,5.74872509765625,0.07878588885068893,-0.06763496994972229,0.014074007049202919
1789224571819763200,5.75876318359375,0.08318915963172913,-0.006284527480602264,-0.05191486328840256
1789224571829800400,5.768800537109375,0.04572407901287079,-0.0041007352992892265,0.010178068652749062
1789224571839838200,5.778838134765625,0.019702065736055374,-0.038058701902627945,0.06819849461317062
1789224571849876500,5.78887646484375,0.0028122980147600174,-0.0612388551235199,0.06529245525598526
1789224571859914200,5.798914306640625,0.00395692465826869,-0.028680114075541496,0.006586796138435602
1789224571869952300,5.8089521484375,-0.016876185312867165,0.005674663465470076,-0.016884174197912216
1789224571879990300,5.818990234375,-0.013082512654364109,0.013738448731601238,-0.0068360683508217335
1789224571890027300,5.82902734375,-0.0041063278913497925,-0.011581555008888245,-0.0035654399544000626
1789224571900065300,5.839065185546875,-0.004582767374813557,-0.014481204561889172,-0.0038991342298686504
1789224571910103300,5.849103271484375,-0.0010626012226566672,-0.005323126446455717,0.006140716839581728
1789224571920141300,5.859141357421875,0.007162039168179035,0.008216917514801025,-0.012030297890305519
1789224571930179300,5.869179443359375,0.01636272855103016,0.02226615697145462,-0.060391172766685486
1789224571940217300,5.87921728515625,0.027367709204554558,0.04176555573940277,-0.021617677062749863
1789224571950254000,5.889254150390625,0.038062430918216705,0.028711538761854172,0.02755306474864483
1789224571960292400,5.899292236328125,0.04989005997776985,0.0038868836127221584,0.018202705308794975
1789224571970330000,5.909330078125,0.0708366259932518,0.047263119369745255,-0.030239662155508995
1789224571980368400,5.919368408203125,0.08131163567304611,0.04769641533493996,-0.016290290281176567
1789224571990406400,5.929406494140625,0.09105774015188217,0.0027414578944444656,0.053229667246341705
1789224572000443100,5.939443115234375,0.0871407613158226,-0.020565463230013847,0.08786594122648239
1789224572010481400,5.9494814453125,0.07545347511768341,-0.03732473403215408,0.0507180392742157
1789224572020519200,5.959519287109375,0.06105722859501839,-0.005258944351226091,0.03718864917755127
1789224572030557400,5.969557373046875,0.05670296028256416,-0.006922354456037283,0.06341279298067093
1789224572040595200,5.97959521484375,0.1641676276922226,-0.011632154695689678,0.11565762013196945
1789224572050633200,5.98963330078125,0.33977460861206055,0.01426628790795803,0.08924812078475952
1789224572060670500,5.99967041015625,0.5649997591972351,0.01786901243031025,0.04186435788869858
1789224572070708200,6.009708251953125,0.8066456317901611,0.006076801102608442,-0.008230765350162983
1789224572080746500,6.01974658203125,0.7501837015151978,0.1404026448726654,0.08521103113889694
1789224572090784300,6.0297841796875,0.534744381904602,0.03033633343875408,0.07077483832836151
1789224572100822300,6.039822265625,0.20105162262916565,0.032886311411857605,0.02617301419377327
1789224572110860300,6.0498603515625,0.009129582904279232,0.12247371673583984,-0.09236055612564087
1789224572120897300,6.059897216796875,-0.007376157213002443,0.11557826399803162,-0.16212952136993408
1789224572130935300,6.069935302734375,-0.020329240709543228,0.08080749958753586,-0.08123866468667984
1789224572140973300,6.079973388671875,-0.00833862368017435,0.020987041294574738,0.03374677896499634
1789224572151011300,6.09001123046875,0.07943783700466156,-0.012163988314568996,0.11911866813898087
1789224572161049300,6.10004931640625,0.07364492863416672,0.022546587511897087,0.11977460235357285
1789224572171087400,6.11008740234375,0.03419099375605583,0.0571754053235054,0.0935419350862503
1789224572181124000,6.1201240234375,-0.009778860956430435,0.029395438730716705,0.1618538796901703
1789224572191162400,6.130162353515625,-0.03206099569797516,-0.049918558448553085,0.23982404172420502
1789224572201200000,6.1402001953125,-0.005619269795715809,-0.08424164354801178,0.21435090899467468
1789224572211238400,6.15023828125,0.04098125547170639,-0.04364095255732536,0.1131766214966774
1789224572221276200,6.160276123046875,0.05128715559840202,0.0038839541375637054,0.007632086984813213
1789224572231314200,6.170314208984375,0.047030359506607056,0.020808342844247818,-0.03555985912680626
1789224572241351400,6.180351318359375,0.012575712986290455,0.023482423275709152,-0.07016737014055252
1789224572251389200,6.19038916015625,-0.03988856077194214,0.04146808013319969,-0.1762717068195343
1789224572261427500,6.200427490234375,-0.057975418865680695,0.0616132952272892,-0.3017406761646271
1789224572271465200,6.21046533203125,-0.030194120481610298,0.07088828831911087,-0.3650679886341095
1789224572281503200,6.220503173828125,0.018380871042609215,0.0689748078584671,-0.36347994208335876
1789224572291541200,6.230541259765625,0.056884586811065674,0.07270349562168121,-0.32712167501449585
1789224572301578200,6.240578125,0.06233314797282219,0.09694625437259674,-0.2709031403064728
1789224572311616300,6.2506162109375,0.06688475608825684,-0.06088518723845482,-0.3299233019351959
1789224572321654300,6.260654296875,0.0779174342751503,0.17254780232906342,-0.3466604948043823
1789224572331692300,6.2706923828125,0.11183279007673264,0.08030762523412704,-0.31463730335235596
1789224572341730300,6.280730224609375,0.14550819993019104,-0.012439358979463577,-0.17434489727020264
1789224572351768300,6.290768310546875,0.1587824523448944,-0.0474303662776947,-0.0941491350531578
1789224572361805300,6.300805419921875,0.17223727703094482,-0.035835497081279755,-0.10513893514871597
1789224572371843300,6.31084326171875,0.09228599071502686,0.021521536633372307,-0.04469210281968117
1789224572381881300,6.32088134765625,0.03218083828687668,0.03346368297934532,-0.00202240445651114
1789224572391919400,6.33091943359375,0.005401689559221268,0.08111003041267395,0.023929035291075706
1789224572401957400,6.340957275390625,0.012368518859148026,0.09475447237491608,0.06789383292198181
1789224572411995400,6.350995361328125,0.005058141890913248,0.0804346576333046,0.1277608871459961
1789224572422032400,6.361032470703125,0.020614197477698326,-0.005244562868028879,0.11179816722869873
1789224572432070100,6.371070068359375,0.09340984374284744,-0.023088807240128517,0.006585997529327869
1789224572442108400,6.3811083984375,0.11951068788766861,0.09647247940301895,0.17218267917633057
1789224572452146200,6.391146240234375,0.08855729550123215,-0.2731891870498657,0.0933094397187233
1789224572462184200,6.40118408203125,0.053162019699811935,-0.012307798489928246,0.17592468857765198
1789224572472222200,6.41122216796875,-0.05339185148477554,0.03870478644967079,0.25693991780281067
1789224572482259200,6.42125927734375,-0.3327598571777344,0.3778895139694214,0.29140281677246094
1789224572492297500,6.43129736328125,-0.6357567310333252,0.006804909091442823,0.1790563017129898
1789224572502335200,6.441335205078125,-0.9908519983291626,-0.132083460688591,0.07865966111421585
1789224572512373200,6.451373291015625,-1.5215758085250854,0.2214045524597168,0.2267758846282959
1789224572522411300,6.461411376953125,-1.5573750734329224,0.3419701159000397,0.0037382792215794325
1789224572532449300,6.47144921875,-1.7716543674468994,-0.028977856040000916,0.13411732017993927
1789224572542486300,6.481486328125,-1.3954657316207886,0.5816119909286499,0.018687134608626366
1789224572552524300,6.491524169921875,-2.3554444313049316,-0.17457659542560577,0.17974233627319336
1789224572562562300,6.501562255859375,-2.3387484550476074,0.19462861120700836,0.15653501451015472
1789224572572600300,6.511600341796875,-2.741800546646118,0.11414334923028946,-0.11126473546028137
1789224572582638300,6.521638427734375,-2.9693596363067627,0.12020337581634521,0.051477570086717606
1789224572592676400,6.53167626953125,-3.4282948970794678,-0.19370421767234802,0.10819597542285919
1789224572602713300,6.54171337890625,-3.5131869316101074,-0.2534509003162384,0.05769658461213112
1789224572612751400,6.55175146484375,-3.074937343597412,0.29537704586982727,-0.06440269201993942
1789224572622789400,6.561789306640625,-3.295919418334961,-0.5768998265266418,0.2255508303642273
1789224572632827400,6.571827392578125,-2.2668075561523438,-0.577268660068512,0.22700518369674683
1789224572642865200,6.581865234375,-0.9961631298065186,0.24603161215782166,-0.009698433801531792
1789224572652903400,6.5919033203125,0.13051752746105194,0.07414959371089935,0.03530179709196091
1789224572662941200,6.601941162109375,0.8605552315711975,0.2901814877986908,-0.18379619717597961
1789224572672978400,6.611978515625,1.215272068977356,0.06888958811759949,-0.23233602941036224
1789224572683016200,6.62201611328125,1.5726640224456787,0.17496035993099213,-0.42174458503723145
1789224572693054200,6.63205419921875,1.9684901237487793,0.1918988674879074,-0.5617703795433044
1789224572703092200,6.64209228515625,2.3370308876037598,0.09780751913785934,-0.5640679001808167
1789224572713130200,6.652130126953125,2.285949230194092,0.11352656036615372,-0.23586206138134003
1789224572723168300,6.662168212890625,2.0279319286346436,0.22584591805934906,0.00881799217313528
1789224572733205200,6.672205322265625,1.8116803169250488,0.062194131314754486,-0.06287989765405655
1789224572743243300,6.6822431640625,1.4082942008972168,-0.15228354930877686,0.005528456065803766
1789224572753281300,6.69228125,0.8436542749404907,-0.1402077078819275,-0.04212161898612976
1789224572763319600,6.702319580078125,0.4849262237548828,-0.09774333983659744,-0.23504233360290527
1789224572773357300,6.712357421875,0.312956303358078,-0.054497864097356796,-0.29940134286880493
1789224572783395600,6.7223955078125,0.1270407736301422,0.03136032074689865,-0.356890469789505
1789224572793433300,6.732433349609375,0.028619127348065376,0.0632237121462822,-0.36907389760017395
1789224572803470300,6.74247021484375,0.04923225939273834,0.05777701362967491,-0.31348493695259094
1789224572813508600,6.752508544921875,0.06402026116847992,0.07503589242696762,-0.26054662466049194
1789224572823546400,6.76254638671875,0.05910779535770416,0.08269008249044418,-0.1856582760810852
1789224572833584600,6.772584716796875,0.03659156709909439,0.04553579166531563,-0.1349615454673767
1789224572843622400,6.782622314453125,-0.0007608651067130268,0.016860738396644592,-0.13026265799999237
1789224572853660700,6.79266064453125,-0.02689366601407528,-0.020843496546149254,-0.10962370038032532
1789224572863697400,6.802697509765625,-0.03188442811369896,-0.05876637622714043,-0.07822902500629425
1789224572873735400,6.8127353515625,0.012526177801191807,-0.028433505445718765,-0.17009715735912323
1789224572883773400,6.8227734375,-0.010033459402620792,0.007877896539866924,-0.054715175181627274
1789224572893811500,6.8328115234375,-0.021341241896152496,-0.005141232628375292,-0.016353406012058258
1789224572903849500,6.842849365234375,-0.05020298436284065,-0.005633384454995394,0.025375664234161377
1789224572913887500,6.852887451171875,-0.06635159254074097,-0.008628908544778824,0.0202176533639431
1789224572923924500,6.862924560546875,-0.1009063720703125,-0.0321161262691021,0.020434968173503876
1789224572933962500,6.87296240234375,-0.12634702026844025,-0.07527504861354828,0.039741020649671555
1789224572944000500,6.88300048828125,-0.11423895508050919,-0.12476909905672073,0.05841164290904999
1789224572954038300,6.893038330078125,-0.1098031997680664,-0.12452594935894012,0.0960458368062973
1789224572964076500,6.90307666015625,-0.08965052664279938,-0.110431969165802,0.14189641177654266
1789224572974114300,6.9131142578125,-0.068244569003582,-0.09534675627946854,0.17326685786247253
1789224572984152600,6.923152587890625,-0.055386293679475784,-0.0820932686328888,0.1915971338748932
1789224572994189600,6.933189453125,-0.05201180279254913,-0.06780993938446045,0.20973218977451324
1789224573004227300,6.943227294921875,-0.05361475795507431,-0.0483667328953743,0.21797281503677368
1789224573014265600,6.953265625,-0.06229906156659126,-0.03380163758993149,0.23859979212284088
1789224573024303400,6.963303466796875,-0.07751236855983734,-0.008198008872568607,0.23544447124004364
1789224573034341600,6.973341552734375,-0.09677208214998245,0.009701629169285297,0.24974432587623596
1789224573044379400,6.98337939453125,-0.1071765199303627,-0.00061279337387532,0.27767235040664673
1789224573054416400,6.99341650390625,-0.09009873121976852,-0.03527356684207916,0.3036389648914337
1789224573064454700,7.00345458984375,-0.07436877489089966,-0.08358677476644516,0.30992376804351807
1789224573074492400,7.013492431640625,-0.05020032078027725,-0.17841501533985138,0.23601706326007843
1789224573084530400,7.023530517578125,-0.006302637048065662,-0.11759001016616821,0.14407780766487122
1789224573094568400,7.033568359375,0.022606508806347847,-0.174522265791893,0.22621369361877441
1789224573104606500,7.0436064453125,0.06949012726545334,-0.1939372420310974,0.21296259760856628
1789224573114644500,7.05364453125,0.08397959172725677,-0.13884443044662476,0.17543946206569672
1789224573124681500,7.063681396484375,0.04755020886659622,-0.0883551612496376,0.0741538554430008
1789224573134719500,7.073719482421875,-0.03230227902531624,-0.03388073667883873,0.00577799417078495
1789224573144757500,7.083757568359375,-0.03933302313089371,-0.03996845334768295,-0.014156032353639603
1789224573154795500,7.09379541015625,-0.02021099627017975,-0.04752277955412865,-0.010708037763834
1789224573164833500,7.10383349609375,-0.010194048285484314,-0.04367158189415932,-0.04284067451953888
1789224573174871600,7.11387158203125,-0.013419668190181255,-0.0019145464757457376,-0.09880087524652481
1789224573184909600,7.12390966796875,0.009484048932790756,-0.004776645917445421,-0.12504392862319946
1789224573194946600,7.133946533203125,-0.010194581001996994,0.03683604672551155,-0.09400532394647598
1789224573204984300,7.143984375,0.016800550743937492,0.019942017272114754,-0.03954208269715309
1789224573215022600,7.154022705078125,0.018065819516777992,0.053576674312353134,-0.022289060056209564
1789224573225060400,7.164060302734375,0.0346064455807209,0.056173522025346756,-0.01720455288887024
1789224573235098400,7.174098388671875,0.04049496352672577,0.0638255849480629,0.00236328924074769
1789224573245136400,7.184136474609375,0.031440481543540955,0.056772734969854355,0.05744757875800133
1789224573255173400,7.19417333984375,0.027367975562810898,0.04890762269496918,0.08412393182516098
1789224573265211600,7.204211669921875,0.018993664532899857,0.05483182147145271,0.08397426456212997
1789224573275249400,7.21424951171875,0.019831761717796326,0.059955477714538574,0.053878143429756165
1789224573285287400,7.224287353515625,0.020318854600191116,0.06431906670331955,0.04114397615194321
1789224573295325400,7.234325439453125,0.024090688675642014,0.05678551644086838,0.040284305810928345
1789224573305363500,7.244363525390625,0.027478495612740517,0.05109567567706108,0.02587074600160122
1789224573315401500,7.2544013671875,0.025554895401000977,0.04087419435381889,-0.006992661859840155
1789224573325438500,7.2644384765625,0.01786874607205391,0.036558277904987335,-0.03759611025452614
1789224573335476500,7.2744765625,0.00962439738214016,0.02912645973265171,-0.04608786478638649
1789224573345514500,7.284514404296875,0.0023315974976867437,0.018144914880394936,-0.04326571524143219
1789224573355552500,7.294552490234375,-0.0010575412306934595,0.0082089276984334,-0.040411338210105896
1789224573365590500,7.304590576171875,-0.00555135915055871,0.0001227717293659225,-0.03225354477763176
1789224573375628500,7.314628662109375,-0.010104033164680004,-0.005034173373132944,-0.023427560925483704
1789224573385666300,7.324666259765625,-0.017589645460247993,-0.010305101983249187,0.0016279903938993812
1789224573395703600,7.33470361328125,-0.019467441365122795,-0.013527526520192623,0.03588316589593887
1789224573405741600,7.344741455078125,-0.017718808725476265,-0.011802064254879951,0.05359584838151932
1789224573415779300,7.354779296875,-0.017168866470456123,-0.0008460862445645034,0.060932859778404236
1789224573425817600,7.364817626953125,-0.01152482908219099,0.008027566596865654,0.059292349964380264
1789224573435855400,7.37485546875,-0.012673983350396156,0.012594355270266533,0.06852632761001587
1789224573445893600,7.3848935546875,-0.015529691241681576,0.007002249360084534,0.07166539877653122
1789224573455931400,7.394931396484375,-0.018122544512152672,0.009505887515842915,0.05118701979517937
1789224573465968400,7.404968505859375,-0.01829751394689083,0.010883539915084839,0.02082405611872673
1789224573476006400,7.41500634765625,-0.018689798191189766,0.012444152496755123,0.0019377160351723433
1789224573486044400,7.42504443359375,-0.01756487973034382,0.012167183682322502,-0.004804875236004591
1789224573496082400,7.43508251953125,0.005556951742619276,0.007478955201804638,-0.012205000966787338
1789224573506120400,7.445120361328125,0.029764819890260696,0.029619410634040833,-0.004774781409651041
1789224573516158500,7.455158447265625,0.03641686215996742,0.06539472192525864,0.003703658003360033
1789224573526196500,7.465196533203125,0.035949211567640305,0.10862661153078079,-0.04601995646953583
1789224573536233500,7.4752333984375,0.03593296557664871,0.113524429500103,-0.04348649084568024
1789224573546271500,7.485271484375,0.02082432247698307,0.09294085949659348,0.009165268391370773
1789224573556309500,7.4953095703125,0.040413737297058105,0.06005667895078659,0.007620369084179401
1789224573566347300,7.50534716796875,0.041078194975852966,0.05342620611190796,0.03099679760634899
1789224573576385500,7.515385498046875,0.03802541270852089,0.038595061749219894,0.015238074585795403
1789224573586423300,7.52542333984375,0.025838255882263184,0.016860205680131912,0.013434582389891148
1789224573596461600,7.535461669921875,-0.004034422803670168,-0.011303254403173923,0.022218752652406693
1789224573606498600,7.54549853515625,-0.03062954731285572,-0.02020913176238537,-0.019636550918221474
1789224573616536300,7.555536376953125,-0.04521435126662254,-0.018023209646344185,-0.01974361017346382
1789224573626574600,7.56557470703125,-0.04578613117337227,-0.06610818207263947,-0.017063938081264496
1789224573636612400,7.5756123046875,-0.04054209962487221,-0.09433156251907349,-0.01932096667587757
1789224573646650600,7.585650634765625,-0.03434865176677704,-0.10787586867809296,-0.03223756328225136
1789224573656688400,7.5956884765625,-0.042210571467876434,-0.09534116834402084,-0.02147679589688778
1789224573666726400,7.605726318359375,-0.05443954095244408,-0.11644565314054489,0.0010314423125237226
1789224573676763600,7.615763671875,-0.07543297111988068,-0.14914047718048096,0.009081379510462284
1789224573686801400,7.625801513671875,-0.09521253407001495,-0.20871353149414062,0.0073287528939545155
1789224573696839700,7.635839599609375,-0.12284789234399796,-0.29970496892929077,-0.01768871583044529
1789224573706877400,7.64587744140625,-0.152405247092247,-0.3949422538280487,-0.04885489121079445
1789224573716915500,7.65591552734375,-0.22917060554027557,-0.4853981137275696,-0.06550311297178268
1789224573726953500,7.665953369140625,-0.3022986054420471,-0.5226341485977173,-0.03684483468532562
1789224573736991500,7.675991455078125,-0.26647457480430603,-0.5123679637908936,0.006469883490353823
1789224573747028200,7.6860283203125,-0.25467249751091003,-0.3972059488296509,0.036968670785427094
1789224573757066500,7.69606640625,-0.21134047210216522,-0.2514601945877075,0.02172287181019783
1789224573767104500,7.7061044921875,-0.11433562636375427,-0.16331462562084198,0.021191837266087532
1789224573777142500,7.716142578125,-0.10621378570795059,-0.1335522085428238,0.05934002250432968
1789224573787180500,7.7261806640625,-0.1014707013964653,-0.15430514514446259,0.09333740174770355
1789224573797218600,7.736218505859375,-0.09107238799333572,-0.20229478180408478,0.08411887288093567
1789224573807256600,7.746256591796875,-0.09628552198410034,-0.24144910275936127,0.02901327610015869
1789224573817294600,7.756294677734375,-0.09520507603883743,-0.276266485452652,-0.042268361896276474
1789224573827331600,7.76633154296875,-0.10459618270397186,-0.27596792578697205,-0.09353288263082504
1789224573837369600,7.77636962890625,-0.1035652756690979,-0.2556903660297394,-0.07182145863771439
1789224573847407600,7.78640771484375,-0.080731600522995,-0.21183688938617706,-0.03268923610448837
1789224573857445400,7.7964453125,-0.028594626113772392,-0.14392361044883728,-0.023200128227472305
1789224573867483600,7.806483642578125,0.035161182284355164,-0.08040749281644821,-0.040281642228364944
1789224573877521400,7.816521484375,0.07761729508638382,-0.049083124846220016,-0.004245611373335123
1789224573887559700,7.8265595703125,0.08875090628862381,-0.05516445264220238,0.06526102870702744
1789224573897596700,7.8365966796875,0.07566413283348083,-0.0714624673128128,0.11320991069078445
1789224573907634400,7.846634521484375,0.06054297089576721,-0.08291885256767273,0.10226725041866302
1789224573917672700,7.856672607421875,0.06483092904090881,-0.06869437545537949,0.06517075002193451
1789224573927710500,7.86671044921875,0.09468656033277512,-0.030541930347681046,0.034234669059515
1789224573937748700,7.876748779296875,0.13819116353988647,0.003712446428835392,0.014385863207280636
1789224573947786500,7.886786376953125,0.1796853393316269,0.02605556882917881,0.012138688005506992
1789224573957824800,7.89682470703125,0.1930892914533615,0.05837702378630638,-0.05796343460679054
1789224573967861800,7.90686181640625,0.19002293050289154,0.09819767624139786,-0.1597995162010193
1789224573977899500,7.9168994140625,0.16531865298748016,0.10896856337785721,-0.1665591597557068
1789224573987937800,7.926937744140625,0.15606257319450378,0.08678070455789566,-0.11548185348510742
1789224573997975600,7.9369755859375,0.1665990948677063,0.059297945350408554,-0.09430519491434097
1789224574008013600,7.947013671875,0.17085909843444824,0.03895112872123718,-0.09711802750825882
1789224574018051600,7.957051513671875,0.154013529419899,0.023142337799072266,-0.0643925741314888
1789224574028089600,7.967089599609375,0.13461267948150635,-0.007679491303861141,0.004490355961024761
1789224574038127600,7.977127685546875,0.11839988082647324,-0.016034627333283424,0.09268280118703842
1789224574048164600,7.98716455078125,0.0955779179930687,-0.005065864883363247,0.13424941897392273
1789224574058202600,7.99720263671875,0.08890270441770554,0.005240302067250013,0.13965776562690735
1789224574068240600,8.00724072265625,0.0753600001335144,0.008727711625397205,0.09802749752998352
1789224574078278700,8.017278564453125,0.06312144547700882,-0.008020375855267048,0.06040768325328827
1789224574088316700,8.027316650390626,0.045646313577890396,-0.039203327149152756,0.04875954985618591
1789224574098354700,8.037354736328124,0.02815121039748192,-0.08717511594295502,0.061944592744112015
1789224574108392400,8.047392333984375,0.01823333278298378,-0.10866682231426239,0.046364303678274155
1789224574118429700,8.0574296875,0.03397927060723305,-0.1109883040189743,-0.051468782126903534
1789224574128467500,8.067467529296875,0.0293112825602293,-0.02220303937792778,-0.19431541860103607
1789224574138505700,8.077505615234376,0.004101534374058247,0.02183499187231064,-0.10628169775009155
1789224574148543500,8.08754345703125,0.015507587231695652,-0.07268112897872925,0.004144411068409681
1789224574158581500,8.09758154296875,0.028537634760141373,-0.04086727276444435,-0.05084027722477913
1789224574168619500,8.10761962890625,0.044493965804576874,-0.030824225395917892,0.0028162929229438305
1789224574178657500,8.117657470703126,0.04411952570080757,-0.05331036075949669,0.028606077656149864
1789224574188695600,8.127695556640624,0.02389680966734886,-0.08802226930856705,-0.014726747758686543
1789224574198732500,8.137732666015625,-0.044920604676008224,-0.10699382424354553,-0.06772338598966599
1789224574208770600,8.1477705078125,-0.08386640250682831,-0.11429301649332047,-0.035541217774152756
1789224574218808600,8.15780859375,-0.05284563824534416,-0.12442474812269211,0.0242542065680027
1789224574228846600,8.1678466796875,-0.0008673915872350335,-0.05447442829608917,-0.010497648268938065
1789224574238884600,8.177884521484375,0.05283312126994133,0.00800226628780365,-0.036741502583026886
1789224574248922600,8.187922607421875,0.05902763456106186,-0.010178867727518082,0.03747360408306122
1789224574258960400,8.19796044921875,0.04854436591267586,-0.04523512348532677,0.04240471497178078
1789224574268997600,8.20799755859375,0.009127452038228512,-0.03754923865199089,-0.011766644194722176
1789224574279035600,8.21803564453125,-0.0012889700010418892,-0.042324554175138474,-0.01251259632408619
1789224574289073700,8.22807373046875,0.0004548678989522159,-0.018378740176558495,-0.016227172687649727
1789224574299111700,8.238111572265625,0.012220713309943676,0.016291888430714607,-0.019651997834444046
1789224574309149400,8.2481494140625,0.042582880705595016,0.04352244362235069,-0.02413329854607582
1789224574319187700,8.258187744140624,0.06502853333950043,0.05132950097322464,0.06226523965597153
1789224574329225500,8.2682255859375,0.10911636799573898,0.028509939089417458,0.10349736362695694
1789224574339263700,8.278263671875,0.11026978492736816,0.049669284373521805,0.09406337887048721
1789224574349300700,8.28830078125,0.0895162969827652,0.04580317437648773,0.1001572236418724
1789224574359338500,8.29833837890625,0.04397810995578766,0.0242608655244112,0.06138186901807785
1789224574369376800,8.308376708984374,-0.0030924626626074314,0.011580489575862885,-0.0014346449170261621
1789224574379414500,8.31841455078125,-0.01588335819542408,0.0008346347021870315,-0.03634442389011383
1789224574389452800,8.328452880859375,0.01299542747437954,0.007255516014993191,-0.05060378834605217
1789224574399490600,8.338490478515626,0.06234832853078842,0.034977689385414124,-0.0636839047074318
1789224574409528600,8.348528564453124,0.09439174830913544,0.05666780471801758,-0.08569519966840744
1789224574419565600,8.358565673828124,0.08753970265388489,0.054134074598550797,-0.07926659286022186
1789224574429603600,8.368603515625,0.07044220715761185,0.04676297679543495,-0.05579402297735214
1789224574439641600,8.3786416015625,0.0548909455537796,0.07374319434165955,-0.082515649497509
1789224574449679600,8.3886796875,0.06497394293546677,0.12314270436763763,-0.08250925689935684
1789224574459717600,8.398717529296874,0.09260929375886917,0.13808543980121613,-0.011548264883458614
1789224574469755600,8.408755615234375,0.12260634452104568,0.1331585794687271,0.023744476959109306
1789224574479793700,8.418793701171875,0.11821958422660828,0.147157222032547,-0.0014394385507330298
1789224574489831700,8.428831787109376,0.0897517204284668,0.12292405962944031,0.019473832100629807
1789224574499868700,8.43886865234375,0.06645519286394119,0.06846614181995392,0.019571837037801743
1789224574509906400,8.448906494140624,0.03978602960705757,0.05374019220471382,-0.010464359074831009
1789224574519944700,8.45894482421875,-0.0022027005907148123,0.03948083147406578,0.10105124861001968
1789224574529982500,8.468982421875,0.009558618068695068,-0.007929828017950058,0.13776852190494537
1789224574540020700,8.479020751953126,0.004441353492438793,-0.0035382758360356092,0.03796256333589554
1789224574550058500,8.48905859375,-0.004915129859000444,-0.0014527543680742383,0.0005313006113283336
1789224574560096500,8.499096435546875,-0.028597822412848473,0.002787530655041337,0.011009774170815945
1789224574570134500,8.509134521484375,-0.05049992725253105,-0.008586830459535122,0.002416286151856184
1789224574580171500,8.519171630859375,-0.07455546408891678,-0.02581961266696453,-0.03592124953866005
1789224574590209500,8.52920947265625,-0.10494852066040039,-0.07150134444236755,-0.028135763481259346
1789224574600247600,8.53924755859375,-0.12010510265827179,-0.11036485433578491,-0.027514448389410973
1789224574610285600,8.54928564453125,-0.12703944742679596,-0.11880441755056381,-0.05698871612548828
1789224574620323600,8.559323486328125,-0.12590600550174713,-0.12831802666187286,-0.052383579313755035
1789224574630361600,8.569361572265626,-0.12168755382299423,-0.13103178143501282,-0.011492338962852955
1789224574640399600,8.579399658203124,-0.12163694947957993,-0.12661918997764587,-0.0025094966404139996
1789224574650437600,8.589437744140625,-0.1295769065618515,-0.1051381379365921,-0.022725552320480347
1789224574660474600,8.599474609375,-0.1470605581998825,-0.09664931148290634,-0.018216554075479507
1789224574670512600,8.6095126953125,-0.15202975273132324,-0.10801195353269577,0.01377919502556324
1789224574680550700,8.619550537109374,-0.15602368116378784,-0.12227824330329895,0.018324412405490875
1789224574690588400,8.62958837890625,-0.15413977205753326,-0.1400628238916397,-0.010083526372909546
1789224574700626700,8.639626708984375,-0.15240950882434845,-0.1728420853614807,0.018122810870409012
1789224574710664400,8.64966455078125,-0.1564900130033493,-0.1955074518918991,0.07581646740436554
1789224574720702700,8.65970263671875,-0.14625601470470428,-0.20794600248336792,0.06966829299926758
1789224574730740500,8.669740478515624,-0.14162477850914001,-0.19831416010856628,0.06324315071105957
1789224574740777500,8.679777587890625,-0.13064828515052795,-0.17330893874168396,0.05113162845373154
1789224574750815700,8.689815673828125,-0.12589135766029358,-0.12456829100847244,0.015090003609657288
1789224574760853500,8.699853515625,-0.14456969499588013,-0.073008693754673,0.11136966943740845
1789224574770891500,8.7098916015625,-0.11266769468784332,-0.09308067709207535,0.13334687054157257
1789224574780929300,8.71992919921875,-0.03549540787935257,-0.09705837070941925,-0.10716959834098816
1789224574790967600,8.729967529296875,0.06363703310489655,-0.007595601491630077,-0.2549358904361725
1789224574801005300,8.74000537109375,0.09372463077306747,0.07256421446800232,-0.10833366215229034
1789224574811043600,8.750043701171874,0.08094864338636398,0.1775984913110733,-0.0325520858168602
1789224574821080300,8.760080322265624,-0.0344378687441349,0.25746455788612366,0.06750154495239258
1789224574831118300,8.770118408203125,0.007164169568568468,0.11054888367652893,0.018573684617877007
1789224574841156600,8.780156494140625,0.04231549799442291,0.11225436627864838,0.12530332803726196
1789224574851194400,8.7901943359375,0.21736668050289154,0.2795664072036743,-0.03566372022032738
1789224574861232600,8.800232666015624,0.34814172983169556,0.30481982231140137,-0.09977612644433975
1789224574871270400,8.8102705078125,0.38187918066978455,0.14668558537960052,-0.08446534723043442
1789224574881308400,8.820308349609375,0.2464747577905655,0.1643572449684143,-0.12294003367424011
1789224574891346400,8.830346435546875,0.0679236575961113,0.13387763500213623,-0.05579375848174095
1789224574901383400,8.840383544921876,-0.02731178142130375,0.05738632753491402,-0.008973254822194576
1789224574911421400,8.85042138671875,0.02522439695894718,0.1414809674024582,-0.07200122624635696
1789224574921459500,8.86045947265625,0.1421440988779068,0.18498876690864563,-0.0583711639046669
1789224574931497200,8.870497314453125,0.23542051017284393,0.09496486186981201,0.09661335498094559
1789224574941535500,8.880535400390626,0.1833149641752243,0.08866462111473083,0.2414187490940094
1789224574951573200,8.8905732421875,0.09897930920124054,0.13853977620601654,0.2644939720630646
1789224574961611500,8.900611572265625,-0.008681106381118298,0.29058921337127686,0.39182448387145996
1789224574971649500,8.9106494140625,-0.1622759848833084,0.5017675161361694,0.7306898832321167
1789224574981686300,8.920686279296875,0.10643669217824936,0.6290168166160583,0.8208972811698914
1789224574991724500,8.930724609375,0.37496161460876465,0.3429557681083679,0.6507673859596252
1789224575001762300,8.94076220703125,0.6977900266647339,0.2646273970603943,0.24007545411586761
1789224575011800600,8.950800537109375,0.9505162835121155,0.23542317748069763,-0.3290676474571228
1789224575021838300,8.96083837890625,1.0728789567947388,0.25541818141937256,-0.8472666144371033
1789224575031876400,8.97087646484375,0.9245741367340088,0.1690577268600464,-1.2207221984863281
1789224575041914400,8.980914306640624,0.3872939348220825,0.7617024183273315,-0.9907808899879456
1789224575051952400,8.990952392578125,-0.2929098904132843,0.0016391756944358349,0.039502669125795364
1789224575061989400,9.0009892578125,-0.347584068775177,-0.0657007172703743,0.25609517097473145
1789224575072027400,9.01102734375,-0.22692902386188507,0.23077994585037231,0.3732718527317047
1789224575082065400,9.0210654296875,0.04472485929727554,0.3947366774082184,0.579360842704773
1789224575092103400,9.031103515625,0.43282678723335266,0.2440856397151947,0.4107513129711151
1789224575102141400,9.041141357421875,0.611558735370636,0.14595827460289001,0.18390725553035736
1789224575112179500,9.051179443359375,0.5041803121566772,0.09956840425729752,-0.1465950310230255
1789224575122217500,9.061217529296876,0.17251397669315338,0.5429703593254089,-0.2802963852882385
1789224575132255200,9.071255126953124,-0.0508437380194664,0.1637772172689438,0.3453720510005951
1789224575142293500,9.08129345703125,0.011598599143326283,-0.05139155313372612,0.3884313702583313
1789224575152330500,9.09133056640625,-0.01173175685107708,0.18916966021060944,0.12435977160930634
1789224575162368500,9.101368408203125,0.0015694007743149996,0.24449177086353302,-0.04944291710853577
1789224575172406500,9.111406494140626,0.11730026453733444,0.15896008908748627,-0.25498834252357483
1789224575182444300,9.1214443359375,0.1234377846121788,0.2043006718158722,-0.37891510128974915
1789224575192482600,9.131482666015625,0.0167949590831995,0.12205640226602554,-0.1101536676287651
1789224575202520300,9.141520263671875,0.0034410704392939806,0.0798567458987236,-0.057853445410728455
1789224575212558600,9.15155859375,0.05529441311955452,0.14519234001636505,-0.17642776668071747
1789224575222596400,9.161596435546874,0.08254281431436539,0.1890237182378769,-0.12704609334468842
1789224575232633300,9.17163330078125,0.13178811967372894,0.16673678159713745,-0.053337790071964264
1789224575242671600,9.181671630859375,0.1496848315000534,0.18036390841007233,-0.09674571454524994
1789224575252709400,9.19170947265625,0.12436669319868088,0.22138617932796478,-0.08641292154788971
1789224575262747600,9.20174755859375,0.08090363442897797,0.23911191523075104,0.04372883960604668
1789224575272785400,9.211785400390625,0.08677563816308975,0.18188270926475525,0.12448440492153168
1789224575282823400,9.221823486328125,0.10712272673845291,0.2006010115146637,0.06871142238378525
1789224575292861400,9.231861328125,0.12571612000465393,0.21054844558238983,0.0779227614402771
1789224575302899500,9.2418994140625,0.13402225077152252,0.17519445717334747,0.19114013016223907
1789224575312937500,9.2519375,0.12422581017017365,0.13400015234947205,0.2787429392337799
1789224575322974500,9.261974365234375,0.10213994979858398,0.13678288459777832,0.22710105776786804
1789224575333012200,9.27201220703125,0.08592849224805832,0.16349253058433533,0.10432880371809006
1789224575343050500,9.282050537109376,0.09476751834154129,0.17692311108112335,0.011540009640157223
1789224575353088300,9.292088134765624,0.10545451939105988,0.20549297332763672,-0.055992428213357925
1789224575363126500,9.30212646484375,0.1341618001461029,0.21962930262088776,-0.08761347085237503
1789224575373164300,9.312164306640625,0.15499837696552277,0.232371985912323,-0.06317790597677231
1789224575383202300,9.322202392578125,0.17084898054599762,0.26683008670806885,-0.09991301596164703
1789224575393240600,9.332240478515626,0.173585906624794,0.29852065443992615,-0.15273122489452362
1789224575403278300,9.3422783203125,0.1683964729309082,0.29651501774787903,-0.26145637035369873
1789224575413315600,9.352315673828125,0.15130935609340668,0.29649052023887634,-0.11897405982017517
1789224575423353300,9.362353271484375,0.1798160970211029,0.14406263828277588,0.0007478156476281583
1789224575433391400,9.372391357421876,0.19835862517356873,0.14979641139507294,-0.03761874884366989
1789224575443429400,9.382429443359374,0.1780160665512085,0.21339643001556396,-0.014536865055561066
1789224575453467400,9.39246728515625,0.11909709870815277,0.27672240138053894,0.008244880475103855
1789224575463505400,9.40250537109375,0.06287776678800583,0.3853181302547455,0.05179475620388985
1789224575473543400,9.41254345703125,0.07085339725017548,0.36126047372817993,0.1816542148590088
1789224575483581400,9.42258154296875,0.10800529271364212,0.32402467727661133,0.26076048612594604
1789224575493618400,9.432618408203124,0.1536308377981186,0.2507999837398529,0.3249290883541107
1789224575503656400,9.442656494140625,0.16153110563755035,0.14685869216918945,0.4207006096839905
1789224575513694500,9.452694580078125,0.10524306446313858,0.11313693970441818,0.4245065450668335
1789224575523732500,9.462732421875,0.018069548532366753,0.11098883301019669,0.29666388034820557
1789224575533770200,9.472770263671874,-0.059240687638521194,0.1272841840982437,0.06877852976322174
1789224575543808500,9.48280859375,0.004518052563071251,0.11796791851520538,-0.33997222781181335
1789224575553846300,9.49284619140625,0.034941740334033966,0.16970621049404144,-0.5177632570266724
1789224575563884500,9.502884521484376,0.03147377073764801,0.16028288006782532,-0.35836881399154663
1789224575573922300,9.51292236328125,0.0415000393986702,0.16638632118701935,-0.1978244036436081
1789224575583960600,9.522960693359375,0.03994182497262955,0.27235108613967896,-0.1781681329011917
1789224575593997600,9.53299755859375,0.05411063879728317,0.2938193678855896,-0.09843096882104874
1789224575604035300,9.543035400390625,0.08310393989086151,0.21385875344276428,-0.02406698651611805
1789224575614073600,9.553073486328126,0.10393598675727844,0.21222810447216034,-0.019175825640559196
1789224575624111400,9.563111328125,-0.004169711377471685,0.07980535179376602,0.32195061445236206
1789224575634149400,9.5731494140625,0.00424374733120203,-0.15928232669830322,0.5505896210670471
1789224575644187400,9.5831875,0.020742828026413918,-0.16963563859462738,0.4640139937400818
1789224575654225400,9.593225341796876,-0.04285851866006851,-0.00887684803456068,0.2687520980834961
1789224575664263400,9.603263427734374,-0.114532969892025,0.13158385455608368,0.08182775229215622
1789224575674301400,9.613301513671875,-0.19331327080726624,0.23789697885513306,-0.05118808522820473
1789224575684338400,9.62333837890625,-0.188884437084198,0.27527764439582825,-0.09149742871522903
1789224575694376400,9.63337646484375,-0.08657243847846985,0.2237689197063446,-0.0671827644109726
1789224575704414500,9.64341455078125,0.009732255712151527,0.11823369562625885,-0.0791986808180809
1789224575714452500,9.653452392578124,0.13161875307559967,-0.08231351524591446,-0.334805428981781
1789224575724490500,9.663490478515625,0.0756731927394867,-0.1229080781340599,-0.3448500633239746
1789224575734528500,9.673528564453125,-0.04563353210687637,-0.21005550026893616,-0.17380695044994354
1789224575744566500,9.68356640625,-0.12423699349164963,-0.27561479806900024,-0.17293475568294525
1789224575754604300,9.693604248046874,-0.26704421639442444,-0.23714862763881683,-0.20099835097789764
1789224575764642600,9.703642578125,-0.3541812598705292,-0.14840997755527496,-0.2572309970855713
1789224575774679300,9.71367919921875,-0.37824901938438416,-0.1739821881055832,-0.10331547260284424
1789224575784717300,9.72371728515625,-0.3732590675354004,-0.29986581206321716,0.013806626200675964
1789224575794755600,9.733755615234376,-0.3160431683063507,-0.48921096324920654,-0.05078461766242981
1789224575804793300,9.74379345703125,-0.40145421028137207,-0.6955758333206177,0.13253913819789886
1789224575814831600,9.75383154296875,-0.5302108526229858,-0.8820610642433167,0.36787736415863037
1789224575824869400,9.763869384765625,-0.5871878862380981,-0.8393591046333313,0.3424774408340454
1789224575834907600,9.77390771484375,-0.6357426047325134,-0.6373628973960876,0.2149812877178192
1789224575844945400,9.7839453125,-0.737468957901001,-0.4641759395599365,0.08281844854354858
1789224575854983400,9.7939833984375,-0.6886263489723206,-0.34138235449790955,-0.09434487670660019
1789224575865021400,9.804021484375,-0.5098323822021484,-0.3817436397075653,-0.08526270091533661
1789224575875058400,9.814058349609375,-0.4354627728462219,-0.4290914535522461,0.0034993935842067003
1789224575885096200,9.82409619140625,-0.3469976484775543,-0.4194191098213196,-0.061651911586523056
1789224575895134500,9.834134521484375,-0.3013995289802551,-0.42341944575309753,-0.14825178682804108
1789224575905172200,9.844172119140625,-0.3171566426753998,-0.4143180847167969,-0.2955658733844757
1789224575915210500,9.85421044921875,-0.371904581785202,-0.3586319088935852,-0.3600732386112213
1789224575925248500,9.86424853515625,-0.407203733921051,-0.37904879450798035,-0.25669702887535095
1789224575935286500,9.87428662109375,-0.41951578855514526,-0.3098747730255127,-0.2913498282432556
1789224575945324500,9.884324462890625,-0.3765707015991211,-0.1630736142396927,-0.3120844066143036
1789224575955362300,9.8943623046875,-0.27374446392059326,-0.13160675764083862,-0.12959714233875275
1789224575965399600,9.904399658203126,-0.17000767588615417,-0.2392280250787735,-0.013058544136583805
1789224575975437300,9.914437255859376,-0.1401965171098709,-0.2934092581272125,-0.05506058782339096
1789224575985475600,9.9244755859375,-0.1968717873096466,-0.31303486227989197,0.03117203339934349
1789224575995513300,9.934513427734375,-0.2988745868206024,-0.3939209282398224,0.2957773208618164
1789224576005551400,9.94455126953125,-0.35585877299308777,-0.4629242420196533,0.36412256956100464
1789224576015589400,9.95458935546875,-0.40944451093673706,-0.3789939284324646,0.29838430881500244
1789224576025627400,9.96462744140625,-0.3299901485443115,-0.38562890887260437,0.12204255163669586
1789224576035665400,9.97466552734375,-0.1253318190574646,-0.5255263447761536,-0.35236284136772156
1789224576045703400,9.984703369140625,-0.10844205319881439,-0.29780399799346924,-0.5823547840118408
1789224576055741200,9.9947412109375,-0.13240304589271545,-0.40898218750953674,-0.30712851881980896
1789224576065779500,10.004779541015624,-0.1687842309474945,-0.280864417552948,-0.1954946666955948
1789224576075816400,10.01481640625,-0.20294752717018127,-0.0718211904168129,-0.1655636578798294
1789224576085854500,10.0248544921875,-0.20698221027851105,-0.03876124322414398,0.05011270195245743
1789224576095892500,10.034892578125,-0.0665808916091919,-0.18676188588142395,0.13462838530540466
1789224576105930200,10.04493017578125,0.058569036424160004,-0.40539994835853577,-0.12167290598154068
1789224576115968500,10.054968505859375,0.17753084003925323,-0.6688957810401917,-0.5523353219032288
1789224576126006300,10.06500634765625,0.003961984533816576,-0.12719443440437317,-0.20905014872550964
1789224576136044500,10.07504443359375,-0.18398182094097137,-0.8673723936080933,0.47653165459632874
1789224576146082300,10.085082275390626,-0.23481464385986328,-0.5658114552497864,0.48995453119277954
1789224576156120600,10.09512060546875,-0.37790122628211975,-0.181509867310524,0.3379218578338623
1789224576166157600,10.105157470703125,-0.5594252347946167,0.07313892245292664,0.4048915505409241
1789224576176195300,10.1151953125,-0.40321215987205505,0.057137321680784225,0.398693323135376
1789224576186233600,10.125233642578126,-0.0030248183757066727,-0.2881718575954437,0.01363272126764059
1789224576196271400,10.135271240234376,0.147213414311409,-0.351249635219574,-0.23517389595508575
1789224576206309400,10.145309326171875,-0.0004519384237937629,-0.13860182464122772,0.16996639966964722
1789224576216347400,10.155347412109375,0.03265434876084328,-0.04800241440534592,0.08798311650753021
1789224576226385400,10.165385498046875,0.06413158029317856,-0.033424802124500275,-0.20653027296066284
1789224576236423400,10.17542333984375,0.035835228860378265,-0.0808357298374176,0.042635079473257065
1789224576246461400,10.18546142578125,0.07542125135660172,-0.09340052306652069,-0.06354222446680069
1789224576256499500,10.19549951171875,0.0849849283695221,0.0713663250207901,-0.24651950597763062
1789224576266537500,10.205537353515625,0.11155901849269867,0.04109843447804451,-0.05764066055417061
1789224576276574500,10.215574462890626,0.15873877704143524,-0.010297112166881561,-0.08632156997919083
1789224576286612500,10.225612548828124,0.22726671397686005,0.07273013144731522,-0.336747407913208
1789224576296650500,10.235650390625,0.15760454535484314,0.15813584625720978,-0.10162702202796936
1789224576306688300,10.245688232421875,0.16793467104434967,0.06501442193984985,0.11624538153409958
1789224576316726500,10.2557265625,0.22977328300476074,0.0944916158914566,-0.12304390221834183
1789224576326764300,10.265764404296876,0.19631251692771912,0.2621152400970459,-0.24522466957569122
1789224576336802600,10.275802490234375,0.16620202362537384,0.24584704637527466,0.10293117165565491
1789224576346840300,10.28584033203125,0.18662820756435394,0.10197536647319794,0.38623079657554626
1789224576356878600,10.295878662109375,0.1988297402858734,0.12871617078781128,0.3450213074684143
1789224576366916400,10.305916259765626,0.2087729126214981,0.18042916059494019,0.14287406206130981
1789224576376954400,10.315954345703124,0.20477019250392914,0.2128659337759018,0.0176362507045269
1789224576386991600,10.32599169921875,0.15055009722709656,0.19433486461639404,0.1431233286857605
1789224576397029400,10.336029296875,0.11981401592493057,0.17420189082622528,0.19763770699501038
1789224576407067600,10.346067626953126,0.08886462450027466,0.2649616301059723,0.12397734075784683
1789224576417105400,10.35610546875,0.059007126837968826,0.30669307708740234,0.137107253074646
1789224576427143400,10.366143310546875,0.1655639261007309,0.17508552968502045,0.03567224368453026
1789224576437181400,10.376181396484375,0.21605773270130157,0.06548579782247543,-0.13737942278385162
1789224576447219500,10.386219482421875,0.1691538691520691,-0.09959609806537628,0.04953399673104286
1789224576457257500,10.396257568359376,0.08221178501844406,-0.13335299491882324,-0.021760955452919006
1789224576467295500,10.40629541015625,0.03779638186097145,0.023378826677799225,-0.29364973306655884
1789224576477333200,10.416333251953125,-0.03835431486368179,0.19393831491470337,-0.43607771396636963
1789224576487371500,10.42637158203125,-0.05343100056052208,0.2674327790737152,-0.5124198794364929
1789224576497409300,10.4364091796875,0.018977418541908264,0.2596084177494049,-0.5735535621643066
1789224576507446500,10.446446533203124,0.0049470881931483746,0.29925408959388733,-0.33486586809158325
1789224576517484500,10.456484619140625,0.06966163218021393,-0.05119208246469498,-0.03858893737196922
1789224576527522300,10.466522216796875,0.1466570794582367,-0.36545202136039734,0.06560350954532623
1789224576537560600,10.476560546875,-0.07618477940559387,-0.44803422689437866,0.21074073016643524
1789224576547598300,10.486598388671876,-0.27545449137687683,-0.38435646891593933,0.40154555439949036
1789224576557636600,10.49663671875,-0.4596749246120453,-0.17901049554347992,0.4750983417034149
1789224576567674400,10.50667431640625,-0.4096604883670807,-0.1357083022594452,0.478563129901886
1789224576577712600,10.516712646484375,-0.08534365892410278,-0.2287902981042862,-0.05414073169231415
1789224576587750400,10.52675048828125,-0.03051929362118244,0.049497246742248535,0.01739337109029293
1789224576597788400,10.536788330078124,-0.09478190541267395,-0.20569217205047607,0.5755948424339294
1789224576607826400,10.546826416015625,-0.10323743522167206,-0.03452229127287865,0.2340383231639862
1789224576617864400,10.556864501953125,-0.15153759717941284,0.03169507905840874,-0.02937200292944908
1789224576627901400,10.5669013671875,-0.13250291347503662,0.05655382201075554,-0.05428054928779602
1789224576637939500,10.576939453125,0.061761900782585144,0.14031076431274414,-0.2281724512577057
1789224576647977500,10.5869775390625,0.16596074402332306,0.21185126900672913,0.08878099918365479
1789224576658015500,10.597015380859375,0.22543072700500488,-0.01769883558154106,0.41833600401878357
1789224576668053500,10.607053466796875,0.21922023594379425,0.018455440178513527,0.16429466009140015
1789224576678091500,10.617091552734376,0.09021111577749252,0.06421573460102081,-0.08722491562366486
1789224576688129500,10.627129638671875,-0.03545732796192169,0.19300994277000427,-0.11017443984746933
1789224576698167300,10.637167236328125,-0.001793905277736485,0.09585995227098465,0.08316359668970108
1789224576708205600,10.64720556640625,0.07823408395051956,0.057130131870508194,0.20099622011184692
1789224576718243300,10.657243408203126,0.1461167335510254,0.2567979693412781,0.027715250849723816
1789224576728281600,10.667281494140624,0.26653236150741577,0.27009326219558716,-0.2520418167114258
1789224576738319400,10.6773193359375,0.3196677565574646,0.3767142593860626,-0.32162198424339294
1789224576748356400,10.6873564453125,0.2869582772254944,0.42460426688194275,-0.057999387383461
1789224576758394000,10.69739404296875,0.285004585981369,0.4619612395763397,0.09530308097600937
1789224576768431900,10.707431884765626,0.31049156188964844,0.47061359882354736,0.2046615332365036
1789224576778470100,10.71747021484375,0.34199729561805725,0.4485865831375122,0.22527359426021576
1789224576788508000,10.7275078125,0.39347031712532043,0.38413435220718384,-0.03615827113389969
1789224576798546000,10.7375458984375,0.37706977128982544,0.4354974031448364,-0.2942665219306946
1789224576808584000,10.747583984375,0.29939258098602295,0.3663332462310791,0.016506537795066833
1789224576818622000,10.7576220703125,0.2840817868709564,0.43525266647338867,0.18795286118984222
1789224576828660000,10.767659912109375,0.3264921009540558,0.6070465445518494,-0.10805642604827881
1789224576838698000,10.777697998046875,0.46323609352111816,0.6429315805435181,-0.34329476952552795
1789224576848735700,10.78773583984375,0.49613386392593384,0.7507309913635254,-0.2047123908996582
1789224576858774000,10.79777392578125,0.5297663807868958,0.5857159495353699,0.14434999227523804
1789224576868811000,10.80781103515625,0.588693380355835,0.3668200671672821,0.19264082610607147
1789224576878849000,10.81784912109375,0.5614228248596191,0.36923477053642273,0.027579164132475853
1789224576888887000,10.827886962890625,0.3553037643432617,0.45097196102142334,-0.11825446784496307
1789224576898924800,10.8379248046875,0.1238526999950409,0.49922311305999756,0.03725336119532585
1789224576908963000,10.847963134765624,0.13969078660011292,0.3269174098968506,0.32740849256515503
1789224576919000800,10.858000732421875,0.1744397133588791,0.40043237805366516,0.31922006607055664
1789224576929039000,10.8680390625,0.21020516753196716,0.3211303651332855,0.2576594948768616
1789224576939076900,10.878076904296876,0.202540323138237,0.34560427069664,0.20818781852722168
1789224576949115100,10.888115234375,0.05795251578092575,0.025256088003516197,0.7202476263046265
1789224576959153000,10.89815283203125,0.05323579162359238,-0.006983607076108456,0.6746194362640381
1789224576969191000,10.90819091796875,-0.00806218758225441,-0.10905351489782333,0.2799869179725647
1789224576979229000,10.91822900390625,-0.12661466002464294,-0.16102084517478943,-0.2638271152973175
1789224576989267000,10.928266845703124,-0.1800834834575653,-0.03291933238506317,-0.5596126914024353
1789224576999304000,10.938303955078124,-0.19168181717395782,-0.16528217494487762,-0.30173933506011963
1789224577009342000,10.948342041015625,-0.23244708776474,-0.05868621543049812,-0.37598535418510437
1789224577019380000,10.9583798828125,-0.19949153065681458,0.050700992345809937,-0.5086858868598938
1789224577029418000,10.96841796875,-0.11947739869356155,0.19813145697116852,-0.47292494773864746
1789224577039456000,10.9784560546875,-0.06377498805522919,0.19655832648277283,-0.27380624413490295
1789224577049494000,10.988493896484375,-0.045341648161411285,-0.037346839904785156,-0.028195152059197426
1789224577059532000,10.998531982421875,0.03516464680433273,-0.30909737944602966,-0.08719801902770996
1789224577069569800,11.00856982421875,0.02298041619360447,-0.28034138679504395,-0.2892951965332031
1789224577079608000,11.018608154296874,-0.18019826710224152,-0.3118439018726349,-0.09289558231830597
1789224577089645800,11.028645751953125,-0.2301916629076004,-0.29443615674972534,0.11311963200569153
1789224577099684000,11.03868408203125,-0.2999022901058197,-0.08391886949539185,0.1804206371307373
1789224577109721900,11.048721923828126,-0.38553330302238464,0.257626473903656,0.2120150476694107
1789224577119760100,11.058760009765624,-0.22220882773399353,0.3387969732284546,0.2748374342918396
1789224577129798000,11.0687978515625,0.09548604488372803,0.22549358010292053,0.30354389548301697
1789224577139835000,11.0788349609375,0.3484346866607666,0.05097956210374832,0.14225594699382782
1789224577149873000,11.088872802734375,0.3324376046657562,0.03754125162959099,-0.007210508454591036
1789224577159911000,11.098910888671876,0.009840913116931915,-0.14105458557605743,0.2577284872531891
1789224577169949000,11.108948974609374,-0.12977690994739532,-0.12770310044288635,0.1763601154088974
1789224577179987000,11.118987060546875,-0.32133302092552185,0.05506644770503044,0.03892023488879204
1789224577190025000,11.12902490234375,-0.3773462176322937,0.15066353976726532,0.014594122767448425
1789224577200063000,11.13906298828125,-0.10943993926048279,0.014274809509515762,-0.22486481070518494
1789224577210101000,11.14910107421875,0.1934320479631424,-0.07400525361299515,-0.5924150943756104
1789224577220139000,11.159138916015625,0.3772977590560913,-0.004059989005327225,-0.9907422661781311
1789224577230177000,11.169177001953125,0.22109642624855042,0.38147038221359253,-0.4233219623565674
1789224577240214800,11.17921484375,0.13493065536022186,-0.05491624400019646,0.2540575861930847
1789224577250253000,11.189253173828124,0.04922587051987648,0.245728000998497,0.3089328110218048
1789224577260290800,11.199290771484375,0.010994860902428627,0.2818026542663574,0.500389575958252
1789224577270327800,11.209327880859375,0.10602390766143799,0.2063893973827362,0.5439226627349854
1789224577280365800,11.21936572265625,0.2445969581604004,0.02046506106853485,0.23864293098449707
1789224577290403800,11.22940380859375,0.40110135078430176,-0.21361587941646576,-0.2788681089878082
1789224577300441900,11.23944189453125,0.3623283803462982,0.16174788773059845,-0.7926023006439209
1789224577310480000,11.24947998046875,-0.03032701276242733,0.22544564306735992,0.21437780559062958
1789224577320518100,11.25951806640625,-0.09283699840307236,-0.08059843629598618,0.6484778523445129
1789224577330556000,11.269555908203126,-0.15457306802272797,0.42933937907218933,0.47463762760162354
1789224577340594000,11.279593994140624,-0.0659894049167633,0.5115687251091003,0.35423770546913147
1789224577350632000,11.2896318359375,0.33549758791923523,0.28998416662216187,-0.04086008295416832
1789224577360670000,11.299669921875,0.4921353757381439,0.19680200517177582,-0.33560943603515625
1789224577370708000,11.3097080078125,0.36629730463027954,0.27977973222732544,-0.5759472250938416
1789224577380746000,11.31974609375,0.17337843775749207,0.38593944907188416,-0.020792629569768906
1789224577390784000,11.329783935546875,0.13862338662147522,0.10216657817363739,0.10683830082416534
1789224577400822000,11.339822021484375,0.10867428034543991,0.23446816205978394,-0.30175507068634033
1789224577410859800,11.34985986328125,0.1315939724445343,0.5863854289054871,-0.22617694735527039
1789224577420898000,11.35989794921875,0.2628185749053955,0.2719758450984955,0.2111615091562271
1789224577430934800,11.369934814453124,0.3230334520339966,0.3646900951862335,0.22508718073368073
1789224577440972800,11.379972900390625,0.35212182998657227,0.3786008358001709,0.038778290152549744
1789224577451010800,11.3900107421875,0.27577751874923706,0.23794785141944885,0.010431335307657719
1789224577461048800,11.400048828125,0.2285732626914978,0.17582376301288605,-0.11867312341928482
1789224577471087000,11.410087158203124,0.15873372554779053,0.12774677574634552,-0.15196342766284943
1789224577481124900,11.420124755859375,0.05812322348356247,0.21955792605876923,-0.17426474392414093
1789224577491163100,11.4301630859375,-0.029294505715370178,0.2054000198841095,-0.08694661408662796
1789224577501201000,11.440200927734375,-0.05433141440153122,0.20117785036563873,-0.016156066209077835
1789224577511239000,11.450239013671874,-0.014879346825182438,0.14429539442062378,0.04601889103651047
1789224577521277000,11.46027685546875,0.05327653884887695,0.07823355495929718,0.09868662804365158
1789224577531315000,11.47031494140625,0.14880625903606415,-0.04742850363254547,-0.019526030868291855
1789224577541353000,11.48035302734375,0.17808984220027924,-0.11399181932210922,-0.11111640185117722
1789224577551391000,11.490390869140626,-0.02949104644358158,-0.37057673931121826,0.0358208492398262
1789224577561429000,11.500428955078124,-0.1839514523744583,-0.47158244252204895,0.14509408175945282
1789224577571467000,11.510467041015625,-0.23627804219722748,-0.4140040874481201,-0.000788561999797821
1789224577581503700,11.520503662109375,-0.34733134508132935,-0.1151348426938057,0.005869873333722353
1789224577591542000,11.5305419921875,-0.40162065625190735,0.15074370801448822,0.11944890022277832
1789224577601580000,11.540580078125,-0.4037317633628845,0.13838690519332886,0.5093034505844116
1789224577611618000,11.5506181640625,-0.2591356933116913,0.01678723655641079,0.5786566734313965
1789224577621656000,11.560656005859375,0.15329447388648987,-0.7451822757720947,-0.1150115430355072
1789224577631693800,11.57069384765625,0.4377206265926361,-0.8821414709091187,-0.8043531775474548
1789224577641732000,11.580732177734374,-0.01287558488547802,-0.09936840087175369,-0.41976478695869446
1789224577651769900,11.590769775390624,-0.35527554154396057,-0.5945115685462952,0.3065634071826935
1789224577661808000,11.60080810546875,-0.3932857811450958,-0.3954799473285675,0.3235138952732086
1789224577671846000,11.610845947265625,-0.4339727461338043,-0.15608946979045868,0.15856780111789703
1789224577681884000,11.6208837890625,-0.45172885060310364,-0.07953210920095444,0.04643834009766579
1789224577691922000,11.630921875,-0.2773178815841675,-0.11045167595148087,-0.03351055458188057
1789224577701960000,11.6409599609375,-0.14834898710250854,-0.17221996188163757,-0.01967223733663559
1789224577711998000,11.650998046875,-0.10811182111501694,-0.3783683478832245,-0.07687321305274963
1789224577722036000,11.661035888671876,-0.14471536874771118,-0.4834713339805603,-0.3840949237346649
1789224577732074000,11.671073974609374,-0.25531166791915894,-0.49193617701530457,-0.2418845295906067
1789224577742112000,11.681112060546875,-0.3111192584037781,-0.6200941801071167,-0.00947978813201189
1789224577752149000,11.69114892578125,-0.319119930267334,-0.505468487739563,0.047501739114522934
1789224577762187500,11.7011875,-0.36130040884017944,-0.33425602316856384,0.03602271527051926
1789224577772225500,11.7112255859375,-0.3110042214393616,-0.13311490416526794,-0.0572824627161026
1789224577782263600,11.721263671875,-0.08351247012615204,-0.16657353937625885,-0.23307959735393524
1789224577792301600,11.731301513671875,0.0513894222676754,-0.090567447245121,-0.20797184109687805
1789224577802339600,11.741339599609375,0.01284655649214983,-0.21508008241653442,0.26395389437675476
1789224577812377600,11.751377685546874,-0.034559573978185654,-0.28288790583610535,0.5159081220626831
1789224577822415600,11.76141552734375,0.00421205535531044,-0.2064884603023529,0.4545864164829254
1789224577832453400,11.771453369140625,-0.03328738361597061,-0.20147639513015747,0.24405740201473236
1789224577842491600,11.78149169921875,-0.06387325376272202,-0.21766601502895355,-0.1532265692949295
1789224577852529400,11.791529296875,-0.04433390870690346,-0.2099582850933075,-0.535944938659668
1789224577862567700,11.801567626953124,-0.031493477523326874,0.06207748502492905,-0.2825315594673157
1789224577872605400,11.81160546875,-0.021996645256876945,-0.352444589138031,0.19063839316368103
1789224577882643700,11.821643798828125,0.0034469293896108866,-0.2975294291973114,0.06240478903055191
1789224577892681500,11.831681396484376,0.01902375929057598,-0.12894307076931,-0.163910374045372
1789224577902719500,11.841719482421874,0.012745622545480728,-0.05684890225529671,-0.2135849893093109
1789224577912757800,11.8517578125,-0.008285094052553177,0.047393083572387695,-0.23860831558704376
1789224577922795500,11.86179541015625,-0.0005342300864867866,0.07875553518533707,-0.10334663093090057
1789224577932833800,11.871833740234376,0.10358764231204987,-0.15136875212192535,-0.08849337697029114
1789224577942870500,11.88187060546875,0.19749602675437927,-0.11090388149023056,-0.17410574853420258
1789224577952908500,11.891908447265624,0.14531591534614563,-0.09938011318445206,-0.0472564622759819
1789224577962946600,11.901946533203125,0.05922896787524223,-0.12243883311748505,0.1914232224225998
1789224577972984600,11.911984619140625,0.015665778890252113,-0.17091955244541168,0.28666266798973083
1789224577983022600,11.922022705078126,0.02335112914443016,-0.04579012468457222,0.056584715843200684
1789224577993060600,11.932060546875,0.028326712548732758,0.18437756597995758,-0.046788278967142105
1789224578003098400,11.942098388671875,0.07159056514501572,0.06294221431016922,0.24672402441501617
1789224578013136600,11.95213671875,0.10098493844270706,0.16493329405784607,0.35007891058921814
1789224578023174400,11.96217431640625,0.12671853601932526,0.1096428707242012,0.3785209357738495
1789224578033212700,11.972212646484374,0.16362833976745605,0.012582637369632721,0.16596074402332306
1789224578043250700,11.982250732421875,0.2341001182794571,-0.0688195452094078,-0.21574240922927856
1789224578053288700,11.992288818359375,0.18465933203697205,0.17429190874099731,-0.12720535695552826
1789224578063326700,12.00232666015625,0.137965589761734,0.09736862778663635,0.14754338562488556
1789224578073364500,12.012364501953124,0.10276313126087189,-0.04566282778978348,0.12058686465024948
1789224578083402800,12.02240283203125,0.06749995052814484,0.034034132957458496,0.07323826104402542
1789224578093440500,12.0324404296875,0.03163249418139458,0.28124499320983887,0.08839511126279831
1789224578103478800,12.042478759765626,0.09302181750535965,0.26772892475128174,0.1629606932401657
1789224578113516500,12.0525166015625,0.2018391191959381,0.15778110921382904,-0.017965950071811676
1789224578123554800,12.062554931640625,0.28803178668022156,0.02731497772037983,-0.33507680892944336
1789224578133592600,12.072592529296875,0.3194613456726074,0.0005081311101093888,-0.7307905554771423
1789224578143630600,12.082630615234375,0.1595185548067093,0.6062057614326477,-0.6424055695533752
1789224578153668600,12.092668701171876,0.03714204207062721,-0.00039068571641109884,0.32638370990753174
1789224578163705600,12.10270556640625,0.04918086156249046,-0.23075412213802338,0.5665225386619568
1789224578173743400,12.112743408203125,0.08741826564073563,-0.015295333229005337,0.26093971729278564
1789224578183781600,12.12278173828125,0.12298158556222916,0.10099958628416061,-0.0051276502199471
1789224578193819600,12.132819580078126,0.1434900462627411,0.1388193964958191,-0.2866394817829132
1789224578203857700,12.142857666015624,0.08804783225059509,0.2749823033809662,-0.12247664481401443
1789224578213895700,12.152895751953125,0.058764513581991196,0.019602729007601738,0.19634288549423218
1789224578223933700,12.16293359375,0.07666867971420288,-0.060500096529722214,0.06872553378343582
1789224578233971700,12.1729716796875,0.05723505839705467,0.09792949259281158,-0.11335425823926926
1789224578244009500,12.183009521484376,0.06697504222393036,0.11197846382856369,-0.10229680687189102
1789224578254047700,12.1930478515625,0.06873539090156555,0.057734668254852295,0.0021877868566662073
1789224578264085500,12.20308544921875,0.09659232199192047,-0.02364141307771206,0.192137211561203
1789224578274123800,12.213123779296875,0.1332150399684906,0.06461308151483536,0.16399532556533813
1789224578284161500,12.22316162109375,0.12044332176446915,0.20832684636116028,0.22377556562423706
1789224578294199800,12.23319970703125,0.15321458876132965,0.30302751064300537,0.17836999893188477
1789224578304237600,12.243237548828125,0.3186544179916382,0.2048753798007965,-0.24496474862098694
1789224578314275600,12.253275634765625,0.24589179456233978,0.4318459630012512,-0.3993351459503174
1789224578324313600,12.263313720703126,0.19240619242191315,0.23866796493530273,0.013404488563537598
1789224578334351600,12.2733515625,0.1673772782087326,0.21474133431911469,0.22456839680671692
1789224578344389600,12.2833896484375,0.1850268393754959,0.4827592074871063,0.1229056790471077
1789224578354427600,12.293427734375,0.2856146991252899,0.44245705008506775,0.09868290275335312
1789224578364465400,12.30346533203125,0.4287923574447632,0.39721766114234924,-0.1386745274066925
1789224578374503700,12.313503662109374,0.4822537302970886,0.495413213968277,-0.42311370372772217
1789224578384541400,12.32354150390625,0.35265472531318665,0.5595879554748535,-0.1809796392917633
1789224578394579700,12.333579833984375,0.20862431824207306,0.3269227147102356,0.1641218215227127
1789224578404617500,12.343617431640626,0.15335200726985931,0.18139588832855225,0.1771622598171234
1789224578414655700,12.35365576171875,0.12109766155481339,0.3497449457645416,-0.06962008774280548
1789224578424692700,12.363692626953124,0.15177194774150848,0.48966771364212036,-0.3011840879917145
1789224578434730500,12.37373046875,0.24435967206954956,0.3924117088317871,-0.07451258599758148
