time,seconds_elapsed,z,y,x
1790763741834114000,0.057114013671875,7.909394821929931,5.396979454803467,0.5038298118591308
1790763741844152000,0.067152099609375,8.264933768463134,6.552630668640137,0.8574234695434569
1790763741854191000,0.077191162109375,8.246378705596923,6.625354544067382,1.0161889671325683
1790763741864228900,0.087228759765625,6.877793181610107,6.134992116546631,0.9687538467407226
1790763741874268200,0.09726806640625,6.772448308563232,5.519233377075195,0.471807364654541
1790763741884307200,0.10730712890625,7.476343596649169,4.61602080078125,0.057610477447509766
1790763741894345000,0.117344970703125,7.536198638153076,5.03725065536499,-0.06209960556030273
1790763741904384300,0.12738427734375,7.589469625091552,5.998821897125244,-0.6883329772949218
1790763741914422000,0.137422119140625,8.614786486053466,6.387580391693115,-1.9837457130432128
1790763741924461000,0.1474609375,8.456769176483153,6.925976490020751,-4.211849633026123
1790763741934499000,0.1574990234375,8.505251760101318,6.769006643676757,-5.157260013580322
1790763741944538000,0.1675380859375,9.108740216064453,5.941211419677734,-4.031237045288086
1790763741954577000,0.177576904296875,9.987561862945556,5.757755717468261,-3.6445734771728513
1790763741964615200,0.187615234375,11.83094750366211,5.617096369934082,-2.851194902038574
1790763741974654000,0.197654052734375,12.369493239593504,6.1447185607910155,-2.494309217071533
1790763741984692200,0.207692138671875,12.582277912139892,6.380846699523925,-1.966986301422119
1790763741994731000,0.21773095703125,8.894459167480468,6.815992851257324,-1.7503110511779785
1790763742004769000,0.22776904296875,7.734019550323486,6.56924044265747,-1.5945383056640625
1790763742014808000,0.23780810546875,7.7799582946777335,6.306327172851562,-1.6165350334167479
1790763742024847000,0.24784716796875,7.689726819610596,6.048651219177246,-1.877652651977539
1790763742034884900,0.257884765625,7.603086647033691,6.200234111785888,-2.053177561187744
1790763742044924000,0.267923828125,7.029824987030029,6.70989979019165,-2.060659441375732
1790763742054962200,0.277962158203125,7.068431488800049,6.816741039276122,-1.5108908851623535
1790763742065001000,0.2880009765625,7.738807953643798,6.784419316864013,-0.9298480697631836
1790763742075039200,0.298039306640625,7.260416534423828,6.420051751708984,-0.16295535049438475
1790763742085078000,0.308078125,6.388777492523193,6.318747093963623,0.10265139617919922
1790763742095116000,0.318115966796875,6.31395869064331,6.937947498321533,-0.4750993919372558
1790763742105155000,0.328155029296875,6.1267620483398435,7.349151633453369,-1.0149918663024902
1790763742115194000,0.338194091796875,6.4381579017639154,7.544727981567382,-1.7268179473876952
1790763742125231900,0.34823193359375,6.960243501281738,7.235277416992187,-1.9197008186340332
1790763742135271200,0.358271240234375,7.394192552185058,7.3837179199218745,-2.034472860717773
1790763742145309000,0.368308837890625,7.973439716339111,7.269394790649414,-1.5988777961730956
1790763742155348000,0.378347900390625,8.291718899536132,7.3849150207519525,-1.209820026397705
1790763742165386000,0.388385986328125,8.65683465270996,7.679102549743652,-1.1522095489501953
1790763742175425000,0.398425048828125,8.481609018707275,8.148515712738037,-1.8617910659790038
1790763742185464000,0.408464111328125,7.766640547943115,7.463624400329589,-1.8990508293151855
1790763742195502000,0.418502197265625,6.936301484680175,6.468384697723388,-2.0892402236938477
1790763742205540400,0.428540283203125,6.508337937927246,6.634482437896728,-1.5951368560791015
1790763742215578600,0.43857861328125,6.430975296783447,6.86986238861084,-1.1424831047058104
1790763742225617400,0.448617431640625,6.961141326904296,7.383568282318115,-1.0570400329589844
1790763742235655400,0.458655517578125,7.220912207031249,7.347355982208252,-1.086518640899658
1790763742245694500,0.468694580078125,7.180360416412353,7.371746911621093,-1.3386580032348632
1790763742255733500,0.4787333984375,6.782324390411376,7.26505530014038,-1.507449220275879
1790763742265771300,0.488771240234375,5.894374849700927,6.723965724945068,-1.7353472908020018
1790763742275810600,0.498810546875,5.478531948852539,6.649595835876465,-1.7941548690795897
1790763742285848600,0.5088486328125,5.235520480346679,6.535272706604004,-1.6329951698303222
1790763742295887400,0.518887451171875,4.920832599639892,6.370521704864502,-1.458068811035156
1790763742305925600,0.528925537109375,4.630386010742187,6.695534580230713,-0.712424631500244
1790763742315964400,0.53896435546875,4.01597400970459,6.912808380889892,-0.1452981132507324
1790763742326002700,0.549002685546875,4.003554088592529,6.592733546447754,-0.20994155807495116
1790763742336041500,0.55904150390625,4.150797490692138,6.3229369468688965,-0.3711012573242187
1790763742346080500,0.56908056640625,4.3926118583679195,5.691017346191406,-0.8424597091674804
1790763742356118500,0.579118408203125,4.585794004821777,5.543025756072998,-0.8194155181884765
1790763742366157600,0.589157470703125,4.696226556396484,5.7207952293396,-0.7100304298400878
1790763742376195300,0.5991953125,4.843170683288574,5.707178207397461,-1.0244190353393554
1790763742386234600,0.609234619140625,4.631134198760986,5.497535924530029,-1.2460323265075683
1790763742396272400,0.6192724609375,4.230703971099853,5.502623603057861,-1.0934019706726072
1790763742406311400,0.6293115234375,4.040364939117431,5.361814617919921,-0.7582137382507323
1790763742416350700,0.639350830078125,4.069843547058105,5.29253240737915,-0.6624456718444823
1790763742426388500,0.649388427734375,4.0435073287963865,5.121496626281738,-0.6034884559631347
1790763742436427500,0.659427490234375,3.754108203125,5.179256741333008,-0.44906244888305663
1790763742446465500,0.669465576171875,3.674052085113525,5.632209767913818,-0.20141221466064452
1790763742456504600,0.679504638671875,3.6736031723022458,5.775712229919433,-0.0900818374633789
1790763742466542600,0.68954248046875,3.69649772567749,5.65031591796875,-0.29074586410522457
1790763742476581600,0.69958154296875,3.7268741592407224,5.565621034240722,-0.4538508522033691
1790763742486619400,0.709619384765625,3.9701849029541014,5.783343747711181,-0.08529343414306641
1790763742496658700,0.71965869140625,4.037521824645996,6.003161387634277,0.2319382858276367
1790763742506697500,0.729697509765625,4.3637318008422845,6.2310594581604,0.5066729263305664
1790763742516735500,0.739735595703125,5.133467634582519,6.620865415954589,0.6066308456420898
1790763742526774500,0.7497744140625,5.275772995758056,6.49965895690918,0.7900865478515624
1790763742536812500,0.7598125,5.13945313873291,6.260089153289795,0.9044096771240234
1790763742546851300,0.769851318359375,5.032162976837158,6.233453659820556,1.0127473022460938
1790763742556889600,0.7798896484375,5.032312614440918,6.297797829437256,1.2020388710021972
1790763742566928400,0.789928466796875,5.816413658142089,6.761674401092529,1.1059715293884276
1790763742576967400,0.799967529296875,6.706458125305176,7.221211482238769,0.9644143562316894
1790763742587005700,0.810005615234375,7.001543479919433,7.0935706062316894,1.0748469078063965
1790763742597044500,0.82004443359375,7.393594001770019,6.987477545166016,0.9952397026062011
1790763742607082500,0.83008251953125,7.6659344406127925,7.439532746124267,1.4754267730712889
1790763742617121500,0.84012158203125,7.326257080078125,7.464821501159667,1.913416039276123
1790763742627159600,0.85015966796875,7.134571309661865,7.623886273956298,2.2679075225830077
1790763742637198300,0.8601982421875,7.032219188690185,8.185476200866699,2.408117957305908
1790763742647236600,0.870236572265625,6.827066033935546,8.702324484252928,2.3879168807983397
1790763742657275400,0.880275390625,6.453121662139893,9.019855479431152,2.8986300224304196
1790763742667314400,0.890314453125,6.133795015716553,9.183110105133055,3.296366773223877
1790763742677352400,0.9003525390625,6.066009181213379,9.097367758178711,3.376572528839111
1790763742687391500,0.9103916015625,5.882403841400146,9.176376412963867,3.7392940803527828
1790763742697429500,0.920429443359375,5.942707795715331,9.234585440826416,3.7823897102355954
1790763742707468500,0.930468505859375,5.875670149230957,8.799439289093018,3.2890345306396482
1790763742717506300,0.94050634765625,5.3381718765258785,8.385840952301026,2.814084776306152
1790763742727545600,0.950545654296875,5.200056368255615,8.517372406005858,2.771587696838379
1790763742737584600,0.960584716796875,5.658246710968017,8.98229644088745,2.9789854156494138
1790763742747622400,0.970622314453125,5.807585039520263,9.178620977020262,3.643675651550293
1790763742757661700,0.98066162109375,5.645527514648437,9.16784706954956,4.533869756317139
1790763742767699500,0.990699462890625,5.3384711517333985,8.904335249328613,5.230732077026367
1790763742777738500,1.000738525390625,4.8600797325134275,8.559869485473632,5.186588983917236
1790763742787776500,1.010776611328125,4.358494484710693,8.205078726959227,4.880729721832275
1790763742797815600,1.020815673828125,4.25225178604126,7.537844651794433,4.5869911056518555
1790763742807853600,1.030853515625,4.121468520355224,7.099556110382079,4.211101445007324
1790763742817892600,1.040892578125,3.910329861450195,6.846518922424316,4.303427846527099
1790763742827931400,1.050931396484375,3.684377079772949,6.5628060256958,4.755632685089111
1790763742837969700,1.0609697265625,4.932055419921875,8.01234549331665,9.6787098487854
1790763742848008400,1.071008544921875,10.165331336212157,12.778153535461424,13.371316996765136
1790763742858046500,1.08104638671875,3.8850411064147945,8.626907131958008,0.12479776153564452
1790763742868085500,1.09108544921875,3.835511059570312,8.524405373382567,2.3035212722778318
1790763742878123500,1.10112353515625,4.288164810943603,9.538798689270019,4.497208543395995
1790763742888162600,1.11116259765625,3.5131916610717773,10.025120901489258,4.8032174430847165
1790763742898200600,1.12120068359375,3.1694740852355956,9.379883554077148,5.64373186340332
1790763742908239600,1.131239501953125,3.914818989562988,8.819041815185546,6.579415799713134
1790763742918278400,1.1412783203125,6.12212328262329,10.61648871154785,4.773589197540283
1790763742928316700,1.151316650390625,5.863848778533935,9.658508772277832,3.4350808319091795
1790763742938355500,1.16135546875,4.373757520294189,8.911068941497803,3.7042788810729976
1790763742948393500,1.1713935546875,3.510198908996582,9.053523940277099,4.60315196685791
1790763742958432500,1.1814326171875,2.984821282196045,9.271994841766357,5.2810103118896485
1790763742968470500,1.191470458984375,2.5809493896484375,9.413552014923095,5.813570543670654
1790763742978509300,1.20150927734375,2.348861466217041,9.485078789520264,5.8265890151977535
1790763742988547600,1.211547607421875,2.3645734146118165,9.43524946746826,5.7517702133178705
1790763742998586400,1.22158642578125,2.5178023208618163,9.196278214263916,5.662436563873291
1790763743008625400,1.23162548828125,2.4601918434143064,8.967781593322753,5.5090580200195305
1790763743018663400,1.241663330078125,2.485929511260986,8.81096138458252,5.26739328994751
1790763743028702500,1.251702392578125,2.840271356964111,9.028684098052977,4.848557637023926
1790763743038740500,1.261740478515625,2.6669910118103024,8.52305863494873,4.55212554397583
1790763743048779500,1.271779541015625,2.50253928527832,8.04361975250244,4.231302521514892
1790763743058817300,1.2818173828125,3.030460751342773,8.305485559082031,3.9393595565795896
1790763743068856600,1.291856689453125,2.752882996368408,8.065915755462646,4.030189582061768
1790763743078894600,1.30189453125,2.6223990058898923,8.041375188446045,4.508581001281738
1790763743088933400,1.311933349609375,2.934243772125244,8.721328459930419,5.258863946533203
1790763743098972700,1.32197265625,1.829020430755615,7.326257080078125,5.368249034881591
1790763743109010400,1.332010498046875,2.195482922363281,7.443124048614502,5.20948353729248
1790763743119049500,1.342049560546875,2.2662615089416502,7.284807463836669,4.97365467376709
1790763743129087500,1.35208740234375,1.9678841270446776,6.587945143127441,4.600159214782715
1790763743139126500,1.36212646484375,2.3335984306335447,6.725462100982666,4.002057712554931
1790763743149164500,1.37216455078125,3.0259716232299803,6.975805812072753,3.7351042274475095
1790763743159203600,1.38220361328125,3.5079543449401855,7.42516753616333,3.586663724517822
1790763743169241300,1.392241455078125,3.2701801925659177,8.157793244171142,3.4172739570617674
1790763743179280600,1.40228076171875,1.421108322906494,9.137320998382569,4.849305825042724
1790763743189319700,1.412319580078125,6.057180562591553,9.027935910034179,5.268141477966308
1790763743199357400,1.422357421875,5.558737704467773,9.718363813781737,2.4480711975097655
1790763743209397000,1.43239697265625,4.145859449768066,9.294590119934082,2.7813141410827633
1790763743219435000,1.44243505859375,3.1950621154785153,9.240570944976806,3.006518734741211
1790763743229474000,1.45247412109375,4.090493536376953,9.654019644165038,4.815487726593017
1790763743239512000,1.462511962890625,4.951209033203125,9.784503634643555,3.7802947837829586
1790763743249551000,1.472551025390625,4.414309310913086,9.228599936676025,2.667290287017822
1790763743259588900,1.4825888671875,3.3023522773742675,9.182361917114257,2.9481600692749024
1790763743269628200,1.492628173828125,3.1664813331604003,9.237278917694091,3.69634808807373
1790763743279666000,1.502666015625,3.5468601219177245,9.401132093811034,3.8512230079650878
1790763743289705000,1.512705078125,3.1630396682739255,9.511714282989502,3.398569256591797
1790763743299744000,1.522743896484375,3.057545157623291,8.974066372680664,3.365798621368408
1790763743309782000,1.532781982421875,3.097199122619629,8.645611832427978,2.6659435485839844
1790763743319821000,1.542821044921875,2.937984712219238,8.283937744140625,2.6415526191711423
1790763743329859000,1.552859130859375,2.9147908836364746,7.924358582305908,2.7492916938781735
1790763743339898000,1.562898193359375,3.5996821960449217,8.5800705619812,2.2958897544860837
1790763743349936000,1.57293603515625,3.9041947196960445,9.234585440826416,2.082656169128418
1790763743359975200,1.58297509765625,4.069693909454346,9.174880036926268,2.43879366607666
1790763743370013000,1.593012939453125,4.867860887908935,10.108319409179687,2.821117743682861
1790763743380052000,1.603052001953125,4.337096307373047,11.099668534088135,3.0910639808654783
1790763743390091000,1.613091064453125,4.160374297332764,11.037419290924072,3.7749078300476073
1790763743400129000,1.62312890625,3.840299462890625,9.100959060668945,3.9133226135253905
1790763743410167800,1.633167724609375,3.003974895477295,8.731503816986084,3.7312136497497557
1790763743420206000,1.6432060546875,2.136675344085693,8.452130410766602,4.0906431739807125
1790763743430244900,1.653244873046875,1.587804613494873,8.075043649291992,4.646546871948242
1790763743440283100,1.663283203125,2.3056161987304686,8.072350172424317,4.277839816284179
1790763743450322000,1.673322021484375,3.1865327720642087,8.109759573364258,3.09645093460083
1790763743460360000,1.68335986328125,4.103661645507812,8.058433875274657,2.365321602630615
1790763743470399000,1.69339892578125,4.682609534454345,8.18412946243286,1.74926358795166
1790763743480438000,1.70343798828125,4.480149856567382,8.641421979522704,1.5319897872924804
1790763743490475800,1.713475830078125,3.5863644493103024,9.202114080810546,1.9283797996520995
1790763743500515000,1.72351513671875,4.180575373840332,8.974066372680664,2.9788357780456542
1790763743510553000,1.733552978515625,4.484638984680175,9.198073865509032,2.2698528114318846
1790763743520592000,1.743591796875,3.690811496734619,9.03422068939209,1.852064621734619
1790763743530630100,1.753630126953125,3.7388451675415038,8.70112738342285,2.366668341064453
1790763743540669000,1.7636689453125,4.139125757598877,8.494777127838134,1.2892775939941405
1790763743550707200,1.773707275390625,3.2746693206787105,8.599224175262451,1.0513538040161132
1790763743560746000,1.78374609375,2.927809355163574,8.061875540161132,2.2297499336242677
1790763743570785000,1.793784912109375,3.1784523414611816,7.7599068557739255,2.222866603851318
1790763743580823000,1.803822998046875,3.672256433868408,7.486668591308593,2.1095909378051756
1790763743590862000,1.813862060546875,4.029441394042968,7.426963187408447,1.5346832641601562
1790763743600899800,1.82389990234375,4.34128616027832,7.739855416870117,0.9277531433105468
1790763743610939100,1.833939208984375,5.17102667312622,7.7976155319213865,0.939125601196289
1790763743620977000,1.843976806640625,7.103446688079834,8.825027319335938,0.8753799819946289
1790763743631016000,1.854015869140625,4.519654183959961,8.2743609375,0.34446576385498046
1790763743641054000,1.864053955078125,5.022286894989014,7.306504916381836,1.638232485961914
1790763743651093000,1.874093017578125,4.450970523834228,6.943184814453125,0.7595604766845703
1790763743661132000,1.884132080078125,4.3430818115234375,7.7233952804565424,1.0491092399597168
1790763743671170000,1.894170166015625,4.330961165618897,7.483675839233398,1.638980673980713
1790763743681209000,1.904208984375,4.0158243721008295,7.6737155960083,1.9879355659484863
1790763743691247000,1.9142470703125,4.909909054565429,8.441206865692138,1.9454384864807128
1790763743701286100,1.9242861328125,3.9009026924133297,10.078691163635254,1.11075993270874
1790763743711324000,1.934323974609375,4.442441180419921,9.79333225326538,1.5505448501586914
1790763743721363000,1.944363037109375,5.140350964355468,8.034641496276855,1.5343839889526367
1790763743731401000,1.95440087890625,3.620332185363769,7.896825263214111,0.9732429748535155
1790763743741440000,1.96443994140625,3.188178785705566,7.608922513580322,1.6041151123046875
1790763743751478800,1.974478759765625,3.5664626480102535,7.547122183227539,2.3719056571960446
1790763743761517000,1.98451708984375,4.661061719512939,8.81096138458252,1.59603468170166
1790763743771555800,1.994555908203125,2.5112182662963867,8.51632494277954,1.1767501159667968
1790763743781594000,2.004593994140625,2.4916157402038572,8.340800033569336,2.353200956726074
1790763743791633000,2.0146328125,3.2631472251892086,8.392275369262695,2.4090157829284666
1790763743801671000,2.0246708984375,3.832518307495117,8.431630059051512,2.7820623291015623
1790763743811710200,2.034710205078125,3.847781343078613,8.65069951095581,3.1485248207092282
1790763743821748000,2.044748046875,2.436848377227783,8.520814070892333,2.2694038986206055
1790763743831787000,2.054787109375,2.5170541328430174,8.479514092254638,2.5668834548950192
1790763743841825000,2.064824951171875,2.0190601875305174,8.119336380004881,3.1956606658935547
1790763743851864000,2.074864013671875,1.5230115310668944,21.06134309158325,9.43644656829834
1790763743861902800,2.08490283203125,-2.2629694816589354,17.76063682785034,7.317877374267578
1790763743871941000,2.094941162109375,0.15233108062744138,2.4009353523254395,0.3462614151000976
1790763743881980000,2.10497998046875,2.069787335205078,15.414169563293456,4.7664065925598145
1790763743892018200,2.11501806640625,2.677166368865967,10.443058728790282,-0.07751227874755859
1790763743902057000,2.125056884765625,3.2631472251892086,10.600926400756835,-1.0031704956054688
1790763743912095000,2.135094970703125,3.030011838531494,10.546757588195801,-1.1777975791931152
1790763743922134000,2.145134033203125,5.374982727050781,9.567379471588135,-0.737414111328125
1790763743932172000,2.155172119140625,5.787084687805176,8.744821563720702,-0.637156916809082
1790763743942210800,2.1652109375,5.742043769073486,9.057863430786131,-0.21443068618774414
1790763743952250000,2.17525,5.446060588836669,8.725219037628174,0.4563946914672851
1790763743962287900,2.185287841796875,4.133589166259766,8.908525102233886,1.5595231063842772
1790763743972327000,2.195326904296875,3.802441149139404,8.745420114135742,1.3394061912536621
1790763743982365000,2.205364990234375,5.24823967666626,9.3331966217041,0.32082302246093747
1790763743992404000,2.215404052734375,4.304475309753418,9.470115029144287,0.601992079925537
1790763744002442200,2.225442138671875,4.251653235626221,9.098564859008789,1.3385083656311034
1790763744012481000,2.23548095703125,4.081066367340088,9.309553880310059,1.815702684020996
1790763744022519000,2.24551904296875,2.4405893173217774,8.992621435546875,2.1863550285339355
1790763744032558000,2.25555810546875,0.41524435043334956,7.931690824890136,3.7401919059753417
1790763744042596000,2.26559619140625,-2.415300562286377,8.13355195236206,2.8302456375122067
1790763744052635000,2.275634765625,-1.0040683212280272,9.398887529754639,1.0944494338989257
1790763744062674000,2.285673828125,-0.2102408332824707,10.570998880004883,0.3817255271911621
1790763744072712000,2.2957119140625,-0.22864625854492185,10.053701683807372,-0.5563526107788086
1790763744082751000,2.3057509765625,-0.9947907897949219,9.286509689331055,-0.589272883605957
1790763744092789000,2.3157890625,-0.521636686706543,8.544007899475098,-0.29448680419921874
1790763744102828000,2.325828125,-0.14484920043945312,9.479392560577391,0.6558616172790527
1790763744112866000,2.335865966796875,-1.0769418342590331,8.249371457672119,0.6943184814453125
1790763744122905000,2.345905029296875,20.20556563568115,8.95102218170166,-0.6869862388610839
1790763744132942800,2.35594287109375,26.371383098602294,8.630947347259522,-2.1148282539367673
1790763744142982000,2.36598193359375,0.4192845657348633,8.532785079193115,2.353051319122314
1790763744153021200,2.376021240234375,0.1632546257019043,8.638578865051269,0.6651391487121582
1790763744163059000,2.386058837890625,1.264737026977539,9.17383257369995,0.34835634155273437
1790763744173098000,2.396097900390625,0.13991115951538086,9.305812940216065,-0.011522095489501952
1790763744183136000,2.406135986328125,0.8339303657531738,9.037363079071044,0.4487631736755371
1790763744193175000,2.416175048828125,7.06753366317749,8.876652292633056,0.40491935577392574
1790763744203213000,2.426213134765625,7.283460725402832,8.540865509796141,0.06554127044677734
1790763744213251800,2.436251953125,5.3393689773559565,8.697536080932617,1.4528314949035643
1790763744223289900,2.446289794921875,3.7529111022949215,9.591770401000977,0.604535919189453
1790763744233329000,2.456328857421875,2.356343346405029,8.948927255249023,0.7507318580627441
1790763744243367700,2.46636767578125,2.2692542610168456,9.118167385101318,1.227626901245117
1790763744253405700,2.47640576171875,3.902099793243408,9.408763611602783,1.257105509185791
1790763744263444700,2.48644482421875,4.823268881988525,8.84178673095703,1.3410522048950195
1790763744273482800,2.496482666015625,4.8692076263427735,9.55780266494751,0.637755467224121
1790763744283521500,2.506521484375,4.453514363098145,9.166051418304443,0.15083470458984374
1790763744293559800,2.516559814453125,3.23067586517334,8.978555500793457,0.18779519271850584
1790763744303598600,2.5265986328125,3.1049802780151365,9.05876125640869,0.04803367080688476
1790763744313636900,2.536636962890625,3.9419033958435055,8.850465711975097,0.5529109458923339
1790763744323676000,2.546676025390625,3.929333837127685,9.00249751739502,0.539443561553955
1790763744333713700,2.556713623046875,3.496731524658203,9.048885174560546,0.3128922294616699
1790763744343753000,2.5667529296875,3.85616104888916,8.934711682891844,0.10639233627319335
1790763744353791700,2.576791748046875,4.76266565246582,8.83610050201416,-0.1958756233215332
1790763744363829800,2.586829833984375,4.340687609863281,8.588150992584229,0.35838206100463865
1790763744373868800,2.596868896484375,2.8220155693054196,8.548048114776611,0.6248866333007812
1790763744383906800,2.60690673828125,2.57915373840332,8.56720172805786,0.5392939239501953
1790763744393945600,2.616945556640625,3.8750153869628905,8.555829270172119,0.5692214447021484
1790763744403984000,2.62698388671875,4.791246434783935,8.71399621734619,0.9223661895751952
1790763744414022700,2.637022705078125,4.346523476409912,8.82308203048706,0.9705494979858398
1790763744424061000,2.64706103515625,3.784783911895752,9.026289896392822,0.8794201972961425
1790763744434099700,2.657099609375,4.002057712554931,9.08434928665161,0.7038952880859375
1790763744444138800,2.667138671875,3.9284360115051267,9.1799677154541,0.6067804832458495
1790763744454176800,2.6771767578125,3.9419033958435055,9.311050256347656,0.586729044342041
1790763744464215800,2.6872158203125,4.16920291595459,9.48747299118042,0.5632359405517577
1790763744474253600,2.697253662109375,4.37330860748291,9.59566097869873,0.44202948150634763
1790763744484292900,2.70729296875,4.3911154823303225,9.507823705291747,0.47330374069213865
1790763744494330600,2.71733056640625,4.145560174560547,9.440636421203612,0.3806780639648437
1790763744504369700,2.72736962890625,4.03512762298584,9.344868354797363,0.2141314109802246
1790763744514408000,2.737407958984375,3.6264673271179197,9.369558559417724,0.22221184158325194
1790763744524446700,2.74744677734375,3.3828573081970212,9.341127414703369,0.5744587608337401
1790763744534484700,2.757484619140625,4.129249675750732,9.396642965698241,0.7047931137084961
1790763744544523800,2.767523681640625,4.925022452545166,9.249698838806152,0.8930372192382812
1790763744554562800,2.777562744140625,4.246565557098388,9.240271669769287,0.853532891845703
1790763744564600800,2.787600830078125,3.277662072753906,9.072976828765869,0.6610989334106445
1790763744574639900,2.797639892578125,3.1191958503723143,8.734646206665039,0.8093897987365722
1790763744584677600,2.807677734375,4.125658373260498,8.373271393585204,1.290325057220459
1790763744594716700,2.817716552734375,4.5072342628479,8.334066341400145,1.311872872161865
1790763744604754700,2.827754638671875,3.5709517761230467,8.355015605926512,1.447893453979492
1790763744614793700,2.837793701171875,3.1338603355407715,8.565555714416503,1.11719434967041
1790763744624831700,2.847831787109375,3.708618371582031,8.693645503234864,0.8873509902954101
1790763744634870800,2.857870849609375,4.52683678894043,8.710404914855957,0.830638338470459
1790763744644909800,2.867909912109375,4.40518141708374,8.70172593383789,1.2810475257873535
1790763744654947800,2.87794775390625,3.7161002517700195,8.801833490753173,1.3703811752319335
1790763744664987000,2.88798681640625,3.6617818016052244,9.035567427825928,0.9617208793640136
1790763744675024600,2.898024658203125,3.934122240447998,8.83654941482544,0.7800608283996582
1790763744685064000,2.90806396484375,4.056226525115966,8.870217875671386,0.31872809600830077
1790763744695101700,2.918101806640625,3.732859663391113,9.422081358337401,0.2219125663757324
1790763744705140700,2.928140625,3.933972602844238,9.711630121612549,0.2410661796569824
1790763744715178800,2.9381787109375,4.8603790077209466,9.552266073608397,0.26440964584350585
1790763744725217800,2.9482177734375,4.056376162719726,8.938452622985839,1.0607809730529785
1790763744735255800,2.958255859375,3.2945711219787595,9.056815967559814,0.4116530479431152
1790763744745294800,2.968294921875,3.5051112304687497,8.826972608184814,0.18405425262451172
1790763744755333600,2.978333740234375,4.064456593322753,8.805873706054687,0.04504091873168945
1790763744765372000,2.988371826171875,3.9927801811218258,8.915707707214356,0.03890577697753906
1790763744775410700,2.99841064453125,3.8296751930236814,8.934262770080565,0.10205284576416015
1790763744785448700,3.00844873046875,4.091989912414551,8.705167598724366,0.00613514175415039
1790763744795487700,3.01848779296875,3.925293621826172,8.437615563201904,0.2581248664855957
1790763744805525800,3.02852587890625,3.594893792724609,8.551789054870605,0.32007483444213863
1790763744815564800,3.038564697265625,3.6801872268676754,8.751555255889892,0.027383681488037107
1790763744825602800,3.048602783203125,3.5506010620117183,9.083900373840331,-0.050427872467041016
1790763744835641900,3.058641845703125,4.116829754638672,9.779715231323241,0.04279635467529297
1790763744845680600,3.0686806640625,4.738873273468017,10.04217958831787,0.08469488372802735
1790763744855719000,3.078718994140625,4.619911378479004,9.770886612701416,0.0857423469543457
1790763744865757700,3.0887578125,3.9395091941833495,9.528772969818114,0.10938508834838867
1790763744875796000,3.0987958984375,3.522918105316162,9.319729237365722,0.19856910018920898
1790763744885834800,3.108834716796875,3.650708618927002,9.077166681671143,0.05252279891967773
1790763744895872800,3.118872802734375,3.5256115821838376,8.947580516815185,-0.026785131072998045
1790763744905911800,3.128911865234375,4.570530969238281,8.656086464691162,0.5280711036682129
1790763744915949800,3.13894970703125,5.026925660705566,8.422801440429687,1.585859324645996
1790763744925988600,3.148988525390625,4.000411698913574,8.481309743499756,1.4782698875427245
1790763744936027600,3.159027587890625,3.188328423309326,8.1717095413208,1.2873323051452636
1790763744946065700,3.169065673828125,3.0301614761352536,8.362497486114501,0.9356839363098144
1790763744956104700,3.179104736328125,3.9900867042541504,8.380304360961913,1.1635820068359375
1790763744966142700,3.189142822265625,4.470273774719238,8.585008602905273,1.3064859184265136
1790763744976181800,3.199181640625,3.8353614219665526,8.875604829406738,0.7460930923461914
1790763744986219500,3.209219482421875,3.5871126373291014,9.1424086769104,0.16744447860717773
1790763744996258800,3.2192587890625,3.9261914474487303,9.464279162597656,-0.060603229522705075
1790763745006296800,3.229296875,4.41775097579956,9.635015668487549,-0.23927052841186522
1790763745016335600,3.239335693359375,4.7004164093017575,9.975291579437256,-0.38411972885131834
1790763745026375000,3.249375,4.1745898696899415,10.26648635635376,-0.47704468078613277
1790763745036412700,3.25941259765625,3.994575832366943,10.098443327331543,-0.587926145172119
1790763745046451700,3.26945166015625,4.107402585601807,9.784653272247313,-0.3817255271911621
1790763745056489700,3.27948974609375,3.520224628448486,9.42911432571411,0.14185644836425781
1790763745066528800,3.28952880859375,3.935917891693115,9.021800768280029,0.438587816619873
1790763745076566800,3.29956689453125,3.9743747558593747,8.769811043548584,0.9407716148376464
1790763745086605800,3.309605712890625,3.7868788383483882,8.380154723358153,1.471536195373535
1790763745096643600,3.3196435546875,3.584119885253906,8.01877991027832,1.3135188858032225
1790763745106683000,3.329682861328125,4.141519959259033,7.29767629776001,1.995716721343994
1790763745116720600,3.339720703125,2.6913819412231446,7.749432223510742,1.5222633430480956
1790763745126759700,3.349759765625,1.307383744049072,8.054992210388184,0.18944120635986328
1790763745136799000,3.359799072265625,3.261052298736572,9.381230292510987,1.7666215499877929
1790763745146836700,3.369836669921875,11.528380268859863,8.652644799804687,0.026036943054199218
1790763745156875800,3.379875732421875,3.7862802879333493,9.976039767456054,0.39968203964233395
1790763745166913800,3.389913818359375,-2.422932080078125,9.09751739578247,1.2024877838134764
1790763745176952800,3.399952880859375,4.8326960510253905,9.572616787719726,-0.6781576202392577
1790763745186990800,3.409990966796875,4.510227014923095,9.922469505310058,-0.177470198059082
1790763745197030000,3.42002978515625,3.993977281951904,9.458892208862304,0.7634510543823242
1790763745207067600,3.430067626953125,4.314650666809082,9.269451002502441,0.5915174476623535
1790763745217106700,3.440106689453125,6.11015227432251,8.643067993164061,-0.6097732353210449
1790763745227145500,3.4501455078125,4.592826972198486,8.860341793823242,-0.47150808944702144
1790763745237183500,3.46018359375,1.9101240119934082,8.486995972442626,0.07167641220092773
1790763745247222500,3.470222412109375,2.5813983024597165,8.53622674407959,0.47061026382446286
1790763745257260500,3.480260498046875,3.6583401367187496,8.651447698974609,1.1845312713623046
1790763745267299300,3.49029931640625,4.3616368743896485,9.093776455688475,0.6784568954467773
1790763745277337600,3.500337646484375,4.1934442077636715,8.945186315155029,0.7164648468017578
1790763745287376400,3.51037646484375,3.6414310874938964,9.390058911132812,-0.14604630126953125
1790763745297414700,3.52041455078125,3.744381758880615,9.68499462814331,-0.8794201972961425
1790763745307453400,3.530453369140625,4.091690637207031,9.72315221710205,-0.8996212738037109
1790763745317492500,3.540492431640625,3.9044939949035644,9.762656544494629,-0.7447463539123534
1790763745327530500,3.550530517578125,3.5716999641418457,9.373449137115477,0.050427872467041016
1790763745337569500,3.560569580078125,3.1530139488220215,9.1163717338562,0.5921159980773926
1790763745347607600,3.570607666015625,3.402160559082031,8.900594309234618,0.47165772705078124
1790763745357646600,3.580646484375,4.227262306213379,8.63798031463623,0.11911153259277343
1790763745367684600,3.5906845703125,4.1475054634094235,8.480411917877197,0.16385317611694336
1790763745377723400,3.600723388671875,3.3674446350097655,8.431929334259033,0.3007715835571289
1790763745387761700,3.61076171875,3.170371910858154,8.534880005645752,0.4261678955078125
1790763745397800400,3.620800537109375,3.4145804801940915,8.8612396194458,0.5419874008178711
1790763745407838500,3.63083837890625,3.840149825286865,8.990376871490477,0.7709329345703124
1790763745417877500,3.64087744140625,3.8796541526794432,9.092579354858398,0.8872013526916503
1790763745427916500,3.65091650390625,3.4018612838745117,9.301174174499511,0.9974842666625976
1790763745437954300,3.660954345703125,3.6037224113464355,9.05262611465454,0.6810007347106933
1790763745447993600,3.67099365234375,4.083460569000244,9.138518099212646,0.48078562088012694
1790763745458031400,3.68103125,4.274847064208984,9.297283596801757,0.47270519027709956
1790763745468070400,3.6910703125,4.128202212524414,9.255085792541504,0.47375265350341794
1790763745478108400,3.7011083984375,3.4874539932250976,8.862287082672118,0.20216040267944335
1790763745488147500,3.7111474609375,2.9227216766357422,8.881291058349609,0.5743091232299804
1790763745498185500,3.721185546875,3.1866824096679687,9.36641616973877,0.3642179275512695
1790763745508224500,3.731224609375,3.491494208526611,9.680206224822998,1.0972925483703613
1790763745518263600,3.741263671875,4.293701402282714,9.600150106811522,0.3413233741760254
1790763745528301600,3.751301513671875,4.824465982818603,9.769689511871338,-0.17971476211547852
1790763745538340600,3.761340576171875,4.419247351837158,9.694870709991454,-0.10773907470703124
1790763745548378400,3.77137841796875,3.4663550910949703,9.357437913513182,0.3155857063293457
1790763745558417700,3.781417724609375,3.144334967803955,8.95700768585205,0.512059880065918
1790763745568455400,3.791455322265625,2.8480525123596188,8.92588306427002,0.5108627792358398
1790763745578494500,3.801494384765625,3.171868286895752,8.782979152679443,0.08364742050170898
1790763745588532500,3.811532470703125,4.456956027984619,8.68885709991455,-0.33788170928955075
1790763745598571500,3.821571533203125,4.314351391601562,8.959850800323485,-0.39160160903930663
1790763745608610300,3.8316103515625,3.7728129035949705,9.148394181060791,-0.032172084808349606
1790763745618648600,3.841648681640625,4.015076184082031,9.316586847686766,-0.3420715621948242
1790763745628687600,3.8516875,3.7116111236572262,9.377190077209471,-0.30735563812255856
1790763745638725600,3.8617255859375,3.1102175941467283,9.534010285949707,-0.4745008415222168
1790763745648764700,3.8717646484375,3.385401147460937,9.190741622924804,-0.003591302490234375
1790763745658802400,3.881802490234375,4.311957189941406,9.042301119995116,-0.1619078872680664
1790763745668841700,3.891841796875,4.20751014251709,8.966135579681396,0.0004489128112792969
1790763745678879500,3.90187939453125,3.086125939941406,8.81664761352539,0.14859014053344727
1790763745688918500,3.91191845703125,2.705747151184082,8.51707313079834,0.4930559043884277
1790763745698957600,3.92195751953125,3.293074745941162,8.346486262512206,0.6272808349609375
1790763745708995600,3.93199560546875,4.2414778785705565,8.40738876724243,0.9765350021362305
1790763745719034400,3.942034423828125,4.343530724334716,8.37611450805664,0.7872434333801269
1790763745729072600,3.95207275390625,3.4720413200378415,8.454823887634277,1.0058639724731444
1790763745739111400,3.962111328125,2.9288568183898924,8.720280996704101,1.0639233627319336
1790763745749149400,3.9721494140625,3.8045360755920408,8.865130197143554,0.6066308456420898
1790763745759188500,3.9821884765625,4.288464086151123,9.138069186401367,1.0651204635620117
1790763745769226500,3.9922265625,3.5615246070861812,9.430909976959228,0.9310451705932616
1790763745779265300,4.002265380859375,3.631555005645752,9.739013803100585,0.5541080467224121
1790763745789304600,4.0123046875,4.2335470855712884,9.66614029006958,0.6130652626037597
1790763745799342300,4.02234228515625,4.152892417144775,9.633369654846192,0.528669654083252
1790763745809381400,4.03238134765625,3.4275989517211913,8.916904808044434,0.5346551582336425
1790763745819419600,4.042419677734375,3.47308878326416,9.170989459228515,0.27308862686157226
1790763745829458400,4.05245849609375,3.507355794525146,8.524106098175048,0.8617629600524902
1790763745839496700,4.06249658203125,4.139425032806396,9.125200352478027,-0.00987608184814453
1790763745849535500,4.072535400390625,4.50109912109375,9.069385526275635,0.12569558715820311
1790763745859573500,4.082573486328125,3.5419220809936522,8.939051173400879,0.016759411621093748
1790763745869612500,4.092612548828125,3.4886510940551756,9.191639448547363,-0.3796306007385254
1790763745879651600,4.102651611328125,3.587411912536621,9.211690887451171,-0.6682815383911133
1790763745889689300,4.112689453125,3.60716407623291,9.22575682220459,-0.3773860366821289
1790763745899728600,4.122728759765625,4.133439528656005,9.394548039245604,-0.2018611274719238
1790763745909766400,4.132766357421875,4.319139794921875,9.364770156097412,-0.15218144302368164
1790763745919805400,4.142805419921875,3.746327047729492,9.304316564178466,0.12330138549804687
1790763745929843500,4.152843505859375,3.449446041870117,9.209446323394776,0.1105821891784668
1790763745939882500,4.162882568359375,1.9590555084228514,8.615534674072265,2.1664532272338866
1790763745949920500,4.17292041015625,2.185457202911377,8.986935206604004,1.4487912796020508
1790763745959959600,4.18295947265625,6.574028845977783,8.737638958740234,-0.6440402465820312
1790763745969998600,4.19299853515625,3.6373908721923827,8.206575102996826,2.2182278381347653
1790763745980036600,4.20303662109375,4.580407051086426,7.898321639251709,2.4389433036804196
1790763745990075600,4.21307568359375,4.282478582000732,8.047659967803954,2.6906337532043456
1790763746000113400,4.223113525390625,3.122338240051269,8.36908154067993,2.307112574768066
1790763746010152700,4.233152587890625,2.5899276458740235,8.66386762008667,2.407968319702148
1790763746020190500,4.2431904296875,4.147804738616943,9.36641616973877,-1.8013374740600585
1790763746030229500,4.2532294921875,4.367023828124999,8.871714251708983,-0.1427542739868164
1790763746040267500,4.263267578125,5.583727184295654,9.663446813201904,2.3855226791381834
1790763746050306600,4.273306640625,2.8687025016784666,10.218452685546874,1.8365023109436034
1790763746060345300,4.283345458984375,5.067327813720703,9.906907194519043,-4.825064533233642
1790763746070383600,4.293383544921875,4.633229125213623,9.764601833343505,-2.486677699279785
1790763746080422400,4.30342236328125,2.7967268142700195,10.069862545013427,0.5403413871765136
1790763746090460400,4.31346044921875,2.479046181488037,9.949703549194336,-1.6518495079040527
1790763746100499500,4.32349951171875,3.058742258453369,9.361627766418456,-4.374655345916747
1790763746110537500,4.333537353515625,5.638045634460449,9.431807802581787,-0.17387889556884764
1790763746120576500,4.343576416015625,2.5131635551452636,8.981398615264892,-1.9879355659484863
1790763746130615600,4.353615478515625,4.780023614501953,8.448688745880126,-0.49889177093505854
1790763746140653600,4.363653564453125,3.7346553146362305,8.32463917236328,-0.6401496688842773
1790763746150692400,4.3736923828125,3.744980309295654,8.228721468353271,-0.3265092514038086
1790763746160730600,4.383730712890625,3.8525697463989257,8.15958889541626,-0.309001651763916
1790763746170769400,4.393769287109375,3.243694336700439,8.433126435089111,-0.13631985702514648
1790763746180807700,4.4038076171875,3.6412814498901365,8.634538649749755,-0.13257891693115234
1790763746190846500,4.413846435546875,4.035875811004638,8.857349041748046,-0.050727147674560547
1790763746200884500,4.423884521484375,4.1648634254455565,9.030928662109375,-0.08439560852050781
1790763746210923800,4.433923828125,4.158279370880127,9.214683639526367,-0.42003275375366206
1790763746220962800,4.443962890625,3.9374142677307127,9.277381795501709,-0.5858312187194824
1790763746231000600,4.45400048828125,4.09228918762207,9.368511096191405,-0.8640075241088867
1790763746241040000,4.464039794921875,3.9954736579895016,9.510517182159424,-1.162534543609619
1790763746251077600,4.47407763671875,3.753210377502441,9.581894319152832,-1.2310685661315917
1790763746261116700,4.48411669921875,3.903446531677246,9.411906001281737,-1.0082581741333008
1790763746271154700,4.49415478515625,3.660734338378906,9.279177446746825,-0.7215525253295898
1790763746281193700,4.50419384765625,3.8512230079650878,9.124452164459228,-0.7549217109680175
1790763746291231700,4.514231689453125,4.301632195281982,9.031377574920654,-0.9988310050964355
1790763746301270800,4.524270751953125,4.22636448059082,8.998756577301025,-1.0830769760131835
1790763746311309600,4.5343095703125,3.9537247665405273,9.034819239807128,-1.0963947227478026
1790763746321347800,4.544347900390625,3.7496190750122067,9.076568131256103,-1.301248602294922
1790763746331386600,4.55438671875,3.666270929718017,8.911517854309082,-1.0914566818237303
1790763746341424600,4.564424560546875,3.3342250869750973,8.690203838348388,-0.8889970039367675
1790763746351463700,4.574463623046875,3.9438486846923824,8.708010713195801,-1.2761094848632812
1790763746361501700,4.584501708984375,3.5678093864440914,8.614487210845947,-2.047640969848633
1790763746371540700,4.594540771484375,2.837428242492676,8.539967684173584,-1.368735161590576
1790763746381578800,4.604578857421875,3.829974468231201,8.724470849609375,0.7249941902160644
1790763746391617800,4.61461767578125,5.818658222198486,8.962394639587401,1.2146084297180175
1790763746401656600,4.624656494140625,3.976170407104492,9.47475379486084,-0.5738602104187012
1790763746411694800,4.63469482421875,2.991106061553955,9.931747036743163,-0.8910919303894043
1790763746421733600,4.644733642578125,4.095581214904785,9.718214176177979,-0.2314893730163574
1790763746431771600,4.654771728515625,3.8072295524597166,9.702053314971923,0.16041151123046873
1790763746441810700,4.664810791015625,3.6592379623413085,9.64025298461914,0.3480570663452148
1790763746451848700,4.6748486328125,4.074332675170898,9.745897132873534,0.3028665100097656
1790763746461887500,4.684887451171875,4.4306198097229,9.483283138275146,1.027262149810791
1790763746471925800,4.69492578125,4.246864832305908,10.043526326751708,1.5517419509887695
1790763746481964500,4.704964599609375,3.6426281883239744,9.830741654205323,2.1452046874999997
1790763746492003600,4.715003662109375,5.191527024841308,9.948506448364258,2.0407576400756833
1790763746502041600,4.72504150390625,3.5859155364990234,11.03891566696167,2.8836662620544433
1790763746512080600,4.73508056640625,0.8349778289794921,8.975263473510742,1.732803451538086
1790763746522118700,4.74511865234375,2.8094460105895993,9.125200352478027,0.4129997863769531
1790763746532157700,4.75515771484375,7.3484034454345695,7.614010192108154,0.3119944038391113
1790763746542195500,4.765195556640625,-0.263062907409668,6.898892083740234,-1.6932991241455078
1790763746552234800,4.77523486328125,6.002263562011718,6.191704768371582,-1.6148890197753905
1790763746562273800,4.785273681640625,3.321805165863037,6.25664748840332,-0.9187748870849609
1790763746572311600,4.7953115234375,2.424877368927002,7.6093714263916015,1.895459526824951
1790763746582350800,4.805350830078125,5.063137960815429,8.195651557922362,1.4001590583801269
1790763746592388600,4.815388671875,4.151246403503418,8.368931903076172,1.783081686401367
1790763746602427600,4.825427734375,3.7810429718017575,8.794501248168945,1.4915876342773438
1790763746612465700,4.835465576171875,3.693804248809814,9.27588541946411,1.6476596549987792
1790763746622504700,4.845504638671875,3.8046857131958007,9.381529567718506,1.8969559028625487
1790763746632542700,4.855542724609375,3.9160160903930663,9.370157109832762,2.06215581741333
1790763746642581800,4.865581787109375,3.7994483970642086,9.487173715972899,2.1064485481262207
1790763746652620500,4.87562060546875,3.678690850830078,9.099163409423827,2.0082862800598145
1790763746662658800,4.885658935546875,3.2531215057373046,8.997409838867187,1.721879906463623
1790763746672697900,4.89569775390625,3.787178113555908,9.151237295532226,0.955735375213623
1790763746682735600,4.905735595703125,4.643404482269287,9.517400511932372,-0.05970540390014648
1790763746692774700,4.915774658203125,4.337395582580566,8.967781593322753,1.250671092224121
1790763746702812700,4.925812744140625,4.084807307434081,8.65683465270996,1.9635446365356444
1790763746712851700,4.935851806640625,4.0824131057739255,8.844779483032227,1.5141829124450683
1790763746722890500,4.945890380859375,4.217086949157714,8.933963494873046,1.3365630767822265
1790763746732928800,4.9559287109375,4.089745348358154,9.472509230804443,0.3097498397827148
1790763746742967600,4.965967529296875,3.91990666809082,9.415497303771971,0.6522703147888184
1790763746753005800,4.976005859375,3.939658831787109,9.396044415283203,0.9980828170776367
1790763746763044600,4.986044677734375,3.9930794563293457,9.415347666168213,0.8391676818847655
1790763746773082600,4.99608251953125,3.956118968200683,9.168295982360839,1.054047280883789
1790763746783121700,5.00612158203125,3.857507787322998,8.959701162719726,1.1270704315185547
1790763746793159700,5.01615966796875,3.899406316375732,8.876353017425537,0.9463082061767577
1790763746803198500,5.026198486328125,4.011185606384277,8.85555339050293,0.7133224571228027
1790763746813237800,5.03623779296875,3.949834188842773,8.67598826599121,0.8809165733337402
1790763746823275500,5.046275634765625,3.863792566680908,8.607753518676757,0.9898527488708495
1790763746833314600,5.056314453125,3.7767034812927243,8.499565531158447,1.1622352684020996
1790763746843352600,5.0663525390625,3.8775592262268064,8.514080378723143,1.189918225097656
1790763746853391600,5.0763916015625,3.6764462867736816,8.56061767349243,0.9458592933654785
1790763746863430000,5.086429931640625,3.897610665130615,8.431779696655273,1.3431471313476562
1790763746873468700,5.09646875,3.669562957000732,8.687659999084472,1.6499042190551756
1790763746883507700,5.1065078125,4.341735073089599,8.929474366760253,1.6792331893920898
1790763746893545700,5.116545654296875,4.075080863189697,9.14300722732544,1.8781015647888182
1790763746903584800,5.126584716796875,3.6420296379089354,9.241019857788086,2.2273557319641113
1790763746913622500,5.13662255859375,3.843741127777099,9.19313582458496,1.9963152717590331
1790763746923661800,5.146661865234375,3.8845921936035155,9.197774590301513,1.3772645050048826
1790763746933699600,5.156699462890625,4.249857584381103,9.061454733276367,1.2641384765625
1790763746943738600,5.166738525390625,4.31554849243164,9.104849638366698,1.2767080352783202
1790763746953776600,5.176776611328125,4.163516687011718,9.100510147857666,1.5387234794616698
1790763746963815700,5.186815673828125,4.242226066589355,9.172635472869873,1.8638859924316404
1790763746973854700,5.196854736328125,4.203021014404297,9.314043008422852,1.952920366668701
1790763746983892700,5.206892822265625,4.298789080810547,9.4879219039917,1.8369512237548826
1790763746993931800,5.216931884765625,4.409071994781494,9.44183352203369,1.7061679580688476
1790763747003969800,5.2269697265625,4.274996701812744,9.297582872009277,1.5894506271362303
1790763747014008800,5.2370087890625,4.316745593261719,9.052326839447021,1.465251416015625
1790763747024046600,5.247046630859375,3.980659535217285,8.798391825866698,1.5322890624999999
1790763747034085600,5.257085693359375,3.6420296379089354,8.418611587524413,1.6919523857116698
1790763747044123600,5.26712353515625,3.5021184783935544,8.115595439910889,1.753154165649414
1790763747054162700,5.27716259765625,3.8358103347778316,8.100781317138672,1.6083049652099608
1790763747064201500,5.287201416015625,4.059817827606201,8.079981690216064,1.5518915885925293
1790763747074239700,5.29723974609375,4.14361488571167,8.140435282135009,1.4405612113952635
1790763747084278500,5.307278564453125,3.8826469047546386,8.228122917938231,1.331026485443115
1790763747094316800,5.31731689453125,3.917961379241943,8.456469901275634,1.241692835998535
1790763747104355600,5.32735546875,3.801094410705566,8.698433906555175,1.1311106468200682
1790763747114393600,5.3373935546875,3.7544074783325194,8.892513878631592,1.218648645019531
1790763747124432600,5.3474326171875,3.730315824127197,8.962394639587401,1.2349591438293457
1790763747134471700,5.3574716796875,3.950732014465332,9.06594386138916,1.1040262405395507
1790763747144509400,5.367509521484375,4.018218573760986,9.143905052947998,0.9059060531616211
1790763747154548700,5.377548828125,3.957615344238281,9.20645357131958,0.7445967163085937
1790763747164586800,5.387586669921875,4.029591031646729,9.452457791900635,0.6640916854858399
1790763747174625500,5.39762548828125,4.120271419525146,9.71028338317871,0.706139852142334
1790763747184663800,5.407663818359375,3.7951089065551757,9.714024323272705,0.866401725769043
1790763747194702600,5.41770263671875,3.9092823982238767,9.599102643585205,1.0895113929748534
1790763747204741600,5.42774169921875,3.911676599884033,9.343371978759764,1.3168109130859373
1790763747214780000,5.43777978515625,4.089745348358154,9.185653944396972,1.25770405960083
1790763747224818700,5.447818603515625,4.511873028564453,9.330952057647705,1.0108020133972166
1790763747234857000,5.45785693359375,4.257040189361572,9.13537570953369,0.962768342590332
1790763747244895700,5.467895751953125,4.039916026306152,8.713547304534911,1.124825867462158
1790763747254933800,5.477933837890625,4.089894985961914,8.43357534790039,1.2855366539001465
1790763747264972800,5.487972900390625,3.9172131912231443,8.268674708557128,1.1848305465698241
1790763747275010800,5.4980107421875,3.774608554840088,8.220940312957763,1.0449193870544433
1790763747285049600,5.508049560546875,3.8639422042846676,8.270470359802246,1.0995371124267577
1790763747295089000,5.5180888671875,3.7550060287475584,8.384643851470948,1.4526818572998046
1790763747305126700,5.528126708984375,3.8871360328674314,8.607005330657959,1.5128361740112304
1790763747315165700,5.538165771484375,4.1548377059936525,8.930072917175293,1.265934127807617
1790763747325203700,5.54820361328125,4.204218115234375,9.085546387481688,1.0254664985656738
1790763747335242800,5.55824267578125,4.355352095031738,9.25044702682495,1.0170867927551268
1790763747345280800,5.56828076171875,4.476708191680908,9.40427448348999,0.9118915573120117
1790763747355319800,5.57831982421875,4.384830702972412,9.408464336395262,0.8961796089172362
1790763747365358800,5.58835888671875,4.0985739669799806,9.269451002502441,0.9548375495910644
1790763747375396600,5.598396728515625,3.643675651550293,9.02105258026123,1.032349828338623
1790763747385436000,5.608435791015625,3.3110312583923336,8.800486752319335,1.631199518585205
1790763747395473700,5.6184736328125,3.748272336578369,9.034519964599609,1.4679448928833008
1790763747405512700,5.6285126953125,3.553444176483154,8.95610986022949,1.2376526206970213
1790763747415550700,5.63855078125,4.135833730316162,7.2054995338439936,1.3319243110656738
1790763747425589800,5.64858984375,2.7085902656555176,8.731204541778563,2.0415058280944822
1790763747435627800,5.658627685546875,3.5633202583312986,10.128520485687256,1.3238438804626464
1790763747445666800,5.668666748046875,4.566939666748047,9.489119004821777,0.9211690887451172
1790763747455705600,5.67870556640625,4.1015667190551754,8.686313260650634,1.1240776794433593
1790763747465744000,5.688743896484375,4.216488398742675,8.15195737762451,0.8632593360900879
1790763747475783000,5.698782958984375,4.330961165618897,8.073247998046874,0.8494926765441894
1790763747485820700,5.708820556640625,4.05398196105957,8.49163473815918,0.6437409713745117
1790763747495860000,5.71885986328125,3.82413860168457,8.9508725440979,0.4682160621643066
1790763747505897700,5.728897705078125,3.5142391242980957,9.21213980026245,0.6826467483520507
1790763747515936800,5.738936767578125,3.5103485466003415,9.256133255767821,1.214309154510498
1790763747525975800,5.748975830078125,3.689464758300781,9.188945971679686,1.6461632789611815
1790763747536013800,5.759013916015625,3.905391820526123,9.354145886230468,1.1866261978149413
1790763747546052600,5.769052490234375,4.105457296752929,9.24461116027832,0.7618050407409668
1790763747556091000,5.7790908203125,3.787028475952148,8.954763121795654,0.6479308242797851
1790763747566129700,5.789129638671875,3.5788825691223143,8.77115778198242,1.4878466941833495
1790763747576168000,5.79916796875,3.7216368431091307,8.847622597503662,1.2976572998046874
1790763747586206700,5.809206787109375,4.025850091552734,8.865579109954833,1.2271779884338379
1790763747596245800,5.819245849609375,3.967042513275146,8.700977745819092,1.3003507766723632
1790763747606283800,5.82928369140625,4.032434146118164,8.758588223266601,1.2102689392089843
1790763747616322800,5.83932275390625,4.132541703033447,9.261969122314452,1.22583125
1790763747626360600,5.849360595703125,3.86888024520874,8.9891797706604,1.1918635139465332
1790763747636399900,5.85939990234375,3.6329017440795894,8.985588468170166,1.200841770172119
1790763747646437600,5.869437744140625,3.9743747558593747,9.424325922393798,0.9629179801940917
1790763747656476700,5.8794765625,4.120869969940185,9.495553421783447,0.48542438659667964
1790763747666515000,5.889514892578125,4.283526045227051,9.12415288925171,0.4330512252807617
1790763747676553700,5.8995537109375,4.311358639526367,9.145551066589356,0.572663109588623
1790763747686592800,5.9095927734375,4.320935446166992,9.376741164398192,0.3404255485534668
1790763747696630800,5.919630859375,3.993378731536865,9.554959550476074,0.7010521736145019
1790763747706669800,5.929669921875,3.366995722198486,8.894309529876708,0.912340470123291
1790763747716707600,5.93970751953125,3.4829648651123044,8.070404883575439,0.98955347366333
1790763747726747000,5.949746826171875,3.587561550140381,8.308029398345946,0.8485948509216308
1790763747736784600,5.95978466796875,3.965097224426269,9.152584033966065,0.8001122673034667
1790763747746823700,5.96982373046875,4.013579808044433,8.952069644927978,0.4656722229003906
1790763747756862700,5.97986279296875,3.7762545684814453,8.758588223266601,0.06539163284301758
1790763747766900700,5.989900634765625,3.771915077972412,8.942642475891112,0.3342904067993164
1790763747776939800,5.999939697265625,3.8099230293273925,9.147496355438232,0.42886137237548827
1790763747786977800,6.009977783203125,3.693355335998535,9.27603505706787,0.4676175117492676
1790763747797016800,6.020016845703125,3.751414726257324,9.33993031387329,0.543932689666748
1790763747807054800,6.030054931640625,3.960757733917236,9.427617949676513,0.414346524810791
1790763747817094000,6.040093994140625,4.14346524810791,9.477447271728515,0.2002151138305664
1790763747827132700,6.050132568359375,4.160075022125244,9.430311426544188,0.15652093353271485
1790763747837171000,6.0601708984375,4.2235213661193844,9.450362865447998,0.16609774017333984
1790763747847209700,6.070209716796875,4.086902233886718,9.37853681564331,0.30092122116088865
1790763747857247700,6.080247802734375,3.770418701934814,9.159617001342772,0.177470198059082
1790763747867286800,6.090286865234375,3.68362889175415,8.971971446228027,0.06973112335205078
1790763747877324800,6.10032470703125,3.7606922576904296,8.671050225067138,0.2834136215209961
1790763747887363600,6.110363525390625,3.8066310020446776,8.434772448730468,0.5603928260803223
1790763747897401900,6.12040185546875,3.7722143531799315,8.328230474853514,0.7050923889160156
1790763747907440600,6.130440673828125,4.145111261749268,8.400804712677001,0.85547818069458
1790763747917479700,6.140479736328125,4.389768743896484,8.725518312835693,0.8450035484313965
1790763747927517700,6.150517578125,3.759046244049072,8.985887743377685,0.7706336593627929
1790763747937556700,6.160556640625,3.573345977783203,9.084050011444091,0.7363666481018066
1790763747947594800,6.1705947265625,3.780893334197998,9.207650672149658,0.5702689079284667
1790763747957633800,6.1806337890625,3.8256349777221677,9.48687444076538,0.32082302246093747
1790763747967671800,6.190671875,2.976441576385498,9.355642262268066,0.30151977157592774
1790763747977710800,6.2007109375,3.8615480026245117,9.162310478210449,0.6959644950866699
1790763747987750000,6.21075,4.668693237304687,9.573065700531005,0.616058014678955
1790763747997787600,6.22078759765625,3.939658831787109,9.548076220703125,0.697161595916748
1790763748007826700,6.23082666015625,3.2773627975463864,9.252392315673827,1.1842319961547851
1790763748017864700,6.24086474609375,3.5728970649719236,9.182960467529297,1.432630418395996
1790763748027903700,6.25090380859375,3.463362339019775,9.247304637145996,1.14278237991333
1790763748037941800,6.260941650390625,3.4708442192077635,9.355342987060546,0.7942764007568359
1790763748047980800,6.270980712890625,3.311480171203613,9.349656758117675,0.7281365798950195
1790763748058019600,6.28101953125,3.0069676475524902,9.274688318634032,0.6512228515624999
1790763748068057900,6.291057861328125,3.703381055450439,9.175927500152588,0.6257844589233398
1790763748078097000,6.301096923828125,3.8920740737915036,9.043947133636474,0.6726210289001464
1790763748088134700,6.311134765625,3.785232824707031,8.93171893081665,0.5945101997375488
1790763748098174000,6.321174072265625,3.6170401580810543,8.860042518615723,0.5023334358215332
1790763748108211700,6.331211669921875,3.305793942260742,8.853907376861573,0.5077203895568847
1790763748118250800,6.341250732421875,3.8515222831726073,9.022100043487548,0.2376245147705078
1790763748128289800,6.351289794921875,3.699041564941406,9.164704679870605,-0.08738836059570312
1790763748138327800,6.361327880859375,3.0527567543029783,9.063998572540283,-0.018255787658691406
1790763748148366600,6.37136669921875,4.236988750457764,9.121459412384032,0.008978256225585938
1790763748158404900,6.38140478515625,4.085405857849121,9.228300661468506,-0.008978256225585938
1790763748168443600,6.391443603515625,3.6540006462097168,9.277232157897949,-0.16310498809814453
1790763748178482000,6.40148193359375,3.1789012542724606,9.356390450286865,-0.30346506042480464
1790763748188520700,6.411520751953125,3.56242243270874,9.501538925933838,-0.4918588035583496
1790763748198558700,6.421558837890625,3.7693712387084957,9.655815295410155,-0.6132149002075195
1790763748208597800,6.43159765625,3.377769629669189,9.778817405700684,-0.7146691955566405
1790763748218636500,6.441636474609375,3.2103251510620114,9.732878661346435,-0.6521206771850585
1790763748228674600,6.451674560546875,2.955342674255371,9.789740950775146,-0.6380547424316406
1790763748238713600,6.461713623046875,3.3666964469909666,9.725696056365965,-0.7659948936462402
1790763748248751600,6.471751708984375,3.49867681350708,9.56363853149414,-0.7022492744445801
1790763748258790400,6.481790283203125,2.971054622650146,9.234735078430175,-0.6602011077880859
1790763748268828700,6.49182861328125,2.712630480957031,8.979453326416015,-0.802506468963623
1790763748278867500,6.501867431640625,2.7564742988586426,8.648604584503174,-0.8722375923156738
1790763748288906500,6.511906494140625,2.5968109756469726,8.634239374542236,-0.8517372406005859
1790763748298944500,6.521944580078125,3.417722869873047,8.423250353240967,-0.36526539077758785
1790763748308983600,6.531983642578125,3.4659061782836913,8.410680794525145,-0.15592238311767578
1790763748319021600,6.542021484375,2.688987739562988,8.4015529006958,0.09127893829345703
1790763748329060600,6.552060546875,2.8100445610046383,8.454973525238037,0.35523967132568357
1790763748339098400,6.562098388671875,3.3557729019165037,8.813654861450194,0.25782559127807614
1790763748349137700,6.5721376953125,3.5634698959350586,9.022249681091308,0.28909985046386716
1790763748359176700,6.5821767578125,3.2047885597229,9.255684342956542,0.38322190322875976
1790763748369214500,6.59221435546875,3.359364204406738,9.467122277069091,0.5647323165893554
1790763748379253500,6.60225341796875,3.928136736297607,9.617208793640136,0.8475473876953125
1790763748389291500,6.61229150390625,4.102314907073974,9.69756418685913,1.18108960647583
1790763748399330600,6.62233056640625,4.033182334136963,9.756521402740479,1.3594576301574706
1790763748409368600,6.63236865234375,3.7886744895935056,9.677063835144043,1.3774141426086426
1790763748419407600,6.64240771484375,3.573345977783203,9.539995790100097,1.338209090423584
1790763748429446400,6.6524462890625,3.6830303413391112,9.367164357757568,1.2942156349182128
1790763748439484700,6.662484619140625,3.788524851989746,9.126996003723145,1.2469301521301268
1790763748449523500,6.6725234375,3.6982933769226074,8.938452622985839,1.211166764831543
1790763748459561500,6.6825615234375,3.794211080932617,8.76651901626587,1.2051812606811523
1790763748469600500,6.6926005859375,3.695899175262451,8.656535377502442,1.2024877838134764
1790763748479638500,6.702638427734375,3.699041564941406,8.605060041809082,1.2524667434692383
1790763748489677300,6.71267724609375,3.9706338157653804,8.580818749999999,1.304390991973877
1790763748499716600,6.722716552734375,3.953275853729248,8.571092305755615,1.3447931449890136
1790763748509754600,6.732754638671875,3.7783494949340817,8.607603881072997,1.3298293846130371
1790763748519793400,6.74279345703125,3.895216463470459,8.701426658630371,1.2161048057556152
1790763748529831700,6.752831787109375,4.151994591522216,8.847323322296143,1.011849476623535
1790763748539870500,6.762870361328125,4.4559085647583005,9.055169953918456,0.6789058082580566
1790763748549908700,6.77290869140625,4.701763147735595,9.23817674331665,-0.14544775085449219
1790763748559947500,6.782947509765625,4.3734582450866695,9.06549494857788,-0.4004302276611328
1790763748569986600,6.792986572265625,3.142240041351318,8.946682691192626,0.37918168792724605
1790763748580024600,6.803024658203125,4.116829754638672,9.489717555236815,0.47375265350341794
1790763748590063600,6.813063720703125,6.087556996154785,8.891167140197753,1.2617442749023438
1790763748600101400,6.823101318359375,5.014805014801025,9.352200597381591,0.485873299407959
1790763748610140700,6.833140625,3.1670798835754392,8.744671926116943,0.4296095603942871
1790763748620178400,6.843178466796875,2.980032878875732,8.89371097946167,-0.1484405029296875
1790763748630217500,6.853217529296875,4.127154749298096,8.624064017486571,0.18704700469970703
1790763748640256800,6.8632568359375,4.7685015190124505,8.70202520904541,-0.3238157745361328
1790763748650294500,6.87329443359375,4.2317514343261715,8.672396963500976,-0.13392565536499024
1790763748660333600,6.88333349609375,3.3168671249389647,8.689754925537109,0.16385317611694336
1790763748670371600,6.89337158203125,2.511367903900146,8.755745108795166,0.6904279037475586
1790763748680410600,6.90341064453125,3.1860838592529297,8.959102612304687,1.2535142066955565
1790763748690448600,6.91344873046875,4.565293653106689,9.14195976409912,1.2017395957946777
1790763748700487700,6.92348779296875,4.023006977081298,9.190442347717285,0.6913257293701172
1790763748710526500,6.9335263671875,2.5794530136108396,9.348758932495116,0.18180968856811522
1790763748720564500,6.943564453125,2.943820578765869,9.413701652526855,-0.07227496261596679
1790763748730603500,6.953603515625,3.2959178604125974,9.399486080169677,0.05237316131591797
1790763748740641500,6.9636416015625,1.753004528045654,9.493907408142089,0.2410661796569824
1790763748750680300,6.973680419921875,1.37262573928833,9.784353997039794,0.6278793853759765
1790763748760718600,6.983718505859375,2.574365335083008,9.702053314971923,1.222539222717285
1790763748770757400,6.99375732421875,2.864063735961914,9.905560456085205,1.8550573738098144
1790763748780795600,7.003795654296875,4.872050740814209,10.169371551513672,1.8185457984924316
1790763748790834700,7.013834716796875,6.290615224456786,9.941473480987549,0.64478843460083
1790763748800873500,7.02387353515625,2.832789476776123,9.783156896209716,-0.46193128280639645
1790763748810911700,7.033911865234375,-0.557998624420166,9.30147344970703,-1.5921441040039062
1790763748820950500,7.043950439453125,-0.739957950592041,9.56962403564453,-2.8571804061889647
1790763748830988500,7.053988525390625,1.4469956283569334,9.760112705230712,-3.7969045578002927
1790763748841027600,7.064027587890625,4.144961624145507,10.027964015960693,-3.5895068389892577
1790763748851065600,7.074065673828125,4.37300933227539,9.633220017242431,-1.3263877197265623
1790763748861104400,7.0841044921875,2.3427263244628906,9.641599723052979,-0.0770633659362793
1790763748871143700,7.094143798828125,1.0480617767333984,9.574113163757323,0.7200561492919921
1790763748881181400,7.104181396484375,1.3347674255371094,9.27603505706787,1.4226046989440917
1790763748891220500,7.114220458984375,2.5834932289123533,9.100210872650146,1.7540519912719725
1790763748901258500,7.124258544921875,3.3877953491210935,9.411457088470458,1.176001927947998
1790763748911297500,7.134297607421875,3.2908301818847656,9.385420145416258,0.9858125335693358
1790763748921335600,7.14433544921875,2.261922018432617,9.29548794555664,1.1463736824035644
1790763748931374600,7.15437451171875,1.668758557128906,9.28291838684082,1.0832266136169433
1790763748941413600,7.16441357421875,1.7079636093139647,9.32032778778076,1.0794856735229492
1790763748951451600,7.17445166015625,1.9973627349853516,9.425971936035156,1.0455179374694823
1790763748961490700,7.18449072265625,2.4347534507751463,9.513958847045897,1.0091559997558592
1790763748971528400,7.194528564453125,2.3210288719177243,9.386467608642578,1.163133094024658
1790763748981567700,7.204567626953125,1.8677765701293945,9.450662140655517,1.1513117233276366
1790763748991605500,7.21460546875,2.8411691825866696,9.679757312011718,1.1508628105163574
1790763749001644500,7.22464453125,3.6222774742126465,9.759963067626952,1.1017816764831543
1790763749011683600,7.23468359375,2.6405051559448243,9.905560456085205,1.1385925270080566
1790763749021721600,7.2447216796875,2.054524299621582,9.82505542526245,1.1974001052856444
1790763749031760400,7.254760498046875,2.3582886352539063,9.770288062286376,1.3440449569702149
1790763749041798700,7.264798583984375,2.23468797454834,9.655516020202636,1.5976806953430174
1790763749051837400,7.27483740234375,2.2493524597167966,9.555857376098633,1.7688661140441893
1790763749061875500,7.28487548828125,3.206135298156738,9.669581954956055,1.6885107208251953
1790763749071914500,7.29491455078125,4.669591062927246,9.626486325073241,1.4510358436584472
1790763749081953500,7.30495361328125,3.8126165061950683,9.445424824523926,1.2472294273376463
1790763749091991600,7.314991455078125,1.8861819953918455,9.413701652526855,1.0492588775634766
1790763749102030600,7.325030517578125,1.5699977386474608,9.092579354858398,1.0359411308288573
1790763749112068600,7.335068603515625,0.8904933799743652,9.04050546875,1.1608885299682616
1790763749122107400,7.345107421875,1.3142670738220215,9.153332221984863,1.100584575653076
1790763749132145700,7.355145751953125,3.0169933670043942,9.254936154937743,0.8631096984863281
1790763749142184400,7.365184326171875,3.6879683822631835,9.424475559997559,0.8731354179382323
1790763749152223500,7.375223388671875,2.810343836212158,9.432256715393066,1.1345523117065428
1790763749162261500,7.385261474609375,2.080561242675781,9.677363110351562,1.3202525779724121
1790763749172300500,7.395300537109375,3.050362552642822,9.681104050445557,1.4359224456787107
1790763749182338600,7.405338623046875,2.2387281898498532,9.943269132232665,1.3838485595703125
1790763749192377600,7.415377685546875,2.2375310890197753,10.155455254364012,0.9452607429504394
1790763749202416600,7.425416748046875,3.109768681335449,10.009408953094482,0.8442553604125976
1790763749212455000,7.435454833984375,2.6783634696960448,9.747543146514891,0.8239046463012695
1790763749222493700,7.44549365234375,2.4889222633361814,9.363872330474853,1.041328084564209
1790763749232531700,7.45553173828125,2.8830677116394043,9.227851748657226,1.3590087173461913
1790763749242570800,7.46557080078125,4.1362826431274415,9.565733457946777,1.4706383697509764
1790763749252608800,7.47560888671875,5.674856484985352,9.502885664367675,1.5677531745910644
1790763749262647800,7.485647705078125,3.9950247451782226,9.433004903411865,1.4431050506591796
1790763749272686600,7.4956865234375,-0.07811082916259765,9.318681774139403,1.11734398727417
1790763749282724900,7.505724853515625,-1.257105509185791,9.281571648406981,1.272368544769287
1790763749292763600,7.515763671875,2.1425112106323243,9.294141207122802,1.449838742828369
1790763749302802000,7.525802001953125,5.666476779174804,9.53894832687378,0.728435855102539
1790763749312840700,7.5358408203125,4.853944590759277,9.42267990875244,1.1315595596313477
1790763749322878700,7.545878662109375,1.1267711563110352,9.57650736541748,1.1917138763427733
1790763749332917800,7.555917724609375,1.622221262359619,9.65970587310791,1.1379939765930176
1790763749342955800,7.565955810546875,3.9035961692810055,9.31524010925293,1.0230722969055175
1790763749352994600,7.57599462890625,2.598905902099609,9.07163009033203,0.8894459167480468
1790763749363033900,7.586033935546875,1.1345523117065428,8.773402346038818,0.7185597732543945
1790763749373071600,7.596071533203125,4.1566333572387695,9.49360813293457,0.5526116706848144
1790763749383110700,7.606110595703125,9.813832604980469,9.802011234283446,0.3016694091796875
1790763749393148700,7.616148681640625,6.044311728668212,10.451887347412109,0.4186860153198242
1790763749403187700,7.626187744140625,0.5243301635742187,9.768791686248779,0.6657376991271973
1790763749413226800,7.636226806640625,-2.4251766441345213,9.26975027770996,0.617404753112793
1790763749423264800,7.6462646484375,-1.7913117546081543,9.922469505310058,0.7487865692138671
1790763749433303800,7.6563037109375,4.806359832763672,10.59105031890869,-0.13033435287475587
1790763749443341800,7.666341796875,16.264560065460206,10.186280600738526,-0.6693290016174316
1790763749453380900,7.676380859375,6.220884101104736,10.427945330810546,0.10504559783935546
1790763749463418600,7.686418701171875,-2.544886727142334,9.229946675109863,-0.13347674255371092
1790763749473458000,7.6964580078125,-1.6647183418273925,8.70112738342285,-0.05117606048583984
1790763749483496700,7.70649658203125,-1.501014803314209,8.091354148101805,-0.36960488128662106
1790763749493534700,7.71653466796875,-1.835454847717285,7.444919699859619,-1.0211270080566406
1790763749503573800,7.72657373046875,-1.758840394592285,7.990049490356445,-1.1098621070861816
1790763749513611800,7.73661181640625,0.8592191207885742,8.327482286834716,-0.5045779998779296
1790763749523650600,7.746650634765625,15.627702423858642,8.187271852111817,-0.6727706665039062
1790763749533688800,7.756688720703125,9.982474184417724,9.111583330535888,-0.3612251754760742
1790763749543727600,7.7667275390625,-2.085200008392334,9.431658164978026,-0.33099837951660155
1790763749553766700,7.7767666015625,-2.2149358108520505,9.058611618804932,-0.15038579177856445
1790763749563805000,7.786804931640625,-0.7739256866455078,9.833584768676758,0.3580827857971191
1790763749573843700,7.79684375,6.795193224334716,10.529848538970947,-0.736067372894287
1790763749583881700,7.8068818359375,16.10639311828613,10.850222648620605,-0.8391676818847655
1790763749593920800,7.816920654296875,7.1218521133422845,10.826579907226561,-0.529268204498291
1790763749603958800,7.826958740234375,0.1879448303222656,9.72345149230957,-0.694617756652832
1790763749613997800,7.836997802734375,-0.7460930923461914,8.346785537719725,-0.32187048568725585
1790763749624036900,7.847036865234375,-1.2639888389587401,8.110208486175537,-0.41105449752807616
1790763749634074600,7.85707470703125,2.6411037063598632,7.661744587707519,-0.6138134506225585
1790763749644113700,7.86711376953125,5.270984592437744,6.968922482299805,-0.26650457229614255
1790763749654151700,7.877151611328125,2.4078186820983887,7.155520574188232,-0.5161000953674316
1790763749664190700,7.887190673828125,3.634547757720947,7.6847887786865225,-0.8259995727539062
1790763749674228700,7.897228759765625,7.992144416809081,8.323292433929442,-0.5309142181396485
1790763749684267800,7.907267822265625,7.019799267578125,9.150040194702148,-0.16460136413574217
1790763749694306800,7.917306884765625,1.7598878578186035,8.962544277191162,0.10145429534912109
1790763749704344800,7.9273447265625,-1.2077250999450684,9.344419441986084,-0.2558803024291992
1790763749714384000,7.9373837890625,1.539920580291748,9.82610288848877,-0.9075520668029785
1790763749724421600,7.947421630859375,9.203909732055664,10.969633456420897,-1.4374188217163084
1790763749734461000,7.9574609375,12.524368159484862,11.245415560150146,-1.1028291397094725
1790763749744498700,7.967498779296875,4.860528645324707,11.252897440338135,-0.5626373901367188
1790763749754537700,7.977537841796875,-1.3947721046447754,9.98456911087036,-0.10280103378295898
1790763749764576800,7.98757666015625,-1.5679028121948242,9.763704007720946,-0.1140238540649414
1790763749774614800,7.99761474609375,-1.148468608856201,8.892064965820312,-0.7700351089477538
1790763749784653600,8.007653564453125,-0.7987655288696288,7.542932330322265,-1.4959271247863768
1790763749794691800,8.01769189453125,-1.0835258888244628,6.9205895362854,-1.2219406723022461
1790763749804730600,8.027730712890625,7.602338459014892,7.3551371376037595,1.0860697280883789
1790763749814769000,8.037768798828125,23.885453587341306,9.185055393981933,1.33431851272583
1790763749824807700,8.0478076171875,7.184550269317627,11.105055487823485,0.8925883064270019
1790763749834846700,8.0578466796875,-3.722684306335449,9.599252281188964,0.4251204322814941
1790763749844885000,8.067885009765625,-2.6096798095703124,8.888324025726318,1.192611701965332
1790763749854923800,8.077923828125,-1.8321628204345701,10.343848997497558,2.824260133361816
1790763749864961800,8.0879619140625,1.4043489112854004,10.678588317108154,1.4444517890930175
1790763749875000800,8.098000732421875,15.350723219299315,10.410587368774413,0.2995744827270508
1790763749885039900,8.108039794921876,4.304026396942138,10.13884548034668,1.8005892860412596
1790763749895077600,8.11807763671875,-3.975272581481933,8.992172522735595,1.089212117767334
1790763749905116700,8.12811669921875,-2.0971710166931152,9.477896184539794,1.07245270614624
1790763749915154700,8.13815478515625,-1.0146925910949707,10.346392836761474,0.5565022483825683
1790763749925193700,8.14819384765625,6.45446840057373,9.578452654266357,-0.34820670394897457
1790763749935231700,8.158231689453125,11.966070259857178,8.489240536499024,0.5021837982177734
1790763749945270800,8.168270751953125,1.0398317085266113,8.086865019989013,0.19722236175537108
1790763749955309800,8.178309814453126,-4.0447044296264645,6.960842051696777,-0.18749591751098632
1790763749965347800,8.188347900390625,-1.5361796401977539,9.485378064727783,-0.5773018753051757
1790763749975387000,8.198386962890625,13.584400944519043,9.71581997451782,-2.5836428665161133
1790763749985424600,8.208424560546876,13.143718201446532,8.939948999023438,-1.1094131942749024
1790763749995464000,8.2184638671875,-1.7645266235351562,8.901791410064696,-0.47644613037109373
1790763750005501700,8.228501708984375,-2.977189764404297,5.595249279785156,-1.7767969070434568
1790763750015540700,8.238540771484375,-3.4491467666625977,9.909750308990478,-1.5785270820617674
1790763750025579800,8.248579833984374,-1.8224363761901854,11.485733551788329,-2.5377041221618653
1790763750035617800,8.25861767578125,6.097732353210449,12.860304579925536,-3.524564118957519
1790763750045656600,8.268656494140625,22.101623712921143,9.488221179199218,-3.35816710357666
1790763750055694800,8.27869482421875,6.307973186492919,11.85533843307495,-2.2266075439453124
1790763750065733600,8.288733642578125,-1.7631798851013183,11.064802972412108,-3.210175513458252
1790763750075772000,8.29877197265625,-1.0320505531311035,8.93216784362793,-3.4748844345092773
1790763750085810700,8.308810791015626,0.4531026641845703,9.498097261047363,-3.2576106338500974
1790763750095849700,8.318849609375,4.233696723175049,7.338826638793945,-2.5158570320129394
1790763750105887700,8.3288876953125,1.6684592819213866,7.192630699920654,-1.7796400215148924
1790763750115926800,8.3389267578125,1.148468608856201,7.5923127395629875,-1.6799813774108885
1790763750125964500,8.348964599609374,9.010577947998046,7.1495350700378415,-0.9344868354797363
1790763750136003800,8.35900390625,8.111255949401855,7.465868964385986,-0.49455228042602534
1790763750146041900,8.369041748046875,-1.2892775939941405,7.231087564086914,-0.6528688652038573
1790763750156080600,8.37908056640625,-1.4909890838623046,7.658153285217285,0.2214636535644531
1790763750166120000,8.389119873046875,8.20373198852539,8.62526111831665,1.4235025245666504
1790763750176157700,8.39915771484375,8.195352282714843,8.811111022186278,0.6690297264099121
1790763750186196700,8.40919677734375,1.7851766128540039,10.537031143951415,0.5647323165893554
1790763750196234800,8.41923486328125,3.9299323875427246,9.707739543914794,0.7091326042175292
1790763750206273800,8.429273681640625,0.10758943710327148,8.935310233306884,0.3947439987182617
1790763750216313300,8.439313232421876,-1.9994576614379882,9.802310509490967,0.4707599014282226
1790763750226351400,8.449351318359374,6.7286044906616205,9.839719910430908,0.3452139518737793
1790763750236390400,8.459390380859375,13.889212743377685,9.313145182800293,0.4445733207702636
1790763750246428200,8.46942822265625,11.329362255859374,10.308983435821533,0.3312976547241211
1790763750256467500,8.479467529296874,4.210353256988525,10.00387236175537,0.6818985603332519
1790763750266505200,8.489505126953125,1.0057143348693847,9.12968948059082,1.6373346603393553
1790763750276544300,8.499544189453125,0.6419453201293945,7.857620211029052,2.4423849685668944
1790763750286583300,8.509583251953124,4.886266313171387,7.165097380828857,4.105756571960449
1790763750296621300,8.519621337890625,10.474033712768554,6.886921075439453,5.434388855743408
1790763750306660400,8.529660400390625,9.401730644226074,7.421276958465576,4.067898258209229
1790763750316698400,8.539698486328126,3.9481881752014156,7.069478952026366,2.620752992248535
1790763750326737400,8.5497373046875,-0.9111433692932128,6.861333045196533,1.5263035583496092
1790763750336775400,8.559775390625,-1.0634744499206543,7.927949884796142,1.2732663703918456
1790763750346814500,8.569814453125,-0.8934861320495605,7.321917589569091,1.2820949890136717
1790763750356853200,8.579853271484374,-0.3705027069091797,6.268319221496582,1.6795324645996093
1790763750366891300,8.589891357421875,1.0327987411499022,6.120177993774414,2.5986066268920895
1790763750376930300,8.599930419921876,10.148871199798583,9.011326136016844,3.144185330200195
1790763750386968300,8.60996826171875,17.85012011489868,11.68340482635498,1.2847884658813475
1790763750397007000,8.620007080078125,8.213159157562256,12.721889796447753,1.215506255340576
1790763750407045400,8.63004541015625,0.1614589744567871,11.790844625854492,1.8124106567382812
1790763750417084200,8.640084228515626,-2.112583689880371,10.640430728149413,1.223137773132324
1790763750427123200,8.650123291015625,-1.7616835090637206,11.936142739105223,0.971746598815918
1790763750437161200,8.6601611328125,-0.6869862388610839,11.818377944946288,-0.011372457885742187
1790763750447200300,8.6702001953125,3.6973955513000485,12.14952596206665,-1.3456909706115723
1790763750457238300,8.68023828125,14.845097756195068,11.042357331848144,-2.447023734283447
1790763750467277300,8.69027734375,5.796212581634522,10.613795234680175,-1.5466542724609373
1790763750477316400,8.70031640625,-0.9886556480407714,10.586860466003417,-2.8158804275512694
1790763750487354400,8.710354248046874,6.310965938568115,9.910498497009277,-2.9007249488830564
1790763750497393400,8.720393310546875,8.461856855010986,7.888295919799805,-0.6254851837158203
1790763750507431200,8.73043115234375,1.1342530364990233,7.465719326782226,-0.979976667022705
1790763750517470500,8.740470458984374,-1.1080664558410644,6.5948284729003905,-1.6428712516784667
1790763750527508200,8.75050830078125,2.5095722526550293,5.824793363952637,-2.167351052856445
1790763750537547300,8.76054736328125,2.6636989845275876,6.159383045959473,-2.801814492797851
1790763750547586300,8.77058642578125,2.4109610717773435,7.275380294799804,-3.4210148971557617
1790763750557624300,8.780624267578125,7.695263410949707,7.742399256134033,-3.7734114540100094
1790763750567663000,8.7906630859375,5.870881745910644,7.891587947082519,-2.518101596069336
1790763750577701400,8.800701416015626,-1.4851532173156738,8.316708379364012,-1.8559551994323729
1790763750587740200,8.810740234375,-2.4794950942993164,8.787169005584717,-1.8085200790405271
1790763750597778400,8.8207783203125,-0.6444891593933105,9.705794255065918,-1.9150620529174804
1790763750607817500,8.8308173828125,6.332513753509521,10.807426293945312,-2.343474512481689
1790763750617856300,8.840856201171874,11.42123974456787,10.727370175933837,-1.7693150268554687
1790763750627894500,8.85089453125,5.763142671203613,11.285368800354004,-1.1158476112365723
1790763750637933300,8.860933349609375,1.4671967048645018,10.030807130432128,-0.8013093681335449
1790763750647971300,8.870971435546876,-1.271021806335449,9.942371306610108,-0.902763663482666
1790763750658010400,8.88101025390625,2.731185543823242,10.491242037200927,-1.5004162528991698
1790763750668048400,8.89104833984375,9.006388095092772,9.879972425842285,-0.9798270294189453
1790763750678087200,8.901087158203126,4.097825778961181,9.175328949737548,0.03501519927978516
1790763750688126200,8.911126220703125,-2.2067057426452634,8.553734343719482,0.5877765075683593
1790763750698164200,8.921164306640625,-0.10684124908447265,8.06367119140625,1.5897499023437498
1790763750708203300,8.931203369140626,7.9390230674743645,7.779509381866455,1.7969979835510252
1790763750718241300,8.9412412109375,6.532429592132568,7.587524336242676,1.5189713157653808
1790763750728280300,8.9512802734375,-0.28311434631347654,8.17784468307495,1.2732663703918456
1790763750738319400,8.9613193359375,1.8710685974121093,7.434145792388915,1.4519336692810059
1790763750748357400,8.971357421875,3.430741341400146,7.274183193969726,1.382801096343994
1790763750758396400,8.981396484375,0.9744400756835937,7.734468463134765,1.4968249504089355
1790763750768434200,8.99143408203125,1.9117700256347656,8.77729292373657,0.9879074600219726
1790763750778473500,9.001473388671876,4.8707040023803705,8.404096739959716,0.5398924743652344
1790763750788511200,9.01151123046875,2.0780174034118652,9.444826274108886,-0.17552490921020505
1790763750798550300,9.02155029296875,0.3323451179504394,9.744550394439697,-0.42332478103637694
1790763750808589300,9.03158935546875,3.206883486175537,11.441889733886718,-0.36272155151367186
1790763750818627300,9.04162744140625,12.495039189147949,11.49830311050415,-0.15113397979736326
1790763750828666000,9.051666015625,6.005555589294433,11.171045671081542,0.37184944534301756
1790763750838704400,9.061704345703125,-3.268384541320801,10.97412258453369,0.388159944152832
1790763750848743200,9.0717431640625,-2.1639093879699707,10.999560977172852,-0.6341641647338867
1790763750858782200,9.0817822265625,-1.011849476623535,11.75972000427246,-1.4245499877929686
1790763750868820200,9.0918203125,7.310844406890869,12.201599848175048,-1.5333365257263183
1790763750878859300,9.101859375,11.723058791351317,9.671676881408692,-0.5060743759155273
1790763750888897300,9.111897216796875,-0.13123217849731444,9.579500117492675,-0.2932897033691406
1790763750898936300,9.121936279296875,-1.619677423095703,8.284087381744385,-0.6461351730346679
1790763750908974300,9.131974365234376,1.8767548263549803,6.207267079162597,-0.7498340324401855
1790763750919013400,9.142013427734375,-1.9213468322753906,5.767931074523926,-0.7942764007568359
1790763750929052400,9.152052490234375,-1.1231798538208007,6.290465586853027,-0.7212532501220703
1790763750939090200,9.162090087890626,7.278821959686279,5.709422771453857,-0.35015199279785153
1790763750949129200,9.172129150390624,8.978405863189696,5.6955064743041985,0.3790320503234863
1790763750959167200,9.182167236328125,2.130390564727783,7.182904255676269,0.7619546783447265
1790763750969206300,9.192206298828125,2.4907179145812988,7.5056725669860835,1.6888099960327148
1790763750979244300,9.202244384765624,8.10152950515747,9.034669602203369,1.4507365684509277
1790763750989283300,9.212283447265625,6.88901600189209,9.523236378479004,0.7053916641235352
1790763750999322400,9.222322265625,-0.47539866714477536,11.35734448776245,0.15397709426879883
1790763751009360400,9.2323603515625,3.719541916656494,13.239486267852783,-0.8518868782043456
1790763751019399400,9.2423994140625,11.109694253540038,13.732242897033691,-1.2418424736022948
1790763751029437200,9.252437255859375,2.73268191986084,13.631985702514648,0.1815104133605957
1790763751039476500,9.2624765625,-3.386897523498535,14.374188217163086,0.03366846084594726
1790763751049515300,9.272515380859375,4.408323806762695,15.478962645721435,-1.1133037719726562
1790763751059553300,9.28255322265625,17.177947998809813,14.123245955657959,0.2588730545043945
1790763751069592300,9.29259228515625,6.31425796585083,12.865841171264648,0.7817068420410156
1790763751079630300,9.30263037109375,-3.955071504974365,10.671106436920166,0.12285247268676758
1790763751089669000,9.312669189453125,-2.5585037490844726,8.329726850891113,-0.18704700469970703
1790763751099707400,9.322707275390625,-3.091363256072998,8.46544815750122,0.44158056869506834
1790763751109746200,9.33274609375,-2.18336227645874,8.287529046630858,-1.7718588661193846
1790763751119785200,9.34278515625,1.3967173934936523,7.641244235992431,-1.0703577796936035
1790763751129823200,9.3528232421875,17.173009957885743,4.275146339416503,-0.6570587181091309
1790763751139862300,9.3628623046875,5.391891776275634,6.8387377670288085,-1.0854711776733397
1790763751149900300,9.372900390625,-4.303427846527099,6.030245793914794,-0.4782417816162109
1790763751159939300,9.382939208984375,-1.8798972160339353,6.412270596313476,-1.8145055831909178
1790763751169977000,9.39297705078125,-0.23433248748779295,8.078186038970946,-0.725892015838623
1790763751180016400,9.403016357421874,4.318391606903076,6.1358899421691895,0.5779004257202148
1790763751190055400,9.413055419921875,1.3244424308776854,7.91642778930664,0.5226841499328613
1790763751200093200,9.42309326171875,-2.2096984947204588,7.959972332000732,-0.10265139617919922
1790763751210132500,9.433132568359374,-1.04057989654541,8.68212340774536,-0.6881833396911621
1790763751220169200,9.443169189453124,5.014954652404785,11.994202129364012,-1.6823755790710448
1790763751230208500,9.45320849609375,17.671153540802003,10.17715270690918,-0.5942109245300292
1790763751240247600,9.46324755859375,5.312733483886719,12.177059281158446,-0.5461772537231445
1790763751250285300,9.473285400390624,3.1727661125183104,11.965471709442138,-1.1849801841735839
1790763751260324400,9.483324462890625,4.920832599639892,10.930428404235839,-0.3224690361022949
1790763751270362400,9.4933623046875,5.665578953552246,11.225962671661376,-1.0992378372192382
1790763751280401400,9.5034013671875,7.348852358245849,9.197176039886473,-0.9581295768737792
1790763751290439400,9.513439453125,-1.0342951171875,7.117662260437012,-0.10040683212280273
1790763751300478500,9.523478515625,-2.2535423126220704,7.972092977905273,-0.92565821685791
1790763751310517200,9.533517333984374,10.326191760253906,7.311143682098388,-1.1575965026855468
1790763751320555500,9.543555419921875,9.314043008422852,5.7143608123779295,-0.12045827102661132
1790763751330594300,9.55359423828125,-1.4974235008239745,7.479785261535644,-0.6557119796752929
1790763751340632300,9.56363232421875,2.353799507141113,7.3748893013000485,-0.4560954162597656
1790763751350671400,9.57367138671875,10.970680919647217,8.066663943481444,-0.4632780212402344
1790763751360710400,9.58371044921875,5.862801315307617,8.506299223327636,-0.21068974609375
1790763751370748200,9.593748046875,-3.0934581825256346,9.9591307182312,-0.45340193939208984
1790763751380787500,9.603787353515624,2.0205565635681153,10.883292559051513,-0.5904699844360352
1790763751390825200,9.6138251953125,3.1866824096679687,9.06025763244629,0.5716156463623047
1790763751400864300,9.6238642578125,-2.0617069046020506,9.205705383300781,0.4815338088989258
1790763751410902300,9.63390234375,0.4709095390319824,9.957634342193604,0.014215572357177733
1790763751420941300,9.64394140625,13.616722666931151,10.492738413238525,-0.3904045082092285
1790763751430980400,9.65398046875,11.596465378570556,10.708066925048827,0.8789712844848633
1790763751441018400,9.664018310546876,4.313752841186523,11.384728169250488,1.1403881782531737
1790763751451057400,9.674057373046875,9.049633362579344,11.077073255920409,1.5875053382873534
1790763751461095400,9.684095458984375,3.6912604095458983,10.052055670166014,1.7278654106140137
1790763751471134500,9.694134521484376,-2.4717139389038083,9.237877468109131,1.0711059677124022
1790763751481172200,9.704172119140624,-1.9205986442565917,8.23470697250366,1.601870548248291
1790763751491211500,9.71421142578125,-2.0313304710388183,7.173177811431884,1.8350059349060057
1790763751501250300,9.724250244140626,-1.7851766128540039,8.380154723358153,1.5524901390075683
1790763751511288300,9.734288330078124,-0.23313538665771483,7.9472531356811515,0.47884033203125
1790763751521327600,9.74432763671875,6.972962697601318,6.063166066741943,2.1930887207031247
1790763751531365400,9.754365478515625,12.90295129699707,6.2024786758422845,4.0267479171752925
1790763751541404400,9.764404296875,12.463316017150879,9.817723182678222,1.7338509147644041
1790763751551443500,9.774443359375,4.670189613342285,9.843760125732421,2.1390695457458495
1790763751561481500,9.7844814453125,-1.052101992034912,9.406070134735106,2.2800281684875485
1790763751571520300,9.794520263671876,0.4086602958679199,8.709806364440917,2.2922984519958494
1790763751581558500,9.80455859375,-1.1294646331787108,9.08524711227417,2.3855226791381834
1790763751591597300,9.814597412109375,-1.389983701324463,9.475801258087158,2.901772412109375
1790763751601635600,9.824635498046876,-0.7311293319702148,9.482086037445068,3.435380107116699
1790763751611674400,9.83467431640625,1.424250712585449,8.314912728118896,2.907309003448486
1790763751621713400,9.84471337890625,7.366509595489502,8.026860340881347,3.008912936401367
1790763751631751400,9.85475146484375,8.343044597625733,9.814880068206786,2.4869769744873045
1790763751641790500,9.86479052734375,6.131999364471435,9.789292037963866,2.3665187034606934
1790763751651828200,9.874828125,3.1157541854858395,9.165003955078124,2.8829180740356444
1790763751661867300,9.8848671875,-0.8264484855651855,7.994538618469238,2.6515783386230467
1790763751671906600,9.894906494140624,0.838868406677246,9.02733735961914,1.13006318359375
1790763751681944300,9.9049443359375,8.26792652053833,8.432827159881592,0.1619078872680664
1790763751691983400,9.9149833984375,5.238662870025634,7.562834131622314,1.9416975463867185
1790763751702021400,9.925021484375,-0.611568886566162,7.998878108978271,1.7892168281555174
1790763751712060400,9.935060302734374,1.3394061912536621,8.568698104095459,1.378311968231201
1790763751722098400,9.945098388671875,9.984269835662841,9.261370571899414,1.2756605720520018
1790763751732137500,9.955137451171876,6.496815842437743,8.38943225479126,1.5249568199157715
1790763751742176300,9.96517626953125,-3.5794811195373533,8.645761470031738,1.8869301834106444
1790763751752214500,9.975214599609375,-2.5637410652160644,9.182661192321778,1.0630255371093749
1790763751762253300,9.98525341796875,2.03656778717041,9.998934320831298,1.209071838378906
1790763751772291300,9.995291259765626,11.01856495285034,9.229946675109863,1.6766893501281737
1790763751782330400,10.005330322265625,6.9527616210937495,10.153958878326415,0.5279214660644531
1790763751792368400,10.015368408203125,3.468599655151367,11.665897226715087,0.17268179473876952
1790763751802407200,10.0254072265625,7.03581049118042,10.513089127349852,1.098788924407959
1790763751812446500,10.035446533203125,3.1501708343505856,10.077494062805176,1.4140753555297851
1790763751822484500,10.045484375,-2.17079271774292,7.99304224243164,1.2829928146362304
1790763751832523300,10.055523193359376,-2.7823616043090817,8.106617183685302,1.2089222007751463
1790763751842561500,10.0655615234375,-1.2996025886535645,9.518298337554931,0.4514566505432129
1790763751852600300,10.075600341796875,1.4959271247863768,9.636661682128906,-0.5280711036682129
1790763751862639400,10.085639404296876,9.277531433105468,7.704391304779052,-0.7439981658935546
1790763751872677400,10.095677490234374,4.301632195281982,10.030657492828368,0.9267056800842285
1790763751882716400,10.10571630859375,6.824222919464111,10.353575441741942,-0.5392939239501953
1790763751892754400,10.11575439453125,5.482572164154052,9.338134662628173,1.1201871017456053
1790763751902793500,10.12579345703125,-2.0503344467163083,8.633042273712158,1.5028104545593262
1790763751912831200,10.135831298828125,0.6067804832458495,10.669610060882567,0.6356605407714844
1790763751922870300,10.145870361328125,12.426205891418457,10.32978306274414,0.5187935722351074
1790763751932909600,10.15590966796875,4.182969575500488,9.470863217163085,0.7200561492919921
1790763751942947300,10.165947265625,-3.9733272926330563,9.444975911712646,-0.06404489440917968
1790763751952986400,10.175986328125,-0.8325836273193359,9.897629663085937,-1.5421651443481443
1790763751963024400,10.1860244140625,1.8160019592285155,7.962366533660888,-1.5812205589294432
1790763751973063400,10.1960634765625,-0.869544115447998,7.443423323822021,-0.9539397239685058
1790763751983102200,10.206102294921875,-0.8072948722839355,8.055590760803222,0.14454992523193358
1790763751993140500,10.216140380859375,9.738415252685547,6.636876639556885,0.2753331909179687
1790763752003179300,10.22617919921875,6.691344727325439,6.567893704223632,1.0524012672424317
1790763752013217500,10.236217529296875,2.160617360687256,8.840739267730712,0.5379471855163573
1790763752023256300,10.24625634765625,11.750442472839355,8.74018279800415,-0.030226795959472655
1790763752033294300,10.25629443359375,3.552695988464355,9.731083010101317,0.7863456077575683
1790763752043333400,10.26633349609375,-3.2187048568725585,9.726294606781005,-0.05027823486328125
1790763752053372400,10.276372314453125,0.04279635467529297,10.715698442840576,-0.9141361213684082
1790763752063410200,10.28641015625,5.322759203338623,10.841842942810057,-1.6358382843017578
1790763752073449500,10.296449462890624,4.9260699157714845,10.606762267303466,-1.6539444343566894
1790763752083487200,10.3064873046875,1.4903905334472656,11.093234117126464,-0.5744587608337401
1790763752093526300,10.3165263671875,8.70172593383789,11.148450392913817,0.20380641632080077
1790763752103565600,10.326565673828124,10.89750813140869,10.440065976715088,1.0351929428100586
1790763752113603300,10.336603271484375,4.55182626876831,11.546486418914794,0.28580782318115233
1790763752123642400,10.346642333984375,7.746439471435546,11.106551863861084,0.1304839904785156
1790763752133680400,10.356680419921876,3.548506135559082,10.824335343170166,-0.017208324432373044
1790763752143719400,10.366719482421875,-0.6714239280700683,10.007613301849364,-0.5370493598937988
1790763752153757400,10.37675732421875,-1.9409493583679198,9.237428555297852,-1.4637550399780273
1790763752163796500,10.38679638671875,1.2087725631713866,9.515904135894775,-0.8843582382202148
1790763752173835300,10.396835205078125,7.981370509338379,8.922890312194824,-0.1788169364929199
1790763752183873500,10.40687353515625,8.660575592803955,8.60670605545044,0.06763619689941405
1790763752193912300,10.416912353515626,5.980865384674072,8.384943126678467,-0.261117618560791
1790763752203950300,10.426950439453124,0.6500257507324219,7.177218026733398,-0.025737667846679687
1790763752213990000,10.436989990234375,-2.927809355163574,6.559214723205566,-0.10654197387695312
1790763752224028200,10.447028076171875,-2.561346863555908,7.528567120361328,0.4745008415222168
1790763752234067000,10.45706689453125,-0.9917980377197265,8.186822939300537,-0.6708253776550293
1790763752244106000,10.46710595703125,10.71869119491577,8.284985207366942,0.3547907585144043
1790763752254144000,10.47714404296875,11.837980471038817,9.616460605621338,1.1960533668518065
1790763752264183000,10.48718310546875,8.092700886535644,11.907711594390868,-0.2861070983886719
1790763752274221000,10.497220947265625,3.500622102355957,9.835530057525634,0.9320926338195801
1790763752284260000,10.507260009765625,-1.7422306205749511,9.00833338394165,0.7751227874755859
1790763752294299100,10.517299072265626,-1.8219874633789062,8.182932361602782,0.16998831787109375
1790763752304337200,10.527337158203125,-2.2200234893798827,6.867617824554443,-0.5931634613037109
1790763752314376200,10.537376220703125,-2.1978771240234374,7.7979148071289055,-1.4998177024841308
1790763752324414000,10.5474140625,-0.687584789276123,9.44303062286377,-2.2628198440551754
1790763752334453000,10.557452880859374,20.861127977752684,7.4821794631958,-0.6401496688842773
1790763752344492000,10.567491943359375,24.589498513031003,7.717559413909911,-0.8578723823547363
1790763752354530000,10.577530029296875,-4.491073401641845,10.853963588714599,-0.45280338897705075
1790763752364568800,10.58756884765625,-3.8634932914733886,8.180987072753906,-0.201112939453125
1790763752374607000,10.597607177734375,-1.7835305992126465,8.742576999664307,-0.6247369956970215
1790763752384646000,10.60764599609375,1.399560507965088,10.51473514099121,-1.7491139503479003
1790763752394684200,10.61768408203125,19.169025954437256,11.461192984771728,-2.067842046356201
1790763752404723000,10.627722900390625,12.201150935363769,10.362254422760008,-0.824203921508789
1790763752414762000,10.637761962890625,-4.371363318634033,12.075455348205566,-0.8526350662231444
1790763752424800300,10.64780029296875,-0.9102455436706542,10.270227296447754,-1.216254443359375
1790763752434839000,10.657839111328125,-1.1477204208374023,10.034697708129881,-0.8611644096374511
1790763752444877000,10.667876953125,-1.792658493041992,9.958681805419921,-1.208473287963867
1790763752454916000,10.677916015625,1.7272668601989745,9.232640151977538,-2.2457611572265623
1790763752464954000,10.6879541015625,17.343896101379393,8.729259252929687,-1.1671733093261718
1790763752474993000,10.697992919921875,16.141109042358398,9.348609294891357,-1.2594997108459471
1790763752485032200,10.7080322265625,5.035604641723633,9.228599936676025,-1.092354507446289
1790763752495070000,10.718070068359374,-1.4493898300170898,7.081898873138427,-0.7064391273498535
1790763752505109000,10.72810888671875,-1.802983487701416,7.53320588607788,-0.21083938369750976
1790763752515147000,10.73814697265625,-1.6283564041137695,6.989722109222412,0.5853823059082031
1790763752525186000,10.74818603515625,-1.4158710067749023,4.953603234863281,0.43724107818603514
1790763752535225000,10.75822509765625,-2.111985139465332,4.562450538635254,-0.778265177154541
1790763752545263000,10.76826318359375,-2.8028619560241697,5.846640454101562,-0.4390367294311523
1790763752555302100,10.77830224609375,-2.4691700996398924,7.738059765625,-0.5069722015380859
1790763752565340200,10.788340087890624,-1.942146459197998,8.48400322036743,-0.946757118988037
1790763752575379200,10.798379150390625,2.9577368759155274,9.453355617523194,0.261117618560791
1790763752585417000,10.8084169921875,25.081506954193113,7.944559658813476,-0.10609306106567382
1790763752595456000,10.8184560546875,9.571419686889648,10.606462992095947,1.093701245880127
1790763752605495000,10.8284951171875,-5.380668955993652,9.53820013885498,0.9276035057067871
1790763752615533000,10.838532958984375,-3.023577421569824,9.258527457427977,0.026036943054199218
1790763752625571800,10.84857177734375,-1.9322703773498533,11.903671379089355,-0.2332850242614746
1790763752635610000,10.858610107421875,19.065476732635496,10.449493145751953,0.7410054138183594
1790763752645649000,10.86864892578125,21.049671358489988,9.73572177581787,1.498470964050293
1790763752655688000,10.87868798828125,-3.19835414276123,11.968015548706054,0.46941316299438474
1790763752665726000,10.888725830078124,-3.2561142578125,10.298808078765868,-1.0025719451904296
1790763752675765000,10.898764892578125,-1.176001927947998,11.818527582550049,-0.06853402252197265
1790763752685803000,10.908802978515626,9.994894105529784,12.573748568725586,-0.08783727340698241
1790763752695842000,10.918842041015624,19.353080207061765,11.105953313446044,0.8304887008666991
1790763752705881000,10.928881103515625,1.6536451591491699,11.654225493621826,1.4472949035644531
1790763752715919000,10.938919189453125,-4.045153342437744,10.913519355010985,1.0356418556213378
1790763752725958100,10.948958251953124,-0.42063130416870115,10.812364334869384,0.6844423995971679
1790763752735996000,10.958995849609375,-0.9775824653625488,8.213159157562256,-0.22864625854492185
1790763752746035200,10.96903515625,-2.4232313552856444,6.325480786132812,-0.7097311546325683
1790763752756073000,10.979072998046876,-1.432031867980957,7.295132458496093,0.39743747558593745
1790763752766112000,10.989112060546875,-1.9418471839904785,7.1136220451354975,-0.3752911102294922
1790763752776151000,10.999151123046875,1.1843816337585449,6.976105087280273,-0.14305354919433594
1790763752786189000,11.00918896484375,18.040758422088622,5.381117868804932,1.6150386573791502
1790763752796227800,11.019227783203124,16.6881841217041,8.194753732299803,-0.46402620925903315
1790763752806266000,11.02926611328125,0.9400234268188477,8.865279834747314,0.45459904022216796
1790763752816305200,11.03930517578125,-1.31516489944458,5.679644888305663,0.019003975677490233
1790763752826343200,11.04934326171875,-2.8815713356018064,6.3609448982238765,-0.11596914291381835
1790763752836382200,11.05938232421875,-1.67908355178833,8.779836763000487,1.69180274810791
1790763752846421000,11.0694208984375,-3.0927099945068357,8.850914624786377,0.8851064262390136
1790763752856459300,11.079459228515624,-1.357362703704834,10.165480973815917,0.06569090805053711
1790763752866498000,11.089498046875,0.5446808776855468,10.5980832862854,1.1568483146667479
1790763752876536000,11.0995361328125,19.4470526222229,11.643002673339844,-1.1336544860839843
1790763752886575000,11.1095751953125,21.76419091644287,11.91878477706909,0.22610241928100586
1790763752896614100,11.1196142578125,-2.8143840515136715,12.445958055114746,0.7785644523620605
1790763752906652000,11.12965185546875,-2.9876643966674803,11.941230417633056,-1.3494319107055663
1790763752916691000,11.13969091796875,1.012448027038574,11.84935292892456,0.723348176574707
1790763752926729000,11.14972900390625,12.159850956726073,8.97047507019043,3.130119395446777
1790763752936768000,11.15976806640625,5.4896051315307615,8.627056769561767,1.802235299682617
1790763752946806000,11.169805908203125,-3.9719805541992184,7.950245887756347,1.0064625228881836
1790763752956845000,11.179844970703124,-2.307112574768066,6.052691434478759,0.9431658164978027
1790763752966884000,11.189884033203125,-2.5239374626159665,7.6101196144104,2.403179916381836
1790763752976922000,11.199922119140625,5.429151539611816,6.566397328186035,1.9372084182739258
1790763752986961200,11.209961181640624,20.437354283905027,6.813000099182129,2.416946575927734
1790763752996999000,11.2199990234375,6.5880947807312005,8.109909210968016,2.320879234313965
1790763753007038200,11.2300380859375,-5.051166952514648,7.7227967300415035,1.8013374740600585
1790763753017077000,11.240076904296876,-1.8360533981323242,8.454674250030518,1.8710685974121093
1790763753027115000,11.250114990234374,4.615272612762451,9.631424365997313,1.3582605293273926
1790763753037154000,11.260154052734375,18.47021834487915,10.147674098968505,1.2442366752624512
1790763753047192000,11.270192138671876,8.45886410293579,10.916212831878662,1.9660884757995605
1790763753057230800,11.28023095703125,-3.0955531089782715,8.968080868530272,1.3193547523498534
1790763753067269000,11.29026904296875,-2.9085061042785645,9.143905052947998,0.5380968231201172
1790763753077308000,11.300307861328125,-2.173186919403076,9.398737892150878,-0.21398177337646482
1790763753087347000,11.310346923828124,-4.088697885131836,10.22713166656494,-1.2214917594909667
1790763753097385000,11.320385009765625,-2.416946575927734,12.068572018432617,-1.019032081604004
1790763753107424000,11.330424072265625,6.634482437896728,11.059266381072998,1.1041758781433104
1790763753117462300,11.340462158203126,33.45328197174072,6.572831745147704,2.0691887847900388
1790763753127501000,11.3505009765625,6.460453904724121,12.829479233551025,1.4462474403381347
1790763753137540000,11.3605400390625,-5.926696572113037,9.854534033203125,-0.45938744354248046
1790763753147578000,11.370578125,-1.9832968002319336,9.11652137145996,-0.09831190567016601
1790763753157617200,11.3806171875,-3.0903157928466793,9.66673884048462,3.4843116035461423
1790763753167655000,11.390655029296875,0.713771369934082,9.9721491897583,2.8049568824768065
1790763753177694200,11.400694091796876,14.54896493835449,6.567594429016113,2.967612957763672
1790763753187733000,11.41073291015625,4.703708436584472,5.166986457824707,1.3673884231567381
1790763753197771000,11.42077099609375,-4.66659831085205,6.664858871459961,0.042646717071533204
1790763753207810000,11.43081005859375,-1.5447089836120604,7.043591646575927,-0.4783914192199707
1790763753217847800,11.440847900390626,13.9177935256958,8.825775507354736,2.3081600379943845
1790763753227886800,11.450886962890625,21.442619705963132,7.3097969436645505,5.111770182037353
1790763753237924900,11.4609248046875,-0.18899229354858396,10.505607247161864,2.3136966293334957
1790763753247964000,11.4709638671875,-3.2570120834350584,8.542960436248778,0.8059481338500976
1790763753258002700,11.481002685546875,-1.8333599212646483,8.425644554901123,0.206200617980957
1790763753268041000,11.491041015625,-2.238279277038574,9.3715038482666,-1.2376526206970213
1790763753278079700,11.501079833984376,-0.9012672874450683,9.504681315612793,-2.2622212936401365
1790763753288117800,11.51111767578125,5.255272644042968,10.267234544372558,-2.466326985168457
1790763753298156800,11.52115673828125,17.138294033813477,8.575431796264647,-4.320486533355712
1790763753308194800,11.53119482421875,7.068730764007568,7.977031018829345,-1.396867031097412
1790763753318233900,11.54123388671875,-4.956895262145996,8.40140326309204,-1.1112088455200195
1790763753328273000,11.55127294921875,-3.2888848930358883,8.442703241729737,-0.8432078971862792
1790763753338310700,11.561310546875,8.85495484008789,10.107870496368408,-1.1695675109863282
1790763753348349700,11.571349609375,22.195745765686034,8.200290323638916,-1.077690022277832
1790763753358387700,11.5813876953125,3.5494039611816404,11.583147631835937,-1.5351321769714354
1790763753368426800,11.5914267578125,-4.140472496032714,9.791985514831543,-1.4673463424682616
1790763753378465800,11.6014658203125,-2.351854218292236,9.15587606124878,-1.7552490921020507
1790763753388503800,11.61150390625,-3.0111575004577635,11.349413694763182,-1.6883610832214355
1790763753398542800,11.62154296875,1.0365396812438965,11.433061115264891,-2.018760912322998
1790763753408580900,11.631580810546875,9.382577030944823,9.88341409072876,-1.6632219657897949
1790763753418620000,11.641619873046874,8.684816884613037,10.898705232238768,0.10519523544311522
1790763753428657700,11.65165771484375,6.995557975769042,9.572616787719726,-0.32875381546020505
1790763753438697000,11.661697021484375,-2.3713071067810056,6.684910310363769,-1.2972083869934081
1790763753448735700,11.67173583984375,-3.125929542541504,7.02309129486084,0.1571194839477539
1790763753458773800,11.681773681640625,-3.342305517578125,6.781426564788818,0.7134720947265625
1790763753468812800,11.691812744140625,-2.139967371368408,6.121375094604492,-1.1519102737426756
1790763753478850800,11.701850830078126,-1.8445827415466307,7.499537425231933,-1.30229606552124
1790763753488889600,11.7118896484375,7.44402187423706,9.338284300231933,0.486471849822998
1790763753498929000,11.721928955078125,24.367137033843992,5.881805290985107,2.140565921783447
1790763753508966700,11.731966552734375,2.909852842712402,11.073930866241454,0.9243114784240722
1790763753519005700,11.742005615234374,-4.120720332336425,8.833855937957763,0.20470424194335937
1790763753529044000,11.7520439453125,-1.3614029190063475,8.831012823486327,0.3781342247009277
1790763753539082800,11.762082763671875,0.1261444999694824,10.420313813018797,0.7056909393310546
1790763753549121000,11.77212109375,6.868066737365722,10.454580824279784,-0.15382745666503905
1790763753559159800,11.782159912109375,11.933598899841307,11.597662479400634,-0.3203741096496582
1790763753569198800,11.79219873046875,10.57967786102295,10.465504369354248,0.2255038688659668
1790763753579236900,11.80223681640625,-2.20251588973999,8.584858965301514,0.5300163925170898
1790763753589276000,11.81227587890625,-3.432836267852783,8.66371798248291,0.7386112121582031
1790763753599313700,11.822313720703125,-3.8488288063049314,8.853757739257812,1.6386813987731932
1790763753609352700,11.832352783203126,-2.6714801399230956,8.774150534057616,-0.43724107818603514
1790763753619391700,11.842391845703125,2.1282956382751466,8.671050225067138,0.7776666267395019
1790763753629429800,11.8524296875,16.256030722045896,6.079775840759277,1.984942813873291
1790763753639468800,11.86246875,11.106252588653565,9.119514123535156,0.6905775413513183
1790763753649506800,11.8725068359375,2.4061726684570313,10.716596268463134,-0.2642600082397461
1790763753659545900,11.8825458984375,6.27595073928833,10.745476325988768,0.19378069686889648
1790763753669584600,11.892584716796875,11.168501831817625,10.680683243560791,0.843357534790039
1790763753679623000,11.902622802734374,5.404012422180175,11.043404795074462,1.0277110626220702
1790763753689661700,11.91266162109375,0.033518823242187495,10.638635076904297,1.3099275833129882
1790763753699700000,11.922699951171875,-1.1788450424194334,7.223904959106445,0.3363853332519531
1790763753709738800,11.93273876953125,-4.164264875030518,9.313294820404051,0.9699509475708007
1790763753719776800,11.94277685546875,-0.725892015838623,8.539069858551025,0.1427542739868164
1790763753729815800,11.95281591796875,-1.8659809188842773,6.175543907165527,-1.516277838897705
1790763753739854800,11.962854736328126,-2.788197470855713,11.599607768249511,0.39863457641601563
1790763753749892600,11.972892578125,1.9672855766296387,9.854534033203125,1.0109516510009764
1790763753759932000,11.982931884765625,27.104308081817624,6.359747797393799,4.383035051727295
1790763753769969700,11.9929697265625,10.835857438659668,8.403947102355957,2.1773767723083495
1790763753780008700,12.0030087890625,-5.856666173553466,8.244882329559326,0.6109703361511231
1790763753790048000,12.013048095703125,-2.8206688308715817,6.785317142486572,-0.2066495307922363
1790763753800085800,12.023085693359375,-3.7283705352783203,11.51715744857788,0.10384849700927734
1790763753810124800,12.033124755859374,-0.9370306747436523,9.928155734252929,-0.37125089492797847
1790763753820162800,12.043162841796875,18.165256908416747,10.172663578796387,3.350385948181152
1790763753830201900,12.053201904296875,21.095759740447996,10.678887592315673,2.9984383041381832
1790763753840239900,12.063239990234376,-2.193537633514404,10.167276625061035,0.921917276763916
1790763753850279000,12.07327880859375,-3.1413422157287596,6.902333748626709,-0.19183540802001953
1790763753860317700,12.083317626953125,-2.8616695343017575,7.483376564025878,0.8714894042968749
1790763753870356000,12.09335595703125,-3.766228849029541,7.0287775238037105,0.7769184387207031
1790763753880394800,12.103394775390624,-2.6910826660156246,7.856572747802734,-1.130661734008789
1790763753890432800,12.113432861328125,1.1561001266479491,7.803451398468017,1.8089689918518066
1790763753900471800,12.123471923828125,26.94105345611572,5.7207952293396,4.50738390045166
1790763753910510800,12.1335107421875,20.792444317626952,9.82565397567749,1.890371848297119
1790763753920548900,12.143548828125,-1.534832901763916,10.634145948791502,1.2514192802429198
1790763753930587600,12.153587646484375,-0.7486369316101074,7.241113283538818,0.23358429946899412
1790763753940626000,12.1636259765625,-0.3898059577941894,6.89530078125,0.3904045082092285
1790763753950664700,12.173664794921875,-2.4455273582458497,6.2678703086853025,0.9829694190979004
1790763753960703000,12.183702880859375,-1.5351321769714354,5.916820490264892,-1.4628572143554686
1790763753970741800,12.19374169921875,-5.148132119750977,11.650185278320311,-1.6678607315063476
1790763753980780800,12.20378076171875,-3.3877953491210935,13.849109865570068,1.0836755264282225
1790763753990818800,12.21381884765625,41.180268554687494,12.739247758483886,6.757035635375976
1790763754000857900,12.22385791015625,40.32314436035156,15.418808329010009,-0.3224690361022949
1790763754010895600,12.2338955078125,-5.276521183776855,15.866972952270507,2.634818927001953
1790763754020935000,12.243934814453125,-1.3429974937438964,3.2152631919860837,-1.2553098579406738
1790763754030974000,12.253973876953125,-6.673238577270507,9.540145427703857,0.14514847564697264
1790763754041011700,12.26401171875,-1.9704279663085937,11.83004967803955,0.10085574493408203
1790763754051051000,12.274051025390625,-1.2719196319580077,3.990984529876709,-3.2350153556823726
1790763754061088800,12.2840888671875,-6.2289645317077635,11.739518927764891,-0.9914987625122069
1790763754071127800,12.2941279296875,-3.67105933303833,10.020482135772705,1.4547767837524412
1790763754081165800,12.304165771484374,-1.2719196319580077,3.4482489410400388,-0.8054992210388183
1790763754091204900,12.314204833984375,-1.5927426544189451,8.854057014465331,0.17253215713500974
1790763754101243600,12.32424365234375,-1.4366706336975097,7.511059520721435,-0.3203741096496582
1790763754111282000,12.334281982421874,-1.5879542510986326,6.343886211395263,-1.4086884017944334
1790763754121320700,12.34432080078125,-1.465849966430664,9.141061938476563,0.03486556167602539
1790763754131359000,12.35435888671875,-0.5161000953674316,8.367585164642334,0.5163993705749511
1790763754141397800,12.364397705078124,-0.01945288848876953,6.889913827514648,0.7445967163085937
1790763754151436800,12.374436767578125,0.047884033203124995,7.949348062133788,1.0034697708129883
1790763754161474800,12.384474853515625,0.3203741096496582,8.3639938621521,0.7882908966064452
1790763754171513900,12.394513916015624,0.7969698776245117,8.725069400024413,0.5002385093688965
1790763754181551600,12.404551513671874,27.235091347503662,7.37399147567749,0.20530279235839843
1790763754191591000,12.4145908203125,30.826693112945556,8.467393446350098,-0.30092122116088865
1790763754201628700,12.424628662109376,0.3736450965881347,13.051242162322998,0.5514145698547362
1790763754211667700,12.434667724609374,-0.9970353538513183,9.543437454986572,-1.0313023651123046
1790763754221706500,12.44470654296875,-0.21173720932006834,8.75379981994629,-1.2440870376586914
1790763754231744300,12.454744140625,-1.9614497100830077,10.726173075103759,-1.290923607635498
1790763754241783300,12.464783203125,-1.591695191192627,8.868871137237548,-2.2852654846191407
1790763754251821300,12.4748212890625,-2.0419547409057617,9.07866305770874,-0.4433762199401855
1790763754261860400,12.4848603515625,-2.151040554046631,10.111162523651123,-0.6688800888061524
1790763754271899400,12.4948994140625,-0.6302735870361328,10.665270570373535,-2.1823148132324217
1790763754281937400,12.5049375,3.2282816635131835,9.472808506011962,-0.7483376564025879
1790763754291976400,12.5149765625,21.919814024353027,6.403741252899169,-1.8347066596984862
1790763754302014500,12.525014404296876,11.40881982345581,11.036072552490234,-2.919728924560547
1790763754312053500,12.535053466796874,-1.1596914291381835,8.31910258102417,-1.2375029830932616
1790763754322091300,12.54509130859375,-1.5587749183654784,6.050596508026123,-1.1112088455200195
1790763754332130600,12.555130615234376,-1.839943975830078,9.695020347595214,-1.8222867385864256
1790763754342169300,12.56516943359375,-0.11162965240478515,10.708665475463867,-2.184110464477539
1790763754352207400,12.575207275390625,14.138060078430176,7.088482927703857,-0.4930559043884277
1790763754362246400,12.585246337890625,7.689427544403076,9.597157354736327,-2.2405238410949706
1790763754372284400,12.595284423828126,-2.3319524169921872,11.713332347106933,-2.159869172668457
1790763754382323200,12.6053232421875,0.08708908538818359,8.213159157562256,-2.090886237335205
1790763754392362200,12.6153623046875,-1.1851298217773436,9.966313323211669,-2.0591630653381348
1790763754402400500,12.625400390625,-0.5762544120788574,11.335796672821044,-1.490689808654785
1790763754412439300,12.635439208984375,9.056666329956053,9.9721491897583,-0.33907881011962887
1790763754422477600,12.6454775390625,14.729577526092529,9.010129035186766,-0.07422025146484375
1790763754432516400,12.655516357421876,5.262904161834716,10.54690722579956,-0.8949825080871582
1790763754442554400,12.665554443359374,0.22490531845092773,7.340323014831543,-0.40970775909423823
1790763754452593400,12.675593505859375,-2.6433482704162596,5.84783755493164,-0.3618237258911133
1790763754462632400,12.685632568359376,-1.2609960868835448,8.7332994682312,-0.1183633445739746
1790763754472670200,12.695670166015624,-2.2554876014709473,5.894374849700927,-2.293345915222168
1790763754482709500,12.70570947265625,-2.4986487075805663,9.117119921875,-2.0115783073425293
1790763754492747300,12.715747314453125,-2.3645734146118165,9.037662354278565,-1.4755764106750486
1790763754502786300,12.725786376953126,13.019967903137207,7.6087728759765625,2.5152584815979004
1790763754512825600,12.73582568359375,31.833903823852538,6.16117869720459,0.8065466842651366
1790763754522863400,12.74586328125,-0.27832594299316404,13.040917167663574,-1.5068506698608397
1790763754532902400,12.75590234375,-5.170577760314941,8.81709652633667,0.7119757186889648
1790763754542940400,12.7659404296875,-2.446275546264648,10.678588317108154,0.8239046463012695
1790763754552979500,12.7759794921875,-0.8168716789245605,10.123432807159423,1.1704653366088866
1790763754563017500,12.786017578125,-0.512059880065918,7.8261963142395015,0.49021278991699213
1790763754573056500,12.796056396484374,-0.5428852264404297,10.01719010848999,1.0335469291687012
1790763754583095300,12.80609521484375,10.48974566116333,9.573664250946045,-1.5891513519287108
1790763754593133600,12.816133544921875,19.410840322113035,7.848941230010986,-0.6838438491821288
1790763754603172400,12.82617236328125,3.6246716758728024,11.116577583312989,-1.030404539489746
1790763754613210400,12.83621044921875,2.114080065917969,9.041104019165038,-0.390703783416748
1790763754623249400,12.84624951171875,0.3504512680053711,7.665036614990234,0.4382885414123535
1790763754633288400,12.856288330078126,-1.3907318893432616,9.365069431304931,-0.17073650588989256
1790763754643326200,12.866326171875,5.379920767974853,9.062502196502685,-1.4363713584899902
1790763754653365200,12.876365234375,9.733926124572754,8.162132734680176,-0.9798270294189453
1790763754663403300,12.8864033203125,5.500528676605224,9.02105258026123,-1.3920786277770996
1790763754673442300,12.8964423828125,-1.0242693977355957,8.17784468307495,-0.25842414169311523
1790763754683481300,12.9064814453125,-2.277185054016113,8.424597091674805,-0.7917325614929199
1790763754693519400,12.916519287109375,-1.3346177879333496,9.658059859466553,-1.6490063934326171
1790763754703558400,12.926558349609374,7.822605011749267,9.236530729675293,-0.12898761444091797
1790763754713596400,12.936596435546875,12.032060443115233,9.835081144714355,1.0209773704528808
1790763754723635500,12.946635498046875,7.489960618591308,12.689867349243164,1.049558152770996
1790763754733673200,12.956673095703126,8.60580822982788,10.45098952178955,1.1966519172668457
1790763754743712500,12.96671240234375,-1.284489190673828,9.303119463348388,1.1655272956848144
1790763754753751300,12.976751220703125,-3.3815105697631833,10.300005179595948,1.8966566276550292
