time,seconds_elapsed,z,y,x
1790763741841642200,0.064642333984375,8.733606342223286,4.458359465041756,-0.13243860427816398
1790763741851681000,0.074680908203125,8.72792946563065,4.469090117892622,-0.14446736151501535
1790763741861719000,0.084718994140625,8.719773631703854,4.48416435290575,-0.16794780675312504
1790763741871758000,0.094758056640625,8.710311391353606,4.500416399526596,-0.21704346250202505
1790763741881796000,0.104796142578125,8.700067060714959,4.51638173816055,-0.285504456320405
1790763741891835000,0.1148349609375,8.689593012973665,4.529895007467269,-0.37603502393197263
1790763741901873200,0.124873046875,8.676448869240284,4.543553530463576,-0.49572428334746504
1790763741911912000,0.134911865234375,8.657949335953592,4.562203870397806,-0.6297578195337206
1790763741921951000,0.144950927734375,8.632581085941196,4.588836148996651,-0.7690983395542949
1790763741931989000,0.154989013671875,8.602222188034654,4.620443585659563,-0.9075576197609305
1790763741942028000,0.165028076171875,8.570273390588163,4.652870229750872,-1.0351816176984459
1790763741952066000,0.175066162109375,8.539289054259658,4.68446656049788,-1.1431127809114754
1790763741962105000,0.18510498046875,8.51199655818641,4.716028988975286,-1.2146480310760437
1790763741972142800,0.195142822265625,8.490447574201225,4.749363980083167,-1.2354055724225939
1790763741982182100,0.20518212890625,8.478635555854439,4.781513560798764,-1.1917441984158008
1790763741992221200,0.21522119140625,8.47296277091503,4.809857611751556,-1.1155985318463295
1790763742002259000,0.225259033203125,8.467066114091873,4.836126317735016,-1.044536671347171
1790763742012298000,0.235298095703125,8.46210819942355,4.859335343886912,-0.9746646051544695
1790763742022336000,0.2453359375,8.456499127370119,4.882065646611154,-0.9074391810130328
1790763742032375000,0.255375,8.44795575543046,4.907041974696517,-0.8505085755884647
1790763742042413000,0.2654130859375,8.433905018246174,4.937004566761851,-0.8158495693352072
1790763742052452000,0.2754521484375,8.410408991846442,4.977226687034964,-0.8140158511020242
1790763742062491000,0.285490966796875,8.375336509421468,5.031721078288554,-0.8401834347985684
1790763742072529200,0.295529052734375,8.329120117169618,5.098807824611663,-0.8934764874383807
1790763742082568000,0.30556787109375,8.273616256612538,5.172016853207349,-0.9838224557306617
1790763742092606000,0.31560595703125,8.213032316312193,5.244424502292275,-1.1011372410997748
1790763742102645200,0.325645263671875,8.15167972972691,5.311297313603759,-1.2290743235744535
1790763742112683000,0.33568310546875,8.093767054462432,5.369623245844244,-1.3522070745073258
1790763742122722000,0.34572216796875,8.041606659114361,5.4204772347688674,-1.456493232281506
1790763742132760000,0.355760009765625,7.995097421395778,5.467043171110749,-1.536306189186871
1790763742142799000,0.365799072265625,7.95318837094903,5.512690239042043,-1.5897884807884692
1790763742152838000,0.375837890625,7.913942402231693,5.560146402221918,-1.6200824967652558
1790763742162876200,0.385876220703125,7.874753716659545,5.613161368572712,-1.6282048668138682
1790763742172915000,0.3959150390625,7.832006461822986,5.677397986161709,-1.6115841330111025
1790763742182953200,0.405953125,7.780179243952036,5.756906991684437,-1.5802590204209088
1790763742192992000,0.415991943359375,7.7147461100548504,5.850050554805994,-1.5588428690351546
1790763742203029500,0.426029541015625,7.6386080422699445,5.951528815552592,-1.5496302195318041
1790763742213068500,0.436068603515625,7.553111194509268,6.05886398563385,-1.5527607726424932
1790763742223107600,0.446107666015625,7.463482946032285,6.168640703648329,-1.5539222176373004
1790763742233145600,0.4561455078125,7.374965289145708,6.276897080227732,-1.5429960422143338
1790763742243184600,0.4661845703125,7.290521749830246,6.382415556275844,-1.5111084734357894
1790763742253222400,0.476222412109375,7.208216976109147,6.490313036414981,-1.4449316815644502
1790763742263261400,0.486261474609375,7.122129176717996,6.602526626187562,-1.3609978453367948
1790763742273299500,0.496299560546875,7.02657738341093,6.720311294090747,-1.2786784585684536
1790763742283338500,0.50633837890625,6.921182241481542,6.843357243523001,-1.198365516251698
1790763742293377300,0.516377197265625,6.807056680607795,6.970317151528596,-1.1176047571022063
1790763742303415600,0.52641552734375,6.684309421861172,7.099561955600977,-1.042405650667846
1790763742313454300,0.536454345703125,6.5584162663042544,7.226067690098286,-0.9703125474248081
1790763742323492600,0.54649267578125,6.431257036334276,7.34847826423645,-0.8995482816327363
1790763742333531600,0.55653173828125,6.303052681225538,7.4665657144784925,-0.8320444058761001
1790763742343569400,0.5665693359375,6.177652277621626,7.577674557879567,-0.7654072299513965
1790763742353608700,0.576608642578125,6.05498509837389,7.682133295741677,-0.7016839687120169
1790763742363646500,0.586646484375,5.934945345020294,7.7796601885139935,-0.6509210921369493
1790763742373685500,0.596685546875,5.815717492571473,7.872461806330084,-0.6100534039692953
1790763742383724500,0.606724609375,5.692905936416984,7.964535109871625,-0.5721866511832923
1790763742393762600,0.616762451171875,5.562273477378487,8.058716783869267,-0.5372034544769674
1790763742403801300,0.62680126953125,5.421893531307577,8.155546926549077,-0.510404002617672
1790763742413839600,0.636839599609375,5.272377508100867,8.254159276470542,-0.4912147700337693
1790763742423878400,0.64687841796875,5.117441797932982,8.352044481161236,-0.47490828981194644
1790763742433916700,0.656916748046875,4.962377492949367,8.44594324656427,-0.4596205581786111
1790763742443955500,0.66695556640625,4.817813831453025,8.529967683684825,-0.4457685219042003
1790763742453994500,0.676994384765625,4.6900902455985545,8.601675660067796,-0.4296803240755573
1790763742464032500,0.687032470703125,4.58162928635776,8.661043794837594,-0.40667551525887097
1790763742474071600,0.697071533203125,4.491729819723964,8.70974615868628,-0.3675258099902421
1790763742484109300,0.707109375,4.419230692963302,8.748878145635128,-0.3129313558956608
1790763742494148600,0.717148681640625,4.364019385612011,8.778672979918122,-0.24623961850581688
1790763742504186400,0.727186279296875,4.327441174799204,8.798599915659427,-0.16820998308695853
1790763742514225400,0.737225341796875,4.307214671589434,8.809818059766291,-0.07343532533196266
1790763742524263700,0.747263671875,4.298863315090537,8.814136507487296,0.0339631466433173
1790763742534302500,0.757302490234375,4.297048959144949,8.813991546058654,0.13890890540396794
1790763742544341500,0.767341552734375,4.2972175937101245,8.812010016852616,0.22974912348659707
1790763742554379500,0.777379638671875,4.297947369289398,8.80956320822239,0.29936699572252107
1790763742564418600,0.78741845703125,4.298552933967113,8.807171344649792,0.3557359669426456
1790763742574456600,0.79745654296875,4.29777551985383,8.804715768191217,0.42008945237696166
1790763742584495600,0.80749560546875,4.29511857560426,8.80133840071261,0.5087069894414394
1790763742594533400,0.817533447265625,4.289360158208012,8.796052569264173,0.6334308089580386
1790763742604572400,0.827572509765625,4.275430417054891,8.789519952625035,0.7971344936016946
1790763742614610400,0.8376103515625,4.248037675477564,8.783937768578529,0.9833581261545419
1790763742624649500,0.8476494140625,4.207508096690476,8.780003936260938,1.1742196476411073
1790763742634688500,0.8576884765625,4.160722672379016,8.775444665521382,1.360268362018466
1790763742644726500,0.8677265625,4.117015340338647,8.76668385143876,1.5381206912629306
1790763742654765600,0.877765625,4.0841754392713305,8.751359441056847,1.7039952902048825
1790763742664803600,0.887803466796875,4.0648078909784555,8.729670171818137,1.8548804098077116
1790763742674842600,0.897842529296875,4.053086765785515,8.70431887294054,1.99441908274889
1790763742684880400,0.90788037109375,4.046388437190652,8.677448401671647,2.1210895062886177
1790763742694919700,0.917919677734375,4.047460450336337,8.649331145212054,2.2310344204768535
1790763742704958500,0.92795849609375,4.05163276758492,8.62168033722043,2.328364913894236
1790763742714996500,0.93799658203125,4.052665033242106,8.595741593843698,2.420642800097167
1790763742725035500,0.948035400390625,4.057549005891382,8.56808260254562,2.5089132042244073
1790763742735073500,0.958073486328125,4.065583843787015,8.535523564246297,2.605042505158484
1790763742745112300,0.9681123046875,4.069217816375196,8.498723235115408,2.7172692466735837
1790763742755150600,0.978150634765625,4.061673392345011,8.46123433919847,2.8426600056663154
1790763742765189400,0.988189453125,4.040959397879242,8.427375908738375,2.9699110055729747
1790763742775227600,0.9982275390625,4.006347226442396,8.400580256271361,3.09027721440196
1790763742785266400,1.008266357421875,3.9614842946261164,8.381005202707648,3.1993416924938556
1790763742795305500,1.018305419921875,3.910546719071269,8.367547755241393,3.295779913246631
1790763742805343500,1.028343505859375,3.857011235977709,8.356327857568859,3.386095559465885
1790763742815382500,1.038382568359375,3.8058956735074516,8.342456568604707,3.476920908772945
1790763742825420500,1.048420654296875,3.761356859079003,8.323024722903966,3.57069370970875
1790763742835459600,1.05845947265625,3.7338749779134988,8.310826920109987,3.6274952088609336
1790763742845497600,1.06849755859375,3.7221515146329995,8.384126549598575,3.467331242650747
1790763742855536400,1.078536376953125,3.689565588326752,8.483709205856918,3.253331933617592
1790763742865574700,1.08857470703125,3.649428808249533,8.545510120731592,3.1346935714945197
1790763742875613400,1.098613525390625,3.6066821379348633,8.573256790313124,3.108295101651549
1790763742885652500,1.108652587890625,3.5706706210941075,8.564487792924046,3.1733643706724046
1790763742895690500,1.1186904296875,3.547398174317181,8.519892864394187,3.31628874052912
1790763742905729500,1.1287294921875,3.5373353377252816,8.454711074909568,3.4893414144068955
1790763742915767600,1.138767578125,3.533960892856121,8.408570670503378,3.6024218501418828
1790763742925806600,1.148806640625,3.5150855119943616,8.359959492069482,3.731707570746541
1790763742935844400,1.15884423828125,3.479153197869658,8.304749061501026,3.8854888501822944
1790763742945883400,1.16888330078125,3.432474448803067,8.25210877368152,4.036238214576244
1790763742955921400,1.17892138671875,3.37853301525712,8.206039096423982,4.173345714847743
1790763742965960400,1.18896044921875,3.3248908569186924,8.167295232009888,4.290779669617116
1790763742975999500,1.19899951171875,3.281597366376221,8.134813350600004,4.384783356699347
1790763742986037500,1.20903759765625,3.253930191771686,8.105809374433756,4.458494781859219
1790763742996076500,1.21907666015625,3.240787509343028,8.080624664294719,4.513444515664875
1790763743006114600,1.229114501953125,3.2399253395557404,8.061525996071099,4.548083867369592
1790763743016153600,1.239153564453125,3.2473683490380645,8.051517812275886,4.5604868373468515
1790763743026191400,1.24919140625,3.2527465349450706,8.049965906658768,4.559395242717862
1790763743036230700,1.259230712890625,3.235667389850318,8.051559897851943,4.568722458511591
1790763743046268400,1.269268310546875,3.2088162078037854,8.063214679810404,4.567106840008497
1790763743056307500,1.279307373046875,3.1714655513137577,8.08437086508572,4.555780851612985
1790763743066346500,1.289346435546875,3.127650374984741,8.111853915295004,4.5371831186488265
1790763743076384500,1.299384521484375,3.0843682826191183,8.14397690026462,4.509178382652998
1790763743086423300,1.30942333984375,3.0312644689410924,8.172245547893644,4.494021730053425
1790763743096461600,1.319461669921875,2.9639985666587947,8.191153661981225,4.50445427674055
1790763743106500400,1.329500244140625,2.9117335418924686,8.214303651422261,4.496377937790752
1790763743116538600,1.33953857421875,2.8678461771100756,8.241278167587518,4.475172944937646
1790763743126577700,1.34957763671875,2.838900653132796,8.27535111758113,4.430529208829999
1790763743136615400,1.359615478515625,2.824316831985116,8.316085279029608,4.3630651536270975
1790763743146654700,1.36965478515625,2.813478627106547,8.36167798642516,4.282180183576047
1790763743156693500,1.379693603515625,2.7962065897881985,8.409219489800929,4.199600392305851
1790763743166731500,1.3897314453125,2.7704116387963293,8.453222297656536,4.127739271187782
1790763743176770600,1.3997705078125,2.8158634764164683,8.47249632244706,4.056859854583442
1790763743186808600,1.40980859375,2.9739857076659795,8.454070438918471,3.9817715881124136
1790763743196847400,1.419847412109375,3.096825905393064,8.431305649402738,3.93613241122663
1790763743206886100,1.42988623046875,3.1630957823753354,8.415462768104671,3.9172947320267557
1790763743216925000,1.439925048828125,3.1895541657119986,8.411414369496702,3.9045138686478134
1790763743226963000,1.449962890625,3.214816909523308,8.41958832360208,3.8659886154204606
1790763743237002000,1.460001953125,3.255853268788755,8.439723349136113,3.786935536971688
1790763743247041000,1.470041015625,3.283007233174145,8.459789985609055,3.718090548804402
1790763743257079000,1.4800791015625,3.2894624006628987,8.484719844204188,3.6550448945656417
1790763743267118000,1.4901181640625,3.296315627558529,8.510331255322694,3.5887238719180226
1790763743277156000,1.500156005859375,3.3004742085427043,8.537341427323222,3.520090772935748
1790763743287195000,1.51019482421875,3.289653539320826,8.56789321745336,3.455395013402402
1790763743297233200,1.520233154296875,3.2809304269000887,8.599045311564206,3.3856007616862653
1790763743307272000,1.53027197265625,3.2806147850796576,8.628030583029984,3.3113504073441025
1790763743317310200,1.540310302734375,3.2829975885629654,8.65467133719623,3.2386677407100795
1790763743327349000,1.550348876953125,3.297953165632486,8.67856250039339,3.1585511246830222
1790763743337388000,1.560387939453125,3.322466844642162,8.698971666693687,3.075626757758856
1790763743347426000,1.570426025390625,3.3417706800490614,8.715593131148815,3.00689282875061
1790763743357465000,1.580465087890625,3.3618183195605873,8.726375806447862,2.9527827606394883
1790763743367502800,1.5905029296875,3.3651942257344722,8.73567028901577,2.9212878444403407
1790763743377542100,1.600542236328125,3.332176045490801,8.746898954516649,2.925533811447024
1790763743387580000,1.610579833984375,3.2878286619812247,8.75644653506279,2.9470664288192987
1790763743397619000,1.620618896484375,3.2547514450266957,8.767143870165944,2.951974366866052
1790763743407657000,1.630656982421875,3.24075565290004,8.782253176492452,2.9223125113129615
1790763743417696000,1.640696044921875,3.2419819798246023,8.788237511599064,2.902898785790801
1790763743427735000,1.650735107421875,3.260942408621311,8.790719976064562,2.8740011926084756
1790763743437773000,1.66077294921875,3.298829948467016,8.790846817314625,2.8300378399804234
1790763743447812000,1.67081201171875,3.344518809713423,8.793858858612179,2.7663386902689933
1790763743457849900,1.680849853515625,3.3953339279323815,8.80034763610959,2.682535786944628
1790763743467889200,1.69088916015625,3.4511090066462753,8.805864353704452,2.5917159905955196
1790763743477927000,1.700927001953125,3.506861873528361,8.809395450440048,2.5033704754054544
1790763743487966000,1.710966064453125,3.567243569254875,8.808065078619123,2.421391864898801
1790763743498004000,1.72100390625,3.646100248348713,8.799506509110332,2.3334582915104924
1790763743508043000,1.73104296875,3.7050127483054993,8.797291755670308,2.247425144916028
1790763743518081800,1.741081787109375,3.726763392342627,8.806090563675761,2.1758635912664235
1790763743528120000,1.7511201171875,3.750332776239514,8.809367393389344,2.121419761156291
1790763743538158800,1.761158935546875,3.7822126001030205,8.803601669469476,2.088504310634732
1790763743548197000,1.771197021484375,3.802516260202229,8.796049062132834,2.0834525802031156
1790763743558236200,1.781236083984375,3.831850783497095,8.78305806313455,2.0845118799977005
1790763743568274000,1.79127392578125,3.878687937995791,8.764369144755602,2.07653505589962
1790763743578313200,1.801313232421875,3.9337522380918264,8.744126567193865,2.058208833353221
1790763743588351000,1.81135107421875,3.9900244526728987,8.724652635917067,2.032367120610177
1790763743598390000,1.82139013671875,4.0480096086516975,8.704200214996934,2.005217978530377
1790763743608429000,1.831428955078125,4.108631250613928,8.68214269696772,1.9773576194413005
1790763743618467000,1.841467041015625,4.134117574048042,8.6835607470721,1.9170872751347718
1790763743628505900,1.851505859375,4.132938301135599,8.692784502491355,1.8774162128731606
1790763743638544100,1.861544189453125,4.1318481678113335,8.702189459696411,1.8357859793677924
1790763743648583000,1.8715830078125,4.126525219222903,8.71597307037711,1.7815666056632995
1790763743658621200,1.88162109375,4.114449581503868,8.73402602894008,1.7200234649419783
1790763743668660000,1.891659912109375,4.090613363364339,8.757850556641817,1.6544862861484289
1790763743678698000,1.901697998046875,4.06886505741477,8.78212458167672,1.5776638893611727
1790763743688737000,1.911737060546875,4.048346585521101,8.805462202644348,1.4983699878938495
1790763743698775000,1.921775146484375,4.016849038973451,8.828205949372053,1.4484804600872099
1790763743708813800,1.931813720703125,3.988248382911086,8.847027554219961,1.4122189140081405
1790763743718853000,1.94185302734375,3.9464816635444757,8.87015299374163,1.3842156393170355
1790763743728891000,1.951890869140625,3.8684614352747797,8.90579596953094,1.3755699760466813
1790763743738930000,1.961929931640625,3.774301973108947,8.94508869999945,1.382179018922895
1790763743748968200,1.97196826171875,3.7098596038147806,8.9720977029562,1.3815930357284842
1790763743759007000,1.982007080078125,3.6615573451995846,8.991196371179818,1.3862851390674709
1790763743769045000,1.992044921875,3.595464578349888,9.012683395844697,1.4193500810623167
1790763743779084000,2.002083984375,3.526549155294895,9.034374418649078,1.4539284963600336
1790763743789122000,2.0121220703125,3.4573137065052983,9.056606708723306,1.4816322035826741
1790763743799160800,2.022160888671875,3.3930770889163013,9.078304161268472,1.4972645108699798
1790763743809200000,2.0322001953125,3.339548912346363,9.0942738838166,1.5205173761636017
1790763743819238000,2.04223779296875,3.29443054446429,9.10415697992742,1.5593063948936758
1790763743829277000,2.05227685546875,3.2487071964263916,9.111034464481472,1.6141018149204551
1790763743839315000,2.06231494140625,3.195353207379579,9.117979753574728,1.6800440673835575
1790763743849354000,2.07235400390625,3.159128340049088,9.127081343919038,1.699019401488453
1790763743859392000,2.08239208984375,3.1679408843189476,9.147669958439469,1.5667426823742687
1790763743869431000,2.09243115234375,3.173971396654844,9.1685023185879,1.426487823987752
1790763743879468800,2.10246875,3.186375535675883,9.1832889688313,1.2979210653074085
1790763743889508000,2.112508056640625,3.2081334862366315,9.189245246887207,1.1983465192902834
1790763743899547100,2.122547119140625,3.2410403150603173,9.185481510439514,1.1370956395138054
1790763743909585000,2.1325849609375,3.2913062749639153,9.170956726002693,1.109618288392946
1790763743919624200,2.142624267578125,3.345037280629575,9.153604609185457,1.0920815357238054
1790763743929662000,2.152661865234375,3.37909240270555,9.141433694398403,1.089176827258244
1790763743939701000,2.162700927734375,3.391229707483947,9.13618059617579,1.0955115101724862
1790763743949739000,2.172739013671875,3.3857647200763226,9.136759272846579,1.1075228504836558
1790763743959778000,2.182778076171875,3.3644711721569296,9.1437519082129,1.1146766677610576
1790763743969816000,2.192816162109375,3.3321362980023026,9.155961401444673,1.111580236115679
1790763743979855000,2.202855224609375,3.2899408318296075,9.171116885000467,1.1123317120701075
1790763743989892900,2.212892822265625,3.240170254227519,9.187703278142214,1.1215103862386195
1790763743999932200,2.22293212890625,3.1854704035297035,9.205324275028705,1.133648494734615
1790763744009971000,2.232970947265625,3.1319746679246423,9.22202406541705,1.1469012134090066
1790763744020009000,2.243009033203125,3.077161127719283,9.240451117989421,1.146963391925022
1790763744030048000,2.253048095703125,3.026785569961369,9.260694280073047,1.1173543625377118
1790763744040086000,2.2630859375,2.9940920916274187,9.280459303250908,1.0386853149704633
1790763744050125000,2.273125,2.992079290500283,9.2909730984807,0.9463858014576136
1790763744060163000,2.2831630859375,3.0258459510236975,9.2878786395967,0.8660004514917731
1790763744070202000,2.2932021484375,3.09580708373934,9.269590118712186,0.8130571621377021
1790763744080240000,2.303240234375,3.203189015571773,9.236413825297355,0.7737103633943945
1790763744090279200,2.313279052734375,3.3421097027450797,9.190595492452383,0.7305017015911638
1790763744100318000,2.32331787109375,3.5066482307776807,9.132892660546302,0.6812439688820392
1790763744110356000,2.33335595703125,3.7066371346369382,9.059336425948143,0.59971821670942
1790763744120395000,2.34339501953125,3.887425371202826,8.987282997128366,0.535787925123237
1790763744130433000,2.35343310546875,3.913076822070777,8.97269099267423,0.5908034176414833
1790763744140471800,2.363471923828125,3.8501936649173496,9.000889497676491,0.5748103872830048
1790763744150510000,2.373510009765625,3.795298583908379,9.026603784647584,0.5352812177101149
1790763744160548900,2.383548828125,3.7729654638081787,9.037340282717347,0.511461366183497
1790763744170587100,2.393587158203125,3.7841859460026024,9.032904930618404,0.5068849616460502
1790763744180626000,2.4036259765625,3.819840027707815,9.01741743862927,0.5151611705495044
1790763744190664000,2.413663818359375,3.8558316708043217,9.000883067935705,0.5357779151858761
1790763744200703000,2.423702880859375,3.8644139134496447,8.99602393746674,0.5551916041754186
1790763744210741800,2.43374169921875,3.8553409646779295,9.000316081702708,0.548675865605846
1790763744220779800,2.44377978515625,3.8448224932730195,9.005457536244393,0.5380074278036132
1790763744230818800,2.45381884765625,3.8430698043867944,9.006488632857799,0.5332603063417598
1790763744240856600,2.463856689453125,3.849810218557715,9.00376417632997,0.5306457399291917
1790763744250895600,2.4738955078125,3.8587633403420445,8.999905162814258,0.5310614080579951
1790763744260933600,2.48393359375,3.8619434316828847,8.998572452905774,0.5305327810740098
1790763744270972700,2.49397265625,3.8613393283098936,8.9988769888103,0.5297636233324184
1790763744281011000,2.504010986328125,3.857080501821637,9.00072407798171,0.5294263542020693
1790763744291049700,2.5140498046875,3.85426749022752,9.001967940562963,0.528767744162865
1790763744301088800,2.5240888671875,3.8566917947649952,9.000906448811293,0.5291519211748614
1790763744311126800,2.534126708984375,3.8581186126977203,9.000196254715323,0.5308190506694838
1790763744321165800,2.544165771484375,3.855657483281195,9.001292233258486,0.5301266114259139
1790763744331203600,2.55420361328125,3.855364637814462,9.001486294525861,0.5289756512925029
1790763744341243000,2.564242919921875,3.8601471959158777,8.999485476097464,0.5281211898876353
1790763744351280600,2.57428076171875,3.863725931185484,8.997912527692318,0.528755651866272
1790763744361319700,2.584319580078125,3.8611785847902294,8.998964667093754,0.5294665766146034
1790763744371357700,2.594357666015625,3.8603248905703422,8.999423516777158,0.52788296068497
1790763744381396700,2.604396728515625,3.8690512178614735,8.995888912910223,0.5242255706885829
1790763744391434800,2.614434814453125,3.883713072681427,8.98964855721593,0.5228572414774447
1790763744401473800,2.624473876953125,3.8957840342253443,8.984490151539445,0.5217286758389323
1790763744411512800,2.634512939453125,3.9048017456784843,8.98056274896264,0.5219194126380607
1790763744421550800,2.64455078125,3.915828166605532,8.97565919483006,0.5236566847594455
1790763744431590000,2.65458984375,3.9273733507096766,8.970405512085556,0.5271947957577183
1790763744441627600,2.664627685546875,3.9373178216189144,8.96583045925498,0.5308453906871378
1790763744451667000,2.6746669921875,3.9467435293510555,8.96153831501901,0.5333076891474425
1790763744461704700,2.68470458984375,3.9546655545219775,8.957970393404365,0.5345856001287699
1790763744471743700,2.69474365234375,3.959498966027796,8.95579538745284,0.5352310218928381
1790763744481781800,2.70478173828125,3.9601518769785757,8.955559240609407,0.5343716285845265
1790763744491820800,2.71482080078125,3.9571298988088963,8.957030482205749,0.5320926873344928
1790763744501859600,2.724859619140625,3.9518484512746332,8.95945157187283,0.5305682177135721
1790763744511897900,2.73489794921875,3.9447032556951043,8.962683393400907,0.5291521403705701
1790763744521936600,2.7449365234375,3.940651642216742,8.96457841336727,0.5272609563291073
1790763744531975000,2.754974853515625,3.9391067508623,8.965369856005907,0.5253286730922758
1790763744542013700,2.765013671875,3.9330949432268736,8.968075023311377,0.5242167297950014
1790763744552051700,2.7750517578125,3.919625220800936,8.974042991805076,0.5229508745776489
1790763744562090800,2.7850908203125,3.9049242030143736,8.980476239722966,0.5224973221238702
1790763744572128800,2.795128662109375,3.896424085694551,8.984068711256981,0.5241992306709289
1790763744582167800,2.805167724609375,3.892148015810549,8.985888912421464,0.5247581431953237
1790763744592206600,2.81520654296875,3.8864603255629535,8.988390081587433,0.5240759330848231
1790763744602244900,2.825244873046875,3.8815649547368287,8.990603081461787,0.522386372562684
1790763744612283600,2.83528369140625,3.8823499676346778,8.99037453340292,0.5204772144731133
1790763744622322000,2.845322021484375,3.8878725304484365,8.98806216480732,0.5192005821334198
1790763744632360700,2.855360595703125,3.892769362579286,8.9859719145298,0.5186859471421689
1790763744642398700,2.865398681640625,3.894297010537982,8.985390315249562,0.5172979633824899
1790763744652437800,2.875437744140625,3.896480199795961,8.984710516291857,0.5126486762719229
1790763744662475800,2.885475830078125,3.9019717829495666,8.982605652967095,0.5077189282521605
1790763744672514600,2.8955146484375,3.908839622892439,8.979943740281461,0.5019584650292992
1790763744682552800,2.905552734375,3.91381741130501,8.978070932146906,0.4966278080584481
1790763744692591600,2.915591552734375,3.9168522489562627,8.976930529940129,0.4933179893907159
1790763744702630700,2.925630615234375,3.920840734070539,8.97541486468017,0.48919586795940995
1790763744712668700,2.935668701171875,3.9206487186297774,8.975670885267853,0.48603312961217016
1790763744722707700,2.945707763671875,3.915805954773724,8.978152765211462,0.4791744958890602
1790763744732745700,2.955745849609375,3.9133343039631843,8.979626344895362,0.4716945884624496
1790763744742784800,2.96578466796875,3.9139582810804248,8.979664923340081,0.4657613624885678
1790763744752822500,2.975822509765625,3.9150601048424836,8.979397212314606,0.4616643024332821
1790763744762861800,2.98586181640625,3.914368030925095,8.979944324803352,0.4568487919103354
1790763744772899800,2.99589990234375,3.914187413661182,8.980315496203303,0.4510665187144652
1790763744782938600,3.005938720703125,3.9153926977977154,8.980042524480819,0.44602151028458026
1790763744792978000,3.01597802734375,3.917987974987924,8.97907280266583,0.4427424520812928
1790763744803015700,3.026015625,3.924230084247887,8.976527794358134,0.4390625579921528
1790763744813054700,3.0360546875,3.9319533719763156,8.973334551274776,0.4352101934129372
1790763744823092700,3.0460927734375,3.9404657642558214,8.969856646031142,0.4298764677021652
1790763744833131800,3.0561318359375,3.9489959844529627,8.96642784062624,0.42305970035940405
1790763744843169800,3.066169677734375,3.9517733402118083,8.965508387693763,0.41657198230791836
1790763744853208800,3.076208740234375,3.9477185118630524,8.967477057418227,0.4126420589804649
1790763744863246600,3.08624658203125,3.9395828439414498,8.971146101319789,0.41060901878289874
1790763744873286000,3.096285888671875,3.9328079429790375,8.974199643671511,0.40886104260440914
1790763744883325000,3.106324951171875,3.92833605826199,8.976243132197856,0.40695414953716097
1790763744893362700,3.11636279296875,3.9256083868637677,8.977602145591378,0.4032901106042787
1790763744903401700,3.126401611328125,3.9237949077010152,8.978387743011117,0.403435072032921
1790763744913439700,3.136439697265625,3.9158582694828508,8.981895458871126,0.4024608932385221
1790763744923478800,3.146478759765625,3.90648809133023,8.986063099944591,0.40048623216468837
1790763744933516800,3.156516845703125,3.9020059774801132,8.988126462215185,0.39787261560019105
1790763744943555800,3.166555908203125,3.905628259630501,8.986656974184513,0.39555257515478875
1790763744953593900,3.17659375,3.914128669211268,8.983012480202317,0.394299104494974
1790763744963633000,3.1866328125,3.9211894013777373,8.980106821888684,0.39032205409016457
1790763744973670700,3.196670654296875,3.9269408045113083,8.977867518529296,0.38395372463464733
1790763744983709700,3.206709716796875,3.935296837185323,8.974382014501094,0.3798656881360337
1790763744993748700,3.216748779296875,3.9443355914264915,8.970428892961143,0.3795085087288171
1790763745003786800,3.226786865234375,3.9507887130886314,8.967584609445929,0.37957919934485107
1790763745013825500,3.236825439453125,3.950384808462858,8.967822509855031,0.37816279320828616
1790763745023863800,3.24686376953125,3.9441383152887224,8.970651011279225,0.37628081538658587
1790763745033902600,3.256902587890625,3.934224531778693,8.975046615889667,0.37524372742380946
1790763745043940900,3.26694091796875,3.9203067733243104,8.981115122148394,0.3757057919776067
1790763745053980000,3.27697998046875,3.9052003896072502,8.98766995061934,0.3762581651633605
1790763745064017700,3.287017578125,3.8911233489379287,8.993695786780119,0.37813703771252183
1790763745074057000,3.297056884765625,3.8767832734182477,8.99971519320011,0.38219497133381664
1790763745084095700,3.307095703125,3.8650034037753938,9.004633944901823,0.38561307268161327
1790763745094133800,3.3171337890625,3.85606752538681,9.008328123244643,0.38878801292330023
1790763745104172800,3.3271728515625,3.85424030995965,9.008637335324288,0.3995800040399655
1790763745114210800,3.3372109375,3.8558331321090455,9.007838293901086,0.40223183372300114
1790763745124249600,3.34724951171875,3.8673973131746053,9.002802637821436,0.40391679113525897
1790763745134288000,3.357287841796875,3.899380305151641,8.98908566263616,0.40191812813133
1790763745144326700,3.36732666015625,3.9073248344153164,8.985876052939892,0.3965194839581847
1790763745154365000,3.377364990234375,3.8807843257531522,8.997876287335156,0.38488008223194625
1790763745164403700,3.38740380859375,3.8307419454723592,9.020597237709165,0.35304154022689904
1790763745174442800,3.39744287109375,3.817958159483969,9.02718713749349,0.32168234270401297
1790763745184480800,3.407480712890625,3.8117955452010035,9.029858987051249,0.3197503517281264
1790763745194519800,3.417519775390625,3.809568809062242,9.03071531161964,0.3220795983932912
1790763745204557300,3.427557373046875,3.7973157689496873,9.036285805228353,0.310339074380137
1790763745214596600,3.4375966796875,3.7777570819988844,9.044978230249882,0.2954761440301314
1790763745224634400,3.44763427734375,3.755651925435662,9.054412998071312,0.2882127471647225
1790763745234673400,3.45767333984375,3.744979140251875,9.058979283073544,0.28356236407561225
1790763745244711400,3.46771142578125,3.7471982776060697,9.058172642865776,0.28000151152256875
1790763745254750500,3.47775048828125,3.753862996192276,9.05551774444282,0.27660355791365726
1790763745264788500,3.48778857421875,3.757765556588769,9.053893358111381,0.2767777637030929
1790763745274827500,3.49782763671875,3.756683606570959,9.054317136481403,0.27761335601070897
1790763745284866600,3.507866455078125,3.755017719185352,9.055043112668395,0.2764628708013333
1790763745294904600,3.517904541015625,3.7558676140129563,9.054666096049546,0.2772618574256077
1790763745304943600,3.527943603515625,3.7543569171890616,9.055258801245689,0.27835529695181177
1790763745314981400,3.5379814453125,3.747640468415618,9.058066259881853,0.2774868435542099
1790763745325020700,3.548020751953125,3.738391578555107,9.06197086610496,0.27475511703537775
1790763745335058400,3.558058349609375,3.7304938110426065,9.065377459678054,0.2697048661747947
1790763745345097500,3.568097412109375,3.726954823261499,9.067015874534844,0.26346767055196685
1790763745355135500,3.578135498046875,3.7237802848786115,9.068447368642687,0.2590772718396038
1790763745365174500,3.588174560546875,3.718277303548157,9.070749800366162,0.25748733576703814
1790763745375213600,3.598213623046875,3.7137574880361557,9.072633714416623,0.2563302198874764
1790763745385251600,3.60825146484375,3.71303063506633,9.073024175038933,0.2530590709960088
1790763745395290600,3.61829052734375,3.7171588209122417,9.0713880982697,0.25104365778667853
1790763745405328600,3.62832861328125,3.721958622409403,9.069440471333264,0.2503066487490199
1790763745415367700,3.63836767578125,3.725187521328032,9.068141079172491,0.24938237351095302
1790763745425405400,3.648405517578125,3.7290786835476752,9.066582743814587,0.24789361452423034
1790763745435444500,3.658444580078125,3.735892162954807,9.063810941013694,0.24665934175522997
1790763745445482500,3.668482421875,3.741678637401759,9.06146759275794,0.24499506180481984
1790763745455521500,3.678521484375,3.744244396236539,9.060453447279334,0.24330458796722812
1790763745465560300,3.688560302734375,3.742905256587267,9.061044983431696,0.24189273014161736
1790763745475598600,3.6985986328125,3.7414150180295107,9.061628336277604,0.2430850269324146
1790763745485637400,3.708637451171875,3.743577456760406,9.060700700038671,0.24441364518767222
1790763745495675600,3.718675537109375,3.7500185957238075,9.057983842295407,0.2462929926608689
1790763745505714400,3.72871435546875,3.756368257011473,9.055357585445046,0.2461347516255453
1790763745515752400,3.73875244140625,3.7560654746726154,9.055611267945169,0.24136598458746447
1790763745525791500,3.74879150390625,3.7495854650035496,9.058440353891253,0.2359165783414617
1790763745535829500,3.75882958984375,3.7396214126110077,9.062632544884085,0.23302876621177418
1790763745545868300,3.768868408203125,3.7286551974385973,9.067176618054509,0.23200346001833677
1790763745555907600,3.778907470703125,3.7191339203774927,9.071102267065644,0.23134242056002838
1790763745565945300,3.7889453125,3.711257195653021,9.074307200586794,0.23219456214364617
1790763745575984400,3.798984375,3.7087329378724094,9.075312578237057,0.233225549159199
1790763745586022700,3.809022705078125,3.706607908542454,9.076129155316949,0.23523670631852
1790763745596061400,3.8190615234375,3.7017055234536524,9.078068014425039,0.23756270158067344
1790763745606099700,3.829099609375,3.6967315344333644,9.080066494765877,0.2386567438950762
1790763745616138500,3.839138427734375,3.691180330047011,9.082323918303846,0.2386614566028118
1790763745626176500,3.849176513671875,3.682198566690087,9.085968996807932,0.23868423469020053
1790763745636215600,3.859215576171875,3.6734821762710808,9.08944397944212,0.24063693966055288
1790763745646254600,3.869254638671875,3.668226155439019,9.09149506675303,0.24335155064780264
1790763745656292400,3.879292236328125,3.6626805040106176,9.093642015653849,0.2466154478145763
1790763745666331600,3.88933154296875,3.6526071460247036,9.097574678927659,0.25097470247000453
1790763745676369400,3.899369384765625,3.642678749467432,9.101443629315495,0.2549336692288518
1790763745686408400,3.909408447265625,3.6396065024152398,9.102595137438177,0.2576962292773649
1790763745696446500,3.919446533203125,3.6433223080679773,9.101072457915544,0.25897547369925306
1790763745706485500,3.929485595703125,3.6486905571028587,9.098900374573468,0.2596825807889923
1790763745716523500,3.9395234375,3.650829322697222,9.098055740442872,0.25925392531445246
1790763745726562600,3.9495625,3.6535046793863177,9.096945733374357,0.26050540494658053
1790763745736601600,3.9596015625,3.6632343385010957,9.092997872531413,0.26170652436465025
1790763745746639600,3.9696396484375,3.677472707211971,9.087211690345406,0.26299365983204914
1790763745756678700,3.9796787109375,3.687864337366819,9.083019499352574,0.26229351220605895
1790763745766716400,3.98971630859375,3.6955759346574544,9.080017394927143,0.25763569472916426
1790763745776755500,3.99975537109375,3.704403676496446,9.076557609862089,0.25274679017644375
1790763745786793500,4.00979345703125,3.710599316266179,9.074169253420829,0.24757994546517728
1790763745796832500,4.01983251953125,3.7119057226896284,9.073793990367651,0.24168451248472556
1790763745806870500,4.02987060546875,3.7121295945733785,9.07390680309236,0.2338742405925877
1790763745816909600,4.03990966796875,3.714730132460594,9.072968645459413,0.22893557861400768
1790763745826948400,4.0499482421875,3.7200478203520175,9.070863782134651,0.22597716719983144
1790763745836986600,4.059986572265625,3.726920920991897,9.06803002001345,0.22643132244180886
1790763745847025400,4.070025390625,3.730218501232564,9.066559362939,0.23095990578215567
1790763745857063400,4.0800634765625,3.732682553258538,9.065518329453468,0.2320363211083226
1790763745867102700,4.090102783203125,3.7371401171892877,9.063664810541272,0.23270464882394298
1790763745877140500,4.100140380859375,3.741449797081947,9.061890202084182,0.23256193415131418
1790763745887179500,4.110179443359375,3.7453658014819022,9.060275752624868,0.23245951495645567
1790763745897217500,4.120217529296875,3.748275843709707,9.059076898229122,0.23225721558369694
1790763745907256600,4.130256591796875,3.7472307185709472,9.059500092077254,0.23259674973636865
1790763745917295400,4.14029541015625,3.744224814753234,9.060749215355514,0.23237554473374036
1790763745927333600,4.150333740234375,3.742934482681751,9.061314448022841,0.23114607600402085
1790763745937372400,4.160372314453125,3.7490360144272445,9.058900372618437,0.2268029322331771
1790763745947410700,4.17041064453125,3.774322431375086,9.048812693846225,0.20942871318198739
1790763745957449500,4.180449462890625,3.7870562407419084,9.043608110940456,0.20433423958718774
1790763745967487500,4.190487548828125,3.7951352100402116,9.04039148698151,0.19666845419965684
1790763745977526500,4.200526611328125,3.801857211771607,9.03791369869113,0.17990580944186074
1790763745987564500,4.210564453125,3.807991184481978,9.035994128805399,0.14280869845463892
1790763745997603300,4.220603271484375,3.81567121759057,9.033432169362902,0.09021267903512344
1790763746007642600,4.230642578125,3.8330829556405543,9.026503246882557,0.010503044365270761
1790763746017680400,4.240680419921875,3.851919758057594,9.018277270328998,-0.06150772691464517
1790763746027719400,4.250719482421875,3.868275849574804,9.01064633705914,-0.12285759638645685
1790763746037757400,4.26075732421875,3.8732977693900463,9.007100627276301,-0.20020864755716172
1790763746047796500,4.27079638671875,3.874425019854307,9.003637919601797,-0.3061477053712122
1790763746057834500,4.28083447265625,3.8742414799809453,9.000048955199121,-0.3996894922964275
1790763746067873500,4.29087353515625,3.8647532284066077,9.001129736173153,-0.46229222507327794
1790763746077911600,4.30091162109375,3.853536837865412,9.002762305811046,-0.5205084498615935
1790763746087950600,4.31095068359375,3.846893454328179,9.002116409122943,-0.5776656671162694
1790763746097989600,4.32098974609375,3.851396026444435,8.99869286441505,-0.6005567864254117
1790763746108027400,4.33102734375,3.8434015205591914,9.001274113079905,-0.612952376813814
1790763746118066400,4.34106640625,3.838931681668758,9.003097236853838,-0.6142059570714831
1790763746128104400,4.3511044921875,3.8340877487689253,9.005309652206302,-0.612016959127225
1790763746138143500,4.3611435546875,3.827826058025658,9.008114188233018,-0.6099326636664569
1790763746148181500,4.371181396484375,3.8243408462584014,9.009518794333934,-0.611041063299775
1790763746158220500,4.381220458984375,3.8218402616143226,9.010338878545165,-0.614583339016512
1790763746168258300,4.39125830078125,3.824008545564115,9.009077480307221,-0.6195826816737652
1790763746178297600,4.401297607421875,3.83116923097372,9.005714141353964,-0.6242189631722868
1790763746188336600,4.411336669921875,3.840360253167152,9.001459406518936,-0.629090806992352
1790763746198374400,4.42137451171875,3.849029005052149,8.997432635220886,-0.6337055342461914
1790763746208413700,4.43141357421875,3.855942437702417,8.994236469528078,-0.6370392087135464
1790763746218451700,4.44145166015625,3.861857214704156,8.99153130222261,-0.6393841644044965
1790763746228490500,4.451490478515625,3.865381297177076,8.989836773264408,-0.641910833337903
1790763746238528800,4.46152880859375,3.8659713720247146,8.989391952106356,-0.6445804909385741
1790763746248567600,4.471567626953125,3.864977100290358,8.989677198788524,-0.6465736375171691
1790763746258606600,4.481606689453125,3.8624396907672285,8.990710633489488,-0.6473573352407663
1790763746268644600,4.49164453125,3.8589711378738283,8.992142127597331,-0.6481655098184943
1790763746278683600,4.50168359375,3.8559932911068198,8.993388328266143,-0.6485829315129668
1790763746288721700,4.5117216796875,3.85120927170068,8.995504882028698,-0.647672246408835
1790763746298760700,4.5217607421875,3.8441830263257026,8.99863675031364,-0.6458901122324169
1790763746308798700,4.531798828125,3.835558405843377,9.00232742152512,-0.6457379173453897
1790763746318837800,4.541837646484375,3.827275146144628,9.005922815668582,-0.6447576741363853
1790763746328875800,4.551875732421875,3.8190830718606708,9.009648558193444,-0.6412653750412166
1790763746338914600,4.56191455078125,3.8130119352534413,9.012616175827384,-0.6356736194487661
1790763746348953600,4.57195361328125,3.8079546518638727,9.015429479682444,-0.6260173908963799
1790763746358991600,4.58199169921875,3.8051501158371566,9.018097822108864,-0.6042680985661223
1790763746369030700,4.59203076171875,3.811247263668477,9.017829526561497,-0.5687968626145273
1790763746379068700,4.602068603515625,3.8259298690155146,9.01390855372548,-0.5311244268242269
1790763746389107700,4.612107666015625,3.831482534706592,9.012968642526864,-0.5064782074760645
1790763746399145700,4.622145751953125,3.8264761047214266,9.016194618836044,-0.48651199917029586
1790763746409184800,4.632184814453125,3.8234520807251333,9.019417088013887,-0.44911472705956546
1790763746419222500,4.642222412109375,3.8220086039185523,9.022660599979758,-0.39273046693876384
1790763746429261600,4.652261474609375,3.8203169975697993,9.026068947118521,-0.3250341738825664
1790763746439300900,4.66230078125,3.8200890340328213,9.028563102021813,-0.24972344203358515
1790763746449338600,4.672338623046875,3.8236858894810077,9.029079234850407,-0.15976972446190194
1790763746459377700,4.682377685546875,3.8274513794943688,9.028750149026513,-0.05163346713082865
1790763746469415700,4.692415771484375,3.8286338672772047,9.028130555823445,0.06937414487423375
1790763746479454700,4.702454833984375,3.821820680131018,9.029280894902348,0.19015085246656088
1790763746489492700,4.71249267578125,3.8040617360785602,9.033235770007968,0.31646753066517413
1790763746499531800,4.72253173828125,3.7825606828883287,9.03395590097606,0.5002738729432225
1790763746509569500,4.732569580078125,3.760997085855901,9.029058192062378,0.7080961007766425
1790763746519608800,4.74260888671875,3.741642104783654,9.017321577039361,0.9265120572082698
1790763746529647600,4.752647705078125,3.7330025789931414,8.995814094108342,1.1447368019167332
1790763746539685600,4.762685546875,3.7328342366889116,8.97127528065741,1.3238463646806775
1790763746549724700,4.772724609375,3.747481478461623,8.946422578951715,1.445092425084114
1790763746559762700,4.7827626953125,3.7536177892595526,8.935248858508468,1.4973516046315432
1790763746569801500,4.792801513671875,3.7685122837916016,8.928194848343729,1.5020108286142348
1790763746579839700,4.80283984375,3.782731655541062,8.92420314835906,1.4899394286788998
1790763746589878500,4.81287841796875,3.792466867613792,8.922830106440186,1.4733255630083382
1790763746599917600,4.82291748046875,3.8015304640352725,8.92170314823687,1.4566970842905342
1790763746609955800,4.832955810546875,3.812154149380326,8.91926101578176,1.4438317574985324
1790763746619994600,4.84299462890625,3.8233562191352246,8.91593917788267,1.4346978723198174
1790763746630033000,4.853032958984375,3.8330899699032304,8.913156853687763,1.4259874732501805
1790763746640071700,4.86307177734375,3.842298527753353,8.91054813249409,1.4174823874942957
1790763746650109700,4.873109619140625,3.8517996388092635,8.908343315926194,1.4055037804089485
1790763746660148700,4.883148681640625,3.8647874229371544,8.905481496754287,1.387875184737891
1790763746670186800,4.893186767578125,3.880971372757852,8.901482197985052,1.3682288195036352
1790763746680225500,4.9032255859375,3.894062032738328,8.897824259999394,1.3547618735566735
1790763746690264600,4.9132646484375,3.9032942637249826,8.894621080043912,1.3492168066501617
1790763746700302600,4.923302490234375,3.911286139261722,8.892256104478239,1.3416376035675406
1790763746710341600,4.933341552734375,3.918836700771749,8.890271652662754,1.3327324125781654
1790763746720379600,4.943379638671875,3.924703546978533,8.889315959373116,1.3217992228925228
1790763746730418700,4.953418701171875,3.9282913423374293,8.88897401406765,1.3134135257326065
1790763746740456700,4.963456787109375,3.931053500527143,8.888287200847268,1.3097962120182811
1790763746750495700,4.973495849609375,3.934170463503897,8.887265456584096,1.3073634319134055
1790763746760533500,4.983533447265625,3.936059345990419,8.88671834409535,1.3053943237975238
1790763746770572500,4.993572509765625,3.9362005080267783,8.887130432027577,1.3021616254866122
1790763746780611800,5.00361181640625,3.9355852987378834,8.888287200847268,1.2961134313635527
1790763746790649600,5.013649658203125,3.9356951888531446,8.889201977604626,1.2894931364409625
1790763746800688600,5.023688720703125,3.9360318734616038,8.889669595116377,1.2852275879509747
1790763746810726700,5.0337265625,3.9366090888276695,8.889619910755753,1.283804715541005
1790763746820765700,5.043765625,3.938653746397793,8.888628561630844,1.2843939136058091
1790763746830803700,5.0538037109375,3.9427038985714313,8.88692351127863,1.283760730268806
1790763746840842800,5.0638427734375,3.947602776528895,8.88529737138152,1.2799642605952917
1790763746850881500,5.073881591796875,3.9530692252412436,8.883335131397843,1.2767089120611548
1790763746860919800,5.083919921875,3.959271294751763,8.881369968804716,1.271149670498818
1790763746870958600,5.09395849609375,3.968801924163103,8.878055729690194,1.2645681001514195
1790763746880996600,5.10399658203125,3.97796430478394,8.874747920316457,1.2589793402336538
1790763746891035600,5.11403564453125,3.985799820715189,8.871617805597186,1.2562575140543282
1790763746901073700,5.12407373046875,3.9935327530547973,8.868236346465348,1.255568801137805
1790763746911112700,5.13411279296875,4.001079807433486,8.864967700058221,1.2546269902430474
1790763746921150700,5.144150634765625,4.0073987813219425,8.861880839958786,1.2562687661007046
1790763746931189800,5.154189697265625,4.012061512435973,8.85954216787815,1.2578862842999399
1790763746941228500,5.164228515625,4.015312623186409,8.857990846782922,1.2584313509620726
1790763746951266800,5.174266845703125,4.018292808040976,8.856891361108422,1.2566603957667946
1790763746961305600,5.1843056640625,4.02005747962594,8.856807189956307,1.251598874593526
1790763746971344000,5.19434375,4.019015277096629,8.858203612750769,1.2450383470341562
1790763746981382700,5.204382568359375,4.014674325282871,8.860965478679537,1.239386751013249
1790763746991420700,5.214420654296875,4.005798944909871,8.86567964771986,1.2343797365061937
1790763747001459700,5.224459716796875,3.9945746633231636,8.87129514951408,1.230401188264042
1790763747011498800,5.234498779296875,3.9817639893278476,8.877436136487125,1.2276346461601555
1790763747021536500,5.24453662109375,3.968680928131938,8.883511657008528,1.226046792446822
1790763747031575600,5.254575439453125,3.9578585053443907,8.88848886089921,1.2249553439483045
1790763747041613600,5.264613525390625,3.951626625217497,8.891720682427287,1.221612097935006
1790763747051652600,5.274652587890625,3.949104997785389,8.893599920302629,1.2160786484010517
1790763747061690600,5.284690673828125,3.9494565877020356,8.894351030930876,1.2094263509050012
1790763747071729700,5.294729736328125,3.9507419513374566,8.89469823693335,1.2026457508541644
1790763747081767700,5.304767578125,3.954047422623634,8.894061108073592,1.1964780950699
1790763747091806700,5.314806640625,3.959568231871724,8.89234787441492,1.1909436226226389
1790763747101845800,5.324845703125,3.9664240891158578,8.889892882478236,1.186456613401696
1790763747111883500,5.334883544921875,3.9740506384715437,8.88707022627294,1.1820720416419208
1790763747121922800,5.3449228515625,3.982210856312513,8.884024867227673,1.1774909974619745
1790763747131960600,5.354960693359375,3.990319343966245,8.880997043839097,1.17287174016349
1790763747141999600,5.36499951171875,3.9977211446553467,8.878244530260563,1.1684979089934378
1790763747152037600,5.37503759765625,4.004318643224239,8.87580765850246,1.1644093975707888
1790763747162076700,5.38507666015625,4.009727516530454,8.873831389993429,1.160857111916691
1790763747172115500,5.395115478515625,4.011912751615047,8.873191923046111,1.1581886233597993
1790763747182153700,5.40515380859375,4.010975470764935,8.873899194532632,1.1560177821267394
1790763747192192500,5.415192626953125,4.008148138384521,8.87549026311636,1.1536050218965856
1790763747202230800,5.425230712890625,4.0033375232324,8.878177894765138,1.1496225281316785
1790763747212269800,5.435269775390625,3.9983120962858196,8.881076538816094,1.1447207275647668
1790763747222307600,5.4453076171875,3.991844946098327,8.884282056859135,1.1424104047957808
1790763747232347000,5.455346923828125,3.9829707347691055,8.888204783260822,1.1428689622182397
1790763747242384600,5.465384521484375,3.9730455530822275,8.892581098648906,1.1433664634115994
1790763747252423700,5.475423583984375,3.962833663408458,8.897491667044163,1.1406042321566492
1790763747262463000,5.485462890625,3.9533120940864084,8.902401650917529,1.135322419296205
1790763747272500700,5.495500732421875,3.946839098680019,8.905938592872022,1.130092701949179
1790763747282539800,5.505539794921875,3.9440257948249577,8.907690989497304,1.126095668202266
1790763747292577800,5.515577880859375,3.945095177622139,8.907667024099826,1.12253563763313
1790763747302616800,5.525616943359375,3.9501585984915493,8.905902937036752,1.118719586476311
1790763747312654800,5.53565478515625,3.9559786829471584,8.903682922899723,1.1158176544897258
1790763747322694000,5.54569384765625,3.959982073369622,8.90200826768577,1.114972070511058
1790763747332732700,5.555732666015625,3.9611972943782803,8.901366462650895,1.1157885014604776
1790763747342770700,5.565770751953125,3.958972896327078,8.902170180249213,1.1172769133873284
1790763747352809700,5.575809814453125,3.9534553019493814,8.904505345198512,1.1181970969721675
1790763747362847700,5.58584765625,3.945267027057707,8.908283110171556,1.1170262265618889
1790763747372886800,5.59588671875,3.936917716385424,8.91200534556508,1.1167823348034172
1790763747382924800,5.6059248046875,3.9327968370631337,8.914036559131741,1.115103076479584
1790763747392963600,5.615963623046875,3.929222777968645,8.916490382024646,1.1080592954479158
1790763747403002600,5.626002685546875,3.9233433645412323,8.920139552181958,1.0994858206309377
1790763747413040600,5.63604052734375,3.91088895663768,8.927910186183452,1.0806222032722086
1790763747423079700,5.64607958984375,3.898356515061855,8.937987928083539,1.041904496212676
1790763747433118000,5.656117919921875,3.8858807721093296,8.948473666262625,0.9975662458576261
1790763747443156700,5.66615673828125,3.873643514087796,8.957059708300232,0.9676509270001202
1790763747453194800,5.67619482421875,3.8652316595733165,8.962451338210702,0.9512238891385495
1790763747463233800,5.68623388671875,3.8625539647966622,8.964653232169152,0.9413129551727324
1790763747473271800,5.696271728515625,3.8634415612861512,8.964620498943328,0.9379697091594338
1790763747483310600,5.706310546875,3.866595349141955,8.963273760509491,0.9378392146475613
1790763747493350000,5.716349853515625,3.8688735232070086,8.962279488775133,0.9379502007413655
1790763747503387600,5.7263876953125,3.8700431515082716,8.962162584397197,0.9342351988062262
1790763747513426700,5.7364267578125,3.8710464833319187,8.962786269253492,0.924035511026904
1790763747523464700,5.746464599609375,3.8730896795973178,8.96374313158691,0.9060222999524324
1790763747533503700,5.756503662109375,3.875959389814734,8.964511193349956,0.8859237339712679
1790763747543541800,5.766541748046875,3.878789060282707,8.964849047002195,0.8699776114944369
1790763747553580800,5.776580810546875,3.8813901826918125,8.96454334205389,0.861476982717961
1790763747563619800,5.786619873046875,3.8856595305740833,8.963227583280204,0.8559131380457431
1790763747573657900,5.796657958984375,3.8908319647759195,8.961547667369246,0.8499810445830226
1790763747583697000,5.80669677734375,3.8962463910400866,8.959853138411045,0.8430239919867366
1790763747593734700,5.816734619140625,3.9009947546109554,8.958921410518885,0.8308813534460961
1790763747603774000,5.82677392578125,3.9064386992305513,8.958361438548565,0.8111100466579199
1790763747613811700,5.836811767578125,3.9112440536856647,8.957914863824843,0.7926657506898045
1790763747623850800,5.846850830078125,3.91511358859539,8.957959872010349,0.7727994590945542
1790763747633888800,5.856888671875,3.9208176454558967,8.957627279055117,0.7473156198784708
1790763747643927800,5.866927734375,3.926045901498198,8.957691576462983,0.7185558277316391
1790763747653966600,5.876966552734375,3.9286370870351788,8.958598754435776,0.6926092663746327
1790763747664004900,5.8870048828125,3.9285277814418076,8.960538198065757,0.6676816728018223
1790763747674043600,5.897043701171875,3.9259921254843473,8.963384235146641,0.6439887355905026
1790763747684082000,5.90708203125,3.9212706499204035,8.966915331882237,0.6232530407495797
1790763747694120700,5.91712060546875,3.9124811942651867,8.971421995651722,0.6135653210803866
1790763747704158700,5.92715869140625,3.903758958627283,8.97556391776204,0.6085243677711114
1790763747714197800,5.93719775390625,3.898268544517457,8.978708645528554,0.5972204085443169
1790763747724236800,5.94723681640625,3.8962291476443407,8.981134995892644,0.5735758039867505
1790763747734274800,5.95727490234375,3.895189575463533,8.982953443491459,0.5517501950172707
1790763747744313600,5.967313720703125,3.8949186495676633,8.983920242697,0.5377378901472315
1790763747754351900,5.977351806640625,3.896773337523639,8.98363967218995,0.5289140938309952
1790763747764390700,5.987390625,3.900455240906775,8.982359569251537,0.5235016403282061
1790763747774429000,5.997428955078125,3.904861074650287,8.980662117683886,0.5197729386612773
1790763747784467700,6.0074677734375,3.9094527863547204,8.978800999987126,0.5174002912458032
1790763747794506800,6.0175068359375,3.9139901375234123,8.976965016731619,0.5149429612215608
1790763747804544800,6.027544677734375,3.9173914703994988,8.97565568769872,0.5119043241780251
1790763747814583800,6.037583740234375,3.9186584215953943,8.975272241339088,0.5089222761599347
1790763747824621600,6.04762158203125,3.9173733502209185,8.975998217526078,0.5060009453531354
1790763747834660900,6.057660888671875,3.9134354262501,8.977823094865679,0.5040879878712817
1790763747844698600,6.06769873046875,3.906922098833322,8.980726999613642,0.5028980839669704
1790763747854737700,6.077737548828125,3.899296426260471,8.984091507610678,0.5019773889254778
1790763747864775700,6.087775634765625,3.891561155833304,8.98752089753747,0.5006151241289452
1790763747874814700,6.097814697265625,3.8848929301157593,8.990587883892655,0.49731272158268836
1790763747884853800,6.107853759765625,3.8798362312480803,8.99311184941232,0.49110707187559455
1790763747894891800,6.117891845703125,3.877518894216418,8.99455152682662,0.4829981823630631
1790763747904930800,6.127930908203125,3.877158536471426,8.99514657011032,0.4747394360510632
1790763747914968800,6.13796875,3.874898190324008,8.996461744362115,0.4682196423608809
1790763747925008000,6.1480078125,3.872698049931228,8.997568828821182,0.4651361797949299
1790763747935045600,6.158045654296875,3.8717663220390675,8.997993191713094,0.46466600499991323
1790763747945085000,6.1680849609375,3.8697128966405985,8.998920243430137,0.463833097839728
1790763747955123700,6.178123779296875,3.864272166891396,9.001374650844932,0.4615655547665432
1790763747965161700,6.18816162109375,3.8584617270469663,9.004116058507561,0.45668834065161645
1790763747975200800,6.19820068359375,3.8556855403319,9.005614188110828,0.4505631723022088
1790763747985238800,6.20823876953125,3.8475516259759663,9.00967719976604,0.43869460146259515
1790763747995277600,6.218277587890625,3.835537070794403,9.015430648726225,0.4255097238600254
1790763748005315800,6.22831591796875,3.825306768681109,9.020398500266671,0.41208537494577463
1790763748015355000,6.23835498046875,3.81535499124825,9.02539966955483,0.39447088086530563
1790763748025393700,6.2483935546875,3.8042087433338163,9.031002896389365,0.37329664847664534
1790763748035432000,6.258431884765625,3.79242507429868,9.036814213016628,0.3519817289756611
1790763748045470700,6.268470703125,3.780538821671903,9.042582859545945,0.33105507813990115
1790763748055508700,6.2785087890625,3.7728017976790666,9.046502078816294,0.31167357438690957
1790763748065547800,6.2885478515625,3.767533794148266,9.04928732562065,0.29408149306764825
1790763748075585800,6.298585693359375,3.7611528609395024,9.052468878266215,0.2773580843416974
1790763748085624600,6.30862451171875,3.754366561800241,9.055745123457909,0.2618765471693128
1790763748095663900,6.318663818359375,3.7475513288274405,9.058961162894963,0.24793281402345746
1790763748105701600,6.32870166015625,3.7432697059854863,9.061067779785395,0.2353052232437767
1790763748115740700,6.33874072265625,3.740778765952587,9.062370679077505,0.22450008038459343
1790763748125778700,6.34877880859375,3.7373391468927264,9.06394596557021,0.21809762946376576
1790763748135817700,6.358817626953125,3.73813351214081,9.063660718888045,0.21636722547458484
1790763748145855700,6.368855712890625,3.737840666674077,9.063773531612753,0.2166595412183553
1790763748155894800,6.378894775390625,3.733919401577115,9.065370445415377,0.21746590743148697
1790763748165932500,6.3889326171875,3.7279593241289257,9.06778744342923,0.2189232118340209
1790763748175971800,6.398971923828125,3.7233731653824447,9.06961641242206,0.22119281900012863
1790763748186011000,6.409010986328125,3.71974503801316,9.071010497128963,0.22501361939730122
1790763748196048600,6.419048583984375,3.7129905953168865,9.073633831369877,0.23077289531007408
1790763748206088000,6.429087890625,3.704104985810816,9.07704042494297,0.23941271336153147
1790763748216125400,6.43912548828125,3.6936487659871577,9.081002898833155,0.2504732922865078
1790763748226164500,6.44916455078125,3.6838849123418327,9.084616413155198,0.2629131236754358
1790763748236202500,6.459202392578125,3.673793141916394,9.08828662610054,0.27691304398793726
1790763748246241500,6.469241455078125,3.660318743315339,9.093281365647911,0.29098619393343106
1790763748256280600,6.479280517578125,3.645206222118437,9.098969348156452,0.30269140917118637
1790763748266318600,6.489318603515625,3.6324677365764972,9.103743138429522,0.3121163131857291
1790763748276357600,6.499357666015625,3.6214597280889747,9.107871032014488,0.3195363071186468
1790763748286395600,6.509395751953125,3.6153891760036347,9.109984663167594,0.32788167226817455
1790763748296434700,6.5194345703125,3.612710604444146,9.110727590489388,0.3366858871011063
1790763748306472400,6.529472412109375,3.609536358322203,9.11169263612926,0.3445235219242051
1790763748316511700,6.53951171875,3.610617723818123,9.110991794383525,0.35165092611871657
1790763748326550500,6.549550537109375,3.618331659196317,9.1077003516227,0.3575683334689587
1790763748336588500,6.559588623046875,3.628982817070186,9.103249801954627,0.36292416141368444
1790763748346627600,6.569627685546875,3.638539165444672,9.099197896215319,0.3688071185050532
1790763748356665600,6.57966552734375,3.6478745645448565,9.09518749153018,0.37543946919161825
1790763748366704400,6.589704345703125,3.6590976770877837,9.090367524027824,0.38290008739586917
1790763748376742700,6.59974267578125,3.6691429780229923,9.086025695431232,0.3897591595103964
1790763748386781400,6.609781494140625,3.6754017461568114,9.08324980097711,0.3954385568536818
1790763748396820500,6.619820556640625,3.6774125014573333,9.08222630314827,0.40024292492810637
1790763748406858500,6.6298583984375,3.6759427211657165,9.082610918551683,0.4049884389547631
1790763748416897500,6.6398974609375,3.6726357885748144,9.083708066138625,0.41035091583598404
1790763748426935600,6.649935546875,3.668459671933949,9.085145405465363,0.4158346079440787
1790763748436974600,6.659974609375,3.6628789491921663,9.087180126163362,0.4205525398440659
1790763748447012600,6.6700126953125,3.6572155166029927,9.089320060801505,0.4235628641085699
1790763748457051400,6.680051513671875,3.6521804450452326,9.091278793653846,0.4249630862953141
1790763748467090700,6.690090576171875,3.6483854366764423,9.092791536304354,0.42522725365683434
1790763748477128400,6.70012841796875,3.6469516044810413,9.09339476289451,0.4246370326787233
1790763748487167500,6.71016748046875,3.646812780532241,9.093473673349619,0.42412360326386983
1790763748497205500,6.72020556640625,3.6469323152586814,9.093449707952141,0.42362661352716385
1790763748507244500,6.73024462890625,3.648643795351684,9.092806149351595,0.42269572588521986
1790763748517282600,6.740282470703125,3.6524805970355865,9.091360042196511,0.4206708689941093
1790763748527321600,6.750321533203125,3.657572951738536,9.089448655617236,0.41768651942107826
1790763748537360400,6.7603603515625,3.662556585370004,9.08755655826032,0.4151964927036315
1790763748547398700,6.770398681640625,3.664628423207998,9.086713677695393,0.4153606702893972
1790763748557437700,6.780437744140625,3.6621897978842255,9.087578185570239,0.41794973693452775
1790763748567475500,6.790475341796875,3.6638144764766096,9.08711407518983,0.41376631377004086
1790763748577514800,6.8005146484375,3.6711589940205216,9.084375005614756,0.4087798671269789
1790763748587552500,6.810552490234375,3.672100366523862,9.084315384382009,0.4015934992868453
1790763748597591600,6.820591552734375,3.6603529378458854,9.089136520928143,0.39976642999015743
1790763748607630600,6.830630615234375,3.649866907405853,9.093413467594981,0.39836905734762545
1790763748617668600,6.840668701171875,3.6480864537298676,9.093877577975391,0.4040145889539271
1790763748627707400,6.850707275390625,3.651388710145652,9.092392307853698,0.4075990963771939
1790763748637745700,6.86074560546875,3.651066638584435,9.09253668476045,0.4072769517507404
1790763748647784400,6.870784423828125,3.6471000730410217,9.094333505049347,0.4026451637642458
1790763748657822700,6.88082275390625,3.642999944245815,9.096264765372872,0.39609990683924406
1790763748667861500,6.890861572265625,3.6454160654768346,9.095490273869038,0.3916580519342795
1790763748677900500,6.900900634765625,3.655215867218375,9.091569301033019,0.391359142052941
1790763748687938600,6.9109384765625,3.6627751965567468,9.088376057949661,0.3948351110678166
1790763748697977600,6.9209775390625,3.6629379859030244,9.088079705351591,0.40008963406253606
1790763748708015400,6.931015380859375,3.6645506817966695,9.087200584429501,0.4052508527506143
1790763748718054700,6.9410546875,3.669462419235706,9.085089291363953,0.4081372583745047
1790763748728092400,6.951092529296875,3.6678745655223723,9.085885410177708,0.40466622126307333
1790763748738131500,6.96113134765625,3.663569269543886,9.087946434360742,0.3973214845234528
1790763748748169700,6.971169677734375,3.666476973684132,9.086881435477734,0.3948474225601181
1790763748758208500,6.98120849609375,3.671794077053666,9.084524058696626,0.39968196657709776
1790763748768247600,6.99124755859375,3.6832755482718347,9.079456253913044,0.40907512374650684
1790763748778285600,7.00128564453125,3.695643154674768,9.07405585617423,0.41729010398201644
1790763748788324600,7.01132470703125,3.6860394600272177,9.077761724954843,0.4216082594420761
1790763748798362400,7.0213623046875,3.6565059070289134,9.089729810646176,0.4209062121199444
1790763748808401700,7.031401611328125,3.632680502544343,9.099653823289275,0.4127052969424054
1790763748818440400,7.0414404296875,3.6283883583083747,9.10190014091134,0.40073629793561993
1790763748828478500,7.051478515625,3.6386835423514245,9.098238695794343,0.3904038871547207
1790763748838517800,7.061517822265625,3.647052434507012,9.094740916806458,0.3938020782256499
1790763748848555500,7.071555419921875,3.642599254490435,9.09593392598331,0.4072319800978526
1790763748858594600,7.081594482421875,3.6318408368498085,9.099498924988508,0.42337362514678384
1790763748868632600,7.091632568359375,3.627227790096402,9.100383306607604,0.4434284615840763
1790763748878671600,7.101671630859375,3.6308173390209673,9.097961047896742,0.4633075761282816
1790763748888709600,7.111709716796875,3.637224283453822,9.09457140545845,0.47933323011472817
1790763748898748700,7.121748779296875,3.640413434883952,9.092627285653352,0.49185379858966916
1790763748908787500,7.131787353515625,3.638285775205493,9.09289148954749,0.502605421163328
1790763748918825700,7.14182568359375,3.63464508061558,9.093911480244994,0.510409884369187
1790763748928864500,7.151864501953125,3.6348078699618576,9.093483025699854,0.5168461644943804
1790763748938902500,7.161902587890625,3.6389477462455626,9.091485714402795,0.5228125986181199
1790763748948941600,7.171941650390625,3.6449995936304327,9.088678255766629,0.5294380811724811
1790763748958979600,7.1819794921875,3.649790335038304,9.086288145759701,0.5373959083091467
1790763748969018400,7.192018310546875,3.652358139699697,9.084821580338478,0.5446733519662171
1790763748979057700,7.2020576171875,3.660387716898322,9.08129165264666,0.5496193935336545
1790763748989095400,7.212095458984375,3.6728687205478545,9.076078886434436,0.5524612293634563
1790763748999134500,7.222134521484375,3.6797932591140268,9.073162706726789,0.5542665982849896
1790763749009172500,7.23217236328125,3.6814106311827897,9.072391722354292,0.5561380547126755
1790763749019211500,7.24221142578125,3.6840605611696837,9.07112681698501,0.5592381761524826
1790763749029249500,7.25224951171875,3.6871418683111665,9.06963628616631,0.5630844032518565
1790763749039288600,7.26228857421875,3.689204353798926,9.06864785965085,0.5654831349566578
1790763749049327600,7.27232763671875,3.693725046093762,9.066816552570462,0.5653411692027003
1790763749059365600,7.28236572265625,3.702537005841732,9.063394176906346,0.5625769286537543
1790763749069404700,7.29240478515625,3.705222299402952,9.062534345206618,0.5587369486320763
1790763749079442400,7.3024423828125,3.6980592759057878,9.06566329088211,0.5554213943433016
1790763749089481500,7.3124814453125,3.6922052891805768,9.068158614829182,0.553620409335941
1790763749099519500,7.32251953125,3.6900033952221274,9.069106124812365,0.552776834651269
1790763749109558500,7.33255859375,3.69177888046205,9.068601682421564,0.5491917792387306
1790763749119597300,7.342597412109375,3.7003827504172917,9.065548724591732,0.5416380028583109
1790763749129635600,7.352635498046875,3.7109652269691225,9.061749916830658,0.532736355532892
1790763749139674600,7.362674560546875,3.717895318493247,9.059347531864047,0.5252169198134914
1790763749149712600,7.372712646484375,3.7224703713238236,9.05784764869511,0.5186632603863254
1790763749159751700,7.382751708984375,3.732563310793042,9.054072806331515,0.5119767683597282
1790763749169789400,7.39278955078125,3.7423008609533306,9.050530603680015,0.5034484113261103
1790763749179828700,7.402828857421875,3.749192081771791,9.04831760380566,0.4918286276157945
1790763749189867500,7.412867431640625,3.755924897158146,9.04615779542327,0.4800495982231572
1790763749199905500,7.422905517578125,3.754398418243229,9.047370678344368,0.4689979332569986
1790763749209944600,7.432944580078125,3.746957162326574,9.0510245246768,0.4578795231975615
1790763749219982800,7.44298291015625,3.7432843190327283,9.053047554937004,0.44779546115454283
1790763749230021600,7.453021728515625,3.74886737986207,9.051310940402745,0.4360729477221146
1790763749240060000,7.463059814453125,3.7612618742719293,9.046814798027276,0.42242918390352274
1790763749250098700,7.4730986328125,3.7651471912726757,9.04587722491622,0.4076248884055763
1790763749260137700,7.4831376953125,3.7507311279073354,9.052511548364162,0.3929947073655203
1790763749270175700,7.49317578125,3.7350913679659365,9.059469112417101,0.3814650861566886
1790763749280214800,7.50321484375,3.7414065424621104,9.057276570808886,0.37148280398771166
1790763749290252800,7.513252685546875,3.7632860735759137,9.048848934203386,0.3555306901615113
1790763749300291800,7.523291748046875,3.7761212974905964,9.044222443446516,0.3366405866546556
1790763749310331000,7.533330810546875,3.7682992255628105,9.04818725542426,0.3172175818474963
1790763749320368600,7.54336865234375,3.761360073949396,9.051791417396068,0.29601339271198956
1790763749330408000,7.553407958984375,3.767890352500975,9.049677201721071,0.27698620055569334
1790763749340445700,7.56344580078125,3.7659848111405965,9.05100348188877,0.2589817207769491
1790763749350484700,7.573484619140625,3.7515614412516354,9.057484660601615,0.2411416925786063
1790763749360522800,7.583522705078125,3.7557983481690287,9.056197543400526,0.22285938223917037
1790763749370561800,7.593561767578125,3.791495392233133,9.04179141690731,0.20236558812903238
1790763749380600600,7.6036005859375,3.8120752389252184,9.033607525929808,0.18001330667063592
1790763749390638800,7.613638916015625,3.792860250845551,9.042122840818763,0.15688344670217483
1790763749400677600,7.623677734375,3.7574212731957433,9.057216365054249,0.13787647534999994
1790763749410716000,7.6337158203125,3.7409880247890945,9.064299601313472,0.11778284127227961
1790763749420754700,7.643754638671875,3.7676544979184863,9.053491791573167,0.09724906221162527
1790763749430792700,7.653792724609375,3.829273041963577,9.02780322356522,0.07639671415451448
1790763749440831700,7.663831787109375,3.8331495911359785,9.02627352977991,0.061152638999815094
1790763749450870800,7.673870849609375,3.7684874416112897,9.053568948462605,0.04231208285626489
1790763749460908500,7.683908447265625,3.709367436383664,9.078003132495283,0.029239396923896856
1790763749470947800,7.69394775390625,3.664442545247078,9.096265934416651,0.013877055409591412
1790763749480985600,7.703985595703125,3.631211014513671,9.109592448979615,-0.0034743944019530316
1790763749491024600,7.714024658203125,3.619646541187167,9.11417159346342,-0.020399005665886216
1790763749501063000,7.72406298828125,3.6505876228958365,9.101781482967734,-0.03416810833062045
1790763749511101700,7.734101806640625,3.73328490306586,9.068106007859111,-0.04920677427344489
1790763749521140700,7.744140625,3.7820533178880806,9.047767568707465,-0.06605657672488596
1790763749531178800,7.7541787109375,3.745133746291697,9.06295812357664,-0.08459073836696333
1790763749541217800,7.7642177734375,3.716842594569921,9.07450476898551,-0.09399449912877753
1790763749551255800,7.774255859375,3.7263477972790597,9.07056859858036,-0.09750432474748232
1790763749561294800,7.784294921875,3.777161161932349,9.049448069140315,-0.10448518747761845
1790763749571332600,7.79433251953125,3.84401088462919,9.021097003924845,-0.11740779741480946
1790763749581372000,7.804371826171875,3.84822528745383,9.01918853995502,-0.12561162606864235
1790763749591410700,7.81441064453125,3.7933208540946244,9.042254358243941,-0.13686451269532554
1790763749601448700,7.82444873046875,3.7453392057359216,9.062202921295166,-0.13885162225877865
1790763749611487700,7.83448779296875,3.716287591035664,9.074158147504924,-0.13871993130366317
1790763749621525800,7.84452587890625,3.710803022144735,9.07633198441267,-0.1432392627584748
1790763749631564800,7.854564697265625,3.714240887638926,9.0748227488935,-0.14963671784377655
1790763749641602800,7.864602783203125,3.7041000173747536,9.078780546608566,-0.1605196660463698
1790763749651641900,7.874641845703125,3.7028117311298847,9.079005003014206,-0.17674164632251485
1790763749661680600,7.8846806640625,3.7311218798130747,9.067165512138605,-0.18874580797422677
1790763749671719000,7.894718994140625,3.7630388208165764,9.053836074966192,-0.19487786272214724
1790763749681757700,7.9047578125,3.769503925177455,9.051082392343877,-0.19784531595930455
1790763749691795700,7.914795654296875,3.764348149849474,9.053259151861072,-0.19641795003730803
1790763749701834800,7.924834716796875,3.780888950283825,9.04637991374135,-0.19567105892645195
1790763749711872800,7.934872802734375,3.8303935704261063,9.025468058615923,-0.1984793760791421
1790763749721911600,7.94491162109375,3.8803842205196615,9.003984541082382,-0.20314234465518966
1790763749731950800,7.954950927734375,3.879611482581496,9.004182109481096,-0.20902762156780808
1790763749741988600,7.964988525390625,3.835327227436006,9.023035278511047,-0.21324905692143364
1790763749752027600,7.975027587890625,3.785741943272948,9.04393544319868,-0.21397010120498014
1790763749762065700,7.985065673828125,3.7391838979765772,9.063187840679287,-0.21800737563073633
1790763749772104700,7.995104736328125,3.7024876137420533,9.078137572529911,-0.2222004616727121
1790763749782142700,8.005142822265626,3.6886283074766397,9.083874070355296,-0.21827410027552394
1790763749792181800,8.015181640625,3.721874451257288,9.070519498741627,-0.20907473037885502
1790763749802220800,8.025220703125,3.8181381922259923,9.030479749298095,-0.20650340031981468
1790763749812258800,8.0352587890625,3.838669523601234,9.021801937323808,-0.20512230295864864
1790763749822297900,8.0452978515625,3.7679616641715166,9.051218585944175,-0.21974203566992653
1790763749832335600,8.055335693359375,3.706415893101692,9.076658147627114,-0.21712598968632518
1790763749842375000,8.065375,3.689716102713346,9.083703389963507,-0.2066626277358271
1790763749852412700,8.07541259765625,3.7394647607445717,9.063557258513569,-0.19680691282227633
1790763749862451700,8.08545166015625,3.835196002271771,9.023656625279784,-0.1878144819408655
1790763749872490800,8.09549072265625,3.846676012185216,9.018865883871912,-0.18310287018381058
1790763749882528800,8.10552880859375,3.767848851446807,9.051912413427234,-0.1912652617155574
1790763749892567800,8.11556787109375,3.712501350495219,9.0744486548841,-0.20522373577281833
1790763749902605800,8.125605712890625,3.701497725921869,9.07847893331349,-0.224809073268529
1790763749912644900,8.135644775390626,3.7442321212768555,9.060625881236792,-0.23698976053092627
1790763749922683600,8.14568359375,3.7875127523377534,9.042465370646118,-0.24279928705990314
1790763749932722000,8.155721923828125,3.7533030242219567,9.056663991868495,-0.24482450927719474
1790763749942760700,8.1657607421875,3.681198741997778,9.086074210748077,-0.2498121797629632
1790763749952798700,8.175798828125,3.6588390261515973,9.09481573560834,-0.26000947465579954
1790763749962837800,8.185837646484375,3.721833826985955,9.068829645958543,-0.273230647414457
1790763749972875800,8.195875732421875,3.7856864136934276,9.042243836849927,-0.27709956126967444
1790763749982914600,8.20591455078125,3.728458213561773,9.065877225893736,-0.28079331948738545
1790763749992953900,8.215953857421875,3.6328809935525057,9.104524644196033,-0.28320014316709713
1790763750002991600,8.22599169921875,3.553005492804944,9.135698950138687,-0.2925130016419105
1790763750013030700,8.23603076171875,3.5605958018034696,9.131988405182957,-0.3151771255284548
1790763750023068700,8.246068603515624,3.677626436468959,9.085299134722352,-0.3206099642321467
1790763750033107700,8.256107666015625,3.8139302191421387,9.028982204216717,-0.319088599883765
1790763750043145700,8.266145751953125,3.817469499184191,9.027592211163043,-0.3160783852171153
1790763750053184800,8.276184814453124,3.7478999961346386,9.056595602807402,-0.3189213900906965
1790763750063223800,8.286223876953125,3.6965538397789,9.078053985899686,-0.3078985858928412
1790763750073261800,8.29626171875,3.6686660081610083,9.089849637633561,-0.29308833557814357
1790763750083300900,8.30630078125,3.6513337650880215,9.097252022844552,-0.2795575306147337
1790763750093338600,8.316338623046875,3.626258068281412,9.107862848708033,-0.2597453438268974
1790763750103378000,8.3263779296875,3.5992736152440306,9.119048844110965,-0.24199693943476303
1790763750113415700,8.336415771484376,3.6068104404896495,9.11652254050374,-0.22432565539944915
1790763750123454700,8.346454833984374,3.61774772182852,9.112701520910859,-0.20238359870975836
1790763750133493800,8.35649365234375,3.5892291910916563,9.124443981152773,-0.1798531842054799
1790763750143531800,8.36653173828125,3.5731022321552035,9.131303930050134,-0.15036769899944774
1790763750153570600,8.376570556640624,3.6182951265782117,9.11400442020297,-0.11514258329602889
1790763750163608800,8.38660888671875,3.6742733266487715,9.09188494285345,-0.08796978634600527
1790763750173647600,8.396647705078125,3.6855005308449265,9.087491676330567,-0.07052186273778788
1790763750183686700,8.406686767578124,3.6882758407771585,9.08647869989574,-0.05398122670021839
1790763750193725000,8.416724853515625,3.67843512250334,9.09056333886087,-0.03398232170124538
1790763750203763700,8.426763671875,3.6643291480004785,9.09630743547082,-0.016306326099840226
1790763750213802200,8.43680224609375,3.6845159037217496,9.088163291981816,-0.0028496192753358625
1790763750223841300,8.44684130859375,3.7229607851892705,9.072479400637745,0.007157427727550385
1790763750233879300,8.45687939453125,3.7366526259332895,9.066842271533607,0.013956445355311735
1790763750243918000,8.46691796875,3.712803548312187,9.076625998923182,0.018479968928050948
1790763750253957400,8.476957275390625,3.6692972918018696,9.094276221904158,0.02821781705750618
1790763750263995400,8.486995361328125,3.630444998577237,9.10977248172164,0.04802831877833232
1790763750274034200,8.4970341796875,3.6166385915428396,9.115072926217318,0.07585315902945586
1790763750284072400,8.507072509765624,3.6316710332408544,9.108804513472318,0.10502418059199116
1790763750294111200,8.517111328125,3.6324785502314567,9.108379566058517,0.11354352320209145
1790763750304149500,8.5271494140625,3.602272797060013,9.120528269013763,0.09985267797191627
1790763750314188300,8.537188232421874,3.562653903377056,9.136271197068691,0.08017194467717781
1790763750324227300,8.547227294921875,3.5483421771690247,9.141932291570305,0.06874578840939793
1790763750334265300,8.557265380859375,3.549121929369867,9.14156696538925,0.07664396234727464
1790763750344304400,8.567304443359374,3.5538971809476614,9.139541012519597,0.09475090698665008
1790763750354342100,8.577342041015624,3.575436228060722,9.131018098846077,0.10559661931823938
1790763750364381400,8.58738134765625,3.6399317888468503,9.105598410907387,0.09670200452180579
1790763750374419200,8.597419189453126,3.743147248649597,9.063888097903131,0.07187806768629233
1790763750384458200,8.607458251953124,3.784466516509652,9.046912997704744,0.03946825143219903
1790763750394497300,8.617497314453125,3.765380123245716,9.05495601890683,0.007203323541511781
1790763750404535300,8.627535400390625,3.7351866450339553,9.067451343342661,-0.009487661915048374
1790763750414574300,8.63757421875,3.7140468263715505,9.076103436353803,-0.024109831466118337
1790763750424612400,8.6476123046875,3.7130335576757787,9.076422000783682,-0.048316369338938965
1790763750434651400,8.6576513671875,3.7456168536335226,9.062842972764372,-0.07497705204836093
1790763750444690200,8.667690185546874,3.794548057802021,9.042113488468527,-0.10937167174438946
1790763750454728400,8.677728515625,3.780365218670666,9.047562986046076,-0.14432951481374912
1790763750464767200,8.687767333984375,3.710198041988909,9.07590177630186,-0.18118311763498932
1790763750474805200,8.69780517578125,3.67832347882241,9.088349169942736,-0.20549555671783162
1790763750484844300,8.70784423828125,3.6666543760776515,9.09298559757173,-0.2089217135079205
1790763750494882300,8.71788232421875,3.6171225756675,9.11284823590517,-0.2068692927564494
1790763750504921000,8.727921142578126,3.5573242327868937,9.1363670586586,-0.20641051613828165
1790763750514960400,8.73796044921875,3.531262155291438,9.146441877949238,-0.20778816116703672
1790763750524998100,8.747998046875,3.5260818300440904,9.148299488514661,-0.21385555318091062
1790763750535037200,8.758037109375,3.529316866442561,9.146887283629178,-0.22084292785022405
1790763750545075200,8.7680751953125,3.559463290642202,9.135109752073884,-0.22447953078690916
1790763750555114200,8.7781142578125,3.5870936403676867,9.124366824263333,-0.2215148357624188
1790763750565152500,8.788152587890625,3.578002863678336,9.128077953740954,-0.21557455899324268
1790763750575191300,8.79819140625,3.566085631391406,9.132866941583156,-0.21014491689363493
1790763750585230300,8.808230224609375,3.584265723465383,9.125819361159206,-0.2069787992792204
1790763750595268400,8.818268310546875,3.6375682745859024,9.10484554671347,-0.20067264833971857
1790763750605307400,8.828307373046876,3.697564770387113,9.080852676707506,-0.1910653917619027
1790763750615345200,8.83834521484375,3.7115266602441666,9.075448771837353,-0.1765927759037353
1790763750625384400,8.848384521484375,3.6860453052461146,9.086091746404767,-0.16245394031088797
1790763750635423200,8.85842333984375,3.6543975365728136,9.099106126278638,-0.14844326114235445
1790763750645461200,8.868461181640624,3.6473634001523254,9.102088941481709,-0.13824566485541873
1790763750655500300,8.878500244140625,3.667349664865434,9.094226537543534,-0.1264711655074265
1790763750665538300,8.888538330078125,3.6586610392361876,9.097943512240052,-0.10960373606774955
1790763750675577300,8.898577392578124,3.6090713711589575,9.117935914433001,-0.09084236437394283
1790763750685615400,8.908615478515625,3.575289513066411,9.131419665384293,-0.0697621486779768
1790763750695654400,8.918654296875,3.586999532343447,9.126942812231183,-0.0523685445063049
1790763750705693200,8.928693115234376,3.59938701249063,9.122107062637806,-0.04437717129306402
1790763750715731500,8.9387314453125,3.573801320335269,9.132167853403091,-0.042927652904763816
1790763750725770200,8.948770263671875,3.5581317497774956,9.138306502288579,-0.03787960313442163
1790763750735808300,8.958808349609376,3.565952652661502,9.135297383600474,-0.02677136740912683
1790763750745847300,8.968847412109374,3.5739921667322516,9.132179543840884,-0.016549095621949526
1790763750755885300,8.97888525390625,3.589369768606126,9.126152538636326,-0.011824604975368129
1790763750765924000,8.988924072265625,3.6201135741770267,9.11400325115919,-0.010124813036870909
1790763750775963400,8.99896337890625,3.6409219689279793,9.10570713197887,-0.012364495422173058
1790763750786001200,9.009001220703125,3.6543498980388045,9.100319593721627,-0.016553165583935332
1790763750796040200,9.019040283203125,3.6862609938234088,9.087440238404273,-0.017169790511782048
1790763750806078200,9.029078125,3.7476840152963993,9.062284754359721,-0.015817083561461186
1790763750816117200,9.0391171875,3.7732346361383793,9.051682111802696,-0.012236165467923273
1790763750826156300,9.04915625,3.736970605841279,9.066713092195988,-0.012853269886382622
1790763750836194300,9.0591943359375,3.7108553368538617,9.077422702258826,-0.01820491370469099
1790763750846233300,9.0692333984375,3.7129163610368967,9.076561116993426,-0.02578170563451713
1790763750856271400,9.079271240234375,3.7481966409936547,9.06204743847251,-0.026599995180882977
1790763750866310400,9.089310302734376,3.7756910893797873,9.050640493795274,-0.021464130129769908
1790763750876348200,9.09934814453125,3.7265190621927378,9.071012250694633,-0.01363323557471158
1790763750886387500,9.109387451171875,3.6586502255812285,9.098602268409728,-0.009516226426651701
1790763750896426200,9.11942626953125,3.6212124753296373,9.113571874004602,-0.004864174253551755
1790763750906464300,9.12946435546875,3.580002220802009,9.129839702716469,-0.0009356868292365106
1790763750916503300,9.13950341796875,3.5516415109753607,9.140910547307133,-0.0006938363308014231
1790763750926541300,9.149541259765625,3.5685052597537634,9.134338767701387,0.003315057388086279
1790763750936580000,9.159580078125,3.6012840782836077,9.121458827862144,0.01182323386054486
1790763750946618400,9.169618408203124,3.608057225680351,9.118770611691474,0.018643549433839505
1790763750956657400,9.179657470703125,3.6297500020503994,9.110132547205685,0.027979756818199527
1790763750966696200,9.1896962890625,3.690745738022029,9.0855627540946,0.036174600731267124
1790763750976734500,9.199734375,3.755471308171749,9.058997987774013,0.037131762175494805
1790763750986773200,9.209773193359375,3.7865678727030754,9.046060764789582,0.03297064902422717
1790763750996811300,9.219811279296875,3.8386701081231234,9.024086248868704,0.029534386398654897
1790763751006850300,9.229850341796874,3.924496333968639,8.98709127394855,0.030086565504875033
1790763751016889300,9.239889404296875,3.9603935767799614,8.971305091273784,0.036549834101693705
1790763751026927400,9.24992724609375,3.9441809853866694,8.978432166674732,0.03970780037569348
1790763751036966400,9.25996630859375,3.952063263069093,8.974984072047471,0.035050565137399826
1790763751047004200,9.270004150390625,3.994855526091158,8.95602218194604,0.034207392311526925
1790763751057043200,9.280043212890625,3.969726637792587,8.96717135246992,0.03851618857148569
1790763751067081200,9.290081298828126,3.8414582775369284,9.022845893418788,0.04277286420185119
1790763751077120300,9.300120361328124,3.690698976270854,9.085483843639492,0.0558658166041132
1790763751087159300,9.3101591796875,3.555897122593224,9.139008513078092,0.06710813617100939
1790763751097197300,9.320197265625,3.4914950853094457,9.163732619968057,0.07652167397474403
1790763751107236400,9.330236328125,3.522988540203869,9.151479287594556,0.09678769177757203
1790763751117274400,9.3402744140625,3.606818623796105,9.118484780487417,0.12034502904363907
1790763751127313400,9.3503134765625,3.6085523157209156,9.11776874117255,0.12262702076728454
1790763751137351200,9.36035107421875,3.5245270018175243,9.150574447709321,0.12278630298222415
1790763751147390500,9.370390380859375,3.4747269058600065,9.169587191215157,0.12372562965895048
1790763751157429200,9.38042919921875,3.4856226861447093,9.165361682474613,0.13017023008791728
1790763751167467300,9.39046728515625,3.5456945852696893,9.142009448459744,0.1486619636606425
1790763751177506300,9.40050634765625,3.5781399340614675,9.12905819694996,0.16610497363172472
1790763751187544300,9.41054443359375,3.5658117828860876,9.133577720201014,0.18202561460742725
1790763751197583000,9.4205830078125,3.5739360526308417,9.130347652238607,0.1846956923332065
1790763751207622400,9.430622314453124,3.6374373416826127,9.105309657093882,0.18099546784209086
1790763751217659400,9.440659423828125,3.744150580473244,9.061797847625613,0.18854036679631098
1790763751227698400,9.450698486328125,3.7718373365610836,9.05007350756228,0.19949461753629147
1790763751237736400,9.460736328125,3.7578348224326965,9.055814681562781,0.20320750057958065
1790763751247775200,9.470775146484375,3.7593525335192677,9.054878862017393,0.21640640670750289
1790763751257813500,9.4808134765625,3.7565368915766477,9.055695439097285,0.2306896192071028
1790763751267852300,9.490852294921876,3.7415503348469734,9.061461747539044,0.24718736595101654
1790763751277891300,9.500891357421875,3.678795187987387,9.08649682007432,0.2691326740437187
1790763751287929300,9.510929443359375,3.617918986742198,9.110343559607863,0.2875497897439636
1790763751297968400,9.520968505859376,3.627389702659845,9.106050830850005,0.3037573761685751
1790763751308006400,9.53100634765625,3.643753977483511,9.098670657470821,0.32808651065789163
1790763751318045400,9.54104541015625,3.607654782359302,9.11247472641766,0.3435594626650214
1790763751328083200,9.551083251953125,3.5997973468571898,9.114968296799063,0.3594428586365655
1790763751338122200,9.561122314453126,3.647333881796896,9.095353495746851,0.3766727373136207
1790763751348161500,9.57116162109375,3.683562256258726,9.080102735123038,0.39178419906459744
1790763751358199300,9.58119921875,3.677021456313133,9.082202922272682,0.4043479856267571
1790763751368238300,9.59123828125,3.698271165090799,9.072790366283058,0.42149226837959136
1790763751378276400,9.6012763671875,3.723448860967159,9.061368224036693,0.4448665680957958
1790763751388315400,9.6113154296875,3.7022242866307495,9.068972853821515,0.4665353790683672
1790763751398354200,9.621354248046876,3.697234223258495,9.070330698171258,0.47953569388426837
1790763751408392400,9.631392333984374,3.7486853012934325,9.04874547382891,0.48778702407479285
1790763751418431200,9.64143115234375,3.79083926641196,9.03033829500079,0.5028915811609477
1790763751428469500,9.651469482421875,3.772162915253639,9.037420946738123,0.5159466583713889
1790763751438508300,9.66150830078125,3.7689337240740657,9.037776336047052,0.5330419874159619
1790763751448546300,9.67154638671875,3.7451901526540516,9.046527213257551,0.551636615107581
1790763751458585300,9.68158544921875,3.666573712056875,9.077519148370623,0.5703299539333209
1790763751468624400,9.691624267578124,3.577640752367675,9.111210990092157,0.5972615077396854
1790763751478662400,9.701662353515625,3.5019723479211327,9.139062873613835,0.619755919348821
1790763751488701400,9.711701416015625,3.4715956220969555,9.149652656689286,0.6342450479503721
1790763751498739500,9.721739501953126,3.4935061328709125,9.140410196569562,0.6470782991036772
1790763751508778200,9.7317783203125,3.5508635123401877,9.116976129490137,0.6652122870136052
1790763751518817500,9.741817626953125,3.6050597974300382,9.094973556518553,0.6748159816611558
1790763751528855300,9.751855224609375,3.633771804912388,9.084224198967219,0.6655451722297817
1790763751538894300,9.761894287109374,3.6363688356682657,9.083509913218021,0.6610887042775749
1790763751548932400,9.771932373046875,3.6016488199427723,9.097313397642969,0.66136627910994
1790763751558971400,9.781971435546875,3.5794007477775214,9.105843910101056,0.6647377283044159
1790763751569009400,9.792009521484376,3.5659468074426055,9.11021905644536,0.6769837541542947
1790763751579048400,9.80204833984375,3.5539261147812007,9.113325790289045,0.6980587639521807
1790763751589087500,9.81208740234375,3.5508839706063267,9.113246295312047,0.7143905247457325
1790763751599125500,9.82212548828125,3.565858544637263,9.106607880210875,0.7243842416241765
1790763751609164500,9.83216455078125,3.5883904021799564,9.098065677314997,0.7204368922378868
1790763751619202300,9.842202392578125,3.6045202837258574,9.093055740198492,0.7029658982813358
1790763751629241300,9.852241455078126,3.607185995803773,9.093846013793348,0.6786502991270273
1790763751639279400,9.862279296875,3.594052957986295,9.10046689323783,0.6592953911200166
1790763751649318400,9.872318359375,3.565935993787646,9.113056910219788,0.6377306981090456
1790763751659357200,9.882357177734375,3.5507355020463462,9.120703625580667,0.612729199049808
1790763751669395500,9.8923955078125,3.5666061481341718,9.115855016505718,0.5923652235981076
1790763751679434200,9.902434326171875,3.5715082409620282,9.114439304488897,0.5845602489355951
1790763751689472500,9.912472412109375,3.5517364957824347,9.123167385345697,0.5686617284601554
1790763751699511300,9.92251123046875,3.5571471226543188,9.122464205512404,0.5456594403941184
1790763751709550300,9.93255029296875,3.607232465294003,9.104393711292744,0.5179642087388784
1790763751719588400,9.94258837890625,3.6375486931025978,9.093871148234605,0.4900347299363464
1790763751729627400,9.95262744140625,3.6044311441376804,9.108561352366209,0.46107583502084015
1790763751739665200,9.9626650390625,3.586846095347404,9.116752842128276,0.4356146825606003
1790763751749704400,9.972704345703125,3.620836335493624,9.10423121420741,0.41582215032130476
1790763751759742500,9.982742431640625,3.687363109846413,9.07810308573842,0.40222489252556115
1790763751769781200,9.99278125,3.7191988023072478,9.066024525409937,0.38097142088823016
1790763751779820500,10.002820556640625,3.7195764034479852,9.067086601683497,0.350798510540463
1790763751789858300,10.0128583984375,3.7386397080972786,9.06003200699687,0.3298149418856948
1790763751799897300,10.0228974609375,3.7367341667369005,9.061296327844262,0.316423472327739
1790763751809935400,10.032935302734375,3.682197397646308,9.084009679433702,0.30427928115082903
1790763751819974400,10.042974365234375,3.614949907803535,9.11156170322597,0.28632130739493294
1790763751830013200,10.05301318359375,3.588127951851487,9.123239281538128,0.24945633379630744
1790763751840051500,10.063051513671875,3.632915480343997,9.1062834705621,0.21888874330883845
1790763751850090200,10.07309033203125,3.6988019109666346,9.080222562110423,0.19701295678839087
1790763751860128500,10.08312841796875,3.724502753934264,9.070142482122778,0.17603665812462568
1790763751870167600,10.09316748046875,3.738080320648849,9.06504895837605,0.14842002639723942
1790763751880205300,10.103205322265625,3.7474110435739156,9.061409725090861,0.1346344155556988
1790763751890244600,10.11324462890625,3.7190430272236465,9.073210052999853,0.12630214734976178
1790763751900283400,10.123283447265624,3.7148628189295527,9.075116763404012,0.11152865798203274
1790763751910321400,10.1333212890625,3.7699724194720385,9.052525576889515,0.09725086144306697
1790763751920360400,10.1433603515625,3.78587842913419,9.045988284075259,0.08730287426933646
1790763751930398500,10.1533984375,3.7294302734643217,9.06956088284254,0.06939099097775761
1790763751940437200,10.163437255859375,3.698998894843459,9.082177787831425,0.04289264552346431
1790763751950476300,10.173476318359375,3.701018417972326,9.08142258554995,0.02474738273427356
1790763751960514300,10.183514404296876,3.6912750225931403,9.085408440315723,0.01548375424564583
1790763751970553300,10.19355322265625,3.6717964151412246,9.093304746523499,0.010048701893625547
1790763751980591400,10.20359130859375,3.692423900367319,9.084954266807436,0.001968342500662402
1790763751990630400,10.21363037109375,3.714250532250106,9.0760525829494,0.0013370675648387987
1790763752000668200,10.223668212890624,3.7094957389384504,9.077994949188827,-0.0063827866683102905
1790763752010707500,10.23370751953125,3.761916538788378,9.05639277371168,-0.010709342918067704
1790763752020746500,10.24374658203125,3.796858672831952,9.041797846648096,-0.011580938120826613
1790763752030784300,10.2537841796875,3.7924633604824542,9.043630907294153,-0.018960343173384898
1790763752040823600,10.263823486328125,3.8147698848366733,9.034214259651304,-0.02993948975095991
1790763752050861300,10.273861328125,3.859799697652459,9.015035511928795,-0.038457001163577656
1790763752060900400,10.283900390625,3.8888828765347596,9.002498686438798,-0.04470470904726535
1790763752070938400,10.2939384765625,3.8870387099727988,9.00329655881822,-0.04438043639580719
1790763752080977400,10.303977294921875,3.904313085378706,8.995828122633695,-0.04242607375790831
1790763752091016200,10.31401611328125,3.9319273607522245,8.983809183537959,-0.03877402209034189
1790763752101054500,10.324054443359374,3.9233722983747716,8.98753784867227,-0.0410431999981869
1790763752111093200,10.33409326171875,3.9251480758756396,8.986742314380407,-0.045309675503359174
1790763752121131500,10.344131591796875,3.919819574329257,8.989062866282463,-0.046368285744776944
1790763752131170300,10.35417041015625,3.883507028715312,9.004812808600068,-0.046060580635629594
1790763752141209300,10.364209228515625,3.841169815984368,9.022966304928064,-0.04333795987186022
1790763752151247400,10.374247314453125,3.8233097496449946,9.030579118019341,-0.03634493862976087
1790763752161286400,10.384286376953124,3.8347798226863143,9.025749798166752,-0.026191128968913107
1790763752171324400,10.394324462890625,3.833533037495613,9.026298079699277,-0.018443379227729748
1790763752181363500,10.404363525390625,3.8087081005796786,9.036805445188284,-0.016833024846576155
1790763752191401500,10.4144013671875,3.764820443536341,9.05518105983436,-0.01487295627038693
1790763752201440300,10.424440185546874,3.6996488831847905,9.082011783614755,-0.006190058841495192
1790763752211480000,10.43447998046875,3.648564592635631,9.102657096758485,-0.0007839712187636905
1790763752221518000,10.44451806640625,3.6574542937949297,9.099088590621948,0.003903901828563539
1790763752231557000,10.45455712890625,3.7375381765961646,9.066469931089877,0.017621007161290617
1790763752241595100,10.46459521484375,3.8085514487132426,9.036834086760878,0.03062511794454185
1790763752251634200,10.47463427734375,3.8293648119002577,9.02804521562755,0.02766419719615951
1790763752261673000,10.4846728515625,3.816979085318744,9.033276686540246,0.03137778120905859
1790763752271711200,10.494711181640625,3.7538378617510197,9.059646807071566,0.04340896101514809
1790763752281750000,10.50475,3.6663989400118586,9.095338882699608,0.052079507565009404
1790763752291788000,10.5147880859375,3.5790430203810333,9.130091047129035,0.04762334557347931
1790763752301827000,10.5248271484375,3.534184180217981,9.14761209077239,0.03343797199174296
1790763752311865000,10.534864990234375,3.5661312240988012,9.135222564798593,0.02846483235482592
1790763752321903900,10.54490380859375,3.6844019219532607,9.088125882580876,0.03942995611527003
1790763752331943000,10.55494287109375,3.7990056217327712,9.040715312108397,0.05844174520645756
1790763752341981000,10.56498095703125,3.733009008733928,9.06818082666099,0.055995644395705306
1790763752352020000,10.57502001953125,3.6455224484607576,9.103638509011269,0.06586515037259087
1790763752362058200,10.585058349609374,3.6180715469554063,9.114493665024638,0.07719578754375689
1790763752372097000,10.595096923828125,3.6601369570076465,9.097579939624667,0.08843779658339918
1790763752382136000,10.605135986328126,3.7717370910570023,9.051801354268193,0.09635716400635429
1790763752392174000,10.615174072265624,3.8259576338052748,9.028955900731683,0.10201695246687158
1790763752402213000,10.625213134765625,3.7649107521682974,9.054486647829412,0.11007863270365632
1790763752412251000,10.6352509765625,3.7119019232973454,9.0762963285774,0.11407184879197739
1790763752422290200,10.645290283203124,3.6627754888176915,9.096139677688479,0.12126219868748449
1790763752432328000,10.655327880859375,3.615544658826291,9.114967712277174,0.12485834174961782
1790763752442367000,10.665366943359375,3.6148721663922068,9.115199182945489,0.12742539749233983
1790763752452406000,10.675406005859376,3.679770755021274,9.088936029919982,0.14465586069128475
1790763752462444000,10.685444091796874,3.720876672391593,9.07192936553955,0.15991987352231515
1790763752472483000,10.695483154296875,3.67783832565397,9.089220107558369,0.1731177019380033
1790763752482521000,10.70552099609375,3.591518471072614,9.123212978053093,0.19585932977385817
1790763752492560100,10.71556005859375,3.4872251529052853,9.16281082894802,0.22921958318715913
1790763752502599000,10.725598876953125,3.376619290590286,9.203307674509286,0.2606773274473846
1790763752512637200,10.73563720703125,3.2881793751150368,9.234486656627059,0.28725345541220154
1790763752522676000,10.745676025390624,3.232249690361321,9.253355023226142,0.3136575878109783
1790763752532714200,10.75571435546875,3.188929019550979,9.267768748503922,0.33100561297498643
1790763752542753000,10.7657529296875,3.1944737941965458,9.265656286394595,0.3366234893893823
1790763752552791000,10.775791015625,3.2907366583824156,9.231391028699278,0.3505035096492618
1790763752562830000,10.785830078125,3.455387999139726,9.170117352569102,0.3736853190006688
1790763752572869000,10.795869140625,3.6443402529388664,9.096150199082492,0.3862855285830796
1790763752582907000,10.805906982421876,3.712613286437094,9.068341570180653,0.389957604691945
1790763752592946200,10.8159462890625,3.6423438184246417,9.096573977452517,0.39505412411335855
1790763752602984000,10.82598388671875,3.5745442476570606,9.123152187776565,0.401410069011338
1790763752613023000,10.83602294921875,3.577189501468837,9.121747581675649,0.4096769255645573
1790763752623062000,10.84606201171875,3.6877573698610067,9.076787326964736,0.42751781227942554
1790763752633100000,10.85610009765625,3.78875018517822,9.03416399076879,0.44680791142191734
1790763752643139000,10.86613916015625,3.7366093713134525,9.055989453607797,0.44405273096226155
1790763752653177000,10.876177001953126,3.6761084331214424,9.080857352882623,0.44118283808175474
1790763752663216000,10.886216064453125,3.67553443262577,9.080627635779976,0.45059510181043294
1790763752673254000,10.89625390625,3.7347199043050407,9.055719404494761,0.4649687873387709
1790763752683293200,10.906293212890626,3.8077372097209095,9.024590106737612,0.4778192453552037
1790763752693332000,10.91633203125,3.778438050000369,9.036338412198424,0.48824269542042165
1790763752703370000,10.926369873046875,3.6880814872488377,9.073536216214299,0.4892599096389487
1790763752713409000,10.936408935546876,3.61309463532567,9.10376476573944,0.4872406787710264
1790763752723447000,10.946447021484374,3.5285052577987313,9.136651136296987,0.4915836033461615
1790763752733485800,10.95648583984375,3.429648869988322,9.17359116615951,0.5031187775129452
1790763752743525000,10.966525146484376,3.3544530514895916,9.200962572687864,0.5102038038704544
1790763752753563100,10.976563232421874,3.3518621582135557,9.201842278131842,0.5113727380519733
1790763752763602000,10.986601806640625,3.425920789375901,9.173633251735568,0.5271590303245931
1790763752773640200,10.99664013671875,3.5400849286943674,9.129340521022677,0.5415776144405826
1790763752783679000,11.006678955078126,3.6163109670236704,9.099693570777774,0.5369025353016331
1790763752793717200,11.01671728515625,3.5848964225843547,9.112729577961563,0.5263649208048359
1790763752803756000,11.026756103515625,3.501425527693331,9.144911015120147,0.5301022807022556
1790763752813795000,11.036795166015626,3.3921117510154843,9.185122029477357,0.5454359338365495
1790763752823833000,11.0468330078125,3.3039649732679126,9.216911836969851,0.5502131581757217
1790763752833872100,11.0568720703125,3.303376651985943,9.217255535840987,0.5479852529931813
1790763752843910000,11.066909912109375,3.3812460736081,9.188855370786786,0.5500113519933074
1790763752853949200,11.07694921875,3.51275736130774,9.139570823135971,0.5469650065673515
1790763752863988200,11.08698828125,3.6847792308330534,9.072330347555875,0.5344271946966648
1790763752874026000,11.09702587890625,3.8117376775339245,9.020742199137807,0.5169695716783405
1790763752884065000,11.10706494140625,3.7643826366409656,9.041517276141047,0.5007812379434704
1790763752894103000,11.11710302734375,3.690259123548865,9.072678138080239,0.4887743911443278
1790763752904142000,11.12714208984375,3.674876845499873,9.078969931700826,0.4878408731538802
1790763752914180000,11.13718017578125,3.708167120683193,9.064933807563781,0.4968520818009972
1790763752924219100,11.14721923828125,3.6929116838842626,9.071293990245461,0.4943714439664036
1790763752934258000,11.1572578125,3.6035686820894477,9.107695675447582,0.4843042599929496
1790763752944296200,11.167296142578126,3.5230531298726797,9.139701756039262,0.473628259938769
1790763752954335000,11.1773349609375,3.486836153587699,9.153708654081822,0.47114974099602547
1790763752964373000,11.187373046875,3.518108074685931,9.141603205746412,0.47370877782907334
1790763752974412000,11.197412109375,3.60997124260813,9.105596072819829,0.4760557062814012
1790763752984451000,11.207451171875,3.626454467636347,9.099465022718906,0.4679177368048578
1790763752994488800,11.21748876953125,3.5723084514290093,9.122013539135455,0.4448363556206226
1790763753004528000,11.227528076171875,3.5585569894522426,9.128378397992252,0.42400753913614897
1790763753014566000,11.23756591796875,3.6014912912935015,9.112203508260846,0.4091447549166158
1790763753024605000,11.24760498046875,3.691432551242411,9.076782650789617,0.39461818038150664
1790763753034643000,11.257642822265625,3.7244115685194727,9.0638162017107,0.38258338612951337
1790763753044682000,11.267681884765626,3.6308372127652166,9.102433224874733,0.3648562619874254
1790763753054721000,11.277720947265625,3.499141216148436,9.154562056040763,0.34696696955356743
1790763753064759000,11.287759033203125,3.363438029716909,9.206533066296577,0.31213757516946644
1790763753074798000,11.297798095703126,3.295924290153384,9.232121681061386,0.2742337600423954
1790763753084836000,11.307836181640624,3.3415760342597958,9.216136760944128,0.2589672903927974
1790763753094875100,11.317875244140625,3.4892341546401378,9.161201640185713,0.2607890259272419
1790763753104914000,11.327913818359375,3.684047117166221,9.084598292976617,0.26128329398389905
1790763753114952200,11.3379521484375,3.6958120815008875,9.080608346557616,0.23218626923933625
1790763753124991000,11.347990966796875,3.5741058562397954,9.129936733350156,0.20101824690699577
1790763753135029000,11.358029052734375,3.4868925599500535,9.163907392013073,0.18646171562504021
1790763753145068000,11.368068115234376,3.4430426045686007,9.180383895039558,0.19074050718909127
1790763753155106000,11.37810595703125,3.4628868304625153,9.172869281625747,0.19301928404234348
1790763753165145000,11.38814501953125,3.525239826261997,9.149203743878006,0.1874471829984337
1790763753175184100,11.39818408203125,3.5000253055065866,9.159215434804558,0.17022504923641682
1790763753185222100,11.40822216796875,3.392309319414198,9.200088127940893,0.14494639546992255
1790763753195261000,11.418260986328125,3.364713456480205,9.210483849748968,0.12682407973147927
1790763753205299200,11.42829931640625,3.4338536282017826,9.184795866262911,0.13624480989440343
1790763753215337700,11.438337646484374,3.542583759772777,9.143237528949975,0.14731343512851744
1790763753225376800,11.448376708984375,3.5309871377423403,9.148007227569819,0.12838643367737532
1790763753235414800,11.458414794921875,3.4679981821268795,9.172421537858247,0.10030387407182716
1790763753245453800,11.468453857421874,3.421162781193852,9.190210877048969,0.07779343377649783
1790763753255491800,11.478491943359375,3.3982638439044353,9.198872906932234,0.053990373554476535
1790763753265531000,11.48853076171875,3.4262057437971234,9.188620977509022,0.027192122705001383
1790763753275568600,11.498568603515626,3.495694290564954,9.162446671810745,0.008414901563158491
1790763753285608000,11.50860791015625,3.5664126713886857,9.135120857989788,-0.025598631552036386
1790763753295647000,11.51864697265625,3.565249472828209,9.135515994787216,-0.041382578887231646
1790763753305684700,11.528684814453126,3.491977315868437,9.163738465186952,-0.048782489013345906
1790763753315723800,11.538723876953124,3.445259111574292,9.181384011992812,-0.05253839378103148
1790763753325761800,11.54876171875,3.487736317297816,9.165352914646267,-0.04894234661702066
1790763753335800800,11.55880078125,3.5950030983179806,9.123861212828755,-0.038819555432233026
1790763753345839600,11.568839599609374,3.6017882284134624,9.121212744146584,-0.03160253215893172
1790763753355878000,11.5788779296875,3.5342636751949783,9.147609752684831,-0.024350764082523527
1790763753365916700,11.588916748046875,3.4813293728649612,9.167899676519632,-0.01833832283450174
1790763753375955000,11.598954833984376,3.4630078264936803,9.174840289437771,-0.016652595953975103
1790763753385993700,11.60899365234375,3.500257945218682,9.160694859707355,-0.01566497543940204
1790763753396031700,11.61903173828125,3.5584470993369814,9.138260909581184,-0.004632091663882601
1790763753406070800,11.62907080078125,3.5821278346538543,9.12900208284855,0.008451290334080113
1790763753416109800,11.63910986328125,3.558974045820534,9.13802476273775,0.02463822555466322
1790763753426147600,11.649147705078125,3.4638933771565554,9.174417095589638,0.04373942137879785
1790763753436187000,11.659186767578126,3.3434187395170327,9.218830822333693,0.07151898401635698
1790763753446224600,11.669224609375,3.2535373930618166,9.25076559125483,0.0906833104878664
1790763753456263700,11.679263671875,3.2195439380452036,9.262456029048561,0.10883501671757548
1790763753466303000,11.689302978515625,3.2431139064639805,9.253995074695348,0.12714490005052648
1790763753476340700,11.6993408203125,3.353691127206385,9.214069891542195,0.15508808771800248
1790763753486379800,11.7093798828125,3.5157758323460815,9.152983846938609,0.1805081044502556
1790763753496417800,11.719417724609375,3.5395232031583785,9.143689948892593,0.1873074457341805
1790763753506456800,11.729456787109376,3.485306752063334,9.164355135780573,0.193962483176589
1790763753516494800,11.739494873046874,3.473885194338858,9.168399442735314,0.20730269747134297
1790763753526534000,11.749533935546875,3.5065053151756524,9.155571525344252,0.22429089461332186
1790763753536572700,11.75957275390625,3.5674396763488647,9.131780315390229,0.23311584170702843
1790763753546611000,11.76961083984375,3.6198259894073006,9.110923989844322,0.2414615173838101
1790763753556649700,11.779649658203125,3.6350168365374205,9.10465966875255,0.24944506348362191
1790763753566687700,11.789687744140625,3.5658661434218284,9.131651720574498,0.26062360623246056
1790763753576727000,11.79972705078125,3.4536417399942874,9.17433876965642,0.2725100415223278
1790763753586765800,11.809765869140625,3.3655016842484473,9.206837017679215,0.27918206663215533
1790763753596803800,11.819803955078125,3.3602675829872486,9.208425748175381,0.28964729174617676
1790763753606843000,11.8298427734375,3.4387001914501187,9.178985134157537,0.3032119807128794
1790763753616881000,11.839880859375,3.547171964345872,9.13720526304841,0.31531591294463723
1790763753626919700,11.849919677734375,3.603002864900231,9.115534698510169,0.3095057653611526
1790763753636958000,11.8599580078125,3.5971798578351732,9.118121792393922,0.30091364064263176
1790763753646996700,11.869996826171874,3.6144308523654938,9.111307436203957,0.30059547807155174
1790763753657035800,11.880035888671875,3.65483300538063,9.09501973374784,0.3052745027332566
1790763753667073800,11.89007373046875,3.662629066084325,9.091732382640242,0.3097279567444697
1790763753677112800,11.90011279296875,3.618079438000917,9.10949074217081,0.3115531628776341
1790763753687150600,11.910150634765625,3.505438854987919,9.153187260556221,0.318512955420278
1790763753697190000,11.92018994140625,3.354724269646406,9.209318897622824,0.3235191296771169
1790763753707229000,11.93022900390625,3.2513349145814776,9.247292362186313,0.29462418510960414
1790763753717266700,11.9402666015625,3.230949421417713,9.255618876504897,0.25467626040168106
1790763753727306000,11.950305908203125,3.282807911209762,9.237540198978781,0.24780279443562028
1790763753737343700,11.96034375,3.4190403822124003,9.187872789490223,0.25206984076295047
1790763753747382800,11.9703828125,3.615977789546549,9.111632430374621,0.2706681765153073
1790763753757420800,11.9804208984375,3.683039401428401,9.084701753351093,0.27166677736490963
1790763753767459800,11.9904599609375,3.552998770803213,9.137214615398644,0.24061967799849807
1790763753777498600,12.00049853515625,3.4534438793346283,9.175857942047715,0.2184696593802422
1790763753787537000,12.010536865234375,3.4205908265247937,9.188506995740532,0.20316409982927142
1790763753797575700,12.02057568359375,3.4920600257158276,9.16178323946595,0.19394774226518346
1790763753807614000,12.030614013671874,3.6438884175181387,9.102354898941517,0.19898429339397697
1790763753817652700,12.04065283203125,3.760399119962752,9.055061817368864,0.18877795667815953
1790763753827691800,12.05069189453125,3.68825421346724,9.085294458547233,0.1567703234502114
1790763753837729800,12.060729736328126,3.543611349254846,9.142958712008594,0.13962601329791358
1790763753847768800,12.070768798828125,3.3916622536823153,9.200514244398475,0.13241627371534703
1790763753857806600,12.080806640625,3.30734526335597,9.231265941014886,0.12482659490448422
1790763753867846000,12.090845947265626,3.332549554978311,9.222209358856082,0.12386120220473967
1790763753877885000,12.100885009765625,3.4402526815891266,9.182438489481806,0.13358862369665875
1790763753887922700,12.110922607421875,3.613827625775337,9.11547799988687,0.13676702540391125
1790763753897961700,12.120961669921876,3.7266622700557113,9.070199765267967,0.11772210579467937
1790763753907999700,12.130999755859374,3.6734775000959634,9.092263713037967,0.08179090591482818
1790763753918038800,12.141038818359375,3.5869691372051835,9.126927614662051,0.05680440349532291
1790763753928076800,12.151076904296875,3.479317740781605,9.168540312510729,0.05096569653763435
1790763753938115800,12.16111572265625,3.3387413953557608,9.220651608020066,0.052629086005478165
1790763753948154600,12.171154541015625,3.197086607043445,9.27079248023927,0.03794945806681644
1790763753958193000,12.18119287109375,3.177192404527962,9.27769451471269,0.014810364479129201
1790763753968231700,12.191231689453126,3.3916374115020034,9.201392780798674,0.03933200759955216
1790763753978269700,12.201269775390625,3.7527974127873778,9.060028499865531,0.05262264256495982
1790763753988309000,12.21130908203125,4.008241077364981,8.950095714506507,0.013086891412589466
1790763753998346800,12.2213466796875,3.8613632937073707,9.014269203731416,-0.05675781070750672
1790763754008385800,12.2313857421875,3.5364082860082386,9.146411482810974,-0.08581919331653043
1790763754018424800,12.2414248046875,3.1312472304329275,9.292567089673875,-0.11778685986027121
1790763754028462800,12.251462890625,2.7446856613874435,9.412841236305237,-0.1884058354301378
1790763754038501600,12.261501708984374,2.488483579657972,9.481154309552908,-0.2924811269326135
1790763754048540000,12.271539794921875,2.3441437900453805,9.51652840527296,-0.3332436011601239
1790763754058578700,12.28157861328125,2.2708695872589946,9.533333994123339,-0.35924865123871713
1790763754068617700,12.29161767578125,2.2409553643800315,9.539460952571034,-0.3836395075863227
1790763754078655700,12.30165576171875,2.207914680043608,9.546617838588356,-0.39698224263172593
1790763754088694800,12.31169482421875,2.1878065425164994,9.550931025612353,-0.4044708813540637
1790763754098732800,12.32173291015625,2.2094337063044307,9.545690786871313,-0.4105847611244768
1790763754108771800,12.331771728515625,2.285841677071899,9.527778698083758,-0.4083451655041426
1790763754118811000,12.341810791015625,2.4231867854915556,9.49398339598775,-0.40354551013745366
1790763754128849000,12.351848876953126,2.599776839715242,9.447254378038645,-0.4011593456532806
1790763754138888000,12.361887939453124,2.781320863084495,9.395487365922332,-0.39931612893939017
1790763754148925700,12.37192578125,2.975660362879932,9.33584625943005,-0.39725850228983905
1790763754158965000,12.381965087890626,3.215143657259643,9.25636005026102,-0.39121659177709367
1790763754169002800,12.392002685546874,3.49477863702476,9.154637459364533,-0.386699150885269
1790763754179041800,12.402041748046875,3.688426062902808,9.077289431267976,-0.41075701241884377
1790763754189080800,12.412080810546875,3.6480160188421604,9.092738929334283,-0.42950752479191867
1790763754199118800,12.422118896484376,3.575990354812145,9.119837364140153,-0.4596216906897723
1790763754209157600,12.43215771484375,3.4824800042048096,9.15415873593688,-0.4940745068464428
1790763754219195400,12.4421953125,3.3767695127159354,9.19222513948083,-0.5203860290583223
1790763754229234400,12.452234375,3.2717212845280765,9.228743729060888,-0.5445241527538747
1790763754239273200,12.462273193359374,3.2009307152509687,9.252921307983994,-0.5548692768858745
1790763754249311500,12.4723115234375,3.2049726841181516,9.251839942488074,-0.5495443920686841
1790763754259350300,12.482350341796876,3.290549611377716,9.221853385025263,-0.5478204908855259
1790763754269388500,12.492388427734374,3.4442136941745876,9.166217422521115,-0.5368791178934276
1790763754279427300,12.50242724609375,3.6027222943931814,9.105266402474046,-0.5337687307879329
1790763754289465300,12.51246533203125,3.646140580359101,9.087182464250922,-0.5469611341098323
1790763754299504400,12.52250439453125,3.573848958869278,9.1165418297261,-0.5353977932944893
1790763754309543400,12.53254345703125,3.484496604724228,9.152247933879494,-0.5147977440645918
1790763754319581200,12.542581298828125,3.424669328010082,9.175489693257212,-0.5023938607718795
1790763754329620500,12.552620361328126,3.4512300026774403,9.16602160768807,-0.4933899586483836
1790763754339658500,12.562658447265624,3.555061256290972,9.126886113607883,-0.4815306670937687
1790763754349697300,12.572697265625,3.604209902602434,9.10751564270556,-0.48291832205988466
1790763754359736300,12.582736328125,3.5747687040627,9.119626936259865,-0.4731035784775391
1790763754369774300,12.5927744140625,3.5513065799325703,9.129713445988298,-0.4548987903537228
1790763754379813400,12.6028134765625,3.5297879910856484,9.139291421672702,-0.42935306488256897
1790763754389851400,12.612851318359375,3.5302295973733067,9.140121442756056,-0.40749738956838844
1790763754399890400,12.622890380859374,3.5705285822749135,9.125468648025393,-0.38410208359677345
1790763754409928400,12.632928466796875,3.6101939454481005,9.110663877603411,-0.36425303539726883
1790763754419967500,12.642967529296875,3.581661970707774,9.122463036468625,-0.35034393517337736
1790763754430006300,12.65300634765625,3.4956863995194434,9.156309776490927,-0.3354919280761853
1790763754440044300,12.663044189453124,3.362517992262542,9.207152659499645,-0.3036392662142403
1790763754450083600,12.67308349609375,3.227981803783774,9.255889510139822,-0.2811050523176789
1790763754460121300,12.683121337890626,3.138505238737166,9.286696736335754,-0.27823039193050936
1790763754470160400,12.693160400390624,3.1161370473235843,9.295043708920478,-0.24948059145472942
1790763754480199400,12.703199462890625,3.186895760157704,9.27193288244605,-0.21292775254519655
1790763754490237400,12.713237548828126,3.384228304289281,9.202876297354697,-0.15638285850258543
1790763754500276200,12.723276123046874,3.613458500202,9.115761493003367,-0.12726914748470297
1790763754510314500,12.733314453125,3.6100483994975683,9.117015292456745,-0.13408865477382204
1790763754520353300,12.743353271484375,3.5113802277356383,9.155679077371955,-0.11887543141511268
1790763754530391600,12.7533916015625,3.461035357376933,9.175123198032379,-0.09350213990141637
1790763754540430300,12.763430419921875,3.469655009423196,9.172128107869625,-0.06295727726898621
1790763754550469400,12.773469482421875,3.482801491244137,9.16728651305735,-0.03660569704135414
1790763754560507400,12.78350732421875,3.5030119201019403,9.15964038221836,-0.016431658096116734
1790763754570546400,12.79354638671875,3.5763515893399713,9.131266520649195,-0.00804543235488236
1790763754580584200,12.803584228515625,3.667224284920096,9.095155927348136,-0.00214547089954649
1790763754590623500,12.81362353515625,3.651815703386068,9.101348352247475,0.008748126989341107
1790763754600662500,12.82366259765625,3.6081530872702596,9.118716835677624,0.02517656336519867
1790763754610700300,12.8337001953125,3.5830537173271177,9.128520436811447,0.04719834336075
1790763754620739600,12.843739501953126,3.5697529217272996,9.133613376036285,0.06610924306046218
1790763754630777300,12.85377734375,3.590621229971945,9.125348821038008,0.07634813033901154
1790763754640816400,12.86381640625,3.624446927206218,9.11184168921113,0.09003330388022586
1790763754650854400,12.8738544921875,3.634003275580704,9.107838298788666,0.10815407611555419
1790763754660893400,12.8838935546875,3.605420447435975,9.118975778874754,0.12496174732516518
1790763754670932200,12.89393212890625,3.560802138030529,9.13627178159058,0.14010784199810586
1790763754680970500,12.903970458984375,3.5485520205274224,9.140865539121627,0.1508472626773175
1790763754691009300,12.91400927734375,3.606052900120616,9.11801248680055,0.1692184660097584
1790763754701047300,12.92404736328125,3.685040804378688,9.085921650534868,0.19209468001071361
1790763754711086300,12.93408642578125,3.7174364688098427,9.072267803713679,0.212157827618625
1790763754721125400,12.94412548828125,3.7207147598281503,9.07053118917942,0.22833437958415595
1790763754731163100,12.9541630859375,3.667498425686359,9.091613140174745,0.24984144239006562
1790763754741202400,12.964202392578125,3.5890927052304145,9.122280665639042,0.2698027918576263
1790763754751240400,12.974240478515625,3.5651784534186124,9.131248984992503,0.2831444309244864
1790763754761279200,12.984279296875,3.598616612640023,9.117653590360284,0.2978884658688679
1790763754771318500,12.994318603515625,3.635198915106058,9.102720225122571,0.3101714992608875
