time,seconds_elapsed,z,y,x
1789224566127739400,0.066739501953125,-0.14352233574986456,0.13662906910479067,0.025651596998423336
1789224566137776400,0.0767763671875,-0.1372387254357338,0.15011574266552924,0.08420162031836807
1789224566147814400,0.086814453125,-0.12183014390170574,0.13518003934025763,0.1391762693695724
1789224566157852400,0.096852294921875,-0.18006898238062857,0.1532993411377072,0.1561871715337038
1789224566167889400,0.106889404296875,-0.16202303808033466,0.19976181710511445,0.14249598837681113
1789224566177927400,0.116927490234375,-0.09259528158903121,0.3061222969353199,0.11883739182651042
1789224566187965400,0.12696533203125,-0.05192834015786647,0.40478345443457364,0.10072649253122508
1789224566198002400,0.13700244140625,-0.018418869265913962,0.42284547308683396,0.1879811437446624
1789224566208040400,0.14704052734375,-0.05095686477720737,0.4568433120176196,0.30320377914011476
1789224566218077400,0.157077392578125,-0.16075170297026634,0.44012394014596934,0.3868568987302482
1789224566228115200,0.167115234375,-0.15928630659282206,0.43483781643658875,0.46688021045066413
1789224566238153500,0.177153564453125,0.11697685865163802,0.43363750073611734,0.7054481435511261
1789224566248190500,0.1871904296875,0.4650234036028385,0.42792555283010003,0.8663952960282564
1789224566258228500,0.197228515625,0.7603343836665153,0.7410270411282778,0.7461448225334286
1789224566268266500,0.2072666015625,0.8331979598253965,0.8593494691699742,0.5559207221675664
1789224566278303500,0.217303466796875,0.707775344389677,0.6264841316252946,0.4656915851879865
1789224566288341500,0.227341552734375,0.4521300197601318,0.48733811126351356,0.3396409009817987
1789224566298378500,0.23737841796875,0.20854279719293117,0.4328738228872418,0.14947642184868454
1789224566308416300,0.247416259765625,0.04380348589122295,0.40008009904921055,-0.062342328274995085
1789224566318454500,0.25745458984375,0.02187280911207199,0.5052680279687046,-0.06589980156086385
1789224566328491500,0.267491455078125,0.15438742863535881,0.9407254376083611,0.5741435574047267
1789224566338529300,0.277529296875,0.43966859759390353,1.7788640687063335,2.1322836849980056
1789224566348567600,0.287567626953125,0.4278700232505798,1.670025216063857,2.6779771007269617
1789224566358604500,0.2976044921875,0.16425649622082708,1.6168915917694568,2.5819188192024827
1789224566368642300,0.307642333984375,-0.02047989344894886,1.8529267915219068,2.4007472824074325
1789224566378679600,0.317679443359375,-0.1584317355901003,1.8864000220566988,2.0125429145909846
1789224566388717300,0.32771728515625,-0.3284066094577312,1.7423580463469028,1.5941550054349005
1789224566398755300,0.33775537109375,-0.25167291386723517,1.6785618660017847,1.372171711910516
1789224566408792600,0.34779248046875,-0.23982582420706747,1.6751660860836506,1.1233533106915652
1789224566418830300,0.357830322265625,-0.3051274406790733,1.6382032598674297,0.9239726018585264
1789224566428868600,0.36786865234375,-0.3747153561681509,1.5922668536007403,0.8142229179814457
1789224566438905600,0.377905517578125,-0.5788654713600874,1.4484361825540661,0.566753739414364
1789224566448943400,0.387943359375,-0.461115290248394,1.3347440446615217,0.20243498183712363
1789224566458981600,0.397981689453125,-0.8865139549493789,1.2834776755437254,-0.1763730504721403
1789224566469018400,0.408018310546875,-1.0393968242406844,1.0589642790198326,-0.5291629905581474
1789224566479056400,0.418056396484375,-0.560357754766941,0.9066855131015181,-0.9941463544115423
1789224566489093600,0.42809375,-1.4750912575066089,0.743344670420885,-1.0284589583799242
1789224566499131400,0.43813134765625,-2.138503728556633,0.400955712839961,-0.6970633962392807
1789224566509169400,0.44816943359375,-1.5850199512124061,1.133030216705799,-0.5259323380738496
1789224566519206400,0.458206298828125,-0.9355717081069945,1.0981517955482005,-0.6323813729703426
1789224566529244400,0.468244384765625,-0.8705611835360526,0.4869131638497114,-0.6699610159106553
1789224566539282400,0.478282470703125,-1.0540724153250456,0.8949608807772398,-0.5153244348198175
1789224566549319400,0.4883193359375,-1.2399649892926214,1.5283195743471383,-0.607169482563436
1789224566559357400,0.498357421875,-1.4098860871464014,1.5266548560053108,-0.5474237466529012
1789224566569395500,0.5083955078125,-1.3744213905334473,1.4300646595612168,-0.35623934988752004
1789224566579432400,0.518432373046875,-1.0282108288377523,1.3638064730167387,-0.4089702385999262
1789224566589470500,0.528470458984375,-0.9014110798299312,1.244768590182066,-0.503263556278497
1789224566599507500,0.538507568359375,-0.9527660040140151,1.1357181406155228,-0.5067661575719714
1789224566609545500,0.54854541015625,-0.9048287793189287,1.1053154035672546,-0.46800095810890197
1789224566619583500,0.55858349609375,-0.6002338380813599,1.1170604941576718,-0.4424373316548764
1789224566629620200,0.5686201171875,-0.45862113534510135,1.1509046038314699,-0.4908725689999759
1789224566639658500,0.578658447265625,-0.4143623069018125,1.2076663554951548,-0.5159634633757174
1789224566649696300,0.5886962890625,-0.6042512570291757,1.144457035127282,-0.4755791382782161
1789224566659733500,0.5987333984375,-0.07333177819252014,0.9937918418854474,-0.7076790444083512
1789224566669771500,0.608771484375,0.1033142440021038,1.117789685215056,-0.9666789401628076
1789224566679809300,0.618809326171875,0.12290098800361156,1.1719047217622398,-0.9928019540652632
1789224566689846500,0.628846435546875,0.19129764788150785,1.0697639054536818,-0.7879768622212111
1789224566699884300,0.63888427734375,-0.45083705734014506,0.895437850639224,-0.54410600040704
1789224566709922300,0.64892236328125,-0.3591284954577684,1.064881101848185,-0.6847047037951648
1789224566719959600,0.65895947265625,-0.23069968394339083,1.25731242993474,-0.9353766239263117
1789224566729997300,0.668997314453125,-0.7494611074745655,1.2878805866777896,-1.1891764668196438
1789224566740035600,0.67903564453125,-1.1159499025672674,1.208544307373464,-1.3639679471887647
1789224566750072600,0.689072509765625,-1.2860346665501594,1.0443108997672796,-1.271461220666021
1789224566760110600,0.699110595703125,-1.3359399764478206,0.7051932189419865,-1.1815434877231716
1789224566770147800,0.70914794921875,-1.5661504155695438,0.6148369484513998,-1.2369751598268746
1789224566780185600,0.719185546875,-1.737194964495301,0.704271135661006,-1.2812614607989787
1789224566790223600,0.7292236328125,-1.881054569375515,0.5979828442841768,-1.0983479026421903
1789224566800260900,0.7392607421875,-2.1300170552402733,0.37385493994653224,-0.9130693689197301
1789224566810298600,0.749298583984375,-2.2922329855442047,0.26075346142351624,-0.8799040352903306
1789224566820337000,0.7593369140625,-2.053752146205306,0.15164543645083903,-0.9362013112474232
1789224566830374000,0.769373779296875,-1.5966694724738597,0.15112112031579017,-0.9020041503522545
1789224566840411600,0.77941162109375,-1.1631342630684376,0.10669745669960976,-0.70919178705886
1789224566850450000,0.789449951171875,-0.7311275784045458,-0.07637363010644913,-0.7684978894431144
1789224566860486700,0.799486572265625,-0.5364911414891481,-0.1443447580486536,-0.9125552819177508
1789224566870524700,0.809524658203125,-0.6107534785300492,-0.2879711386948824,-0.9791062408637254
1789224566880562700,0.819562744140625,-0.5332546437859534,-0.3273082928270101,-1.1989357173550874
1789224566890599700,0.829599609375,-0.4660860643982887,-0.40863691499233246,-1.4392119887433945
1789224566900637700,0.8396376953125,-0.5731769043296575,-0.452614588406682,-1.6402821119681
1789224566910675700,0.84967578125,-0.6505687715679407,-0.5659820243895054,-1.5475610120423138
1789224566920712700,0.859712646484375,-0.5689385361075401,-0.8209381977111101,-1.3080296407371759
1789224566930750700,0.869750732421875,-0.40801732178926464,-1.1035562849402427,-1.087762065089494
1789224566940788700,0.879788818359375,-0.5488567020654678,-1.4375041619122026,-0.7088531296890228
1789224566950825700,0.88982568359375,-0.6903384718984366,-1.5927350556343793,-0.613812573839724
1789224566960863700,0.89986376953125,-0.5283259552121162,-1.621288949945569,-0.9204349292516708
1789224566970901800,0.90990185546875,-0.4851186816483736,-1.584468162548542,-1.146550646405667
1789224566980938800,0.919938720703125,-0.36312604066133497,-1.5588789632618427,-1.3179983693048358
1789224566990976800,0.929976806640625,-0.29516484959125516,-1.6624790384680033,-1.4208793364562093
1789224567001014800,0.940014892578125,-0.3609165479183197,-1.8540180938899515,-1.0440345670439302
1789224567011051800,0.9500517578125,-0.38314299277365205,-1.7560025408178568,-0.6191904674857854
1789224567021089800,0.96008984375,-0.24099136085510253,-1.7587644067466257,-0.27583602587357164
1789224567031127800,0.9701279296875,-0.25918402014970776,-1.8105542152166365,0.06563230973109603
1789224567041164500,0.98016455078125,-0.1865028148204088,-1.7618752322435378,0.3479613508857786
1789224567051202800,0.990202880859375,0.08796119204759598,-1.7432237232655285,0.1784320288285613
1789224567061240600,1.000240478515625,0.07537351315319538,-1.7206465652763843,-0.19088292960077524
1789224567071277600,1.010277587890625,-0.26594635389149185,-1.6662760926634073,-0.29173545966446396
1789224567081315800,1.02031591796875,-0.41583880919516086,-1.5855337459534407,-0.357105757458508
1789224567091353600,1.030353515625,-0.42941900625824925,-1.5657447573781011,-0.39343057803213594
1789224567101390600,1.040390625,-0.40602293310165405,-1.607912751021981,-0.1142269754216075
1789224567111428900,1.050428955078125,-0.11318623419702052,-1.6296704093217849,0.6181538179144263
1789224567121466600,1.060466552734375,0.8308698091387748,-1.703871371564269,1.2720748225197196
1789224567131503900,1.07050390625,1.9831880791604517,-1.3458067059457302,1.3050538397967815
1789224567141541600,1.080541748046875,2.125737185963988,-1.404521052981913,1.33121324018687
1789224567151579600,1.09057958984375,2.1927163802593945,-1.1531538440629838,0.8876824142068624
1789224567161617000,1.100616943359375,2.439991351428628,-1.0211538960635662,0.35418840870708224
1789224567171654700,1.110654541015625,2.531350369220972,-1.0954881292968988,-0.22266776865720747
1789224567181692700,1.120692626953125,2.402119593673944,-0.9647659461483359,-0.4494891498625278
1789224567191729700,1.130729736328125,1.9720903465628623,-1.284166826851666,-0.21898411170840262
1789224567201767700,1.140767578125,1.9371949742704628,-1.094624205943942,-0.06634995648115873
1789224567211805700,1.1508056640625,2.073293297499418,-0.7504626857325434,-0.04488105199486017
1789224567221842700,1.1608427734375,1.6293360628008842,-0.7312588035687804,-0.21808160991072653
1789224567231880700,1.170880615234375,1.180746492126584,-0.6815165752783418,-0.48457244594246146
1789224567241918700,1.180918701171875,1.0247101272404193,-0.9474290269002318,-0.9315048970595001
1789224567251955700,1.190955810546875,0.7686603134632111,-0.8538195998325944,-1.3245096508949994
1789224567261993700,1.20099365234375,0.4070511071056127,-1.0077201217338443,-1.1715654068052768
1789224567272031700,1.21103173828125,0.12444061866104603,-1.1180044970095158,-0.8246803068488836
1789224567282068700,1.22106884765625,-0.005446574968099594,-1.1714844505235553,-0.6236907015144825
1789224567292106800,1.231106689453125,-0.13732757276296614,-1.3414824130058287,-0.38336978726685045
1789224567302144800,1.241144775390625,-0.1904594434916973,-1.2659630616411566,-0.5039765268534422
1789224567312181800,1.251181640625,0.060603814044594764,-1.3940046274036169,-1.1515712510466576
1789224567322219500,1.261219482421875,0.2433148353666067,-1.66481654150486,-1.8395307188540695
1789224567332257800,1.2712578125,0.34696517945528027,-1.9049813884079456,-2.1854390827327967
1789224567342294800,1.281294677734375,0.5283914216637611,-2.2148411183059213,-2.3590508517980573
1789224567352332800,1.291332763671875,0.4606628703057766,-2.4110133864864705,-2.53603472764492
1789224567362370800,1.301370849609375,0.15417232457995414,-2.6197940840885043,-2.4599516049176455
1789224567372407600,1.311407470703125,0.4507154767870903,-2.3725381098806855,-2.0720243004769086
1789224567382445800,1.32144580078125,0.2921370262026787,-1.927323276336491,-1.5910954717338084
1789224567392483600,1.331483642578125,-0.2402525251865387,-1.763723198197782,-1.3215817807495593
1789224567402520600,1.3415205078125,-0.4213566958338022,-1.4379483985483645,-1.105773376467824
1789224567412558800,1.351558837890625,-0.5865951888293027,-0.9922694546237587,-1.095513848260045
1789224567422596600,1.3615966796875,-0.6994178504109382,-0.8855264052167534,-1.1769412546247242
1789224567432633600,1.371633544921875,-0.48840369466841216,-0.9894961905181408,-1.164233748742938
1789224567442671900,1.381671875,-0.4135761249601841,-1.0694579082444309,-1.1589870802611113
1789224567452709600,1.391709716796875,0.224326641780138,-1.087637708057463,-1.173767885285616
1789224567462746600,1.40174658203125,1.2539677956819533,-0.943868411809206,-0.7393044551193714
1789224567472784600,1.41178466796875,1.0949930392563343,-0.3475156529448926,-0.28269115246534343
1789224567482822700,1.42182275390625,1.0268179131746291,0.09269421191886067,0.15655483580231666
1789224567492859600,1.431859619140625,1.4442390231251716,0.31597704373449087,0.580977348947525
1789224567502897700,1.441897705078125,-0.30258477045893667,0.40012203849479555,1.0666372978657483
1789224567512935700,1.451935791015625,0.10564005660116672,0.4197770254269242,1.3648720564216374
1789224567522973000,1.461972900390625,0.41154257330596444,0.5059860400449484,1.369302147823572
1789224567533010700,1.4720107421875,0.6173696817994118,0.41131844569388776,1.3172323533684014
1789224567543048700,1.482048583984375,1.1085621304035187,0.2755544689858332,1.4439093527793883
1789224567553086700,1.492086669921875,1.2036463061988354,0.39089707749914376,1.6914169636607168
1789224567563123700,1.502123779296875,0.9444973573625087,0.5340951131980866,2.0272510927706957
1789224567573161700,1.51216162109375,0.864564573469758,0.4923929104350507,2.2925737618058917
1789224567583199700,1.52219970703125,0.8864636860668659,0.44847675794959063,2.4130308637887237
1789224567593236700,1.53223681640625,0.7776987754434347,0.3673305066138506,2.4850492212951183
1789224567603274800,1.542274658203125,1.0148463203519582,0.1544885874548927,2.3747575394958256
1789224567613312800,1.552312744140625,2.2313830877840517,-0.14477916741054503,1.9074469017386435
1789224567623349800,1.562349853515625,2.055316911303997,0.013224442427977918,1.236221126589179
1789224567633387800,1.5723876953125,-0.18271394393146037,-0.18885343306716532,1.241830783164501
1789224567643425800,1.58242578125,-0.9555997661352157,-0.4275939097229391,1.0954290925860404
1789224567653462500,1.592462646484375,-0.7109300090283155,-0.576224126538448,0.8760439988613128
1789224567663500800,1.602500732421875,-0.33496377601623534,-0.7515045960009098,0.8894260430037975
1789224567673538600,1.61253857421875,-0.4921159931898117,-0.5251990188306197,0.6726701287388801
1789224567683575600,1.622575439453125,-0.9468763614535332,-0.6282827785450965,0.6539975769728422
1789224567693613800,1.63261376953125,-1.158771391683817,-0.7095768408536911,0.5310831449657678
1789224567703651600,1.642651611328125,-1.3346148653239012,-0.9088711135122924,0.3250450240701437
1789224567713689900,1.65268994140625,-1.225948738899827,-1.0926765790075064,0.04117722904086113
1789224567723726800,1.662726806640625,-2.5739421412348746,-1.4344469662986694,-0.09438508761525154
1789224567733764600,1.6727646484375,0.08643617443740367,-1.823680384901911,-0.42734921424686906
1789224567743803000,1.682802978515625,1.3132821544378994,-1.2928114672087132,-1.2152636787563562
1789224567753839600,1.692839599609375,0.6062766253769397,-1.761613658697903,-0.7036047807067632
1789224567763877400,1.70287744140625,1.2971271384507417,-1.4736350673489271,-0.37099545886218543
1789224567773915400,1.712915283203125,1.7039374225378034,-0.9967674966953695,-0.28462942705154415
1789224567783952100,1.7229521484375,1.4295938271790742,-0.43881161543838676,-0.42441725244820117
1789224567793990400,1.732990478515625,0.7555863123565911,-0.4120071951430291,-0.27575112406909463
1789224567804028200,1.743028076171875,0.14137421780526638,-0.8153757412783801,0.18120353936851025
1789224567814066400,1.75306640625,-0.1270300506323576,-0.5781043142618612,1.5239906052321195
1789224567824103400,1.763103515625,3.8396325234144926,0.6086038992807269,6.26763182375431
1789224567834141200,1.77314111328125,7.861711864256859,2.4242846637308597,7.4093164715588085
1789224567844179500,1.783179443359375,1.2856430368840694,4.08096816766262,-0.3693903617531061
1789224567854216400,1.793216552734375,-1.3040928858101368,-0.13956323199369944,-1.0962702195852994
1789224567864254200,1.803254150390625,-2.2059464487105607,-2.8405650792136785,0.531323383462429
1789224567874292500,1.81329248046875,-3.1480653865039345,-1.5227765532672404,-0.4290466658145189
1789224567884329200,1.8233291015625,-1.8706272833853959,-1.4473390349671245,0.2884136217653751
1789224567894367200,1.8333671875,-0.9872042801886797,-0.6648780866231769,0.3470791612237692
1789224567904405200,1.8434052734375,0.7551631185084581,-0.4725007902787998,-0.004348258337378502
1789224567914443300,1.853443359375,0.6446060637712479,-0.2216629207299091,-0.7266659228205681
1789224567924480300,1.863480224609375,0.6309153920710087,-0.9921944896914064,-0.7416162391930818
1789224567934518300,1.873518310546875,0.13687865995168685,-1.8249116802625358,-0.5273626631379127
1789224567944556300,1.883556396484375,0.9536807807713746,-1.3921473090991376,-1.0870911800906062
1789224567954593300,1.89359326171875,2.3321306961685417,-0.9773955644883214,-0.7725260489806532
1789224567964631300,1.90363134765625,1.9255711719721555,-0.95624931608513,-0.41040567823052404
1789224567974669300,1.91366943359375,2.196105438175797,-0.8999780513521284,-0.6284209449067711
1789224567984706300,1.923706298828125,2.4549492665857073,-0.4842717094302177,-0.3091393066689372
1789224567994744300,1.933744384765625,2.0334207213163373,-0.0972309785656631,0.16737170563191175
1789224568004782000,1.943781982421875,1.5169722509026526,0.2469691200904548,0.3736535721555352
1789224568014819300,1.9538193359375,1.0976742411643265,0.5491588998824357,0.3838736451357603
1789224568024857300,1.963857421875,0.17558277687728405,1.1475205143511296,-0.08282236785441636
1789224568034895000,1.97389501953125,0.12893033129572867,1.4962968348816037,-0.2400844751432538
1789224568044933400,1.983933349609375,0.6170961255550385,1.2986264370977878,-0.14415361939072607
1789224568054970400,1.993970458984375,0.801922531595826,1.1977338672846556,0.4778188800290227
1789224568065008400,2.00400830078125,-3.986153456458449,1.9190739189073442,1.6389850578948855
1789224568075046400,2.01404638671875,-1.169056638854742,1.1754223744943737,1.3856915570884942
1789224568085083100,2.024083251953125,0.504765631404519,0.42216918126046654,0.14713000485301017
1789224568095121400,2.034121337890625,-0.45251697325110435,0.2906953029617667,-0.23300679184198378
1789224568105159200,2.0441591796875,-0.5243804324567317,0.23366262540221214,-0.6037336628958583
1789224568115197200,2.054197265625,-0.8045949656754732,-0.15882161169052122,-0.3524094163358211
1789224568125234400,2.064234375,-0.7621124992549418,-0.6586275748610496,-0.0009632920742034911
1789224568135272200,2.074272216796875,-0.7077788515210152,-0.39145869343727824,-0.16685644958615303
1789224568145310500,2.084310546875,-0.5802198085784912,-0.02912994063347578,-0.2907224832296371
1789224568155347500,2.094347412109375,-0.31630583729743955,0.12788725198358297,-0.20216303302794694
1789224568165385200,2.10438525390625,0.04942015672922134,0.20274901622235775,-0.08780366339832543
1789224568175423500,2.114423583984375,0.6190484286665916,0.27096695853248237,-0.13742460339665413
1789224568185461200,2.124461181640625,0.6237918238013982,0.26327158172428605,-0.2425654783040285
1789224568195498200,2.134498291015625,0.5002671509414911,0.33557825465276836,-0.10740443592518567
1789224568205536300,2.144536376953125,0.3559299916774034,0.4542100409045815,0.10391834737509488
1789224568215574300,2.15457421875,0.0984299790918827,0.3814502173811197,0.22014409539848565
1789224568225611300,2.164611328125,0.013436989200115204,0.22973916834816335,0.19369827928245067
1789224568235649300,2.174649169921875,0.06646481503248214,0.2911426083378494,0.1666276092663407
1789224568245687300,2.184687255859375,0.20344635083675383,0.30664719759225845,0.09523848957419395
1789224568255725300,2.194725341796875,0.4484878638654947,0.325782982955873,0.0441454311966896
1789224568265762300,2.20476220703125,0.6178022279977798,0.17376929771453142,0.02940437366068363
1789224568275800300,2.21480029296875,0.7210626959860325,-0.07701222027093171,0.0499687305226922
1789224568285838300,2.22483837890625,0.658455140903592,-0.2574308928720653,0.015189678086340426
1789224568295875300,2.234875244140625,0.590369446671009,-0.37949659909531475,-0.04559679904878139
1789224568305913000,2.2449130859375,0.7884183223783969,-0.402872944638133,-0.13894231448322533
1789224568315951400,2.254951416015625,1.331289520293474,-0.18476766159087418,-0.2686360313668847
1789224568325989000,2.264989013671875,1.4278601352542637,-0.015511457386612892,-0.40993922976255415
1789224568336026000,2.275026123046875,0.7589934904515743,-0.12898439957052468,-0.7088520337104797
1789224568346064400,2.285064453125,-0.6744885763376951,-0.5168646499991416,-0.9211381090849637
1789224568356102100,2.29510205078125,-2.706236980527639,-0.5210507035121321,-0.4536091524019837
1789224568366139400,2.305139404296875,-2.9093823025912044,-0.05848083054125309,0.22587533252686262
1789224568376177400,2.315177490234375,-1.7808815460085867,0.6489931928142905,0.7207672201707959
1789224568386215200,2.325215087890625,0.19097616084218025,0.7294231125742197,0.5102765037804842
1789224568396253400,2.33525341796875,0.4993301623523235,0.6471472726866603,0.8702268370151519
1789224568406290200,2.345290283203125,1.0339695384949446,0.3257525878176093,0.26537849087566134
1789224568416328200,2.355328125,1.0412842454224824,0.29470629216879607,-0.4478378755241632
1789224568426366200,2.3653662109375,0.3553852172762155,0.5334329229623079,-0.48065673380345103
1789224568436403200,2.3754033203125,-0.3206599408537149,0.8256915297180414,-0.24701310536265372
1789224568446441500,2.38544140625,-0.8756728274613619,1.0269076372846961,0.11518924458250403
1789224568456479200,2.395479248046875,-0.9450386246323585,0.7706903579860925,0.5865642091691494
1789224568466517200,2.405517333984375,-0.6233809049129486,0.41687370520085093,0.5279506921589374
1789224568476554500,2.415554443359375,-0.5440373190850019,0.13021101875603197,0.2646902163505554
1789224568486592300,2.42559228515625,-1.0072826070994139,0.3636617549732327,0.8797951680883764
1789224568496630300,2.43563037109375,-1.0625064816713332,0.8423848903656005,-0.4329676386505365
1789224568506668300,2.445668212890625,-0.584080575659871,0.37152532795518634,-0.5454843030229211
1789224568516705300,2.455705322265625,-0.2549509126245975,0.09763765967041253,-0.07787365940585732
1789224568526743300,2.465743408203125,-0.35100597927868366,-0.4319236825555563,0.30605858404934405
1789224568536781300,2.47578125,0.3742413089156151,-0.8161231986448169,0.9092869277715683
1789224568546818300,2.485818359375,0.583627571195364,0.43147798461467024,5.880979946076869
1789224568556856300,2.495856201171875,-0.15298749870955944,0.9387640744075179,2.3287577126041055
1789224568566894300,2.505894287109375,0.5029553671121597,0.17957915303707123,0.5513518798820675
1789224568576932000,2.51593212890625,2.799974417889118,0.6987538335442542,-0.5192777024902403
1789224568586969300,2.52596923828125,3.4392747764676805,1.1082233999684452,-1.0635548216804862
1789224568597007400,2.53600732421875,3.036349224859476,0.8522048581123352,0.15874737741053102
1789224568607045400,2.54604541015625,1.3737883533269166,0.3549783900409937,2.326460541577637
1789224568617082400,2.556082275390625,0.8500824591308832,0.07336246559172868,3.4605849832609294
1789224568627120400,2.566120361328125,1.1386702684193848,-0.24654373428523538,3.519950779943168
1789224568637158400,2.576158447265625,0.7064712760537862,-0.12706015350967645,2.272661585242301
1789224568647196400,2.586196533203125,-0.28817104518115516,-0.09912205300927161,1.7259252363316713
1789224568657233200,2.596233154296875,-0.509763878083229,-0.1740615586593747,3.4851185360148547
1789224568667271400,2.606271484375,-2.3939503157436848,0.05109159707278013,4.639996135130525
1789224568677309200,2.61630908203125,4.0447757412970065,-2.066581817162037,-0.6142857443094253
1789224568687347500,2.626347412109375,4.534204102838039,-3.2879934971541163,-2.2952836052864787
1789224568697384400,2.636384521484375,-6.186935654273629,0.5049845348522066,2.680296775846183
1789224568707422200,2.646422119140625,0.3152981215596199,-1.3633756803840398,0.0697481475520879
1789224568717460500,2.65646044921875,-1.3977759626358746,-0.8442354866683482,-0.9161761027634143
1789224568727498200,2.666498291015625,-1.0893085638791322,-2.1338936044126746,-4.661999292623997
1789224568737535200,2.67653515625,0.944045521941781,-2.7085411658167837,-2.4049798054106533
1789224568747573200,2.6865732421875,-3.7894501501411195,-0.09795593183934688,2.133352337142825
1789224568757611300,2.696611328125,1.007933179962635,-0.35873102057278156,-1.223861045905575
1789224568767648500,2.7066484375,-2.0163994438886643,-1.0143734421432018,2.065879367981106
1789224568777686300,2.716686279296875,1.6908996617883443,-0.6290630422025919,-0.7075625053565949
1789224568787724500,2.726724609375,2.2164222500175237,-1.6171607640996575,-0.1649883906919509
1789224568797762300,2.73676220703125,-0.9749152919799089,-0.6518591036394238,0.8847343780562281
1789224568807799600,2.746799560546875,0.9102718471556901,-0.5853691541656851,0.15701629756791516
1789224568817837600,2.756837646484375,-2.1932482951790093,-1.6184709699153899,0.6200193925905972
1789224568827875300,2.766875244140625,0.3848410288631916,-0.2353103926092386,-0.27768506954004984
1789224568837913600,2.77691357421875,0.17460604079961775,-1.1687895123511551,-2.2669266948521134
1789224568847950300,2.786950439453125,-0.11788695923388004,-0.17341770779788493,-1.9659572506353258
1789224568857988400,2.79698828125,-1.712752597156167,0.4812605449154973,0.2858481917241588
1789224568868026400,2.8070263671875,0.3575643148809671,0.9404518813639878,-3.2583991538792847
1789224568878064400,2.817064453125,0.7074912667512894,-0.022584464512765405,-1.7257818823382258
1789224568888101600,2.8271015625,-1.116903257769346,-0.01232522856593132,0.5982318140765651
1789224568898139400,2.837139404296875,-0.927711642256379,-0.37411768253594635,0.3518603676183149
1789224568908177400,2.847177490234375,-0.11920096444189547,0.26072628115564583,-1.940028882522136
1789224568918215400,2.85721533203125,0.5567027393907308,1.1179308472514151,-3.9763720671564338
1789224568928252400,2.86725244140625,0.39837855582833287,0.593666734650731,-0.8382638649128377
1789224568938290400,2.87729052734375,-0.9530027353793382,0.5249363127738237,-0.18442242834977804
1789224568948328400,2.887328369140625,-0.4639847082048654,-0.22885054894536733,-0.4916509694939479
1789224568958365400,2.897365478515625,-0.04914835405051708,-0.3248117998361587,-0.09226009481791406
1789224568968403500,2.907403564453125,-0.11449264062047004,-0.4215978111132979,0.08236001103967427
1789224568978441500,2.91744140625,0.08080664411783219,-0.5836494907662272,0.1319076666060835
1789224568988479500,2.9274794921875,0.34331659381985663,-0.117827338001132,-0.4620001467915252
1789224568998516500,2.9375166015625,1.063881277155876,0.8236813589394092,-2.086928731881082
1789224569008554500,2.947554443359375,-0.5312924038022756,0.7431471020221709,-1.5267365429393946
1789224569018592300,2.95759228515625,0.407028310751915,0.4578443057537079,-1.457451555919647
1789224569028630500,2.967630615234375,0.31150398997366424,0.9250342397406697,-1.15369730328992
1789224569038667500,2.97766748046875,1.3822329410672187,1.0392027629733085,-0.7490124138589948
1789224569048705500,2.98770556640625,0.46444063527882096,0.41124505166411396,-0.49147583212275053
1789224569058743600,2.99774365234375,-0.12625380556285382,-0.11567483614236115,-0.400163101157546
1789224569068781300,3.00778125,0.5143646498769522,-0.08203326330333947,-0.43805056793801483
1789224569078818600,3.017818603515625,0.3252174580276012,-0.11140285791158676,-0.30410752304680644
1789224569088856600,3.027856689453125,0.33188334565758704,-0.31442659942209716,-0.2064387741183862
1789224569098894300,3.037894287109375,0.14400222822129727,-0.06201601893007755,-0.22526233346136285
1789224569108932600,3.0479326171875,0.042459085544943806,-0.06926350584030151,-0.2097744944123551
1789224569118969300,3.05796923828125,-0.051580549633502955,0.00875379981994629,-0.19735345905544235
1789224569129007600,3.068007568359375,-0.10353870040774345,-0.0735056734547019,-0.05064888110684696
1789224569139045400,3.07804541015625,-0.025983167040348053,-0.1464516672000289,0.10596019193362444
1789224569149083400,3.08808349609375,-0.03556172724664211,-0.36020810738801956,0.2759880015648901
1789224569159120600,3.09812060546875,-0.10892506962120532,-0.41609892143607136,0.4214105449128896
1789224569169158400,3.108158447265625,-0.11466390553414821,-0.09257102393060922,0.4634520991655066
1789224569179196400,3.118196533203125,0.05674830766022205,-0.05407675036340952,0.2604616023374721
1789224569189234400,3.128234375,0.3328279330313206,0.026605098330974578,0.060032370832189916
1789224569199271400,3.138271484375,0.4005956473559141,0.3218471048116684,-0.10919055215697734
1789224569209309700,3.148309814453125,0.23733985261023044,0.29163199928998945,-0.014373375001084059
1789224569219347500,3.158347412109375,0.5140156903088092,0.24696955848187208,-0.6653958268869667
1789224569229385500,3.168385498046875,1.148839780256152,-0.009039923284947871,-0.9121560534670948
1789224569239422500,3.17842236328125,1.6813959203839302,-0.22582301781773567,-0.2206548213995993
1789224569249460500,3.18846044921875,1.4549498022317886,0.22878011405766008,0.05407046675309538
1789224569259498200,3.198498291015625,0.7591162400484085,0.5735761327803135,0.20515293555893002
1789224569269536500,3.20853662109375,0.2941927896887064,0.8652785669580102,0.003964665847271681
1789224569279573500,3.218573486328125,0.35007600495219227,1.2903349940925837,-0.17182017294075339
1789224569289611500,3.228611572265625,0.7594108390808105,1.6727335982397198,-0.3630802652908489
1789224569299649500,3.2386494140625,1.1710159562289715,1.6513184697672725,-0.6019817046619952
1789224569309687300,3.248687255859375,1.2282365575760603,1.8470812803640961,-0.7891649029619991
1789224569319724500,3.258724609375,1.2862094385951757,2.0488629128590223,-0.6075483988784254
1789224569329762600,3.268762451171875,2.1360878995865584,1.820247926235199,-0.6273114492949098
1789224569339800300,3.27880029296875,2.740264337813854,1.9695593667805193,-0.6053629445981233
1789224569349838600,3.288838623046875,2.6279543019294738,2.2922610425949097,-0.3151538177181035
1789224569359875300,3.298875244140625,2.47419172719419,2.3634862038969993,-0.09681808691583574
1789224569369913600,3.30891357421875,2.0678835474103687,2.2174434097588063,0.0542366171002388
1789224569379951400,3.318951416015625,1.8420546843737362,1.8117086459487675,0.10330978702269494
1789224569389989400,3.3289892578125,1.7168208695083855,1.4338181668758392,0.26607516790293156
1789224569400026600,3.339026611328125,1.555873936226964,1.0849731650233267,0.5420256870016456
1789224569410064400,3.349064453125,1.7943810790508985,0.3726753747731447,0.7414584182828664
1789224569420102400,3.359102294921875,1.5741186179697513,-0.19616028548181055,0.882248698720336
1789224569430140400,3.369140380859375,0.8868389491200447,-0.47695407989323135,0.9763580381341278
1789224569440177400,3.379177490234375,0.43489188471138474,-0.8374749064922332,0.6298838570661842
1789224569450215700,3.389215576171875,-0.15768530113697052,-1.1002402922600507,0.7063584633290767
1789224569460253400,3.39925341796875,-0.6720166332662105,-1.1427385407716035,1.1746437913373111
1789224569470291500,3.40929150390625,-0.7579752533197402,-1.08798871345222,1.9216126436047254
1789224569480329500,3.41932958984375,-0.22692951775491235,-1.55037943046391,2.431512276896834
1789224569490366500,3.429366455078125,-0.09728314714431763,-1.8632213910430668,2.928121489852667
1789224569500404500,3.439404541015625,0.14995149201452732,-1.9208523267567157,3.0390038310214877
1789224569510442500,3.4494423828125,0.8776093484818935,-2.6392542791008946,2.149411783801019
1789224569520480500,3.45948046875,-0.4205471330165863,-3.15814546649158,1.5091481331482528
1789224569530517500,3.469517578125,-1.937330875609815,-2.8830314712822434,0.9322215208962559
1789224569541183500,3.48018359375,-1.8269851255357263,-2.1850603125482797,0.3350011854171753
1789224569551221200,3.49022119140625,-1.3656483014911411,-2.093476253828406,0.41730040618032216
1789224569561258500,3.500258544921875,-0.7764154576346278,-2.1137579943567513,0.4912000473886728
1789224569571296500,3.510296630859375,-0.517171816252172,-1.9867823042601347,0.8374480184853077
1789224569581334300,3.520334228515625,-0.474535912835598,-1.9938041657209395,0.8762737159639596
1789224569591372500,3.53037255859375,-0.09550941547006368,-1.5817366917580364,0.8249903957113623
1789224569601410300,3.540410400390625,-0.21369418860673903,-1.3066495845556259,0.6718319243490696
1789224569611447600,3.550447509765625,-0.3311047625005245,-1.099035008123517,0.1719526036813855
1789224569621485600,3.560485595703125,-0.7051935112029314,-0.900161956551671,-0.20043401727825402
1789224569631523300,3.5705234375,-0.6576657440915703,-0.5946370409876108,-0.447549121710658
1789224569641561600,3.5805615234375,-0.23426146807819603,-0.31531390365064144,-0.5540791128888726
1789224569651598300,3.590598388671875,-0.012356792747974394,-0.14149170670509337,-0.5977069499522447
1789224569661636400,3.60063623046875,-0.011260229682922363,-0.015767477974295615,-0.6282391585990786
1789224569671674400,3.61067431640625,0.05444470689296722,0.02865852372944355,-0.8076558145508169
1789224569681712400,3.62071240234375,0.28235271429121495,0.0456488214969635,-0.80525372184515
1789224569691749600,3.63074951171875,0.2531383102446794,0.07084229946434498,-0.7729220625609159
1789224569701787400,3.640787353515625,0.1568777841463685,0.32301731763482094,-0.7218985622882843
1789224569711825400,3.650825439453125,0.2726847222357988,0.340391646283865,-0.7864607585698365
1789224569721863400,3.660863525390625,1.1158435195833445,-0.1011836617141962,-0.5197001656860113
1789224569731901400,3.6709013671875,0.4743538342669606,-0.07158522678613663,-0.06031301440447569
1789224569741938400,3.6809384765625,0.08789981724917888,0.1909428430944681,-0.16281068132668733
1789224569751976400,3.6909765625,-0.27387568558603526,0.30784839007556436,-0.22118571340590715
1789224569762014500,3.701014404296875,-0.2507096217930317,0.30580957772433753,-0.20079320597946643
1789224569772052500,3.711052490234375,-0.7609247507750988,0.4005611605644226,-0.3619219255685806
1789224569782089500,3.72108935546875,0.3206745539009571,0.6336877793937921,-0.7873457247108221
1789224569792127500,3.73112744140625,0.5519897393941879,1.2635206369251013,-1.2964639983668922
1789224569802165500,3.74116552734375,-0.8011886643633246,2.0762761127024887,-1.5516715161010621
1789224569812203500,3.75120361328125,-3.23366832498759,2.2741057927012442,-1.3570321565762162
1789224569822240300,3.761240234375,-0.9647355510100721,1.3486907369494436,-1.0664020278051496
1789224569832278500,3.771278564453125,-0.9406161320149898,1.3011521561831234,-1.1676081936120986
1789224569842316300,3.78131640625,2.0514684191823003,-0.07112286997139454,0.34889556299597024
1789224569852354600,3.7913544921875,1.6287211457729338,-0.25214462303221225,0.49521863538026806
1789224569862392300,3.801392333984375,1.263804714563489,-0.2817144163876772,0.31375732185840605
1789224569872429300,3.81142919921875,0.54134588804394,-0.5827724156707524,0.09325842167288065
1789224569882467600,3.821467529296875,0.2105643661484122,-0.8767401644319296,0.025593583200871944
1789224569892505300,3.83150537109375,0.28073475770056244,-1.2582383126080035,0.01181844808757305
1789224569902543400,3.84154345703125,0.10526917746216058,-1.3880828361392021,0.24188509482443332
1789224569912580600,3.85158056640625,-0.03703910632282495,-1.5147569129407406,0.4925609604783356
1789224569922618400,3.861618408203125,-0.15223346547186373,-1.5813567525297403,0.7301343295834958
1789224569932656600,3.87165673828125,-0.026924831804633138,-1.367957747477293,0.800764593732357
1789224569942694400,3.8816943359375,-0.10693535710871219,-1.4391571898162363,0.9319714916579425
1789224569952732400,3.891732421875,-0.039651042386889455,-1.3808698360204696,0.7364613406479358
1789224569962769400,3.901769287109375,-0.04157470392584801,-1.041798040163517,0.5234107106417417
1789224569972807400,3.911807373046875,-0.26175767002999784,-0.6819003138989209,0.49241205352693795
1789224569982845200,3.92184521484375,-0.1285235040605068,-0.3263426626652479,0.3016660481788218
1789224569992883500,3.931883544921875,0.22864888889342544,-0.07230886488556862,0.11258549182489513
1789224570002920400,3.94192041015625,0.4546384954497218,0.24054244804382321,0.18897943406701087
1789224570012958500,3.95195849609375,0.41676732221692797,0.4552425988227129,0.15995602254793048
1789224570022996500,3.96199658203125,0.4117088697835803,0.46581075458824633,0.1960370974935591
1789224570033034200,3.9720341796875,-0.13988953220546244,0.7207388708591461,-0.11755261271297932
1789224570043072500,3.982072509765625,-0.2804173623144626,0.7840221332460642,-0.11357070346996187
1789224570053109500,3.992109619140625,-0.2548614807754755,0.8297019344031811,-0.03801803435757756
1789224570063147300,4.002147216796875,-0.2510191261336207,0.8126017465204,0.03559066108018159
1789224570073185500,4.012185546875,-0.15761106685698031,0.6120189684212207,0.23259587295353412
1789224570083223300,4.022223388671875,-0.12716156805753706,0.6000690029084682,0.22058614007756114
1789224570093260500,4.032260498046875,0.19727467646449803,0.21010230159461496,0.3002824848659336
1789224570103298300,4.04229833984375,0.027940730848908423,0.14588146609663963,0.19281404379382727
1789224570113336300,4.05233642578125,-0.1591211791589856,0.008940262302756309,-0.0020578093126416203
1789224570123374300,4.062374267578125,-0.1220695056155324,-0.0015121581286191938,-0.0028672259993851182
1789224570133412400,4.072412353515625,-0.2657116683527827,-0.5279577064216137,-0.23747590008005498
1789224570143449300,4.082449462890625,-0.2977444908209145,-0.6431862601011991,-0.088096362734586
1789224570153487400,4.0924873046875,-0.2169040905639529,-0.8161573931753635,-0.04840732642486691
1789224570163525400,4.102525390625,-0.18255261588990687,-0.8250999935656785,-0.04850318801477551
1789224570173563400,4.1125634765625,0.008465922789275646,-1.1009171686083077,-0.09249299025833606
1789224570183600400,4.122600341796875,0.286325125053525,-1.1832061602383852,0.029451719933748243
1789224570193638400,4.132638427734375,-0.7371089909017086,-1.0478332286745309,-0.018694179075956344
1789224570203676400,4.142676513671875,-2.0913820580281315,-0.6041010349035263,-0.637309769283235
1789224570213714400,4.15271435546875,-2.068716491103172,-0.6342191097915172,-0.7613290937922894
1789224570223752400,4.16275244140625,-1.3776727935448287,-0.3077168726503849,-0.7156677050746977
1789224570233789400,4.17278955078125,-0.8028472452253103,-0.36519232554137704,-0.37105347265973687
1789224570243827500,4.182827392578125,-0.3515393555030227,0.0817079768717289,0.2573756555534899
1789224570253865500,4.192865478515625,-0.1156372806109488,0.5462333678245544,0.5095351838938892
1789224570263903500,4.202903564453125,-0.1300733638510108,0.5607768569618463,0.5704553704112768
1789224570273941500,4.21294140625,0.14792027844786643,0.8590548701375722,0.5663233851730823
1789224570283978500,4.222978515625,0.5110667773753405,1.122287873417139,0.3191632725551724
1789224570294016300,4.233016357421875,0.4038955656841397,1.327740887901187,-0.7181468085393309
1789224570304054500,4.243054443359375,0.4974702136993408,1.4198638758033513,-1.1682673881731926
1789224570314092300,4.25309228515625,0.5246889138840138,1.4305629644721745,-1.0938966223217546
1789224570324129300,4.26312939453125,0.31279607561081646,1.199804828339815,-1.3714762769922613
1789224570334167600,4.27316748046875,0.08608926069587469,0.5692933408945798,-1.4460570323325692
1789224570344205300,4.283205322265625,-0.06471899427846074,-0.16755787585377693,-0.9719994045332073
1789224570354243600,4.29324365234375,-0.2592760823473334,-1.2092489485114812,-0.7050017880231142
1789224570364281300,4.30328125,-0.21388883439600467,-1.2027981649369002,-0.6430933211207389
1789224570374318300,4.313318359375,0.20869681871086357,-1.7605664877325296,0.031044542083144187
1789224570384356600,4.323356689453125,0.26963819414675233,-1.8464561342030763,0.5099097162947058
1789224570394394400,4.333394287109375,-0.36607962976992126,-0.6289268486022949,0.08380231880247592
1789224570404432600,4.3434326171875,-0.16984394096434116,-0.6798579944163561,-0.17011165198981762
1789224570414470400,4.353470458984375,-0.16452479176819323,-0.6602788491994143,-0.10267185444533825
1789224570424507400,4.36350732421875,-0.010794365736842155,0.007564882296323776,-0.3185267282173037
1789224570434545400,4.37354541015625,0.2259001747071743,0.06582885521650314,-0.4043883176371455
1789224570444583400,4.38358349609375,0.13107421145662665,-0.14391981063485146,0.1348462773412466
1789224570454621400,4.393621337890625,0.1359993928991258,-0.16752631167173385,0.4127224307402968
1789224570464658400,4.403658447265625,0.14741408249139784,-0.17110300111472607,0.40901714648157356
1789224570474696400,4.413696533203125,0.7539207172319292,-0.15482874266207217,0.7959899266764521
1789224570484734500,4.423734375,0.08727028717398642,0.25143501345813274,0.8928963494628668
1789224570494772500,4.4337724609375,0.13836860624849795,0.20677344943284987,0.8495841542199254
1789224570504810200,4.443810302734375,0.2032274473890662,0.2023854436069727,0.806589062102139
1789224570514847500,4.453847412109375,0.4591584570921957,0.2516232295066118,0.544460512933135
1789224570524885500,4.463885498046875,0.3377408395141363,0.07919394822418689,-0.05428893180936575
1789224570534923300,4.47392333984375,0.2244486607246101,-0.21011457655429838,-0.5195522816479206
1789224570544961500,4.48396142578125,0.056671589162200685,-0.39397126078009603,-0.6200201963081956
1789224570554999300,4.493999267578125,0.08775500195100903,-0.4198112199574709,-0.6919403541371226
1789224570565036500,4.50403662109375,-0.20903920240774748,-0.20725451094806194,-0.539402645021677
1789224570575074600,4.514074462890625,-0.10965981363654136,0.07906009271144866,-0.4818329379759729
1789224570585112300,4.5241123046875,0.2793511943876743,0.21894728682935236,-0.6807232329435646
1789224570595150600,4.534150634765625,0.6225152279943228,0.13785071985423564,-1.0223163639716804
1789224570605188400,4.544188232421875,0.4439040432065725,0.0402677129805088,-1.0676447213426232
1789224570615225300,4.554225341796875,0.48037353294789786,0.018732172998785972,-1.133914013803005
1789224570625263400,4.564263427734375,-0.10633812186792492,-0.4985287828415632,-0.7404391582377254
1789224570635301400,4.57430126953125,-0.19715353430286048,-0.725444272071123,-0.6164096045956016
1789224570645339400,4.58433935546875,-0.35701311073899267,-0.8526344817012548,-0.44063086675480007
1789224570655377400,4.59437744140625,-0.35204306724146006,-0.8552630766391753,-0.4492871975496411
1789224570665414400,4.604414306640625,-0.01391352067068219,-1.2223469150155781,-0.3874680163659155
1789224570675452400,4.614452392578125,-0.020945319003611802,-1.779137332689762,-1.0497272257275878
1789224570685490400,4.624490478515625,0.04956219554841518,-2.3345786738425494,-1.5901755804099142
1789224570695528400,4.634528564453125,-0.3139386697746813,-2.4275989028453826,-1.5209741800203918
1789224570705566500,4.64456640625,-0.7972253136903047,-2.279076566851139,-1.1773672249518334
1789224570715603500,4.654603515625,-0.843725929711014,-2.2752713293492794,-0.6594454671151936
1789224570725641500,4.664641357421875,-0.08693900939300656,-1.866738459253311,-0.11986980361416935
1789224570735679500,4.674679443359375,0.6122592069178819,-1.3164859189152718,0.4549547217920422
1789224570745717500,4.684717529296875,0.6452011070549488,-0.7241115621626377,0.9429838840596377
1789224570755755000,4.694755126953125,0.2825401996873319,-0.3758522512435913,1.278914897672832
1789224570765792000,4.7047919921875,0.19809841393753885,-0.3606464988052845,1.2673330348201095
1789224570775829800,4.714829833984375,0.1485553614810109,0.4294651834875345,1.5820793677158653
1789224570785868000,4.724867919921875,0.03236483090147376,0.7017728891044854,1.6291434628382324
1789224570795905800,4.73490576171875,-0.04744271917641162,1.1721019979000091,1.4310932719565927
1789224570805943800,4.74494384765625,-0.5640221224933862,1.7917957387328147,1.3172196400173009
1789224570815980800,4.754980712890625,-1.2393278604328632,2.461615154215693,1.4616282570824026
1789224570826018800,4.765018798828125,-0.8902268379926681,2.6110622038394213,1.2100230016238986
1789224570836056800,4.775056884765625,0.2819812506303191,3.183371093162894,0.6712374655872583
1789224570846094800,4.7850947265625,3.140572984921932,3.6376316952109335,-0.888338686158508
1789224570856132900,4.7951328125,-0.5650611101523041,3.1754198418974875,0.3744685418002307
1789224570866169900,4.805169921875,-0.521097465263307,3.153821758073568,0.33173677679374813
1789224570876207900,4.815207763671875,0.15998919416517018,3.3548972881257533,0.17160101376473902
1789224570886245600,4.82524560546875,-0.5161003876283764,2.7491572538435456,0.5192642584867775
1789224570896284000,4.835283935546875,1.2679033820539711,1.8755577255249023,-0.19187325581237671
1789224570906321700,4.84532177734375,1.3113945871256292,1.8554630320012568,-0.23790771562606094
1789224570916359000,4.85535888671875,0.9813898948214947,1.5328057798504828,-0.10678805759251117
1789224570926397000,4.86539697265625,0.9418715389035641,1.7143407431304454,0.14155249698162078
1789224570936434700,4.8754345703125,0.6269207694768906,1.9493121130436657,0.37210605045259
1789224570946473000,4.885472900390625,0.9357315748438239,2.2028239327758548,0.10367971631363034
1789224570956510700,4.8955107421875,0.8840424502693116,2.2856910165548325,0.4384541072376072
1789224570966547700,4.905547607421875,0.9940763579152524,2.2752608079552648,0.4885808048009872
1789224570976586000,4.9155859375,0.6912908041872083,1.9043600416392086,0.33393501749038695
1789224570986623700,4.925623779296875,0.4167417493842542,1.113466269057989,-0.35739173479303715
1789224570996662000,4.935662109375,-0.08373407587185501,-0.31304362063109875,-1.1931050384402275
1789224571006699800,4.94569970703125,0.09417984736673533,-0.3242734551757574,-1.1449953797876835
1789224571016736800,4.95573681640625,-1.1972014409083873,-2.7800872296363113,-1.56826463124454
1789224571026774800,4.96577490234375,-0.8477373573094605,-3.8833313798874616,-1.2876760040163993
1789224571036812800,4.975812744140625,-0.48031332719326014,-4.828446576887369,-0.975756126718223
1789224571046850800,4.985850830078125,-0.44242403378188605,-5.317585015571117,-0.7054718897528945
1789224571056888800,4.995888916015625,-0.230945804191567,-5.455047612890601,-0.5114265505984426
1789224571066925800,5.00592578125,-0.1495078399002552,-5.4907969716638325,-0.6951981868892908
1789224571076963800,5.0159638671875,-0.4329460113406181,-5.367153640860319,-0.6201430920355021
1789224571087001900,5.026001953125,-0.3454185345351696,-5.529390613952279,-0.9791804751437156
1789224571097040000,5.036039794921875,-0.7631745755285024,-5.091276260063052,-1.012503410487622
1789224571107078000,5.046077880859375,-0.8011188139975071,-5.446130146941543,-0.3803266201786697
1789224571117115000,5.056114990234375,-0.18230945478379726,-5.4956029106408355,0.3955003700435161
1789224571127153000,5.06615283203125,1.028373983510211,-4.215490035355091,1.0559706501618027
1789224571137191000,5.07619091796875,1.033194389403984,-3.0199066241025925,1.7410072162598371
1789224571147229000,5.08622900390625,0.7769792289972305,-1.973355251932144,2.18408942168951
1789224571157267000,5.096266845703125,1.019044210433215,-0.791012430524826,2.368407293686271
1789224571167304700,5.1063046875,0.7765788315027952,-0.7461030292183161,2.4550462972193956
1789224571177342000,5.116342041015625,0.9919412455826997,-0.10421148510277271,2.331824114437401
1789224571187379700,5.126379638671875,0.9467816689074039,0.9678811555594206,2.2709378301896153
1789224571197417700,5.136417724609375,1.1977547639422117,1.031726728004217,2.200348774833977
1789224571207456000,5.1464560546875,0.6577294569775461,0.5755336965888739,1.7391712330043314
1789224571217493800,5.15649365234375,-0.5863204635411501,1.3557681279897689,1.0993494809001683
1789224571227531000,5.166531005859375,-3.9685692844510077,10.030500840961933,0.05690919731035828
1789224571237568800,5.17656884765625,2.602192376424372,-0.6593348463475703,1.036515569715947
1789224571247606800,5.186606689453125,0.21871990781426429,-0.9752098910123109,-0.1158351412706077
1789224571257644800,5.196644775390625,0.3208312057673931,-0.9798772983014583,-0.016694091299921273
1789224571267682800,5.206682861328125,-0.7383724349662661,0.11849720008671283,0.15002923342585564
1789224571277719800,5.2167197265625,0.8708101898610592,-0.2073258226186037,0.24294790175035594
1789224571287757800,5.2267578125,4.397800951443612,2.360728429621458,-2.782919238191843
1789224571297795800,5.2367958984375,-1.3924820940114557,1.6152888327479362,-0.8992308131814003
1789224571307833900,5.246833740234375,-1.6617251513607798,1.3752169248253105,-1.9919594146370887
1789224571317871900,5.256871826171875,-1.1544310243919491,2.4139660988122222,-2.903835189858079
1789224571327910000,5.266909912109375,-1.368765264467895,2.446772389870882,-2.315921319645643
1789224571337947000,5.27694677734375,0.3236334037065506,2.707922157135606,-2.204723190525919
1789224571347985000,5.28698486328125,0.8835590506665408,3.2195430612623688,-1.9982902250938117
1789224571358023000,5.29702294921875,0.8590390880465507,3.22386793872416,-2.00439628688395
1789224571368061000,5.30706103515625,0.4831330607891082,3.0084535021960734,-1.9976057499609887
1789224571378098700,5.3170986328125,0.17599077315628528,0.7293126379370689,-1.981968620368093
1789224571388136000,5.327135986328125,0.05316548073738813,0.1734364124983549,-1.1046074014283715
1789224571398173700,5.337173583984375,-0.04198825316280126,-0.12308160526752471,-0.053475277338922024
1789224571408212000,5.3472119140625,0.23478227708190677,-0.3062082216531038,0.29031624051630495
1789224571418249700,5.357249755859375,0.1322290805801749,-0.9793599964290857,0.2271601116403937
1789224571428287700,5.367287841796875,-0.8100527926899492,-0.2745242126226425,0.22889204999953508
1789224571438325000,5.377324951171875,-0.8403685821071266,-0.27612404903471466,0.1839076837606728
1789224571448362800,5.38736279296875,-1.1174454018220306,-0.6977180607557296,-0.08789689463973045
1789224571458400800,5.39740087890625,-0.9206801361843943,-0.8690905264616012,0.1985005649976432
1789224571468438800,5.407438720703125,-0.5598001208841801,-0.7719441574394702,-0.1740453381769359
1789224571478476800,5.417476806640625,-0.4880412910968065,-0.4743757538378238,-1.1928043019279837
1789224571488514800,5.427514892578125,-0.10701660565137862,-0.6028279462277889,-1.7090493587240576
1789224571498551800,5.4375517578125,-0.08218056281954049,-0.1594640012472868,-2.3270883180871604
1789224571508589800,5.44758984375,-0.7737298718124628,0.5044254396647214,-3.4587776415780183
1789224571518627800,5.4576279296875,-2.7317592520579694,0.5901596033126115,-3.7388600728496906
1789224571528665900,5.467665771484375,-4.419320124812424,0.7527490431040526,-3.66085767249763
1789224571538704000,5.477703857421875,-3.1607030420199034,0.026013562178611754,-3.2951568129122255
1789224571548740900,5.487740966796875,-8.390545184469223,0.8532043905436992,-1.8527945434443651
1789224571558779000,5.49777880859375,6.581433569276332,-2.691505859863758,0.7862246117264032
1789224571568817000,5.50781689453125,1.3853887747496365,1.5574492227196692,-1.7249813796103
1789224571578855000,5.51785498046875,-1.8963278340920804,-0.8755413100361824,-1.344965871207416
1789224571588893000,5.527892822265625,12.10982055914402,-4.8725657045990225,5.937329025286436
1789224571598931000,5.537930908203125,18.590607642322777,0.44324528703689575,4.154410420492291
1789224571608967700,5.5479677734375,0.03369417980909347,1.4239783253848552,1.1937825723756104
1789224571619006000,5.558005859375,-5.132994756373763,-0.5279126982361078,1.1553029849208891
1789224571629043700,5.568043701171875,-3.343438613261282,-1.005598015013337,3.1072651740819213
1789224571639082000,5.57808203125,-4.380199536040425,-0.28486849650442597,3.5079315485864875
1789224571649119700,5.58811962890625,-4.387936267772317,-0.2647013222664594,3.4137066199690103
1789224571659156700,5.59815673828125,-3.527615907743573,-0.44185412493944165,3.5940889060825105
1789224571669195000,5.608195068359375,-0.7447659353956579,-0.9150397922098636,3.3561306293129918
1789224571679232800,5.618232666015625,9.593081483599542,-1.1038970612019299,0.586020311550796
1789224571689270800,5.628270751953125,4.073138496950269,0.6931073520898818,0.3451535999886691
1789224571699308800,5.638308837890625,-3.0758605665147303,0.7084229946434497,-0.24541662995144722
1789224571709346800,5.648346923828125,-3.0865333516985176,-0.044369303080439564,-0.4872480948925018
1789224571719384000,5.658384033203125,-2.7207573810502885,0.21627426822781562,-0.5085083250641822
1789224571729421800,5.668421875,0.9829466227442025,0.357717459616065,0.6534069176033139
1789224571739459800,5.6784599609375,4.379337366253138,-0.03216097889244556,0.7442784441396594
1789224571749497900,5.688497802734375,0.06912146702110766,0.3840484171807766,-0.062198682020604606
1789224571759536400,5.698536376953125,-2.376470188632607,0.31012334927022456,-0.6372197529122233
1789224571769573000,5.708572998046875,-1.1786772846370934,-0.2550356682986021,0.18021043667793274
1789224571779611400,5.718611328125,0.9237854087233542,0.006467734709382057,0.5510230863191187
1789224571789649200,5.728649169921875,0.9269508870169519,0.006678747111558914,0.5433804626114667
1789224571799687400,5.7386875,-0.18822949248254298,0.21538521043360231,-0.44638051632270215
1789224571809725200,5.74872509765625,-1.6295067431926726,0.2769336118519306,-0.5258845534093678
1789224571819763200,5.75876318359375,-0.632061639496684,0.21618892803192138,0.10934022629335521
1789224571829800400,5.768800537109375,1.151163839289546,0.10480535934269428,0.4959601013973355
1789224571839838200,5.778838134765625,0.9813707517296075,0.04040858275592327,0.40975992767289277
1789224571849876500,5.78887646484375,-0.16420564281642436,0.06005260990262031,0.09448796346783638
1789224571859914200,5.798914306640625,-0.9278992737829684,0.04053659304976463,-0.13705986173748969
1789224571869952300,5.8089521484375,-0.36757425224184986,-0.04229600393772125,-0.11745339012220501
1789224571879990300,5.818990234375,0.24511282469928264,-0.1769791996717453,-0.2303260283254087
1789224571890027300,5.82902734375,0.1964022775441408,-0.05379296498596668,-0.33229587198123334
1789224571900065300,5.839065185546875,0.19654957706034182,-0.05394318711161613,-0.3318688787408173
1789224571910103300,5.849103271484375,0.14046411722302435,-0.13047405360639094,-0.15597732817530632
1789224571920141300,5.859141357421875,-0.36918285648226734,-0.06620294922590256,-0.16790274376869202
1789224571930179300,5.869179443359375,-0.35528526403307914,0.1648667370736599,-0.33466669276580213
1789224571940217300,5.87921728515625,0.7163251460701227,0.11666764657199383,-0.25247283207327126
1789224571950254000,5.889254150390625,0.5939303540229797,0.13855156159996987,-0.3877317818686366
1789224571960292400,5.899292236328125,-0.5146273924663662,0.15991057597100733,-0.34092297668159005
1789224571970330000,5.909330078125,-0.4966232414811849,0.22686580486893654,-0.1541283393077552
1789224571980368400,5.919368408203125,0.5747124433338642,0.22759587270915507,0.06350947235822678
1789224571990406400,5.929406494140625,1.152002628201246,0.3075859397470951,0.22506664649248123
1789224572000443100,5.939443115234375,0.3597656243175268,0.31810558019578455,0.3023663054026663
1789224572010481400,5.9494814453125,-0.43999213045984503,0.33940263524651526,0.23381986179053782
1789224572020519200,5.959519287109375,-0.22372078484147787,0.3545587033241987,0.14941460865885017
1789224572030557400,5.969557373046875,0.2305328029438853,0.48362990439534187,-0.21279694750607012
1789224572040595200,5.97959521484375,0.44750119091570373,0.6725847885429859,-1.6505542073965072
1789224572050633200,5.98963330078125,-0.608157909078896,0.617788783994317,-2.424681846354902
1789224572060670500,5.99967041015625,-0.811421012303233,0.39644495741724967,-3.1630887681126594
1789224572070708200,6.009708251953125,-0.6707622492909431,-0.22272680536806583,-2.821806310468912
1789224572080746500,6.01974658203125,0.3972866689383983,-1.2955255484730004,0.4894916360355913
1789224572090784300,6.0297841796875,0.2908464018702507,-2.395851765450835,2.2012876631192864
1789224572100822300,6.039822265625,-0.6921317850559949,-1.7029080794900655,3.3225948549360034
1789224572110860300,6.0498603515625,-1.5087112030357122,-0.7695540474325419,1.5378500576280056
1789224572120897300,6.059897216796875,-0.2722749723911285,-0.010718962413072585,0.06803557148054241
1789224572130935300,6.069935302734375,1.3843652769207953,0.8420154725313186,0.5168354239046573
1789224572140973300,6.079973388671875,1.4177069900304078,1.657329985141754,0.04018047308847308
1789224572151011300,6.09001123046875,1.4248928098812699,1.65502521533072,0.037240620244294406
1789224572161049300,6.10004931640625,-0.7168459550738334,1.475053848105669,0.6823634013660251
1789224572171087400,6.11008740234375,-0.3975377210900187,0.9674193832665682,1.0788764555834234
1789224572181124000,6.1201240234375,1.2726418087527156,0.28023908313810825,1.1510047032050787
1789224572191162400,6.130162353515625,1.1202186659276485,-0.14063947378993033,0.9715347096309065
1789224572201200000,6.1402001953125,-0.3547071718841791,-0.30258593950271606,0.23925737666934727
1789224572211238400,6.15023828125,-1.4267641567111014,-0.8087380568295717,-0.12437237573042512
1789224572221276200,6.160276123046875,-1.4376915011778473,-1.3882587772279977,-0.2067944922208786
1789224572231314200,6.170314208984375,-0.6335024859547614,-1.6209826604753732,-0.2793018022879958
1789224572241351400,6.180351318359375,-0.7692746459692716,-1.9579156907379627,0.230352477940917
1789224572251389200,6.19038916015625,-1.6484876302555203,-2.0828736112713813,0.5890827678613364
1789224572261427500,6.200427490234375,-1.5253917042016982,-1.69016141064167,0.2864589805662632
1789224572271465200,6.21046533203125,-0.4876403090804815,-0.8349059327870607,-0.20770912284776566
1789224572281503200,6.220503173828125,0.35274726998806,-0.06192132638394832,-0.47745633032694457
1789224572291541200,6.230541259765625,0.6081590781226753,0.646301177251339,-0.48035789698734876
1789224572301578200,6.240578125,0.4002884811028838,0.787342217579484,-0.21042539606913924
1789224572311616300,6.2506162109375,-0.7136176406770944,0.9010176965981721,-0.27446444525942204
1789224572321654300,6.260654296875,-1.4850430349394679,0.5685989288896321,-0.09471621926575899
1789224572331692300,6.2706923828125,0.8611483352854847,0.6805904003441333,-0.7383833947516978
1789224572341730300,6.280730224609375,1.9539315895378588,0.6908610344678163,-0.5628247294023633
1789224572351768300,6.290768310546875,0.869512551265955,0.7237088265806436,-0.4670280214235186
1789224572361805300,6.300805419921875,-0.07627426138520241,0.7834586541444063,-0.18614421064108608
1789224572371843300,6.31084326171875,0.921340938180685,0.8892097699046134,0.7163429739877581
1789224572381881300,6.32088134765625,0.6989552013352512,1.0692939498543739,0.7165813127882779
1789224572391919400,6.33091943359375,0.014535305830836296,0.9209668441712856,0.466576916655153
1789224572401957400,6.340957275390625,0.38192309558987614,0.9047463617324829,0.4012224009521305
1789224572411995400,6.350995361328125,0.3502738656118512,0.8674410056889057,0.6752095840886235
1789224572422032400,6.361032470703125,-0.3516726264938712,0.47459787215590477,0.3324190599694848
1789224572432070100,6.371070068359375,-1.685465654040873,-0.5678560015678406,-0.8413919338054955
1789224572442108400,6.3811083984375,2.060564748829603,-0.5332902996212243,0.10263283760920167
1789224572452146200,6.391146240234375,0.5499740156576037,-0.6411001014769077,-0.3755075294591486
1789224572462184200,6.40118408203125,0.1889040307432413,-0.41941491411626336,0.5266390250384807
1789224572472222200,6.41122216796875,0.20767536670863626,-0.427778253313899,0.5269418073773384
1789224572482259200,6.42125927734375,-0.21734978850483894,0.0007598784565925597,3.258835207208991
1789224572492297500,6.43129736328125,0.9097235656231641,-0.9133049312412739,3.845288064958155
1789224572502335200,6.441335205078125,-1.926678256431222,-1.6881179221153257,3.5413340519726275
1789224572512373200,6.451373291015625,0.05675093800872564,-0.8355389699935912,5.185434553185105
1789224572522411300,6.461411376953125,-1.7456635176330804,-0.38451428112685676,1.2185502992115913
1789224572532449300,6.47144921875,2.281575105668604,0.8896627743691206,0.26103768519237636
1789224572542486300,6.481486328125,-1.7502677965581417,0.43184243401288985,-0.476726262486726
1789224572552524300,6.491524169921875,4.3874353325128554,-1.4479647656500338,9.173644357651472
1789224572562562300,6.501562255859375,-1.7468921826452015,0.09086158966422081,-2.938480679042637
1789224572572600300,6.511600341796875,-0.8593255037724972,0.4349111739337444,3.931812502200901
1789224572582638300,6.521638427734375,0.935790903815627,-1.3062193764448164,0.8408371494669467
1789224572592676400,6.53167626953125,-0.17315613425225018,-1.4784803154230117,6.064623279812932
1789224572602713300,6.54171337890625,-1.0531953402295708,-1.248781917476654,1.1189654509961604
1789224572612751400,6.55175146484375,-2.327085103216767,-2.614038589301705,-3.812020293867588
1789224572622789400,6.561789306640625,3.7977754954159257,-2.7627573246508836,-1.0854550302561372
1789224572632827400,6.571827392578125,-1.0314067022696136,-1.2015215691298247,-9.120051299151777
1789224572642865200,6.581865234375,-0.98278354113698,0.23899580312371252,-13.108189791947602
1789224572652903400,6.5919033203125,0.17264613890349864,1.3924497991770506,-11.969698971748352
1789224572662941200,6.601941162109375,-2.32242617149502,1.172253389069438,-7.062791437086463
1789224572672978400,6.611978515625,-0.5391553922623396,1.2675725426644087,-4.225738457646965
1789224572683016200,6.62201611328125,-2.0358862346470357,0.28194822514355183,-4.346028970891237
1789224572693054200,6.63205419921875,-2.0799428185164928,0.2900134581774473,-4.4987128104791045
1789224572703092200,6.64209228515625,0.9387877475440501,-0.8232692710071802,-3.2257711419969795
1789224572713130200,6.652130126953125,3.713241355207562,-2.15667476054132,1.0301694155596195
1789224572723168300,6.662168212890625,3.7048683713987467,-2.1538445055514575,0.8425547670397907
1789224572733205200,6.672205322265625,0.05845511157810688,0.16908172442018984,0.8039567408371716
1789224572743243300,6.6822431640625,0.5706979469954967,-1.5840683495759964,3.4279747992962597
1789224572753281300,6.69228125,-1.5719477036714553,-1.2443284451991319,5.297969629997015
1789224572763319600,6.702319580078125,-1.5843462897345422,-1.2353893519401549,5.2350627997070545
1789224572773357300,6.712357421875,-0.3618687340766191,-1.092872978362441,2.0055289441756905
1789224572783395600,6.7223955078125,-0.8549161628976464,-0.5588689775139093,2.773111253143847
1789224572793433300,6.732433349609375,0.07479045256823301,0.12783259918689727,1.06389026417993
1789224572803470300,6.74247021484375,0.8454214815825224,0.3651549161404371,-0.3311706673435867
1789224572813508600,6.752508544921875,0.5340846648693084,0.9203139332205057,-0.13633907318226993
1789224572823546400,6.76254638671875,0.9798232300266623,0.9463725035846233,0.14067008812390266
1789224572833584600,6.772584716796875,0.7576800697654485,1.079237836241722,0.9080914343766867
1789224572843622400,6.782622314453125,0.20466449445486068,0.9814636907100677,1.4536289288915694
1789224572853660700,6.79266064453125,0.29275486584007737,0.8614093243092298,1.3032146416708825
1789224572863697400,6.802697509765625,0.08733926075696945,0.8935352318882942,0.5785193978687748
1789224572873735400,6.8127353515625,-1.6545856548696756,0.2318476849347353,-0.2575578802525997
1789224572883773400,6.8227734375,0.8181786698698997,-0.22821078973710535,0.21860037308782337
1789224572893811500,6.8328115234375,0.80260525316298,-0.11104513051509857,0.08375197685472667
1789224572903849500,6.842849365234375,0.4437231336817145,-0.22289514767229557,0.47489963158145543
1789224572913887500,6.852887451171875,0.027906244057416915,0.0439496163636446,0.42380288340952244
1789224572923924500,6.862924560546875,0.27879911346286534,0.21134207252264023,0.9731725399658083
1789224572933962500,6.87296240234375,0.44664661991298193,0.4996884742707014,0.8655101837567984
1789224572944000500,6.88300048828125,0.08742226286530494,0.7515408363580703,0.17935327185932545
1789224572954038300,6.893038330078125,-0.08331775015592574,0.681607468432188,-0.0844772589219734
1789224572964076500,6.90307666015625,0.08636427824497223,0.7840741556942462,-0.5265448804816231
1789224572974114300,6.9131142578125,0.10130085835307837,0.7770400192737579,-0.5237191555364057
1789224572984152600,6.923152587890625,0.4482786050289869,0.5338368275880814,-0.32107783747222274
1789224572994189600,6.933189453125,0.5396463906496763,0.4152747455716133,-0.15697605688907204
1789224573004227300,6.943227294921875,0.31780104429125783,0.2883352958321571,-0.13137359626200049
1789224573014265600,6.953265625,0.1887742668837309,0.2631675368279219,-0.20973240883629768
1789224573024303400,6.963303466796875,-0.3690805651515722,0.188669637465477,-0.18259652809686958
1789224573034341600,6.973341552734375,-0.3328834626108408,0.061790393480658526,-0.09385985816475004
1789224573044379400,6.98337939453125,-0.0471779307603836,0.15815934838950632,-0.02962937805559486
1789224573054416400,6.99341650390625,0.15869097104817628,0.26118133144676686,-0.08527874803058802
1789224573064454700,7.00345458984375,-0.10998919172137975,0.2063625305444002,0.2075831218479201
1789224573074492400,7.013492431640625,-1.0238000266581773,0.2491279055595398,0.08667151756323874
1789224573084530400,7.023530517578125,-1.1063535144433378,-0.10275076490044593,-0.11043868905454873
1789224573094568400,7.033568359375,0.784829942497611,-0.19053426229357717,-0.168560184764117
1789224573104606500,7.0436064453125,-0.381488795825839,-0.22422376592755316,-0.4631083637617528
1789224573114644500,7.05364453125,-1.2191378898411989,-0.7029553768873215,-0.024108349611796438
1789224573124681500,7.063681396484375,-1.8071102122426033,-0.7790110270857811,0.4247598188081756
1789224573134719500,7.073719482421875,-1.0210413755998016,-0.9776227973729371,0.7176462386060506
1789224573144757500,7.083757568359375,-0.10195113895535468,-0.6414104826003313,-0.1269545377107337
1789224573154795500,7.09379541015625,0.22163550300002097,-0.5975000292032957,-0.5053219866456463
1789224573164833500,7.10383349609375,-0.7591828755438327,-0.5072615398734808,-0.10129428248181939
1789224573174871600,7.11387158203125,-1.068171083304286,-0.3049830637723207,-0.4216632775649428
1789224573184909600,7.12390966796875,-0.3534510343432426,-0.011268997511267661,-0.5772362992556765
1789224573194946600,7.133946533203125,0.3231482505381107,0.3451034772366285,-0.2589533531989902
1789224573204984300,7.143984375,0.5624123492091894,0.5085831438660622,-0.6722374364100396
1789224573215022600,7.154022705078125,-0.17303455369919538,0.7380600080162286,-0.17242073264978824
1789224573225060400,7.164060302734375,-0.17493337305784223,0.7388637256145477,-0.1724791117735207
1789224573235098400,7.174098388671875,0.2028676741659641,0.7071656880587339,-0.08489497287739067
1789224573245136400,7.184136474609375,0.6066998192250729,0.554878446573019,0.032811661353521045
1789224573255173400,7.19417333984375,0.1695236229687929,0.4122779018431902,-0.03176547676883638
1789224573265211600,7.204211669921875,0.17720424059927462,0.40905893979668617,-0.03178410840407014
1789224573275249400,7.21424951171875,-0.5617851572215556,-0.03485445576012134,-0.06205949274562299
1789224573285287400,7.224287353515625,-0.5577800132334232,-0.036568858462572094,-0.06142254654895514
1789224573295325400,7.234325439453125,-0.07865268095433711,-0.32898177899718284,0.08965835135430097
1789224573305363500,7.244363525390625,-0.30760055279433723,-0.40622342410981654,0.18628555534053592
1789224573315401500,7.2544013671875,-0.48807460884451864,-0.4580307682365179,0.2621513089900836
1789224573325438500,7.2644384765625,-0.3967983008995652,-0.40011400131881236,0.2812703624146059
1789224573335476500,7.2744765625,-0.0466857633292675,-0.2655968098014593,0.2920434296350926
1789224573345514500,7.284514404296875,0.08613836053460835,-0.07468085471391678,0.23240623213294892
1789224573355552500,7.294552490234375,0.08237403956502676,-0.0731371324032545,0.23288181375544517
1789224573365590500,7.304590576171875,0.10592471876144409,0.22171149084568023,0.2384793049689382
1789224573375628500,7.314628662109375,0.22262831342965364,0.333858445122838,0.2092281491085887
1789224573385666300,7.324666259765625,0.5340075079798698,0.39477907003164286,0.2126678777663037
1789224573395703600,7.33470361328125,0.6101344698488712,0.37258652744591236,0.09756561734750867
1789224573405741600,7.344741455078125,0.39145810891538857,0.30974399456381796,-0.02125226606093347
1789224573415779300,7.354779296875,0.23629355842769145,0.139895961946249,-0.054004196583852165
1789224573425817600,7.364817626953125,0.2973977232098579,-0.009769114342331886,-0.06991133875716478
1789224573435855400,7.37485546875,0.497682395145297,-0.21672668817043303,0.011190087056159972
1789224573445893600,7.3848935546875,0.4206026625961065,-0.40705812136828895,0.046843365043774246
1789224573455931400,7.394931396484375,0.07333207045346499,-0.5421826311290264,0.08183339334968477
1789224573465968400,7.404968505859375,0.05163432564735412,-0.6410001482337713,0.0629594737926498
1789224573476006400,7.41500634765625,0.2675175487309694,-0.6254758313655853,0.025175796180218455
1789224573486044400,7.42504443359375,0.5284188941925764,-0.5426256987214089,-0.0029218422634527084
1789224573496082400,7.43508251953125,0.6503215188086032,-0.34716567046344277,-0.3586833820387721
1789224573506120400,7.445120361328125,0.6665911010861396,-0.24456746577620506,-0.8626214765779674
1789224573516158500,7.455158447265625,0.28041122483462094,-0.35430385178029533,-0.7500219562277197
1789224573526196500,7.465196533203125,0.00988748002499342,-0.12604805385768414,-0.7192319003622979
1789224573536233500,7.4752333984375,0.9083929015412926,-0.1949742905676365,-0.4363623591227457
1789224573546271500,7.485271484375,1.2552113660022615,-0.07911445324718952,0.104374822438322
1789224573556309500,7.4953095703125,0.6963356664866208,0.14438918171226978,-0.2306575983673334
1789224573566347300,7.50534716796875,0.392981080698967,-0.0728454559803009,0.14272270980477333
1789224573576385500,7.515385498046875,0.09247311651408671,-0.06399462552666664,0.10091087265480309
1789224573586423300,7.52542333984375,0.287852480751276,-0.265470553073287,0.23536329184025526
1789224573596461600,7.535461669921875,0.24607377868592736,-0.38299510873556136,0.4451050164941698
1789224573606498600,7.54549853515625,-0.12333821037709712,-0.3343815922141075,0.3819112224889919
1789224573616536300,7.555536376953125,-0.12576514526307583,-0.33352526764571666,0.3843731556231156
1789224573626574600,7.56557470703125,0.7427063725173473,-0.08425356970131397,0.5859043935535475
1789224573636612400,7.5756123046875,0.09689736269712447,0.019799509969353674,0.709753220333904
1789224573646650600,7.585650634765625,-0.2660410464376211,0.12262217106223106,0.3137096833243966
1789224573656688400,7.5956884765625,-0.3425096613511443,0.14331073882579803,0.26322237228769807
1789224573666726400,7.605726318359375,-0.222511993573606,0.06548866347670555,0.47446905814446505
1789224573676763600,7.615763671875,-0.315419117590785,-0.07420622293949126,0.7825430736694484
1789224573686801400,7.625801513671875,-0.21561609658002853,-0.32906770371496674,1.4471676239229738
1789224573696839700,7.635839599609375,-0.21432897937893866,-0.3296235840320587,1.4475352881915866
1789224573706877400,7.64587744140625,-0.16360592335760593,-0.5170645564854145,2.1119892311185597
1789224573716915500,7.65591552734375,0.8385933891281485,-0.1877922701090574,2.8665222350299358
1789224573726953500,7.665953369140625,0.9001514351576566,0.3242898217886686,1.5793123872205614
1789224573736991500,7.675991455078125,0.09429945515841245,0.7884826197862624,-0.944402153359726
1789224573747028200,7.6860283203125,-0.9753583595722913,0.8893307659357785,-1.7297497630558907
1789224573757066500,7.69606640625,-1.3206921384334565,0.8398679391086101,-2.679534267041087
1789224573767104500,7.7061044921875,-0.33888065719902516,0.5129477688163518,-2.6844863364905116
1789224573777142500,7.716142578125,0.7002700833261013,0.13913842157721518,-1.012881596150249
1789224573787180500,7.7261806640625,0.9239075737982988,-0.14601006091237068,-0.4142549740698188
1789224573797218600,7.736218505859375,0.2012710526242852,-0.43624739097356796,-0.15890077787395565
1789224573807256600,7.746256591796875,-0.6895587196975946,-0.6508867514759302,-0.15817889334019272
1789224573817294600,7.756294677734375,-1.0123483660563826,-0.6615782413601875,-0.7407879716753959
1789224573827331600,7.76633154296875,-0.5615630389034748,-0.3919038068562746,-1.1854117805238813
1789224573837369600,7.77636962890625,0.30025515846759077,-0.051095980986952776,-1.9289577456705271
1789224573847407600,7.78640771484375,0.4567126713752746,0.3309790902942419,-2.45343418584764
1789224573857445400,7.7964453125,0.1152525190770626,0.5663298149138689,-2.6307506546497343
1789224573867483600,7.806483642578125,0.3920677652463317,0.6665688892543316,-2.30823398001343
1789224573877521400,7.816521484375,1.3511232247933744,0.5177881945848465,-1.536636444054544
1789224573887559700,7.8265595703125,1.7468170715823768,0.29421324795484544,-0.8059493759591132
1789224573897596700,7.8365966796875,1.118533197058737,-0.029841596034169197,-0.30024003396369514
1789224573907634400,7.846634521484375,0.013555062621831893,-0.2720674671202898,-0.23509371765125542
1789224573917672700,7.856672607421875,-0.4991843241408467,-0.3847404910981655,-0.6463277729973197
1789224573927710500,7.86671044921875,-0.45611821261346336,-0.43863983906805515,-1.0016274308819324
1789224573937748700,7.876748779296875,-0.01699731203019619,-0.4608399804383516,-1.200205079703778
1789224573947786500,7.886786376953125,-0.03855038766860962,-0.6443126337826252,-1.112945386989042
1789224573957824800,7.89682470703125,-1.1092378377079963,-0.6296481486141682,-0.6795169258937239
1789224573967861800,7.90686181640625,-1.2305407428652047,-0.4118658139109611,-0.2514882780153304
1789224573977899500,7.9168994140625,-0.16223843439668417,-0.07399404149353504,0.21561478140577672
1789224573987937800,7.926937744140625,0.2046598182797432,0.44181379292905326,0.3482531734392047
1789224573997975600,7.9369755859375,-0.48683542243838307,0.8300766129344701,0.5178958927430212
1789224574008013600,7.947013671875,-0.7444231133073568,1.1275894869565963,0.8148266560282558
1789224574018051600,7.957051513671875,-0.11899082882255316,1.2880202874094246,0.9696684773676096
1789224574028089600,7.967089599609375,-0.12157616914063692,1.2900649449795485,0.9569012771878391
1789224574038127600,7.977127685546875,0.6014736090093851,1.2137240480989218,0.6012870734613388
1789224574048164600,7.98716455078125,-0.18700667268931864,0.9158832572966813,0.4035497479211539
1789224574058202600,7.99720263671875,-0.1742579580143094,0.9113017747253179,0.39479982055872676
1789224574068240600,8.00724072265625,-1.1822723865196108,0.049943303820490836,0.7929108114920556
1789224574078278700,8.017278564453125,-0.5699579422831536,-0.33422610939145087,1.1677446064081043
1789224574088316700,8.027316650390626,-0.21471359478235244,-0.4682207383394241,1.2709180537000297
1789224574098354700,8.037354736328124,-0.27934301108121873,-0.6147434249490499,1.1130877180691807
1789224574108392400,8.047392333984375,-0.9374205508440733,-0.7238426820933819,0.7151278260443359
1789224574118429700,8.0574296875,-2.090679608847201,-0.7302180623441934,0.17869550207033752
1789224574128467500,8.067467529296875,-2.2139608283400536,-0.1600906087130308,0.13346059513650835
1789224574138505700,8.077505615234376,-2.2281050890266894,-0.1541086116939783,0.13142507072091103
1789224574148543500,8.08754345703125,0.8113724969863891,0.16640344512164593,0.03401522845700383
1789224574158581500,8.09758154296875,-0.9632423898428678,0.6974924353063107,0.2309741900358349
1789224574168619500,8.10761962890625,0.5757043769806623,0.1860328592211008,0.1380866475019604
1789224574178657500,8.117657470703126,0.4329945266574621,0.14206862981021404,0.6656293433818966
1789224574188695600,8.127695556640624,-0.35390842272192236,-0.2038613613784313,1.020452031404525
1789224574198732500,8.137732666015625,-0.47785132099390026,-0.024652795219421385,0.974646046584472
1789224574208770600,8.1477705078125,0.18817250159829854,0.31304888132810593,-0.0420161640830338
1789224574218808600,8.15780859375,-0.3547463348507881,0.6167763920813799,-1.129905216553062
1789224574228846600,8.1678466796875,-1.9179764790594576,0.9074567897349596,-1.2162358117241412
1789224574238884600,8.177884521484375,-1.920363081935048,0.908701821359992,-1.219214169947803
1789224574248922600,8.187922607421875,0.4563303940594196,0.305139131116867,-0.2165205711390823
1789224574258960400,8.19796044921875,-0.31698475947231053,0.17194295907020568,0.2508138858851045
1789224574268997600,8.20799755859375,-0.9870359378844499,0.1507546250909567,0.35104587289765476
1789224574279035600,8.21803564453125,-0.6178863991498946,0.19801964961290358,-0.2182959833137691
1789224574289073700,8.22807373046875,-1.1275935786098241,0.4661176285803318,-0.4810371114231646
1789224574299111700,8.238111572265625,-1.6625144020423293,0.6401566831469535,-0.6423034859172999
1789224574309149400,8.2481494140625,-1.1686489348366855,0.8833966997116803,-0.7443987095184623
1789224574319187700,8.258187744140624,0.4190317600175738,0.6438163746982812,-0.4406399999093264
1789224574329225500,8.2682255859375,0.4696265134841203,0.4172212034642696,-0.20348777882568536
1789224574339263700,8.278263671875,0.2607236508071422,0.007799275574088096,0.40086679244749246
1789224574349300700,8.28830078125,0.7204705753117799,-0.613366875898838,0.6946664181001484
1789224574359338500,8.29833837890625,0.23412381317317485,-0.9211404471725225,0.9346510861307382
1789224574369376800,8.308376708984374,-0.40394174291342494,-0.9242869285047054,0.7126643585402518
1789224574379414500,8.31841455078125,-0.46744040161669254,-0.6789058082580566,-0.016577406117692588
1789224574389452800,8.328452880859375,-0.5479474782660603,-0.3011538608729839,-0.6374512235805392
1789224574399490600,8.338490478515626,-0.7027776822328567,-0.08080956672728061,-0.8660465556558221
1789224574409528600,8.348528564453124,-0.459487104524672,-0.011689853271842002,-0.5871889169387519
1789224574419565600,8.358565673828124,0.16424948195815087,-0.03140051591396332,-0.2681452521752566
1789224574429603600,8.368603515625,0.29858313360214234,0.009846855753660202,-0.1843762511204928
1789224574439641600,8.3786416015625,-0.27340660676956174,0.4242798898041248,-0.36236455476954577
1789224574449679600,8.3886796875,-0.04919803841114044,0.7241226680785418,-0.6527019842043519
1789224574459717600,8.398717529296874,0.41324528557062146,0.9128425744265317,-0.5980751256775111
1789224574469755600,8.408755615234375,-0.24752894593030214,0.7762889086455106,-0.2607215319152921
1789224574479793700,8.418793701171875,-1.0862363168269396,0.6649766516268253,0.41388248749561607
1789224574489831700,8.428831787109376,-1.0866574648484586,0.6655740329980849,0.4095473809007555
1789224574499868700,8.43886865234375,-0.5782704280763864,0.2523807698756456,1.3334247787564992
1789224574509906400,8.448906494140624,-0.2787450451880693,0.4995686472833156,1.5756462659284471
1789224574519944700,8.45894482421875,1.2288149419859051,0.07613982135057448,1.5727645730122923
1789224574529982500,8.468982421875,-0.101378015242517,0.03162088066637516,0.8535624102011322
1789224574540020700,8.479020751953126,-1.3433271640896796,-0.24233634572327137,1.1203887617975472
1789224574550058500,8.48905859375,-0.29207798949182034,-0.5341156445294618,0.846524839714542
1789224574560096500,8.499096435546875,0.11385317367315291,-0.4931389064967632,1.008428123872727
1789224574570134500,8.509134521484375,-0.018016718205809593,-0.5663479350924492,1.1479238344550131
1789224574580171500,8.519171630859375,-0.20459026017487048,-0.4996265149503946,1.3273767307639122
1789224574590209500,8.52920947265625,-0.2071875831916928,-0.4991945532739162,1.3339546478495001
1789224574600247600,8.53924755859375,0.237816237950325,-0.5056295547574758,1.35239017598927
1789224574610285600,8.54928564453125,-0.25643092204928397,-0.12065817751288413,0.8464747900277376
1789224574620323600,8.559323486328125,0.3359410966157913,0.037785248515009875,0.41111594539172946
1789224574630361600,8.569361572265626,0.6539987460166216,0.14004559955000875,0.11317936606481671
1789224574640399600,8.579399658203124,0.19309855982363222,0.16012918715775012,-0.026527137723937628
1789224574650437600,8.589437744140625,-0.07232260114997625,0.15676117202937603,0.009637450786679982
1789224574660474600,8.599474609375,0.35336247927695513,0.15190613321363924,0.06564597293026744
1789224574670512600,8.6095126953125,0.5485407679840922,0.14935469516515731,0.09925656610913575
1789224574680550700,8.619550537109374,-0.016643676286935805,0.13110183011591434,0.2701781462423503
1789224574690588400,8.62958837890625,-0.14799188237935304,0.209634099560976,0.18980477897524833
1789224574700626700,8.639626708984375,0.6919403541371226,0.10722235735654831,0.06354169412739574
1789224574710664400,8.64966455078125,0.8504302496552467,0.002755436187982559,-0.1238593116417527
1789224574720702700,8.65970263671875,0.22762685236930846,-0.039488545301556585,-0.5890310376740991
1789224574730740500,8.669740478515624,0.13521131126135588,-0.2582797647863626,-0.9557179856874048
1789224574740777500,8.679777587890625,-0.03180763541013002,-0.38571898074150085,-1.3537579572111367
1789224574750815700,8.689815673828125,-0.07272825934141874,-0.30634967595040796,-1.421807703347504
1789224574760853500,8.699853515625,1.613170525419712,-0.6430412986725569,-1.4133531787350773
1789224574770891500,8.7098916015625,0.25587124233990904,-1.0696791497796774,-1.5138307380065321
1789224574780929300,8.71992919921875,-2.2692630288451907,-0.4123737634330988,-1.9133216389909387
1789224574790967600,8.729967529296875,-0.3521551493138075,-0.2133165874660015,-2.230629346807301
1789224574801005300,8.74000537109375,-0.3695572427526116,-0.2057832693517208,-2.235991166101396
1789224574811043600,8.750043701171874,1.0328788206487893,0.09592588731646537,-1.0658726701688022
1789224574821080300,8.760080322265624,-1.4185259051978587,0.49205520291328425,0.31466654565781355
1789224574831118300,8.770118408203125,1.7496064100399613,-0.27508535363674164,-0.8453774232450872
1789224574841156600,8.780156494140625,1.7603274182796478,-0.2795218747794628,-0.8446861530452966
1789224574851194400,8.7901943359375,-2.98688172185719,0.9109107295811176,-2.1415715916946527
1789224574861232600,8.800232666015624,0.14048223740160465,0.22345687320828436,-0.8257727782607078
1789224574871270400,8.8102705078125,1.4993924628093838,-0.2315682834714651,0.1829849428925663
1789224574881308400,8.820308349609375,0.7284896311163902,-0.20991993076503276,1.2342800755240022
1789224574891346400,8.830346435546875,2.0883558420747517,0.3948082961261272,1.1380144348591565
1789224574901383400,8.840383544921876,1.1450216832727194,1.0726333234101533,-0.197706492010504
1789224574911421400,8.85042138671875,-1.1139625281423329,2.1458540913194417,-1.8899197206154466
1789224574921459500,8.86045947265625,0.3423731754899025,2.4219535904347893,-1.791189297272265
1789224574931497200,8.870497314453125,2.0485154145956037,1.8319997388273477,-1.3262107557244598
1789224574941535500,8.880535400390626,2.0641057824373243,1.8269681744009256,-1.341889386371523
1789224574951573200,8.8905732421875,-1.2187401226952672,0.48383039540350437,0.08276493857875467
1789224574961611500,8.900611572265625,-1.2157818574115633,-0.46466742977201936,-0.6476831331290305
1789224574971649500,8.9106494140625,-3.513874674899876,-2.580074944901466,-1.0742449233252553
1789224574981686300,8.920686279296875,-3.9973365292519327,-1.9613351437926292,-1.5068094610676168
1789224574991724500,8.930724609375,-2.9522669200718403,-1.4077391382455824,-1.7938126315131782
1789224575001762300,8.94076220703125,-3.308574220629036,0.7030763729184866,-2.3553391377985475
1789224575011800600,8.950800537109375,-3.2108681718975305,1.2340987276077269,-1.2520000027403235
1789224575021838300,8.96083837890625,-3.2675191566631194,1.2647189067989586,-1.3373755622088908
1789224575031876400,8.97087646484375,-3.423870578847825,-0.9000286855608224,0.3670969170536846
1789224575041914400,8.980914306640624,2.7506273263961076,-1.6168249562740324,7.440038357558846
1789224575051952400,8.990952392578125,12.221853531652688,0.029689035820960996,5.487382779306173
1789224575061989400,9.0009892578125,-1.2111918992727995,4.631647408980131,-0.9743217830661683
1789224575072027400,9.01102734375,-4.599547512625158,4.274067896530032,-1.8644588238835333
1789224575082065400,9.0210654296875,-2.8922628254860636,4.079883879557252,-3.46381943513751
1789224575092103400,9.031103515625,-2.8794772859320044,3.4464895301520824,-3.2906507336646316
1789224575102141400,9.041141357421875,-3.012419483217597,1.043491400077939,0.055537908957153555
1789224575112179500,9.051179443359375,-3.57889922799617,-0.5280646739274263,2.7607717037916184
1789224575122217500,9.061217529296876,-0.21124387284517288,-1.9959639741033315,4.775090249752998
1789224575132255200,9.071255126953124,9.451734153801203,-2.833339511874318,1.8334356168493628
1789224575142293500,9.08129345703125,0.8908563680678605,-0.46871992003321644,-0.2707184636641294
1789224575152330500,9.09133056640625,-4.936470313754677,-1.3489227921396494,1.0412916250113398
1789224575162368500,9.101368408203125,-3.525097787442803,-2.0970868455410003,-0.4202689736623317
1789224575172406500,9.111406494140626,-3.236796101619303,-1.0556108769387007,-1.3647595359578728
1789224575182444300,9.1214443359375,-1.6648732401281594,-0.8728384808182715,0.448626249422878
1789224575192482600,9.131482666015625,2.3429344142556188,-1.110838258641958,0.4515285467356443
1789224575202520300,9.141520263671875,-0.20093875192999838,0.5156786550849676,-0.4841138885200023
1789224575212558600,9.15155859375,-2.0451520756423474,0.8746119202315806,-0.8820756802409887
1789224575222596400,9.161596435546874,-0.12022037061750888,0.9706938748925924,-0.9179938197098672
1789224575232633300,9.17163330078125,-0.12964783191531895,0.9749398418992757,-0.9209581494081764
1789224575242671600,9.181671630859375,-0.2563034962773323,1.2544044335335491,-0.15682093939259648
1789224575252709400,9.19170947265625,0.39670506965816016,1.3959043235450983,0.20278153025247156
1789224575262747600,9.20174755859375,0.3919032223343849,1.397932029980421,0.20248568911105394
1789224575272785400,9.211785400390625,1.014216205754876,1.4917238278776406,0.14079079189412294
1789224575282823400,9.221823486328125,-2.9421044224977493,1.6550982805669308,-0.35268231499306857
1789224575292861400,9.231861328125,-1.7779133438527583,1.2310808410912752,-0.37903679956384
1789224575302899500,9.2418994140625,0.10535013374388218,0.7295347562551499,-0.3182221192475408
1789224575312937500,9.2519375,-0.16667144840806722,0.0012619827598333358,-0.05244038133323192
1789224575322974500,9.261974365234375,-1.7529466603785753,-0.5842296287417411,-0.10982435654848813
1789224575333012200,9.27201220703125,-2.1114625768959523,-1.0397095434516668,-0.3905683204688132
1789224575343050500,9.282050537109376,-1.359677118127048,-1.1741676982581615,-0.6692473146833479
1789224575353088300,9.292088134765624,-1.1941288285300136,-0.766478293249011,-0.6413306953623891
1789224575363126500,9.30212646484375,-1.2034513681486247,-0.7623387092262506,-0.6441554704595357
1789224575373164300,9.312164306640625,-0.9796443663284182,-0.34752982760071754,-0.733508262996003
1789224575383202300,9.322202392578125,-3.4617391217321156,0.2571440387547016,-0.4765284748923033
1789224575393240600,9.332240478515626,-3.737319565409422,0.5706242972373962,-0.020060279797390102
1789224575403278300,9.3422783203125,-2.894653227753937,1.3274065413802862,0.5726438934314996
1789224575413315600,9.352315673828125,1.3229340721413492,0.9394897583335637,0.6517863306641578
1789224575423353300,9.362353271484375,2.666033272694051,1.2635142071843146,0.4695276562195271
1789224575433391400,9.372391357421876,1.4988859745919703,1.8742828832834957,0.34662126138843596
1789224575443429400,9.382429443359374,1.6736457446485757,1.537524040544033,0.21117351102270185
1789224575453467400,9.39246728515625,-0.17339257335662842,1.9293559512078762,0.11627689368873834
1789224575463505400,9.40250537109375,-1.774691459196806,2.3541712630629537,0.026836349803581832
1789224575473543400,9.41254345703125,-1.9023428565979004,2.001443866819143,-0.1645824402395636
1789224575483581400,9.42258154296875,-2.5624367046192287,1.7736948493748903,0.4540620107360184
1789224575493618400,9.432618408203124,-1.3956792826175688,0.9266577492892741,1.0466741948325187
1789224575503656400,9.442656494140625,-0.2582318339914083,-0.6652461162179708,1.5419129231527446
1789224575513694500,9.452694580078125,-1.5589467678010462,-1.8104536774516105,1.6030597580328583
1789224575523732500,9.462732421875,-3.3043419898867605,-2.9615333455890416,1.1292070051558316
1789224575533770200,9.472770263671874,-4.059804675863683,-3.524779807534814,0.4272388857401907
1789224575543808500,9.48280859375,-3.016215076108277,-2.5728140139877795,-0.981499858001992
1789224575553846300,9.49284619140625,1.6219599810749292,-1.128804123443365,-0.24169183727465568
1789224575563884500,9.502884521484376,4.42811074951142,0.3025982144623995,-0.3390755221839994
1789224575573922300,9.51292236328125,0.6942582756906748,1.7821312538087366,-0.9244318168681115
1789224575583960600,9.522960693359375,-3.5523096194952726,2.651896318531036,-0.6222299813121557
1789224575593997600,9.53299755859375,-3.514284717005491,2.863540588870644,-0.43924839942045507
1789224575604035300,9.543035400390625,-3.149709646579623,3.3290608360797167,0.3784904907926917
1789224575614073600,9.553073486328126,-3.1544623940646646,3.33134807023406,0.3762392047345638
1789224575624111400,9.563111328125,-1.7738965094268322,2.9866946748524903,1.7854408167481421
1789224575634149400,9.5731494140625,4.195414046531916,0.7896867348790169,0.9857142608266323
1789224575644187400,9.5831875,0.48051235689669847,-0.36897418216764927,0.2744992243118584
1789224575654225400,9.593225341796876,-1.6559247945189475,-1.6455220584481953,0.0647801498811692
1789224575664263400,9.603263427734374,-3.2093703345552087,-2.0192051489591596,-0.8079176072921603
1789224575674301400,9.613301513671875,-3.747223996569216,-2.105439078822732,-0.5753054407909513
1789224575684338400,9.62333837890625,-3.848725053669512,-1.8655349286824463,-0.7208557021718471
1789224575694376400,9.63337646484375,-3.5598023133382197,-1.5512813477396965,-0.391428809755668
1789224575704414500,9.64341455078125,-3.4358979935109613,-1.2614070057719946,1.0991458480868488
1789224575714452500,9.653452392578124,-3.453631218600273,-1.253593701672554,1.093784467184171
1789224575724490500,9.663490478515625,-2.775809698447585,-0.8571662799119949,1.8547648206040261
1789224575734528500,9.673528564453125,3.7300972129404544,-0.3995768257021904,2.9451728701576587
1789224575744566500,9.68356640625,1.666205365514755,0.8278905010670423,1.8044462537303565
1789224575754604300,9.693604248046874,-0.9304735081851482,1.154186986503005,1.980764943666756
1789224575764642600,9.703642578125,-0.9491004672437906,1.1592694043338299,2.002069597502053
1789224575774679300,9.71367919921875,-0.6395809290856123,2.4759680892169476,1.3235896134406326
1789224575784717300,9.72371728515625,-0.8493769412100315,2.282064642751217,2.4914152491956947
1789224575794755600,9.733755615234376,0.025096447333693504,2.1956927657216787,3.6274209745809434
1789224575804793300,9.74379345703125,0.033119010269641876,2.19123286370337,3.6370518494963644
1789224575814831600,9.75383154296875,5.320182630848884,0.6398340270638465,4.331995184841752
1789224575824869400,9.763869384765625,0.33186376417428254,0.25049685582518577,1.8947532782517373
1789224575834907600,9.77390771484375,-2.815023518460989,-0.9062965137839317,0.6647307140417397
1789224575844945400,9.7839453125,-3.9143221459567545,-1.3536761241465807,0.611935527921468
1789224575854983400,9.7939833984375,-3.3540611295625564,-1.1418652650684118,-1.0790789924181998
1789224575865021400,9.804021484375,-3.3605469844505187,-1.1431056205183268,-1.0386080119505523
1789224575875058400,9.814058349609375,0.9041998337656258,-1.3258680797666311,0.6375888054203241
1789224575885096200,9.82409619140625,-1.0763275017529725,-1.1167384225964545,-0.10957257374450564
1789224575895134500,9.834134521484375,-1.9534025972276925,-1.6103882012248039,-0.10548545056134462
1789224575905172200,9.844172119140625,-2.115754136610031,-1.2592477819114922,-0.4551665379118174
1789224575915210500,9.85421044921875,0.43500323613137004,-0.6961644015729427,-1.0525659562848508
1789224575925248500,9.86424853515625,2.319133267429471,-0.20357202304303645,-1.834300416985154
1789224575935286500,9.87428662109375,-0.10984802968502044,1.081108306288719,-2.406178805936873
1789224575945324500,9.884324462890625,-1.0002391183286905,2.3317449117213487,-3.161013423143327
1789224575955362300,9.8943623046875,0.6887585092306137,2.5087270340025425,-3.275113265053928
1789224575965399600,9.904399658203126,0.09550181668549776,2.1719529936939477,-1.8764051361344753
1789224575975437300,9.914437255859376,0.09457271914184093,2.1720973706007003,-1.8729273770213126
1789224575985475600,9.9244755859375,0.8139996306195855,1.0785106910109519,0.6011271336592734
1789224575995513300,9.934513427734375,1.2775292885333298,0.21697101832032203,0.3461113391049206
1789224576005551400,9.94455126953125,-2.64260183596313,-0.5031196177631616,-0.3379678166704252
1789224576015589400,9.95458935546875,-4.29033455619812,-1.7376164047777651,-0.1667794022945687
1789224576025627400,9.96462744140625,-3.4435794879242776,-1.811967004624009,-1.1508265701591969
1789224576035665400,9.97466552734375,-3.0805493088528513,-1.4960487053394316,-1.0608335800230502
1789224576045703400,9.984703369140625,1.6843845808058977,-1.9368015910387038,1.3864853378146886
1789224576055741200,9.9947412109375,7.125715803033113,-0.9275888926595449,1.01323888515532
1789224576065779500,10.004779541015624,1.1677855960056185,1.0965876149713993,0.4456819761319086
1789224576075816400,10.01481640625,-4.090720330870151,1.343134271866083,0.0846757406361401
1789224576085854500,10.0248544921875,-3.708798988845944,1.090142676615715,-0.4164535800926387
1789224576095892500,10.034892578125,-3.0499387742727992,3.5809856788814067,0.07754329494033009
1789224576105930200,10.04493017578125,-2.9861200898349285,4.707095156413317,1.1176055608198046
1789224576115968500,10.054968505859375,-3.012872487682104,4.720228194230795,1.0869304365709422
1789224576126006300,10.06500634765625,8.123996188509464,1.0508113677024842,3.770874336747825
1789224576136044500,10.07504443359375,14.53941852685213,0.5994084931731224,1.0145601238217203
1789224576146082300,10.085082275390626,0.47975686235427856,3.4050153639912604,-1.710714077065885
1789224576156120600,10.09512060546875,0.5166928005635738,3.388955040550232,-1.70054047357589
1789224576166157600,10.105157470703125,-3.84313410179466,-1.030436103671789,-1.756520134951174
1789224576176195300,10.1151953125,-3.0123528477221724,0.2806067474067211,-3.7554537725150583
1789224576186233600,10.125233642578126,-2.0945123188778756,2.076529210680723,-3.8169443062663078
1789224576196271400,10.135271240234376,-2.5306033502459524,-1.0768781213730574,-0.3354782648770138
1789224576206309400,10.145309326171875,-0.30877368822693824,-3.826306008851528,0.4279542674679309
1789224576216347400,10.155347412109375,-3.3275492624729868,-0.6495055262506008,-1.803092647164315
1789224576226385400,10.165385498046875,-1.6334090113282203,-0.9570780219942331,-0.7238621174462139
1789224576236423400,10.17542333984375,3.2838106585115194,-2.773103362098336,-0.8200158221691847
1789224576246461400,10.18546142578125,-0.9441676870167255,-0.9025485594272613,-1.2859994491063058
1789224576256499500,10.19549951171875,-1.8648650665968656,-0.40178690296709535,-0.822915708329156
1789224576266537500,10.205537353515625,1.3561509898275137,-1.0567074400037526,-1.4160367187306284
1789224576276574500,10.215574462890626,-1.5905121188879012,-0.06538871023356914,-1.1453468235738575
1789224576286612500,10.225612548828124,-2.107581643809378,0.6497609623163938,-0.7463793619416653
1789224576296650500,10.235650390625,3.2644726285740733,0.34755905369520185,-0.137398226846382
1789224576306688300,10.245688232421875,0.6789724437534809,0.6309411110341548,-0.9786452722884714
1789224576316726500,10.2557265625,-3.629982057240605,1.4314081831246614,-0.8986664572969079
1789224576326764300,10.265764404296876,-1.182937864691019,1.5435679968833922,0.3434913658648729
1789224576336802600,10.275802490234375,5.18016567287147,1.0885586222946644,-0.10268376407884061
1789224576346840300,10.28584033203125,4.512099530796706,0.9489251106768846,-0.05267674737237393
1789224576356878600,10.295878662109375,-0.060412383125722405,0.202306533151865,0.5086331204876303
1789224576366916400,10.305916259765626,-0.03863163621127605,0.19443126973211763,0.49552850504703816
1789224576376954400,10.315954345703124,1.3138713525027035,-1.0421119284182787,0.10031111666336655
1789224576386991600,10.32599169921875,3.2143890395000576,-1.4844418541759252,0.3050277796968818
1789224576397029400,10.336029296875,0.4304872200116515,-1.3491466640233993,-0.18456687832176685
1789224576407067600,10.346067626953126,-2.8145173225045204,-1.391898595035076,-0.011653320653736591
1789224576417105400,10.35610546875,-3.3908129433766003,-2.0268676464110613,0.22341369165368377
1789224576427143400,10.366143310546875,-1.756270544104278,-2.5248159990161656,-0.13329466398507356
1789224576437181400,10.376181396484375,1.7952482172742485,-2.661464357343316,1.4443106270566581
1789224576447219500,10.386219482421875,6.934828489518165,-3.1560517090827225,2.365650834584981
1789224576457257500,10.396257568359376,3.641024844780564,-2.126378406476974,1.8962894017778336
1789224576467295500,10.40629541015625,-1.0043459691256285,-0.9075327775806188,0.7521696357809007
1789224576477333200,10.416333251953125,-2.4252689985930918,-0.5765986954718828,0.3560869358047843
1789224576487371500,10.42637158203125,-3.3391227958887812,0.4339671710819006,-0.24530608224906025
1789224576497409300,10.4364091796875,-2.8793928225189447,2.426106033939123,0.4186736672949046
1789224576507446500,10.446446533203124,-2.9248621957957743,2.4444728807568548,0.42828291490040715
1789224576517484500,10.456484619140625,5.702000512498617,2.855308767098188,3.209462104491889
1789224576527522300,10.466522216796875,3.950034095329046,3.174137400871515,3.212731627681851
1789224576537560600,10.476560546875,2.2459546339720484,3.1198335637539625,4.099278023596108
1789224576547598300,10.486598388671876,-0.8390721125558018,2.2038298949480057,0.9867069981910288
1789224576557636600,10.49663671875,-4.129574377660453,1.2353501889735459,-0.9488054298199713
1789224576567674400,10.50667431640625,-3.285991217420995,1.504395677924156,-3.2692958109468218
1789224576577712600,10.516712646484375,-2.4053379711985587,3.0274241601258516,-4.063337818425894
1789224576587750400,10.52675048828125,5.301324785643816,-1.2201578805387019,0.07383863173611462
1789224576597788400,10.536788330078124,6.963547219002247,-2.3175749320715666,0.448668188868463
1789224576607826400,10.546826416015625,-4.080777613526583,0.3026145810753107,-0.7745836390975862
1789224576617864400,10.556864501953125,-3.3217361922800537,-2.0566344236433505,-0.17423421181254087
1789224576627901400,10.5669013671875,-1.8230919174894689,-1.2652508217185734,-1.7681453985542057
1789224576637939500,10.576939453125,-2.8083061929047104,1.2857505889117717,-3.203770907112956
1789224576647977500,10.5869775390625,2.8415722104296086,0.28449907867014407,-1.900494890643656
1789224576658015500,10.597015380859375,1.650666435599327,-1.0188128858953713,-1.3230433777347206
1789224576668053500,10.607053466796875,-4.018987220045924,-0.9117530256241559,-0.6760349289968609
1789224576678091500,10.617091552734376,-3.23325799062103,-1.6112977172851561,0.4129530976910144
1789224576688129500,10.627129638671875,1.346981887204945,-1.621357923528552,-0.28904914318993685
1789224576698167300,10.637167236328125,1.3446759483501314,-1.6209212856769561,-0.28298925862908364
1789224576708205600,10.64720556640625,1.9017641799271106,-0.48165246684253216,-1.8537702566087244
1789224576718243300,10.657243408203126,-3.870603708000481,-0.45618367906510826,-1.969141579759866
1789224576728281600,10.667281494140624,-3.138791946724057,-0.3347211994320154,-2.7233593802422282
1789224576738319400,10.6773193359375,0.003589256663620472,-0.17366788316667078,-1.7542419608861206
1789224576748356400,10.6873564453125,2.272354857380688,0.3053279316872358,-1.1307746197987347
1789224576758394000,10.69739404296875,0.2590244456738233,1.364837569630146,-1.8173986742839217
1789224576768431900,10.707431884765626,-0.8659750247895717,0.45611587452590463,-1.7279245934553444
1789224576778470100,10.71747021484375,-2.6643516032174226,-0.4746177459001541,-1.6190291883200405
1789224576788508000,10.7275078125,-3.236912421475351,-0.6021475627481937,-1.5599536067560313
1789224576798546000,10.7375458984375,1.0087859973996878,-0.5836357545018196,-0.8444987407144159
1789224576808584000,10.747583984375,6.9892439703166485,-0.781347945600748,-1.4705761181697248
1789224576818622000,10.7576220703125,1.121319905167818,0.2522662035852671,-2.667339386856556
1789224576828660000,10.767659912109375,-4.010085243926942,0.8855570926159619,-2.8152687253937123
1789224576838698000,10.777697998046875,-2.5316011291116474,1.3649872072339058,-2.48176362375319
1789224576848735700,10.78773583984375,1.621712143793702,1.3539771529197693,-0.4252305415924638
1789224576858774000,10.79777392578125,1.6137924567103386,1.3594471087634563,-0.44780653053782876
1789224576868811000,10.80781103515625,1.73626440564692,1.0358271490603685,1.0330482589315622
1789224576878849000,10.81784912109375,-1.7181237688004969,0.7173650105118751,1.9422905438438056
1789224576888887000,10.827886962890625,-1.3858917558357118,0.9020733431309461,3.8413516022920606
1789224576898924800,10.8379248046875,2.1269357480987905,1.6270388917744159,2.920418660390377
1789224576908963000,10.847963134765624,1.1952286064654587,1.8092922324568033,0.633014702437818
1789224576919000800,10.858000732421875,-4.044655329787731,1.7872884904414414,1.6615198380470275
1789224576929039000,10.8680390625,-3.3418981058210133,2.0242595097392795,2.147586029678583
1789224576939076900,10.878076904296876,-1.2082681207805872,0.6288683964133263,3.5201223371177908
1789224576949115100,10.888115234375,3.9470512801259754,-3.401581882411241,3.7097827391862865
1789224576959153000,10.89815283203125,-3.332921018639207,-3.003362901058793,2.024749339082837
1789224576969191000,10.90819091796875,-4.37512676282078,-4.035580627450346,2.5599454723253845
1789224576979229000,10.91822900390625,-3.461732691991329,-4.638478716304898,2.821241077801585
1789224576989267000,10.928266845703124,0.9503554357409477,-3.7294291044205425,0.8518314947552978
1789224576999304000,10.938303955078124,4.980790516996383,-2.5261867028474807,-0.328317469869554
1789224577009342000,10.948342041015625,-1.2047069211676715,-0.463757913711667,-0.33457565348148344
1789224577019380000,10.9583798828125,-3.442183649651706,0.18235913914442062,-1.4090519744098187
1789224577029418000,10.96841796875,-2.715041633751988,1.4585311678498982,-1.698992367351055
1789224577039456000,10.9784560546875,-0.293911926920712,1.7435796970963477,-0.12412475764490663
1789224577049494000,10.988493896484375,-0.3075131667718291,1.7482149556815623,-0.11527297734320163
1789224577059532000,10.998531982421875,0.5321136570572853,0.7813619741261005,1.201247209167853
1789224577069569800,11.00856982421875,2.2917229901954532,1.399358847913146,1.9641864415705204
1789224577079608000,11.018608154296874,7.9327552392512555,2.0856132653683424,1.6880545014902948
1789224577089645800,11.028645751953125,4.816535189819335,2.949191750410199,-1.696653695270419
1789224577099684000,11.03868408203125,-2.2947321088835597,2.819976756954193,-2.153990343762934
1789224577109721900,11.048721923828126,-4.187553688420355,2.1885253583103417,-2.4944690838083625
1789224577119760100,11.058760009765624,-2.9679639631584287,2.3595704917579887,-4.140870555439591
1789224577129798000,11.0687978515625,-2.8555148110643027,0.8602028711289167,-3.497155303028226
1789224577139835000,11.0788349609375,-2.6292472643494604,-0.7945330058664083,-0.9266415288068354
1789224577149873000,11.088872802734375,1.0693915650099515,-2.2915625389367342,2.738578576683998
1789224577159911000,11.098910888671876,5.812506713831424,-3.7738743953466414,3.604469430321455
1789224577169949000,11.108948974609374,-2.0004098475962877,-2.52641174377501,0.19797551821023224
1789224577179987000,11.118987060546875,-4.908944008925557,-3.077144176584482,0.20745251773819326
1789224577190025000,11.12902490234375,-3.5057997972548005,-2.2536089481174946,-1.6924767018467186
1789224577200063000,11.13906298828125,-2.7589786828950045,0.8628121768444776,-3.9730598738685248
1789224577210101000,11.14910107421875,-2.626224701657891,1.7471902888089417,-2.7455636132657526
1789224577220139000,11.159138916015625,-1.8486568591177464,1.6322914054751396,-1.0025905037604272
1789224577230177000,11.169177001953125,9.618453825265169,0.38441958858072756,0.7896694184180348
1789224577240214800,11.17921484375,7.658373649969697,2.0088152723699806,-0.2926623652510345
1789224577250253000,11.189253173828124,-4.6576013499259945,3.4771728377074003,-0.3829822492539882
1789224577260290800,11.199290771484375,-3.425919035810232,1.1418792935937643,-0.7188659165941178
1789224577270327800,11.209327880859375,-3.0557775634288786,0.8408078503072262,-0.06228409528173506
1789224577280365800,11.21936572265625,-2.788586762434244,0.46427580010592934,-0.002276931956037879
1789224577290403800,11.22940380859375,-2.633802151174843,0.4466624020040035,-0.051887204429879784
1789224577300441900,11.23944189453125,0.3371083868294954,0.7675982371896505,1.4314154896482825
1789224577310480000,11.24947998046875,14.084071298611164,-1.7979221126586198,1.0548485873293132
1789224577320518100,11.25951806640625,3.7744393357530233,0.5627572171241044,-2.3118942560866476
1789224577330556000,11.269555908203126,-5.868529629826545,0.11423428194522857,-1.1456585198715328
1789224577340594000,11.279593994140624,-3.101463794326782,-1.068245317584276,-2.7791096167758105
1789224577350632000,11.2896318359375,-2.6423262338921427,1.0640075338840485,-4.0905350374311205
1789224577360670000,11.299669921875,-3.117325672586262,0.09821604408025741,-0.12434431867972015
1789224577370708000,11.3097080078125,-2.5040198792248964,-1.1650742912203074,2.0257789743915198
1789224577380746000,11.31974609375,6.638557724511623,-3.1304823835402726,0.25272315357252956
1789224577390784000,11.329783935546875,1.0874658586218953,-0.6205746153205632,-0.9364353391990065
1789224577400822000,11.339822021484375,-4.591282957626879,1.6228081223368644,-0.8579702167060226
1789224577410859800,11.34985986328125,0.6567091740190982,1.4286194291889667,-2.371551290800422
1789224577420898000,11.35989794921875,4.626940838724375,0.6001350538820028,-2.959303686840832
1789224577430934800,11.369934814453124,-2.401279051196575,1.1539198599994183,-0.6105708154395222
1789224577440972800,11.379972900390625,-2.801392175732553,-0.3719780401587486,0.4069309147920459
1789224577451010800,11.3900107421875,0.9879206117644905,-1.8916525357574223,1.5463007828481494
1789224577461048800,11.400048828125,1.9387290519699454,-1.0626128646552562,0.9187897193279116
1789224577471087000,11.410087158203124,3.0479952389895915,-0.5975789396584034,0.9652001728471368
1789224577481124900,11.420124755859375,1.7899176699012518,-0.009207388806343078,1.3230588675647974
1789224577491163100,11.4301630859375,0.5713952816098928,0.7486953837990761,0.8453373834956437
1789224577501201000,11.440200927734375,-2.8559070252522822,0.6989572471618652,0.5420676995124668
1789224577511239000,11.450239013671874,-3.607845044234395,0.9594231238156556,0.6398462289582938
1789224577521277000,11.46027685546875,-3.154939071665704,1.4119874433398245,1.0388463507510721
1789224577531315000,11.47031494140625,-3.0438682221874593,0.30866379811167716,1.6620424006164074
1789224577541353000,11.48035302734375,0.7926783179104328,-1.47939743026793,3.3549078095197675
1789224577551391000,11.490390869140626,6.8542609148532145,-1.8794003724277017,4.972531807217002
1789224577561429000,11.500428955078124,5.667684985920786,-0.37188100952506065,2.9078341963663696
1789224577571467000,11.510467041015625,1.1964137245967983,0.8558826698422431,0.9682986503191292
1789224577581503700,11.520503662109375,-1.6483043826431034,0.8869038310497999,0.3620892449595034
1789224577591542000,11.5305419921875,-3.860755975463986,0.6113181266754866,-0.6663247052349149
1789224577601580000,11.540580078125,-3.39528073644042,-2.8082611847192047,-0.8060523248769342
1789224577611618000,11.5506181640625,-3.1995085734933615,0.0776250914722681,0.894673296007514
1789224577621656000,11.560656005859375,-1.7924816751703618,3.705830786690116,0.3421276032309979
1789224577631693800,11.57069384765625,-1.826092560610175,3.7259652277022597,0.2805945455122739
1789224577641732000,11.580732177734374,7.633862893569469,-2.212553299629688,7.054577150970697
1789224577651769900,11.590769775390624,12.635095310091971,-0.6058358958721161,1.9796204498067498
1789224577661808000,11.60080810546875,0.3171870040461421,1.8247779708802698,-1.0748842441421
1789224577671846000,11.610845947265625,-3.290704509678483,-0.23003800516426562,-0.025684476354718207
1789224577681884000,11.6208837890625,-3.8445653036415575,-0.9685843353927135,-1.0399817114565522
1789224577691922000,11.630921875,-3.8536017197951673,0.35602994492053985,-2.056509043698013
1789224577701960000,11.6409599609375,-3.520829608604312,-0.15536474923491478,-0.8577955177262425
1789224577711998000,11.650998046875,-3.254249340723455,-1.4283067099779843,0.6816661398168653
1789224577722036000,11.661035888671876,-1.1809452295690774,-1.7030588861376046,1.3821392714343965
1789224577732074000,11.671073974609374,5.994224047940969,-0.8050619986653328,1.0919831899158656
1789224577742112000,11.681112060546875,6.874135828146338,0.8148562474489212,-0.8620959913991391
1789224577752149000,11.69114892578125,1.4962921587064861,1.0818354515194892,-1.683703320543468
1789224577762187500,11.7011875,1.5057617055803536,1.0764520049154758,-1.668246662084013
1789224577772225500,11.7112255859375,-4.021347519436478,1.1071259601205587,-3.300361395817995
1789224577782263600,11.721263671875,-2.845948233556747,2.2646347845226527,-3.3410259991616007
1789224577792301600,11.731301513671875,2.51709592615813,1.2509984244823456,-0.4526075010787695
1789224577802339600,11.741339599609375,5.3454228705674405,0.3575473637461662,1.3185467969678342
1789224577812377600,11.751377685546874,-0.6904881095021963,0.3297083397060632,0.1874686641778797
1789224577822415600,11.76141552734375,-4.409863145159185,-1.4144886125057934,-0.4585656057655811
1789224577832453400,11.771453369140625,-3.855016262768209,-1.1674854440152644,0.6454746632993221
1789224577842491600,11.78149169921875,-3.7945679315462706,-0.292020706346631,0.4011441480841487
1789224577852529400,11.791529296875,-3.1322038005053994,-0.7993465436279773,-0.14796908602565526
1789224577862567700,11.801567626953124,4.36029978056699,-1.9848335082799196,-0.5246573497019708
1789224577872605400,11.81160546875,6.334120604184269,-0.8494599433183669,-0.6339190308663993
1789224577882643700,11.821643798828125,-1.9966820592448113,0.3738531863808632,-0.23027057181112467
1789224577892681500,11.831681396484376,-2.2566697969928384,-0.9082686906397343,-0.25138598668463524
1789224577902719500,11.841719482421874,-2.790330098970234,-0.3208563402086496,-0.5997025076836348
1789224577912757800,11.8517578125,-3.834129542084038,1.192462648883462,-0.6012054595924914
1789224577922795500,11.86179541015625,-1.5319471171945334,1.0552122330099343,-0.0781974845327437
1789224577932833800,11.871833740234376,0.8533034670040011,0.6654694035798311,-0.20451777946054933
1789224577942870500,11.88187060546875,1.4218144253492355,1.7362398557275533,0.8300590042125433
1789224577952908500,11.891908447265624,4.606997536370158,1.7517045513629912,1.5909925958812237
1789224577962946600,11.901946533203125,4.509994667471945,1.5510446163743734,0.5582922736044973
1789224577972984600,11.911984619140625,0.9040236004158854,1.2414286321043968,-0.7594293976508081
1789224577983022600,11.922022705078126,-3.3695462834641337,1.5252993497431278,-1.371184016047418
1789224577993060600,11.932060546875,-1.3811200113892554,1.7924316985487936,-1.1867784657672047
1789224578003098400,11.942098388671875,1.327615800216794,0.49099371116161344,-1.7276443152092396
1789224578013136600,11.95213671875,-3.832883341415226,0.7354881117016077,-1.0925446962561458
1789224578023174400,11.96217431640625,-3.5810976148232814,1.195088321211934,-0.5873923305563629
1789224578033212700,11.972212646484374,-3.553872631028294,1.1856517998248337,-0.5980025718979537
1789224578043250700,11.982250732421875,-2.6170599829494954,-1.0230313803732394,0.4514458368882537
1789224578053288700,11.992288818359375,3.088267043623328,-2.5873224318116903,0.764371164901927
1789224578063326700,12.00232666015625,4.961310740500688,-1.3491168534070253,0.435009446676448
1789224578073364500,12.012364501953124,1.8112740539237855,-1.0506056159973145,0.10666508879996836
1789224578083402800,12.02240283203125,-1.96766522359699,-1.8765180949896574,-0.4695126778461039
1789224578093440500,12.0324404296875,-4.475556683558225,-1.715290591201186,-1.1495067197322846
1789224578103478800,12.042478759765626,-3.3687180159464476,0.12021335635483264,-1.7035839329250155
1789224578113516500,12.0525166015625,-3.0291382705673575,1.7222411409914493,-0.8911055935885757
1789224578123554800,12.062554931640625,-2.857213431675732,1.1483096189022064,0.18214184313192963
1789224578133592600,12.072592529296875,-2.9850004381552337,1.8120932613521814,0.6694741822417825
1789224578143630600,12.082630615234375,1.4138158278107642,1.2227847219109536,2.541016899971664
1789224578153668600,12.092668701171876,12.301770533454418,-1.2853969531685112,-0.07732230913341046
1789224578163705600,12.10270556640625,-0.6361036083638668,1.7943600362628698,-0.6059664634492248
1789224578173743400,12.112743408203125,-5.134619142705202,0.610921820834279,0.18330029245205223
1789224578183781600,12.12278173828125,-3.273196033255756,-0.3973293390363455,-0.09388334863819181
1789224578193819600,12.132819580078126,-3.6315102897211906,-0.17115853069424627,-0.30009412268698216
1789224578203857700,12.142857666015624,1.6086340510338544,-0.6957154887616634,0.36029878134615717
1789224578213895700,12.152895751953125,4.296557083974778,-0.5035118319511414,0.4276173636637628
1789224578223933700,12.16293359375,-0.7416942728653549,-0.12897884661257267,0.43748014763891696
1789224578233971700,12.1729716796875,-2.3500430772170424,0.213438752540946,0.3340578401524573
1789224578244009500,12.183009521484376,-0.7325900521725416,0.42374212966561314,-0.7024318644698709
1789224578254047700,12.1930478515625,0.41512656927257774,1.110019927996397,-1.112170091767609
1789224578264085500,12.20308544921875,0.4249617345884442,1.1070008724361657,-1.1189465270999819
1789224578274123800,12.213123779296875,-1.6901026661917566,0.4497486775815487,-1.984711343204975
1789224578284161500,12.22316162109375,-2.1710230193674565,-0.4553612567663192,-2.089261851003766
1789224578294199800,12.23319970703125,-3.3348017178192735,-1.0984914027661083,-2.731647900637984
1789224578304237600,12.243237548828125,-2.989069587290287,-0.29315584785640236,-2.391266483487189
1789224578314275600,12.253275634765625,3.0518647738993168,-0.7853267861038445,0.7906630325652658
1789224578324313600,12.263313720703126,8.82757583477497,-0.7070341706335544,-0.2357888237759471
1789224578334351600,12.2733515625,0.8394266250818967,0.5245598806768655,-0.9585485329382121
1789224578344389600,12.2833896484375,-5.083420870387554,0.45637540224492545,-1.360507139210403
1789224578354427600,12.293427734375,-3.5796529689729213,0.6112672732710838,-2.3434498164318502
1789224578364465400,12.30346533203125,-3.5849095743268724,0.6157733525186777,-2.3603603269614277
1789224578374503700,12.313503662109374,-2.119515242709219,-0.1742033052176237,0.3934614115618169
1789224578384541400,12.32354150390625,4.6221465901851655,-1.323348790422082,1.3837318013228475
1789224578394579700,12.333579833984375,5.753099416095018,0.014535890352725981,1.1426214902631937
1789224578404617500,12.343617431640626,-0.18179361421614884,-0.05990647943019867,0.07412599731013178
1789224578414655700,12.35365576171875,-4.329300538930297,0.137098440182209,-0.07419014858752489
1789224578424692700,12.363692626953124,-2.326210658469796,1.36932494417727,-1.006871249819547
1789224578434730500,12.37373046875,3.7802334089845417,1.0439432354986666,-1.7570017809882759
1789224578444768800,12.383768798828125,2.796914153535664,1.4229706096470356,-1.9241103056393563
1789224578454806500,12.393806640625,-1.991270847851038,0.9921136795401573,-1.846007952044159
1789224578464844800,12.4038447265625,-3.5558839708507057,-0.0910316855341196,-2.079222687548399
1789224578474882600,12.413882568359375,-4.075479507118463,-0.7138947040528059,-2.9235318239748476
1789224578484920600,12.423920654296875,-2.9726635191515087,0.3737386200904846,-2.480808514985442
1789224578494958600,12.43395849609375,3.3399323587059975,-0.6374474241882562,1.305174689697474
1789224578504996600,12.44399658203125,8.096745778012275,-1.4987760844767093,0.6101150344960391
1789224578515034600,12.45403466796875,-0.4904357850179076,-0.1071264957666397,-0.21341814814433455
1789224578525072600,12.46407275390625,-4.786104687981307,-0.584793107843399,0.047815790272504086
1789224578535110400,12.4741103515625,-3.3507489362746474,-0.11430325552821159,0.24923984150141476
1789224578545148700,12.484148681640624,1.774314442577958,0.5614613320946693,0.9213223796106874
1789224578555186400,12.4941865234375,10.7820077750504,-0.6712626000285148,1.8468340276047586
1789224578565224700,12.504224609375,0.6556906446263193,-0.4865928458541631,0.43781887807399034
1789224578575262500,12.514262451171875,-5.643558844923973,-0.13216975160837172,0.5350058713674545
1789224578585300700,12.52430078125,-3.3374779512912034,1.6313754596740007,-0.2052918325729668
1789224578595338500,12.53433837890625,-3.1898253838688135,1.844589755809307,-1.0796787118770181
1789224578605376500,12.54437646484375,-0.1446586463034153,0.8162818963378667,0.6181066177718341
1789224578615414500,12.55441455078125,-0.18892945744544268,0.833332984381914,0.6274523921355605
1789224578625452500,12.56445263671875,9.670679687064885,0.23295944556891918,-0.13579568702057004
1789224578635490600,12.574490478515624,-5.514489397418498,-0.7110983513325453,-0.259775702432543
1789224578645528600,12.584528564453125,-4.753182953849435,-2.669800808534026,0.48294879026338455
1789224578655566600,12.594566650390625,-3.357668506404757,0.8914350447386503,1.0020410531841217
