time,seconds_elapsed,z,y,x
1789224566127739400,0.066739501953125,8.911687365657091,3.9415941837638613,-1.1027430688612163
1789224566137776400,0.0767763671875,8.916925850832461,3.931100262278318,-1.0978467481870204
1789224566147814400,0.086814453125,8.92306508423984,3.9188019217193126,-1.0919188925080001
1789224566157852400,0.096852294921875,8.929978224629163,3.9048724728271362,-1.0852870532780885
1789224566167889400,0.106889404296875,8.937669948175548,3.88983389364928,-1.075935360630229
1789224566177927400,0.116927490234375,8.946053745639324,3.8741538016974926,-1.0627513963431119
1789224566187965400,0.12696533203125,8.954767213448882,3.8583918766811487,-1.0465857858967036
1789224566198002400,0.13700244140625,8.963454962295293,3.843172680239379,-1.0280465781867503
1789224566208040400,0.14704052734375,8.972201163330674,3.8277301964357493,-1.009193993678689
1789224566218077400,0.157077392578125,8.98099061898589,3.8112300202727316,-0.9933381067685783
1789224566228115200,0.167115234375,8.989699995142221,3.793920573553443,-0.980735668696463
1789224566238153500,0.177153564453125,8.997748861563204,3.7780624946862456,-0.9680621381495147
1789224566248190500,0.1871904296875,9.004044162315129,3.76656611815989,-0.9542325694352388
1789224566258228500,0.197228515625,9.006512013733387,3.7644115704745054,-0.9393269689872861
1789224566268266500,0.2072666015625,9.003978111341596,3.7738796560436483,-0.9255256034541874
1789224566278303500,0.217303466796875,8.996821809846162,3.7938106834381817,-0.9135568601757288
1789224566288341500,0.227341552734375,8.985812924575805,3.8219256018102166,-0.9046724927786737
1789224566298378500,0.23737841796875,8.972023468676209,3.8554406256601212,-0.89931045428887
1789224566308416300,0.247416259765625,8.95689779573679,3.8916757221236824,-0.8939915242884308
1789224566318454500,0.25745458984375,8.941569293701647,3.92879344664067,-0.8850471703324466
1789224566328491500,0.267491455078125,8.925173454695939,3.966789415296912,-0.8810502827160059
1789224566338529300,0.277529296875,8.90475084439218,4.00941771992892,-0.894631064300984
1789224566348567600,0.287567626953125,8.88063639383316,4.0554087789922955,-0.9264688756536692
1789224566358604500,0.2976044921875,8.853952969568967,4.102257623928785,-0.9743619689460843
1789224566368642300,0.307642333984375,8.825755049088597,4.147840394452214,-1.0353041480995715
1789224566378679600,0.317679443359375,8.79656168783009,4.191131254646182,-1.106936136636883
1789224566388717300,0.32771728515625,8.766620138552785,4.232222558969259,-1.185345145028457
1789224566398755300,0.33775537109375,8.736573959857225,4.271328534694016,-1.264282999599725
1789224566408792600,0.34779248046875,8.706919995349645,4.308392775458097,-1.3407767489545046
1789224566418830300,0.357830322265625,8.677800283849239,4.344308138448,-1.4117911901153624
1789224566428868600,0.36786865234375,8.64907629366815,4.3793209996402265,-1.4783146034672856
1789224566438905600,0.377905517578125,8.620390297409891,4.414065857546031,-1.5411938150979578
1789224566448943400,0.387943359375,8.591674490535258,4.452191005539894,-1.5910719447277486
1789224566458981600,0.397981689453125,8.561875564599037,4.49103745354563,-1.641723835209012
1789224566469018400,0.408018310546875,8.53100345647335,4.537482101595401,-1.6744003624081611
1789224566479056400,0.418056396484375,8.49713625818491,4.59788337880522,-1.681822913624346
1789224566489093600,0.42809375,8.456732936125993,4.66725180632472,-1.694346879632771
1789224566499131400,0.43813134765625,8.407271278342604,4.7416398155719035,-1.7335002016305923
1789224566509169400,0.44816943359375,8.352679856455326,4.815363807952404,-1.7931512449949978
1789224566519206400,0.458206298828125,8.29953746433258,4.880020112258196,-1.8637233492158352
1789224566529244400,0.468244384765625,8.254428741061687,4.9275738905936475,-1.9374742296032605
1789224566539282400,0.478282470703125,8.221713635417819,4.9537744997769595,-2.008463536322862
1789224566549319400,0.4883193359375,8.202902551963925,4.957123810204863,-2.0759823904529213
1789224566559357400,0.498357421875,8.198345619311928,4.937241298127174,-2.1403668920800087
1789224566569395500,0.5083955078125,8.207622566223144,4.897511053024232,-2.195381215554476
1789224566579432400,0.518432373046875,8.228921374839544,4.843909518957138,-2.2342282480821014
1789224566589470500,0.528470458984375,8.257894955867528,4.782634089261293,-2.259196246730536
1789224566599507500,0.538507568359375,8.290245904374123,4.717954988601804,-2.276642909963429
1789224566609545500,0.54854541015625,8.323412260916829,4.652290676297247,-2.290717904806137
1789224566619583500,0.55858349609375,8.35654939136505,4.586975323560834,-2.3017665375649927
1789224566629620200,0.5686201171875,8.38806739617884,4.524101226496696,-2.311540328082442
1789224566639658500,0.578658447265625,8.416382805559039,4.4643470150187605,-2.324756806399673
1789224566649696300,0.5886962890625,8.44107184113562,4.409192990812659,-2.340450926876813
1789224566659733500,0.5987333984375,8.46141729454994,4.368022776034474,-2.3441798842720685
1789224566669771500,0.608771484375,8.476008129960299,4.345030315242708,-2.334176961173862
1789224566679809300,0.618809326171875,8.483056879428029,4.34403662803024,-2.310298511327803
1789224566689846500,0.628846435546875,8.47960293958187,4.367019151949882,-2.279444377250224
1789224566699884300,0.63888427734375,8.462733053323626,4.412956142738461,-2.253518639485538
1789224566709922300,0.64892236328125,8.439110185673833,4.476797915790975,-2.215870607484132
1789224566719959600,0.65895947265625,8.414230011439322,4.551170142947137,-2.1582310500726103
1789224566729997300,0.668997314453125,8.389957155448197,4.631783018058538,-2.0798066249161957
1789224566740035600,0.67903564453125,8.365742167124152,4.716505958837271,-1.9847718412205575
1789224566750072600,0.689072509765625,8.340250582993031,4.804274843183159,-1.8787096136845647
1789224566760110600,0.699110595703125,8.311446513313054,4.895143739371002,-1.7685618704006074
1789224566770147800,0.70914794921875,8.27784585700631,4.989091312351823,-1.6603081241697073
1789224566780185600,0.719185546875,8.242240875139832,5.081317176106571,-1.5543711304485797
1789224566790223600,0.7292236328125,8.209378469979763,5.164860551711917,-1.449381938971579
1789224566800260900,0.7392607421875,8.183456677737832,5.233514985743165,-1.3460095350414514
1789224566810298600,0.749298583984375,8.167902550253272,5.283619033083319,-1.240610447589308
1789224566820337000,0.7593369140625,8.164054058131574,5.315214779308438,-1.1256552309583872
1789224566830374000,0.769373779296875,8.170398458722234,5.330702271297573,-0.9992911699540913
1789224566840411600,0.77941162109375,8.182634255439043,5.335173279231786,-0.8664921805314719
1789224566850450000,0.789449951171875,8.194602341130375,5.337332503092289,-0.7292248135231435
1789224566860486700,0.799486572265625,8.20317377012074,5.340809823814034,-0.5950435394292697
1789224566870524700,0.809524658203125,8.20740512408018,5.346918662083149,-0.4683383003044873
1789224566880562700,0.819562744140625,8.207269515001773,5.356478517588973,-0.34532435344569384
1789224566890599700,0.829599609375,8.20339764200449,5.368824204421043,-0.2244588898576796
1789224566900637700,0.8396376953125,8.1954171646446,5.384670008328556,-0.10419299046485685
1789224566910675700,0.84967578125,8.183774657645822,5.403316841131448,0.01976111647101352
1789224566920712700,0.859712646484375,8.169630981481076,5.422593788531422,0.1516303119469434
1789224566930750700,0.869750732421875,8.154456793224812,5.439455491483211,0.2958798659928143
1789224566940788700,0.879788818359375,8.140421253609658,5.4501861443340776,0.4465384468307718
1789224566950825700,0.88982568359375,8.127776291570067,5.454432695862651,0.5989984876001253
1789224566960863700,0.89986376953125,8.11689775468111,5.451712330988049,0.7517933498144149
1789224566970901800,0.90990185546875,8.108556042793392,5.4406292114377015,0.9062325817022472
1789224566980938800,0.919938720703125,8.101485081493854,5.42267152994275,1.0634648783747107
1789224566990976800,0.929976806640625,8.092929434594511,5.401623481217026,1.2236569747008383
1789224567001014800,0.940014892578125,8.081767989110945,5.378582212847471,1.3879017804838716
1789224567011051800,0.9500517578125,8.067183583441377,5.352392709580063,1.5629546882681549
1789224567021089800,0.96008984375,8.046986598587036,5.3238803163230415,1.752908812586218
1789224567031127800,0.9701279296875,8.019838479420542,5.29441632142961,1.9549239615760743
1789224567041164500,0.98016455078125,7.985465085175633,5.264592261052131,2.1649029290519652
1789224567051202800,0.990202880859375,7.9439868273615835,5.235466119810939,2.377677518595755
1789224567061240600,1.000240478515625,7.899262719494104,5.206304322734475,2.581941907817125
1789224567071277600,1.010277587890625,7.859456194284558,5.171985873547196,2.7658436002284286
1789224567081315800,1.02031591796875,7.831130263510346,5.126408363720774,2.9263834140136837
1789224567091353600,1.030353515625,7.817026919355988,5.066815772545337,3.064611735008657
1789224567101390600,1.040390625,7.816825259304046,4.993613173690438,3.182994953326881
1789224567111428900,1.050428955078125,7.824909781560302,4.914963999867439,3.2839459753289817
1789224567121466600,1.060466552734375,7.8294065084576605,4.8384798951238395,3.3852459568992255
1789224567131503900,1.07050390625,7.822414457613229,4.766223052686453,3.5019045433819294
1789224567141541600,1.080541748046875,7.80286746110022,4.703132390262186,3.6285251364305613
1789224567151579600,1.09057958984375,7.773746580556034,4.649885368721187,3.757368081703782
1789224567161617000,1.100616943359375,7.734317656487226,4.607518053112924,3.888635916036367
1789224567171654700,1.110654541015625,7.683810289043188,4.5757595175415275,4.0239118169665336
1789224567181692700,1.120692626953125,7.6253949249535795,4.552626771496236,4.159005347067118
1789224567191729700,1.130729736328125,7.564014865839481,4.541178910286725,4.281794691389799
1789224567201767700,1.140767578125,7.498353183883428,4.538234089006483,4.398807205876707
1789224567211805700,1.1508056640625,7.428694541245698,4.536892611269653,4.516800840355455
1789224567221842700,1.1608427734375,7.3613400838971135,4.529510099802911,4.632989471238851
1789224567231880700,1.170880615234375,7.300413613769412,4.512388576871157,4.744755024982989
1789224567241918700,1.180918701171875,7.246358198454976,4.484413066969812,4.852907941187918
1789224567251955700,1.190955810546875,7.199541502222418,4.44467317725569,4.9580099453896285
1789224567261993700,1.20099365234375,7.159523964610695,4.395066265782714,5.059149767962098
1789224567272031700,1.21103173828125,7.1232567194432015,4.33655942401737,5.159830740851164
1789224567282068700,1.22106884765625,7.085998125150799,4.269581398765743,5.265898082953691
1789224567292106800,1.231106689453125,7.044449724709987,4.196119272191822,5.379470101597905
1789224567302144800,1.241144775390625,6.996725850504636,4.119103252528608,5.499927203580737
1789224567312181800,1.251181640625,6.943034007805585,4.040943908049166,5.624537918111682
1789224567322219500,1.261219482421875,6.888413359823822,3.961304846405983,5.747017465832829
1789224567332257800,1.2712578125,6.838482915484905,3.8770553683578965,5.862932832732796
1789224567342294800,1.281294677734375,6.797865658414364,3.7833424809157847,5.97040478093624
1789224567352332800,1.291332763671875,6.77476418429017,3.677246789501607,6.062244860243797
1789224567362370800,1.301370849609375,6.7712056150257585,3.5625109877750276,6.13430296523869
1789224567372407600,1.311407470703125,6.776930422413349,3.4376582811817524,6.198879774567485
1789224567382445800,1.32144580078125,6.786768510338663,3.302492854888737,6.261285085076094
1789224567392483600,1.331483642578125,6.800664349222183,3.1593934207260608,6.31977702153325
1789224567402520600,1.3415205078125,6.817466430941224,3.0109388892710207,6.373914269912243
1789224567412558800,1.351558837890625,6.840549200364947,2.8582500812470912,6.419320514824986
1789224567422596600,1.3615966796875,6.87181936789751,2.7013787268415093,6.453761713609099
1789224567432633600,1.371633544921875,6.913842400112748,2.536449738186598,6.475770131799578
1789224567442671900,1.381671875,6.977579251486063,2.3542463741257786,6.476209692260623
1789224567452709600,1.391709716796875,7.050903430894016,2.1563494741097093,6.465701742249727
1789224567462746600,1.40174658203125,7.12050069873333,1.9507798475086688,6.454712730723619
1789224567472784600,1.41178466796875,7.19567839705348,1.7376488457426427,6.432198701098561
1789224567482822700,1.42182275390625,7.263105335116386,1.5307241512708365,6.408944666761159
1789224567492859600,1.431859619140625,7.329013685309887,1.3420076059237123,6.376123762655258
1789224567502897700,1.441897705078125,7.430422387951612,1.1570068662293254,6.294485343888401
1789224567512935700,1.451935791015625,7.554308295339346,0.9714037767276167,6.177311501359939
1789224567522973000,1.461972900390625,7.686395629361272,0.7820945261843502,6.039704527133703
1789224567533010700,1.4720107421875,7.810070524346828,0.5943958161102607,5.900836739191413
1789224567543048700,1.482048583984375,7.911891899442672,0.41966176501680164,5.778948143100738
1789224567553086700,1.492086669921875,7.99263190806508,0.2639170400209725,5.676140095055103
1789224567563123700,1.502123779296875,8.062039790812134,0.12446003574756904,5.581970696017145
1789224567573161700,1.51216162109375,8.126859761247038,-0.0027786312609576268,5.48858163370192
1789224567583199700,1.52219970703125,8.191600821226835,-0.12106973572215064,5.390121259471774
1789224567593236700,1.53223681640625,8.25981394123137,-0.2353501035651192,5.281142413836717
1789224567603274800,1.542274658203125,8.322240879049897,-0.3398896150458604,5.176404859033227
1789224567613312800,1.552312744140625,8.345601296371221,-0.39586156803872435,5.134648368799686
1789224567623349800,1.562349853515625,8.338061548516153,-0.38417606214843686,5.147767962613702
1789224567633387800,1.5723876953125,8.32883545500934,-0.32575035932790486,5.1666988730549805
1789224567643425800,1.58242578125,8.323156824851036,-0.24008911478575318,5.18052164670229
1789224567653462500,1.592462646484375,8.31132317919433,-0.14577733900188466,5.202983653879166
1789224567663500800,1.602500732421875,8.28670603981018,-0.06132685848898254,5.2437704222977155
1789224567673538600,1.61253857421875,8.253219949793815,0.0001206459120431191,5.296673744967579
1789224567683575600,1.622575439453125,8.22001209219694,0.03227612057155929,5.347966709831357
1789224567693613800,1.63261376953125,8.196976084524392,0.03456153951144079,5.383193506035209
1789224567703651600,1.642651611328125,8.190261097055673,0.010147672181006056,5.393505056691169
1789224567713689900,1.65268994140625,8.20160491336882,-0.03229899227378191,5.376152939873934
1789224567723726800,1.662726806640625,8.22111566952467,-0.06941090125462505,5.345916791564226
1789224567733764600,1.6727646484375,8.206479825928806,-0.11906457904535345,5.367485064771771
1789224567743803000,1.682802978515625,8.162668741253018,-0.18007146659865975,5.4322004057884214
1789224567753839600,1.692839599609375,8.098591698139906,-0.23814320488236843,5.525078011450171
1789224567763877400,1.70287744140625,8.01003254019916,-0.28550467551611364,5.650509394714236
1789224567773915400,1.712915283203125,7.896661597084998,-0.32513105838578193,5.805808092975616
1789224567783952100,1.7229521484375,7.762793809387087,-0.3618991292148828,5.9815089432746165
1789224567793990400,1.732990478515625,7.611100442141294,-0.39768180573582645,6.1711728524744505
1789224567804028200,1.743028076171875,7.447945185160637,-0.43275132901873437,6.364842490184307
1789224567814066400,1.75306640625,7.321007488986849,-0.41354423198457807,6.511698938792944
1789224567824103400,1.763103515625,7.278291798332333,-0.2759595791880041,6.566635813117027
1789224567834141200,1.77314111328125,7.264704002484679,-0.10639811756000854,6.586587298777699
1789224567844179500,1.783179443359375,7.2809601407587525,0.001145794121529252,6.569474835935234
1789224567854216400,1.793216552734375,7.353043380194902,0.07043049009332898,6.4883116334646935
1789224567864254200,1.803254150390625,7.499675956919789,0.10683560479497536,6.317739378225803
1789224567874292500,1.81329248046875,7.694354479411244,0.1022668355747126,6.079212946179509
1789224567884329200,1.8233291015625,7.913292998412251,0.07142133689473848,5.791811131805181
1789224567894367200,1.8333671875,8.128658919623494,0.03669935297444463,5.485794633331895
1789224567904405200,1.8434052734375,8.320207911917567,0.015956480615708278,5.190787020128965
1789224567914443300,1.853443359375,8.48568196723461,0.016060918237717124,4.915621002471447
1789224567924480300,1.863480224609375,8.628060978168248,0.05232069134316407,4.660924356868863
1789224567934518300,1.873518310546875,8.755036668264866,0.14612744021434337,4.415695796835422
1789224567944556300,1.883556396484375,8.840099800783396,0.2783946973804384,4.236214258953929
1789224567954593300,1.89359326171875,8.889043572172522,0.4581530429093167,4.116477580200136
1789224567964631300,1.90363134765625,8.910585541895031,0.6939345966942608,4.036124817329645
1789224567974669300,1.91366943359375,8.897727229365707,0.972252940902859,4.006938762594759
1789224567984706300,1.923706298828125,8.850171697464585,1.2819897750735283,4.025089920835197
1789224567994744300,1.933744384765625,8.773706297421455,1.6144066430859267,4.072609504640102
1789224568004782000,1.943781982421875,8.672600377118586,1.955846044857055,4.138967644427717
1789224568014819300,1.9538193359375,8.552305187699199,2.2902146314591167,4.217033465404808
1789224568024857300,1.963857421875,8.420499008706212,2.595963418906927,4.304248807521164
1789224568034895000,1.97389501953125,8.2799548119843,2.857558591851592,4.409885941512883
1789224568044933400,1.983933349609375,8.139995721673966,3.0673499278008935,4.52793685913682
1789224568054970400,1.993970458984375,8.047944629964231,3.2049034182742235,4.596691246411204
1789224568065008400,2.00400830078125,8.081435396155715,3.2134958900526165,4.53147117074281
1789224568075046400,2.01404638671875,8.131694341796637,3.1663126985952257,4.474416281351447
1789224568085083100,2.024083251953125,8.17930306518972,3.1049387769609686,4.430433931761979
1789224568095121400,2.034121337890625,8.229781791061162,3.0436794216170906,4.37916551681757
1789224568105159200,2.0441591796875,8.287878006199001,2.9810020161688326,4.312202396874129
1789224568115197200,2.054197265625,8.35306388733685,2.9133506217002867,4.231914223672449
1789224568125234400,2.064234375,8.42430599977374,2.8413913009047507,4.1385926736354826
1789224568135272200,2.074272216796875,8.501952718555927,2.766207465104759,4.0293022778332235
1789224568145310500,2.084310546875,8.584185596084595,2.688040521840751,3.9059669900655742
1789224568155347500,2.094347412109375,8.668029415941238,2.6068895943298935,3.773563721962273
1789224568165385200,2.10438525390625,8.749419997426868,2.5254434832647443,3.6387040006175635
1789224568175423500,2.114423583984375,8.82248581815958,2.4470504761599003,3.5136978570282458
1789224568185461200,2.124461181640625,8.887174271169304,2.3781313998430966,3.396028632198274
1789224568195498200,2.134498291015625,8.943212384733558,2.32153667530939,3.2863056901976466
1789224568205536300,2.144536376953125,8.990734014365076,2.278621516560018,3.1851164755254984
1789224568215574300,2.15457421875,9.02991217854321,2.249627769526839,3.093580639861524
1789224568225611300,2.164611328125,9.060288027584551,2.233146151933819,3.015729046157002
1789224568235649300,2.174649169921875,9.082827191650868,2.2287546389766035,2.950473314653337
1789224568245687300,2.184687255859375,9.098325789555906,2.23539641507864,2.897214018152654
1789224568255725300,2.194725341796875,9.107070237025617,2.252023870883137,2.856579517686367
1789224568265762300,2.20476220703125,9.109689479613303,2.278192477492988,2.8273271197170016
1789224568275800300,2.21480029296875,9.106985481351613,2.314692946894467,2.806313850043714
1789224568285838300,2.22483837890625,9.099113725063205,2.3610363265268504,2.7932088692769406
1789224568295875300,2.234875244140625,9.085796562850474,2.4160643862657247,2.7895015391916034
1789224568305913000,2.2449130859375,9.06431947505772,2.4774483909025786,2.805484121221304
1789224568315951400,2.254951416015625,9.031713090485335,2.546946874542534,2.8480890449777245
1789224568325989000,2.264989013671875,8.988114187255501,2.625939454975724,2.9135259782671925
1789224568336026000,2.275026123046875,8.938121783596277,2.713824366916716,2.9858871578618884
1789224568346064400,2.285064453125,8.897823090955615,2.802279772222042,3.0242946299284696
1789224568356102100,2.29510205078125,8.887616754239797,2.866769780050218,2.9937074762240052
1789224568366139400,2.305139404296875,8.912842965433,2.890522119298577,2.8942183434680104
1789224568376177400,2.315177490234375,8.945978926837444,2.883651356746256,2.797212844221294
1789224568386215200,2.325215087890625,8.974027794235944,2.8611308973804115,2.729676892825961
1789224568396253400,2.33525341796875,8.996672172242402,2.835817592425644,2.6811224130153652
1789224568406290200,2.345290283203125,9.014195553973316,2.8161881783261893,2.6426784083306787
1789224568416328200,2.355328125,9.028279024383425,2.805036669714749,2.6062106721550227
1789224568426366200,2.3653662109375,9.042005936440825,2.8019892648428675,2.5615172516867517
1789224568436403200,2.3754033203125,9.05725143636763,2.8028707238525152,2.5060920093238352
1789224568446441500,2.38544140625,9.075214963081478,2.8050121197953817,2.4377780592933296
1789224568456479200,2.395479248046875,9.094601800596713,2.8102871375888583,2.3581541952192784
1789224568466517200,2.405517333984375,9.114716367864608,2.8178423752740023,2.269823439206928
1789224568476554500,2.415554443359375,9.134582513329386,2.8252812931030986,2.178891853046417
1789224568486592300,2.42559228515625,9.15654650785625,2.8206261607736347,2.0909601793542505
1789224568496630300,2.43563037109375,9.179598297619819,2.8183494480133056,1.9905454561859368
1789224568506668300,2.445668212890625,9.201410900977253,2.81665345775038,1.889679043727368
1789224568516705300,2.455705322265625,9.22318141875863,2.807576417325437,1.7946658873416483
1789224568526743300,2.465743408203125,9.245464562237261,2.791259488774836,1.7031253755025564
1789224568536781300,2.47578125,9.266011675703526,2.7691932029172777,1.6257237175226211
1789224568546818300,2.485818359375,9.287815511232614,2.7339558853194115,1.5596002632737158
1789224568556856300,2.495856201171875,9.307516237002611,2.7110464266359804,1.4801177073664962
1789224568566894300,2.505894287109375,9.320603097590803,2.7160578250572085,1.3855571170538663
1789224568576932000,2.51593212890625,9.324411842224002,2.7408158342167734,1.3090648290038107
1789224568586969300,2.52596923828125,9.326309200277924,2.7557188043162224,1.263470660303533
1789224568597007400,2.53600732421875,9.328056336206197,2.761842547893524,1.2369226989872752
1789224568607045400,2.54604541015625,9.331435457250475,2.7700533268779512,1.1922677838984876
1789224568617082400,2.556082275390625,9.335599006670712,2.7760364929407833,1.1448114745881408
1789224568627120400,2.566120361328125,9.338206558820605,2.781404741975665,1.1099862449225038
1789224568637158400,2.576158447265625,9.337204688301682,2.793003409832716,1.0890968208245932
1789224568647196400,2.586196533203125,9.332567091628908,2.814745286041498,1.0727467937219888
1789224568657233200,2.596233154296875,9.328506418061256,2.838209455998242,1.0459080327656118
1789224568667271400,2.606271484375,9.328007236367464,2.8539728423193096,1.006728480347991
1789224568677309200,2.61630908203125,9.299756124395131,2.9356770197987556,1.0328220489602535
1789224568687347500,2.626347412109375,9.259390211737156,3.056354486533999,1.0453607741463928
1789224568697384400,2.636384521484375,9.22607480211258,3.164428492283821,1.0179964549459517
1789224568707422200,2.646422119140625,9.187288267600536,3.2827772238105535,0.9937263023685663
1789224568717460500,2.65646044921875,9.14571122558713,3.4067791587933898,0.9592717326462268
1789224568727498200,2.666498291015625,9.096416741064191,3.5422827309995886,0.9369208576936274
1789224568737535200,2.67653515625,9.042768152984976,3.6841783423304557,0.9086038408782333
1789224568747573200,2.6865732421875,8.99309782088697,3.815402922043204,0.8586514769684522
1789224568757611300,2.696611328125,8.939375583049655,3.953624521036446,0.7917075731821358
1789224568767648500,2.7066484375,8.910054211497306,4.044235643070936,0.6522877043150365
1789224568777686300,2.716686279296875,8.887431460800766,4.114721384182572,0.5030079010169953
1789224568787724500,2.726724609375,8.876512007379532,4.153817130774259,0.3517361201841384
1789224568797762300,2.73676220703125,8.869196715930103,4.177919598634541,0.22961682061012834
1789224568807799600,2.746799560546875,8.86450534324348,4.192982143209874,0.09916328006880357
1789224568817837600,2.756837646484375,8.868281939172745,4.1858030453607435,-0.054838135790498926
1789224568827875300,2.766875244140625,8.879821570318937,4.157461624756455,-0.18619150211522353
1789224568837913600,2.77691357421875,8.899118975985049,4.111412990286946,-0.26898168473308903
1789224568847950300,2.786950439453125,8.917326248326898,4.0672874328345054,-0.3299323942529037
1789224568857988400,2.79698828125,8.933664804187417,4.025674442724883,-0.3923901290684938
1789224568868026400,2.8070263671875,8.937624355468154,4.011654977461696,-0.44258766337838024
1789224568878064400,2.817064453125,8.936053745150566,4.010127329503,-0.48601161190010606
1789224568888101600,2.8271015625,8.94205210878253,3.9920869381606576,-0.5228144617816433
1789224568898139400,2.837139404296875,8.955020311427116,3.9595840139627456,-0.5474366791997105
1789224568908177400,2.847177490234375,8.965775514197349,3.934064372780919,-0.5553278343083337
1789224568918215400,2.85721533203125,8.967580517792701,3.930841611342132,-0.5489684553442522
1789224568928252400,2.86725244140625,8.965194499439,3.9388562832325693,-0.5301720214702189
1789224568938290400,2.87729052734375,8.961158375790715,3.94818057641685,-0.5290496298441663
1789224568948328400,2.887328369140625,8.954272707930206,3.9602138362988826,-0.5550640688056125
1789224568958365400,2.897365478515625,8.948844837662577,3.968187883917987,-0.5848500256624073
1789224568968403500,2.907403564453125,8.946702564936876,3.9701039466723795,-0.6042959729537367
1789224568978441500,2.91744140625,8.948476004350185,3.9668060741707682,-0.5996747794264927
1789224568988479500,2.9274794921875,8.952171351736784,3.965459043475985,-0.5514953800059854
1789224568998516500,2.9375166015625,8.957498684239386,3.966966525429487,-0.4435927853003144
1789224569008554500,2.947554443359375,8.967261953362822,3.9568203944683074,-0.31964184985235333
1789224569018592300,2.95759228515625,8.971957417702674,3.953322323219478,-0.2135514922004193
1789224569028630500,2.967630615234375,8.97515533696115,3.948812152318656,-0.154434628777951
1789224569038667500,2.97766748046875,8.978376052573322,3.9425323413968085,-0.12487112816595472
1789224569048705500,2.98770556640625,8.979338175603747,3.9405157408773896,-0.11919522882085293
1789224569058743600,2.99774365234375,8.978365531179309,3.9428061899021265,-0.11668517309552989
1789224569068781300,3.00778125,8.977896744623779,3.9440301787391303,-0.11126904806462116
1789224569078818600,3.017818603515625,8.977602730113267,3.944968628633022,-0.10126076380470767
1789224569088856600,3.027856689453125,8.97782017225623,3.944784504237771,-0.08834730528835207
1789224569098894300,3.037894287109375,8.978055150055885,3.944512993820011,-0.07565888769952579
1789224569108932600,3.0479326171875,8.977845306697487,3.9451767184257505,-0.0652594441309804
1789224569118969300,3.05796923828125,8.976865063488482,3.947514805984497,-0.058377219469728875
1789224569129007600,3.068007568359375,8.975252952116728,3.951214537285268,-0.05589306993721984
1789224569139045400,3.07804541015625,8.972964548918604,3.9563744042664766,-0.05822577806795016
1789224569149083400,3.08808349609375,8.969674859723447,3.9636309512659906,-0.07038591116608586
1789224569159120600,3.09812060546875,8.965077010539174,3.9732840380132197,-0.10387959540043958
1789224569169158400,3.108158447265625,8.958994475755095,3.9853932857409116,-0.15310374550037084
1789224569179196400,3.118196533203125,8.952183626696467,3.998523985470831,-0.20150438645612448
1789224569189234400,3.128234375,8.945900600904226,4.0106174511075015,-0.23705369261261075
1789224569199271400,3.138271484375,8.940382129743695,4.021234706711769,-0.2638559757498093
1789224569209309700,3.148309814453125,8.932901418599485,4.035588226234912,-0.2961246345341205
1789224569219347500,3.158347412109375,8.920335951536893,4.060049590535462,-0.337624994582124
1789224569229385500,3.168385498046875,8.902617339494824,4.094894693945348,-0.38161063210722057
1789224569239422500,3.17842236328125,8.880923394080996,4.138097875855863,-0.4191954992119223
1789224569249460500,3.18846044921875,8.85672711045742,4.186726297685504,-0.44731812596637754
1789224569259498200,3.198498291015625,8.83175633533001,4.236823915284872,-0.46881439338363706
1789224569269536500,3.20853662109375,8.804372069320083,4.2907843457922334,-0.4925314421229064
1789224569279573500,3.218573486328125,8.769288480979204,4.356988171800971,-0.5353671058952808
1789224569289611500,3.228611572265625,8.722974473571776,4.441758166591823,-0.5923558712478727
1789224569299649500,3.2386494140625,8.664214826089143,4.547419265981018,-0.6501856905344874
1789224569309687300,3.248687255859375,8.592928289988636,4.67083317194283,-0.7178352583721279
1789224569319724500,3.258724609375,8.511910633468627,4.804239771869779,-0.7981471777755766
1789224569329762600,3.268762451171875,8.423537938010693,4.9456157432407135,-0.869064442172274
1789224569339800300,3.27880029296875,8.32723211146593,5.096328282755613,-0.9246814807802438
1789224569349838600,3.288838623046875,8.218976319408416,5.261295557594299,-0.9682879827946423
1789224569359875300,3.298875244140625,8.087230346170067,5.453432578909397,-1.0134928599163888
1789224569369913600,3.30891357421875,7.928955846968293,5.66965540921092,-1.075662900364399
1789224569379951400,3.318951416015625,7.747770427778363,5.901361639848351,-1.1473312753893434
1789224569389989400,3.3289892578125,7.547841729673743,6.140089147424698,-1.22465365758799
1789224569400026600,3.339026611328125,7.333198277518153,6.378651235306263,-1.3066738422140478
1789224569410064400,3.349064453125,7.108606847321987,6.611210283380746,-1.3892394588284194
1789224569420102400,3.359102294921875,6.878311068004369,6.832288737019896,-1.4761603480428456
1789224569430140400,3.369140380859375,6.647414400184154,7.037964454343914,-1.5650323713250458
1789224569440177400,3.379177490234375,6.418809058171511,7.227448915323615,-1.6532554291792212
1789224569450215700,3.389215576171875,6.19122253781259,7.40237702768445,-1.744693649687618
1789224569460253400,3.39925341796875,5.9608081005513665,7.565932682159542,-1.8427756921246647
1789224569470291500,3.40929150390625,5.723250805798172,7.722171876141428,-1.9449561097912489
1789224569480329500,3.41932958984375,5.475019556817412,7.874064565351605,-2.047841460856795
1789224569490366500,3.429366455078125,5.210250430011749,8.02185624898374,-2.1618274671293793
1789224569500404500,3.439404541015625,4.936829210194945,8.161938673412799,-2.276151473184675
1789224569510442500,3.4494423828125,4.676638935612142,8.28642780739069,-2.373718551836908
1789224569520480500,3.45948046875,4.444451643459499,8.388877543517946,-2.458449091400206
1789224569530517500,3.469517578125,4.253570759685338,8.46600988303721,-2.530650111997127
1789224569541183500,3.48018359375,4.105367280381918,8.520716455736755,-2.5910873373031613
1789224569551221200,3.49022119140625,4.013186424812674,8.551087044081092,-2.635079331503808
1789224569561258500,3.500258544921875,3.954568231627345,8.567477622389793,-2.6702225410774347
1789224569571296500,3.510296630859375,3.912897666111588,8.576522514110803,-2.7023814741432663
1789224569581334300,3.520334228515625,3.870262054955959,8.583544960093498,-2.7412071716219186
1789224569591372500,3.53037255859375,3.8208869064122437,8.590611829739808,-2.7879361895710226
1789224569601410300,3.540410400390625,3.7645942335650324,8.597292914938926,-2.843372830110788
1789224569611447600,3.550447509765625,3.709173959638178,8.602164904889463,-2.900893875709176
1789224569621485600,3.560485595703125,3.6653248810395596,8.602757610085606,-2.9543755827888845
1789224569631523300,3.5705234375,3.6382968811213967,8.597255505537987,-3.003393003936112
1789224569641561600,3.5805615234375,3.6287908016294237,8.585037244477867,-3.049493953114748
1789224569651598300,3.590598388671875,3.6355320925831793,8.566238435983657,-3.094002372404933
1789224569661636400,3.60063623046875,3.6561326898023485,8.541818864998222,-3.136942227204144
1789224569671674400,3.61067431640625,3.6857471990823742,8.514002637311815,-3.1776424863830206
1789224569681712400,3.62071240234375,3.7183585520908236,8.486238432073593,-3.213713039934635
1789224569691749600,3.63074951171875,3.7475723716154694,8.461044954106212,-3.246044406957924
1789224569701787400,3.640787353515625,3.7696126462489365,8.439460898807644,-3.276567555515468
1789224569711825400,3.650825439453125,3.783541510619223,8.4223870144099,-3.304331760753691
1789224569721863400,3.660863525390625,3.7880797385707496,8.41175689932406,-3.3261358885437247
1789224569731901400,3.6709013671875,3.780441791038215,8.40759627251327,-3.345288917303085
1789224569741938400,3.6809384765625,3.7628736933827396,8.407233868941665,-3.3659432905361055
1789224569751976400,3.6909765625,3.741577222853899,8.408391806805133,-3.3867265508458018
1789224569762014500,3.701014404296875,3.71841145132184,8.41043120367825,-3.4071190582722424
1789224569772052500,3.711052490234375,3.690829616913199,8.415638709193468,-3.424209017021954
1789224569782089500,3.72108935546875,3.6534009267508982,8.428365504297613,-3.4330332517296074
1789224569792127500,3.73112744140625,3.6044942725017663,8.45215028451085,-3.4262484138950704
1789224569802165500,3.74116552734375,3.5464401429399848,8.489037707403302,-3.3954975940614935
1789224569812203500,3.75120361328125,3.484610586492717,8.534965930363535,-3.3439828031405803
1789224569822240300,3.761240234375,3.438245433419943,8.580214354366063,-3.2754826828882098
1789224569832278500,3.771278564453125,3.4141251376420256,8.627751766088604,-3.1742765170812604
1789224569842316300,3.78131640625,3.3869609441235657,8.684263342383504,-3.0467119211807847
1789224569852354600,3.7913544921875,3.337002734994888,8.75111160377562,-2.90737680798769
1789224569862392300,3.801392333984375,3.2652772229552265,8.825423040655254,-2.7604817809343336
1789224569872429300,3.81142919921875,3.1772979107290507,8.90337020368874,-2.6086665408745406
1789224569882467600,3.821467529296875,3.0777210996896027,8.980812924331426,-2.458251815262437
1789224569892505300,3.83150537109375,2.9780729769796133,9.052262542039156,-2.314741169950366
1789224569902543400,3.84154345703125,2.890475649808347,9.111928198450803,-2.1882216991886496
1789224569912580600,3.85158056640625,2.819998968786001,9.15734730284512,-2.0882962208420035
1789224569922618400,3.861618408203125,2.770293273113668,9.187885064449906,-2.019561561181396
1789224569932656600,3.87165673828125,2.738208866588771,9.205825794810057,-1.981255649793148
1789224569942694400,3.8816943359375,2.7185607477888465,9.214027805966138,-1.970157040412724
1789224569952732400,3.891732421875,2.706343363511562,9.214398392844199,-1.9851871440231799
1789224569962769400,3.901769287109375,2.700335939790308,9.208868815767765,-2.0187392850130794
1789224569972807400,3.911807373046875,2.7007006814494727,9.198374894282221,-2.0655520357228814
1789224569982845200,3.92184521484375,2.707677242463827,9.183841342017054,-2.120361484275013
1789224569992883500,3.931883544921875,2.7211569017618893,9.166982561674713,-2.1753397135227917
1789224570002920400,3.94192041015625,2.7372815226107834,9.150116182547807,-2.225547367367893
1789224570012958500,3.95195849609375,2.7492653903931377,9.135481507995724,-2.2704450782366097
1789224570022996500,3.96199658203125,2.7543235505655406,9.124911598664522,-2.306525714790821
1789224570033034200,3.9720341796875,2.7531603520050645,9.119280314779282,-2.3300696719855067
1789224570043072500,3.982072509765625,2.7468939850866794,9.118695208367704,-2.3397378101713953
1789224570053109500,3.992109619140625,2.735254692958295,9.12269509165883,-2.337778200536221
1789224570063147300,4.002147216796875,2.717645678770542,9.130369279548525,-2.3283383181482553
1789224570073185500,4.012185546875,2.6935195377737284,9.140611856621502,-2.3161498677045107
1789224570083223300,4.022223388671875,2.6630703312352297,9.152561822134256,-2.3041401348285375
1789224570093260500,4.032260498046875,2.6299782089725134,9.16499226464033,-2.2927070327967405
1789224570103298300,4.04229833984375,2.596552909232676,9.176541248136758,-2.284598106751591
1789224570113336300,4.05233642578125,2.562001528072357,9.18718772983551,-2.280813473646343
1789224570123374300,4.062374267578125,2.5249501467898487,9.197640150266885,-2.280004056959599
1789224570133412400,4.072412353515625,2.4867826209589836,9.208434516003727,-2.278380985802412
1789224570143449300,4.082449462890625,2.449533525147289,9.219216022258996,-2.27513016731292
1789224570153487400,4.0924873046875,2.4143331785589455,9.228784645593166,-2.2739685761876403
1789224570163525400,4.102525390625,2.3799802425801753,9.237726076939701,-2.2738724223367868
1789224570173563400,4.1125634765625,2.3444360509902236,9.250331876012682,-2.2595110117681325
1789224570183600400,4.122600341796875,2.3049494053848085,9.274261033132671,-2.2012919009029863
1789224570193638400,4.132638427734375,2.2560803066670894,9.314861923590302,-2.076980461579561
1789224570203676400,4.142676513671875,2.2119898205280304,9.355805928397178,-1.9355590436317025
1789224570213714400,4.15271435546875,2.189324253603071,9.385924003285169,-1.8115398652531205
1789224570223752400,4.16275244140625,2.191402375051379,9.402841235816478,-1.7189362542271613
1789224570233789400,4.17278955078125,2.216024629002064,9.406894895121455,-1.664317213680595
1789224570243827500,4.182827392578125,2.2481962754189966,9.402324518465996,-1.646910590197146
1789224570253865500,4.192865478515625,2.275057102076709,9.39194750135839,-1.6690768292978404
1789224570263903500,4.202903564453125,2.289494208230078,9.377405765786767,-1.729997308076173
1789224570273941500,4.21294140625,2.2892278123788534,9.36059491623938,-1.8190895499803126
1789224570283978500,4.222978515625,2.277130985741317,9.34291722072959,-1.9222309216335414
1789224570294016300,4.233016357421875,2.256661029164493,9.326156055542826,-2.02500959745422
1789224570304054500,4.243054443359375,2.2338651138581334,9.31184579063952,-2.1141829417705535
1789224570314092300,4.25309228515625,2.206645975282043,9.301146117448805,-2.1885537076219914
1789224570324129300,4.26312939453125,2.172235902288556,9.294281492376326,-2.251250402292609
1789224570334167600,4.27316748046875,2.133336116660386,9.289581351861358,-2.3071536374308166
1789224570344205300,4.283205322265625,2.0900636689059433,9.285575038829446,-2.3622255363114175
1789224570354243600,4.29324365234375,2.043854437047243,9.281600289979577,-2.4176360194966198
1789224570364281300,4.30328125,1.9984666045740245,9.275148337361216,-2.47954419413805
1789224570374318300,4.313318359375,1.9600006803184746,9.263245133599638,-2.553635266265273
1789224570384356600,4.323356689453125,1.9325784203857181,9.246783828142284,-2.6329680384382605
1789224570394394400,4.333394287109375,1.9223105627410113,9.22635537261963,-2.710989728012681
1789224570404432600,4.3434326171875,1.9213523852333425,9.203964092591404,-2.786727398303151
1789224570414470400,4.353470458984375,1.9160329437762498,9.184384947374463,-2.8541671958476305
1789224570424507400,4.36350732421875,1.9123893265768885,9.169110805875063,-2.9052658071830866
1789224570434545400,4.37354541015625,1.9133193009033798,9.160376879799365,-2.9320813333943483
1789224570444583400,4.38358349609375,1.9189606677912174,9.156143187752365,-2.9415985188022256
1789224570454621400,4.393621337890625,1.9197214230306445,9.155358759376407,-2.9435429308682677
1789224570464658400,4.403658447265625,1.9083070256993173,9.158936033341288,-2.9398379388704896
1789224570474696400,4.413696533203125,1.8879310310162603,9.166604960533975,-2.9290742605328557
1789224570484734500,4.423734375,1.8662486299097536,9.177679312255979,-2.90821559689939
1789224570494772500,4.4337724609375,1.8507637682691216,9.19091697949171,-2.876126221938431
1789224570504810200,4.443810302734375,1.8403735994189976,9.205331873813272,-2.8364231571033596
1789224570514847500,4.453847412109375,1.8304466641664503,9.22073753273785,-2.7924662342160937
1789224570524885500,4.463885498046875,1.8141973940245806,9.238590000292659,-2.7436349832907316
1789224570534923300,4.47392333984375,1.788775806389749,9.259896992215513,-2.6879294626817107
1789224570544961500,4.48396142578125,1.7564872555948794,9.28438904391527,-2.6239731233388186
1789224570554999300,4.493999267578125,1.7254036966755986,9.310231341180204,-2.552053550031781
1789224570565036500,4.50403662109375,1.7064625571012495,9.334399567753076,-2.475345865665376
1789224570575074600,4.514074462890625,1.7030010184705255,9.355291549134254,-2.397643471173197
1789224570585112300,4.5241123046875,1.7078363296724854,9.373571302190422,-2.3216056488923726
1789224570595150600,4.534150634765625,1.707641391622275,9.391670437982677,-2.247414915782958
1789224570605188400,4.544188232421875,1.6890303607851267,9.411890803712605,-2.175750194019824
1789224570615225300,4.554225341796875,1.6525605787828563,9.433426343694329,-2.1094810476899144
1789224570625263400,4.564263427734375,1.6124400191880761,9.452842407304049,-2.052845845015347
1789224570635301400,4.57430126953125,1.5829472365915775,9.467271914672851,-2.0088322235047817
1789224570645339400,4.58433935546875,1.569077993454039,9.475202123150229,-1.9821515757195651
1789224570655377400,4.59437744140625,1.564107511565089,9.47782954904437,-1.973494952663779
1789224570665414400,4.604414306640625,1.5644582246989012,9.476206916278601,-1.9809959759436546
1789224570675452400,4.614452392578125,1.5671506786532698,9.471856319853662,-1.9995877175584433
1789224570685490400,4.624490478515625,1.5669723994769156,9.467653607466817,-2.019532481217384
1789224570695528400,4.634528564453125,1.5682010644890367,9.464455688208341,-2.0335171674281356
1789224570705566500,4.64456640625,1.5808768600583076,9.46108299690485,-2.039392343071848
1789224570715603500,4.654603515625,1.6121153172783553,9.455480939114093,-2.040914438072592
1789224570725641500,4.664641357421875,1.6674109419122338,9.44618119584918,-2.039550310112536
1789224570735679500,4.674679443359375,1.7442340693518519,9.433577734863757,-2.0336314414575694
1789224570745717500,4.684717529296875,1.8335456530950962,9.418804528623818,-2.0235170208089053
1789224570755755000,4.694755126953125,1.9247638011120258,9.403189026340842,-2.0113908219464123
1789224570765792000,4.7047919921875,2.009205586861819,9.387983273902535,-1.9998089590936898
1789224570775829800,4.714829833984375,2.0925673222899435,9.371050843802093,-1.9937327079199254
1789224570785868000,4.724867919921875,2.181972137274593,9.349534008520841,-1.9988978355981408
1789224570795905800,4.73490576171875,2.2728534545525907,9.324526993036269,-2.014380651412159
1789224570805943800,4.74494384765625,2.3521913412921127,9.299942002356051,-2.036826730367541
1789224570815980800,4.754980712890625,2.414581892623007,9.278052826631068,-2.06347069940418
1789224570826018800,4.765018798828125,2.472794135355949,9.25654651274383,-2.090939574957639
1789224570836056800,4.775056884765625,2.5337501238390803,9.235952637526392,-2.1089557086415587
1789224570846094800,4.7850947265625,2.585309922945499,9.22476781116724,-2.0952854952074587
1789224570856132900,4.7951328125,2.5862159318745133,9.233427502962947,-2.055646873910725
1789224570866169900,4.805169921875,2.542252286985516,9.255025586786866,-2.0129151089042425
1789224570876207900,4.815207763671875,2.4830595087826253,9.282745368361473,-1.9584233479991555
1789224570886245600,4.82524560546875,2.4329577995300293,9.306993674433231,-1.9055068735867737
1789224570896284000,4.835283935546875,2.398667261262983,9.326462929534912,-1.8530742371685802
1789224570906321700,4.84532177734375,2.3551757639303803,9.346557038536668,-1.807039777354896
1789224570916359000,4.85535888671875,2.2813079791650175,9.37023835837543,-1.7789448788575828
1789224570926397000,4.86539697265625,2.173433733770996,9.39729821473658,-1.7712554933987557
1789224570936434700,4.8754345703125,2.044559370446205,9.42344446338415,-1.7857324931710958
1789224570946473000,4.885472900390625,1.9202514382541178,9.443619236406683,-1.8168804956287146
1789224570956510700,4.8955107421875,1.8095842011407017,9.457568266782165,-1.8574673575609921
1789224570966547700,4.905547607421875,1.6995495628423989,9.467998475381732,-1.9075942012548446
1789224570976586000,4.9155859375,1.571828022814542,9.477825457391143,-1.9673793923929332
1789224570986623700,4.925623779296875,1.4248483862176538,9.487160271969437,-2.033218476742506
1789224570996662000,4.935662109375,1.2621299132190644,9.496451831927894,-2.0963781127497554
1789224571006699800,4.94569970703125,1.084216282241419,9.507682250994444,-2.144487917532772
1789224571016736800,4.95573681640625,0.8998713030420243,9.522008882510661,-2.166091262053698
1789224571026774800,4.96577490234375,0.723688149118796,9.54023135242164,-2.151893956005573
1789224571036812800,4.975812744140625,0.5650083205191418,9.563429272657633,-2.095705328054726
1789224571046850800,4.985850830078125,0.42581451549287885,9.59228244217634,-1.9942896111503243
1789224571056888800,4.995888916015625,0.310851992338337,9.625895373442768,-1.8482085308283567
1789224571066925800,5.00592578125,0.2294144116395153,9.66164590125978,-1.6644371867984533
1789224571076963800,5.0159638671875,0.19158046514457092,9.696618430441617,-1.4523377200372516
1789224571087001900,5.026001953125,0.20251480560768395,9.728072137847542,-1.222287951369956
1789224571097040000,5.036039794921875,0.28403509615389627,9.751289347305894,-1.001020112638548
1789224571107078000,5.046077880859375,0.4307661100182682,9.764072256511449,-0.804803201598674
1789224571117115000,5.056114990234375,0.6180543761279433,9.765960846737027,-0.6437490816157311
1789224571127153000,5.06615283203125,0.8150120955977589,9.758666598075628,-0.5240090053284541
1789224571137191000,5.07619091796875,1.0249215780340135,9.742525026091933,-0.4506819763762876
1789224571147229000,5.08622900390625,1.2498624061897396,9.717250884103775,-0.4280921415686607
1789224571157267000,5.096266845703125,1.4873855064123869,9.68217898620069,-0.4620241121890023
1789224571167304700,5.1063046875,1.7298507392123341,9.63727016941607,-0.5486631522547454
1789224571177342000,5.116342041015625,1.9677404807902872,9.583005495265125,-0.6814709825709462
1789224571187379700,5.126379638671875,2.1818412043713034,9.523211244037746,-0.8475849432267248
1789224571197417700,5.136417724609375,2.3628718713909387,9.462058563938736,-1.027938003245741
1789224571207456000,5.1464560546875,2.517430272679031,9.40065512394905,-1.2085561439417303
1789224571217493800,5.15649365234375,2.655958745664358,9.336137935853005,-1.397427441459149
1789224571227531000,5.166531005859375,2.695302914059162,9.294298443511128,-1.58800115898028
1789224571237568800,5.17656884765625,2.5019462878212333,9.319013782572746,-1.7511847652725874
1789224571247606800,5.186606689453125,2.34786456413418,9.334714625051618,-1.8764399151869118
1789224571257644800,5.196644775390625,2.245752827789634,9.339382032340765,-1.9755809651575982
1789224571267682800,5.206682861328125,2.2027267560116943,9.331717196801304,-2.058507377908379
1789224571277719800,5.2167197265625,2.222647846534103,9.311876185777782,-2.125837869859487
1789224571287757800,5.2267578125,2.258378646737337,9.29259806933403,-2.172030735105276
1789224571297795800,5.2367958984375,2.2154889146901664,9.301821240231394,-2.1767196235738693
1789224571307833900,5.246833740234375,2.1811169817499816,9.308907399100065,-2.1811339328847823
1789224571317871900,5.256871826171875,2.171666870228946,9.309989349117874,-2.185937972165644
1789224571327910000,5.266909912109375,2.1714215171657503,9.30606311558485,-2.2028347464308142
1789224571337947000,5.27694677734375,2.172770593687147,9.299148806151747,-2.2305353849135336
1789224571347985000,5.28698486328125,2.184460593089461,9.293003143003583,-2.24468388338387
1789224571358023000,5.29702294921875,2.208980701839924,9.28867885006368,-2.238577967724204
1789224571368061000,5.30706103515625,2.2380267635822295,9.28577202270627,-2.2217257632531227
1789224571378098700,5.3170986328125,2.269237456012517,9.284585443270206,-2.194865667247772
1789224571388136000,5.327135986328125,2.300035768249631,9.285905878219008,-2.1568941023804244
1789224571398173700,5.337173583984375,2.3297971386544405,9.288682941716909,-2.1125288909532127
1789224571408212000,5.3472119140625,2.3608315977349874,9.290598419949411,-2.069207781751454
1789224571418249700,5.357249755859375,2.3854231642864643,9.293523367485404,-2.027449830213189
1789224571428287700,5.367287841796875,2.408033055501431,9.296623671588302,-1.9860864309504627
1789224571438325000,5.377324951171875,2.438348114266246,9.298222923478484,-1.941101918581128
1789224571448362800,5.38736279296875,2.4722639740020034,9.299335853156446,-1.8922573697827756
1789224571458400800,5.39740087890625,2.5173133683010933,9.298175577205418,-1.8377803680554032
1789224571468438800,5.407438720703125,2.57392255975157,9.29410496676564,-1.779024666095525
1789224571478476800,5.417476806640625,2.6422242348223923,9.288329890495538,-1.7076213717475532
1789224571488514800,5.427514892578125,2.7154993143916126,9.28420316595435,-1.6124565319314599
1789224571498551800,5.4375517578125,2.7886756097614764,9.283616305977105,-1.4859769547887145
1789224571508589800,5.44758984375,2.868207411637902,9.284866598299145,-1.3172057576224208
1789224571518627800,5.4576279296875,2.9565146406441927,9.286520210725069,-1.090843079970032
1789224571528665900,5.467665771484375,3.0556723494887352,9.28209713358581,-0.8221353716064244
1789224571538704000,5.477703857421875,3.16938202303797,9.265433583554625,-0.5264380591062828
1789224571548740900,5.487740966796875,3.313939839315414,9.226833511525392,-0.23180682320138438
1789224571558779000,5.49777880859375,3.5047400590687987,9.158993901008367,-0.005116274434654042
1789224571568817000,5.50781689453125,3.6416862312987446,9.102434393918514,0.23279519491791723
1789224571578855000,5.51785498046875,3.8064515538245436,9.024804626271129,0.4839509895758703
1789224571588893000,5.527892822265625,3.920556364171207,8.959467353963852,0.7263323800172656
1789224571598931000,5.537930908203125,3.9243148399218915,8.940977757549286,0.9105231915682553
1789224571608967700,5.5479677734375,3.8128900624394415,8.964612315636872,1.1260491256467997
1789224571619006000,5.558005859375,3.7497444549575447,8.968968757280706,1.291271544290334
1789224571629043700,5.568043701171875,3.6868566216289995,8.97110635383129,1.4480024673119187
1789224571639082000,5.57808203125,3.653708677525818,8.964298427382111,1.5691228555090724
1789224571649119700,5.58811962890625,3.6614459937795996,8.944131253144144,1.6633476379960774
1789224571659156700,5.59815673828125,3.7040386425763367,8.91508343783617,1.7238818939357996
1789224571669195000,5.608195068359375,3.7690909604623912,8.883091970291733,1.7478582511983811
1789224571679232800,5.618232666015625,3.8072652082949876,8.868442682692407,1.7394976884797215
1789224571689270800,5.628270751953125,3.787474466153979,8.876217408347129,1.74303916047886
1789224571699308800,5.638308837890625,3.76239818482548,8.885591970413923,1.7495738229446112
1789224571709346800,5.648346923828125,3.7570603309288617,8.886755753496288,1.7551276576794683
1789224571719384000,5.658384033203125,3.766424663862586,8.881691455844043,1.7606756471954286
1789224571729421800,5.668421875,3.7892958363622427,8.87103211466372,1.7653353095695374
1789224571739459800,5.6784599609375,3.7944671015202998,8.868860031321644,1.76514417091161
1789224571749497900,5.688497802734375,3.777762050434947,8.87537686586976,1.7682170024856925
1789224571759536400,5.698536376953125,3.7661546147495506,8.878523347201943,1.7771590183541177
1789224571769573000,5.708572998046875,3.7665097117975352,8.8756580208987,1.7906664424419403
1789224571779611400,5.718611328125,3.7698976006701588,8.871980209168791,1.801728957595676
1789224571789649200,5.728649169921875,3.7667318301156163,8.871768612244725,1.8093714351728558
1789224571799687400,5.7386875,3.755739603719115,8.8749495803684,1.8166122000813483
1789224571809725200,5.74872509765625,3.7480762294843792,8.876398610132933,1.8253375044591724
1789224571819763200,5.75876318359375,3.749461838623881,8.873996225166321,1.8341529713384805
1789224571829800400,5.768800537109375,3.751412972691655,8.871954490205646,1.8400325308963654
1789224571839838200,5.778838134765625,3.747027889475226,8.872904922798275,1.8443809353642164
1789224571849876500,5.78887646484375,3.739047996637225,8.875556898611784,1.8478082794643937
1789224571859914200,5.798914306640625,3.7345018776401875,8.877116403013467,1.8495125991642474
1789224571869952300,5.8089521484375,3.7350188872516155,8.876900129914283,1.8495087997719644
1789224571879990300,5.818990234375,3.7359953310683367,8.876759844660759,1.848207946306467
1789224571890027300,5.82902734375,3.73592431165874,8.877023464033007,1.8470770425803957
1789224571900065300,5.839065185546875,3.7357773044034834,8.877176024246216,1.846650779992342
1789224571910103300,5.849103271484375,3.7352994577586647,8.87739054377973,1.8465831215836106
1789224571920141300,5.859141357421875,3.7352810453191396,8.877313971412182,1.846986295557022
1789224571930179300,5.869179443359375,3.73844184743762,8.875938006883858,1.847203591569513
1789224571940217300,5.87921728515625,3.743025960357487,8.873860031566023,1.8479094017513096
1789224571950254000,5.889254150390625,3.743016315746307,8.873522762435675,1.8495413868673145
1789224571960292400,5.899292236328125,3.7403643399327993,8.874010253691672,1.8525619037322698
1789224571970330000,5.909330078125,3.7418133696973324,8.872595710718631,1.8564052812874317
1789224571980368400,5.919368408203125,3.7448762643992897,8.870220798280835,1.8615783000111579
1789224571990406400,5.929406494140625,3.7435415086641903,8.869389023631811,1.8682137925028799
1789224572000443100,5.939443115234375,3.7368636383354663,8.870391478672623,1.8768061181508005
1789224572010481400,5.9494814453125,3.7296249192535873,8.871689117267728,1.8850484613172709
1789224572020519200,5.959519287109375,3.7252404205590484,8.87209535998106,1.8917917980976402
1789224572030557400,5.969557373046875,3.720947399540245,8.872759961369633,1.897117523165047
1789224572040595200,5.97959521484375,3.712723176552355,8.874143524682522,1.906733492772281
1789224572050633200,5.98963330078125,3.702962537777424,8.873424562758206,1.9289321728378532
1789224572060670500,5.99967041015625,3.697780458964407,8.86672126572728,1.9692801114477216
1789224572070708200,6.009708251953125,3.6961350298449394,8.853823790231347,2.029475198560953
1789224572080746500,6.01974658203125,3.6944039682686327,8.838906791606545,2.0965455782711504
1789224572090784300,6.0297841796875,3.6893648050576444,8.82757525025308,2.1524184182710946
1789224572100822300,6.039822265625,3.6847345149084925,8.821917078360915,2.183320921535045
1789224572110860300,6.0498603515625,3.6889313820764422,8.819009666481614,2.187976784516871
1789224572120897300,6.059897216796875,3.7034649343416093,8.814048829203843,2.183411814688891
1789224572130935300,6.069935302734375,3.716930272853374,8.809609969973563,2.1784372411467134
1789224572140973300,6.079973388671875,3.7196509299889207,8.809371485042572,2.17475548389405
1789224572151011300,6.09001123046875,3.7124654023990034,8.811675670331717,2.177695044477284
1789224572161049300,6.10004931640625,3.701068686854839,8.814626336830854,2.1851419994823633
1789224572171087400,6.11008740234375,3.6927073934838175,8.817382942062617,2.188161201173067
1789224572181124000,6.1201240234375,3.6827573696166276,8.821766856235266,2.1872603068105874
1789224572191162400,6.130162353515625,3.6641447313442823,8.82994548651576,2.1855194544926286
1789224572201200000,6.1402001953125,3.6416470683321354,8.839111958789825,2.1860689050689337
1789224572211238400,6.15023828125,3.625090485806763,8.844875929144024,2.190269133237749
1789224572221276200,6.160276123046875,3.6192578341305253,8.846046141967177,2.1951786787196994
1789224572231314200,6.170314208984375,3.620867899675667,8.84443870677054,2.199002620922029
1789224572241351400,6.180351318359375,3.6255569342747327,8.84199365170598,2.2011089455515145
1789224572251389200,6.19038916015625,3.636572833807766,8.83811301088035,2.1985160064488647
1789224572261427500,6.200427490234375,3.6587753132656213,8.830568586850166,2.1919886505067345
1789224572271465200,6.21046533203125,3.689885029539466,8.819269194200634,2.1853196941368283
1789224572281503200,6.220503173828125,3.72368003937453,8.805845064482092,2.1821279123581943
1789224572291541200,6.230541259765625,3.7555727227196094,8.792090095373988,2.182934260305017
1789224572301578200,6.240578125,3.783578627759218,8.779438119071722,2.1854919819638132
1789224572311616300,6.2506162109375,3.808720960061252,8.767665263691544,2.189077146974206
1789224572321654300,6.260654296875,3.840787830929458,8.752775737595558,2.1926352778472005
1789224572331692300,6.2706923828125,3.87293653486222,8.737300520566105,2.1977987980902194
1789224572341730300,6.280730224609375,3.8946544456735253,8.725384457322955,2.2067434443071483
1789224572351768300,6.290768310546875,3.904675196689367,8.717226869830489,2.221229650299251
1789224572361805300,6.300805419921875,3.912233941505849,8.709550928375124,2.237975033394992
1789224572371843300,6.31084326171875,3.9186873554289336,8.70360809432268,2.2497737538687885
1789224572381881300,6.32088134765625,3.920805955018103,8.701592078325152,2.253874613316357
1789224572391919400,6.33091943359375,3.9209333807900544,8.701778540807961,2.2529370402052997
1789224572401957400,6.340957275390625,3.9189609116733073,8.703334538078307,2.2503559376709164
1789224572411995400,6.350995361328125,3.9120036398813127,8.707120486357807,2.2478112216241657
1789224572422032400,6.361032470703125,3.901525792747736,8.712252588549255,2.2461359818883238
1789224572432070100,6.371070068359375,3.8956127693116662,8.713378377708793,2.2520254783183336
1789224572442108400,6.3811083984375,3.890223477488756,8.71352918435633,2.2607434761725367
1789224572452146200,6.391146240234375,3.8734631890848275,8.717789179888367,2.273061836606264
1789224572462184200,6.40118408203125,3.8601395971313117,8.721309170708059,2.28220843513608
1789224572472222200,6.41122216796875,3.8413682611659166,8.729672509905695,2.281905652797222
1789224572482259200,6.42125927734375,3.82690835865885,8.741068933188915,2.2624929501883684
1789224572492297500,6.43129736328125,3.8108939201861616,8.759253409177065,2.2187758274063465
1789224572502335200,6.441335205078125,3.7958015649944543,8.78483091802597,2.14220141403079
1789224572512373200,6.451373291015625,3.7835479403600094,8.81750744522512,2.0264992514900864
1789224572522411300,6.461411376953125,3.7796871732786297,8.849064613005519,1.8916671488046646
1789224572532449300,6.47144921875,3.7715649493604895,8.886460569941997,1.72525172098428
1789224572542486300,6.481486328125,3.7729189943179486,8.911528375703096,1.5874860490649938
1789224572552524300,6.491524169921875,3.7604815375491976,8.949297842127084,1.3925665574245154
1789224572562562300,6.501562255859375,3.748145203067362,8.985706541591883,1.1742532576497644
1789224572572600300,6.511600341796875,3.7399987214908004,9.016050241929292,0.9453259902063756
1789224572582638300,6.521638427734375,3.7447234119251367,9.037246174693108,0.6896564079184084
1789224572592676400,6.53167626953125,3.7318373346060514,9.059868925389647,0.40316272136494513
1789224572602713300,6.54171337890625,3.721233523005247,9.07273308313787,0.09115381407644599
1789224572612751400,6.55175146484375,3.720210609698295,9.070900022491813,-0.22176080988012253
1789224572622789400,6.561789306640625,3.7138825757205485,9.061602617314458,-0.5146197936818003
1789224572632827400,6.571827392578125,3.6927111928761005,9.054352792316674,-0.7436105548154562
1789224572642865200,6.581865234375,3.68972779315114,9.04182765726447,-0.895346007637307
1789224572652903400,6.5919033203125,3.6874049031615255,9.038786389872431,-0.9347481898296623
1789224572662941200,6.601941162109375,3.691609661374986,9.041410308635234,-0.8917940873093902
1789224572672978400,6.611978515625,3.7077319441363215,9.04305807584226,-0.8038808260567486
1789224572683016200,6.62201611328125,3.7359190509617326,9.041372314712405,-0.6832910376049578
1789224572693054200,6.63205419921875,3.779975342570245,9.03330708167851,-0.5306069057561457
1789224572703092200,6.64209228515625,3.8319586277857423,9.0205668425709,-0.3403921212079003
1789224572713130200,6.652130126953125,3.868298061406612,9.010525925549864,-0.130697788492823
1789224572723168300,6.662168212890625,3.8766698761716483,9.007695086038112,0.056916878293314946
1789224572733205200,6.672205322265625,3.8788092262879013,9.004152298864721,0.22465214740745723
1789224572743243300,6.6822431640625,3.8826664862379427,8.997713790249824,0.36937881744578477
1789224572753281300,6.69228125,3.8793592613860963,8.993910306313634,0.4801365823868662
1789224572763319600,6.702319580078125,3.891758139710128,8.984970628532766,0.5430434492094441
1789224572773357300,6.712357421875,3.9157621156319973,8.97219064193666,0.5805080509353429
1789224572783395600,6.7223955078125,3.9449323882758613,8.958027092027663,0.6013662396447733
1789224572793433300,6.732433349609375,3.977994115400314,8.943198356208205,0.6042697060013189
1789224572803470300,6.74247021484375,4.008972021988034,8.929285566189884,0.6053068304967135
1789224572813508600,6.752508544921875,4.03480058298856,8.917461857405304,0.6079969828961417
1789224572823546400,6.76254638671875,4.055331914363801,8.90801130749285,0.6099120227372273
1789224572833584600,6.772584716796875,4.06947938992083,8.901440696930885,0.6116280328748748
1789224572843622400,6.782622314453125,4.081405682297051,8.895964895868302,0.6118189523370936
1789224572853660700,6.79266064453125,4.09192590726763,8.891221500733494,0.6105006728127599
1789224572863697400,6.802697509765625,4.099820167648792,8.887676375472545,0.6091541901072487
1789224572873735400,6.8127353515625,4.109988802702724,8.882728397676349,0.6127975515782833
1789224572883773400,6.8227734375,4.119712324337661,8.878162112674117,0.6136840520892292
1789224572893811500,6.8328115234375,4.122117924174666,8.877115233969688,0.6126615041084588
1789224572903849500,6.842849365234375,4.121420297299325,8.87763428940773,0.6098232850078493
1789224572913887500,6.852887451171875,4.119000961197912,8.879091502478719,0.6049557520367205
1789224572923924500,6.862924560546875,4.116954842323064,8.88048850979507,0.598321538186632
1789224572933962500,6.87296240234375,4.113858045351505,8.882439643862844,0.5906133749620989
1789224572944000500,6.88300048828125,4.108715421766043,8.885270483374596,0.5837985438480973
1789224572954038300,6.893038330078125,4.100937773501872,8.889213668042421,0.5784310619981959
1789224572964076500,6.90307666015625,4.089422984535992,8.894786499738693,0.5742794587440788
1789224572974114300,6.9131142578125,4.074485819905996,8.901818882593512,0.5714534415379167
1789224572984152600,6.923152587890625,4.057608919385076,8.909642708086967,0.5696260069150477
1789224572994189600,6.933189453125,4.038964716930687,8.918221151340008,0.5678809533460065
1789224573004227300,6.943227294921875,4.019294970820844,8.927246169316769,0.5656218858402222
1789224573014265600,6.953265625,3.998384869261086,8.936851617529987,0.5621290022231639
1789224573024303400,6.963303466796875,3.9766941387176513,8.946855709671974,0.5568401751000434
1789224573034341600,6.973341552734375,3.9548613693550227,8.957017622724175,0.5489077746655792
1789224573044379400,6.98337939453125,3.9310213518232104,8.968088467314839,0.5392950564613566
1789224573054416400,6.99341650390625,3.9045685214444994,8.980137217026948,0.5308994224293158
1789224573064454700,7.00345458984375,3.8760684031471606,8.992758213669061,0.5260900128535926
1789224573074492400,7.013492431640625,3.8497064659222957,9.004163404780625,0.5245982399258762
1789224573084530400,7.023530517578125,3.8328997080281373,9.011125645008683,0.5280771680828183
1789224573094568400,7.033568359375,3.814880359473824,9.01840469610095,0.5342745614182204
1789224573104606500,7.0436064453125,3.7933757991522548,9.026805444699525,0.5454090823622421
1789224573114644500,7.05364453125,3.774500126029551,9.03388049765229,0.5590628926508129
1789224573124681500,7.063681396484375,3.762424196049571,9.038258566606045,0.5695820581754669
1789224573134719500,7.073719482421875,3.7586610441237687,9.03964739061594,0.5723794703416526
1789224573144757500,7.083757568359375,3.7586458465546366,9.039822162660956,0.5697323168337345
1789224573154795500,7.09379541015625,3.7594726527675983,9.039603551474213,0.5677207943482324
1789224573164833500,7.10383349609375,3.7610628445684906,9.038849518236518,0.5692111059712246
1789224573174871600,7.11387158203125,3.767184834580123,9.036337243154644,0.5686074044570326
1789224573184909600,7.12390966796875,3.7774583913132544,9.032022302564979,0.5690062310488895
1789224573194946600,7.133946533203125,3.787845345292985,9.027745940420031,0.567805221228674
1789224573204984300,7.143984375,3.793838448227942,9.025278673523664,0.5670423470973969
1789224573215022600,7.154022705078125,3.796508836480975,9.02414703914523,0.5671646583028137
1789224573225060400,7.164060302734375,3.7984082403615114,9.023343906068801,0.5672230739591643
1789224573235098400,7.174098388671875,3.799339383731782,9.022869858816266,0.568523671696335
1789224573245136400,7.184136474609375,3.79683558421731,9.023873482900857,0.5693300927083939
1789224573255173400,7.19417333984375,3.7903362853258846,9.026562868115306,0.5700120105579495
1789224573265211600,7.204211669921875,3.782655375434458,9.02978183016181,0.5700304960627108
1789224573275249400,7.21424951171875,3.7764497987926005,9.032413932231067,0.5694805705623701
1789224573285287400,7.224287353515625,3.772444362543523,9.034128334933518,0.5688436974309384
1789224573295325400,7.234325439453125,3.7688662117958067,9.035646922802924,0.5684479395790025
1789224573305363500,7.244363525390625,3.7658755055472253,9.036872665205598,0.5687859758943319
1789224573315401500,7.2544013671875,3.764988493579626,9.03720350459516,0.5693848551029339
1789224573325438500,7.2644384765625,3.7670854658588766,9.036298080188036,0.5698682181730866
1789224573335476500,7.2744765625,3.771016083306074,9.034659665331244,0.5698691680211574
1789224573345514500,7.284514404296875,3.774960729278624,9.033034694477916,0.5695016133503988
1789224573355552500,7.294552490234375,3.7787244657263157,9.031490972167253,0.5690260682605207
1789224573365590500,7.304590576171875,3.7818095722600815,9.030231912016868,0.5685162921074778
1789224573375628500,7.314628662109375,3.7842178024455904,9.029265112811327,0.5678398176180198
1789224573385666300,7.324666259765625,3.78513199468106,9.028948301947116,0.5667944002183154
1789224573395703600,7.33470361328125,3.7830759389340876,9.02989230479896,0.5654785683793947
1789224573405741600,7.344741455078125,3.7786423404008147,9.03183174842894,0.564137455968745
1789224573415779300,7.354779296875,3.7730961044505236,9.034235886961222,0.5627720493670553
1789224573425817600,7.364817626953125,3.7675086597070098,9.036658730193972,0.5613213391020894
1789224573435855400,7.37485546875,3.761602650533616,9.039211337286233,0.5598271915541961
1789224573445893600,7.3848935546875,3.7550349625810977,9.042045683929324,0.5581415034895763
1789224573455931400,7.394931396484375,3.749159933067858,9.04459069223702,0.5563709136204794
1789224573465968400,7.404968505859375,3.745719437225163,9.046144351419805,0.5542956782490015
1789224573476006400,7.41500634765625,3.7448645739614963,9.046630089110135,0.5521259329944849
1789224573486044400,7.42504443359375,3.7450805547997352,9.04667918894887,0.5498471744075417
1789224573496082400,7.43508251953125,3.7457317121848464,9.046497402641176,0.5484239366713911
1789224573506120400,7.445120361328125,3.7462218337893485,9.046251318925618,0.5491306601686403
1789224573516158500,7.455158447265625,3.7458874872684476,9.046302756851912,0.5505549573507159
1789224573526196500,7.465196533203125,3.7479613709330555,9.045496116644143,0.5496923857046291
1789224573536233500,7.4752333984375,3.753267076125741,9.043344491568208,0.5488898371500894
1789224573546271500,7.485271484375,3.7551048129469153,9.04270560914278,0.5468479925915598
1789224573556309500,7.4953095703125,3.754635441869497,9.04291077632606,0.5466922540405765
1789224573566347300,7.50534716796875,3.7530285911947487,9.04347133281827,0.5484535280920565
1789224573576385500,7.515385498046875,3.750669460847974,9.04434577756524,0.5501623413039372
1789224573586423300,7.52542333984375,3.74951970629096,9.044708765658736,0.5520298156762495
1789224573596461600,7.535461669921875,3.7474542981937526,9.045515990388393,0.5528282360449434
1789224573606498600,7.54549853515625,3.7468124931588767,9.045833970296382,0.5519771721735597
1789224573616536300,7.555536376953125,3.749240012566745,9.04497881477177,0.5495153121046722
1789224573626574600,7.56557470703125,3.75031261023432,9.044704089483618,0.5467028484998271
1789224573636612400,7.5756123046875,3.751183255589008,9.04434870017469,0.5466041373657062
1789224573646650600,7.585650634765625,3.75259721404016,9.043728522449731,0.547155451105535
1789224573656688400,7.5956884765625,3.75439666467756,9.042941171464323,0.5478134035576134
1789224573666726400,7.605726318359375,3.754408062854409,9.042951692858338,0.5475557024694979
1789224573676763600,7.615763671875,3.752893858899176,9.043632660859823,0.5466876143980771
1789224573686801400,7.625801513671875,3.7508044854044913,9.044560297098755,0.5457060194822028
1789224573696839700,7.635839599609375,3.7495167836815115,9.045116177415848,0.545338391746208
1789224573706877400,7.64587744140625,3.7502699401363726,9.044761957150698,0.5460234879335388
1789224573716915500,7.65591552734375,3.7530361899793148,9.043644351297617,0.5455143328350037
1789224573726953500,7.665953369140625,3.754924487943947,9.043173811176418,0.5403043065691366
1789224573736991500,7.675991455078125,3.753331958055496,9.044203738746047,0.5340958073178306
1789224573747028200,7.6860283203125,3.7484424324482677,9.046606123712658,0.5277108920536935
1789224573757066500,7.69606640625,3.743773856115341,9.04908274295926,0.518318282873556
1789224573767104500,7.7061044921875,3.740891870938241,9.050690762677789,0.5110002514777705
1789224573777142500,7.716142578125,3.7363349382862445,9.052800302177667,0.5069568578384817
1789224573787180500,7.7261806640625,3.728325527092814,9.056330814391375,0.5028403989629819
1789224573797218600,7.736218505859375,3.7189348906740545,9.06031082393825,0.500672955263406
1789224573807256600,7.746256591796875,3.7122380233839154,9.063063922038674,0.5005497307425365
1789224573817294600,7.756294677734375,3.7112121874675155,9.063429832741617,0.5015174432635306
1789224573827331600,7.76633154296875,3.7162232936277984,9.061308018282055,0.5027650687044486
1789224573837369600,7.77636962890625,3.7226018887490033,9.058680592387914,0.5029113087747246
1789224573847407600,7.78640771484375,3.7259582134395837,9.057285338637232,0.5032073691118508
1789224573857445400,7.7964453125,3.727142162527144,9.056714845272898,0.5046994708331302
1789224573867483600,7.806483642578125,3.729400462847948,9.05553528009951,0.5091409238792955
1789224573877521400,7.816521484375,3.73116805704236,9.05437909580171,0.516706390697509
1789224573887559700,7.8265595703125,3.7279739371761678,9.05514365043342,0.526276621466875
1789224573897596700,7.8365966796875,3.7191006026297804,9.058225834357739,0.5359191868200898
1789224573907634400,7.846634521484375,3.7083804711729287,9.062078418132662,0.5449930854398757
1789224573917672700,7.856672607421875,3.700231651508808,9.06491802547276,0.5531035093223676
1789224573927710500,7.86671044921875,3.6951737835973497,9.066444796648621,0.5618425499645993
1789224573937748700,7.876748779296875,3.6929946859925984,9.066648210266232,0.5727746436716988
1789224573947786500,7.886786376953125,3.6915041551738974,9.066367055237293,0.5866700441638008
1789224573957824800,7.89682470703125,3.693030049566924,9.064719872552155,0.6023039223536849
1789224573967861800,7.90686181640625,3.703601712463796,9.059424104231596,0.6169033794619143
1789224573977899500,7.9168994140625,3.7194232587128875,9.052100044953823,0.6290893456876278
1789224573987937800,7.926937744140625,3.732904379315674,9.045808835855127,0.6396543596480041
1789224573997975600,7.9369755859375,3.742351422096789,9.041068363329767,0.6513724891662598
1789224574008013600,7.947013671875,3.751241123256087,9.036395110821724,0.6649396075520664
1789224574018051600,7.957051513671875,3.7589252480179067,9.0321853841722,0.6785896549809723
1789224574028089600,7.967089599609375,3.7615108805969357,9.030140726602077,0.6913567820955068
1789224574038127600,7.977127685546875,3.757169928783178,9.03106485570967,0.7028047163702548
1789224574048164600,7.98716455078125,3.746137370376289,9.034867755123972,0.7127467761266976
1789224574058202600,7.99720263671875,3.7333883634403344,9.039448653173446,0.7214966304238886
1789224574068240600,8.00724072265625,3.722520055684447,9.043383654534816,0.7283049221992492
1789224574078278700,8.017278564453125,3.715340081052482,9.045828125077486,0.7345983232550323
1789224574088316700,8.027316650390626,3.7096500527173277,9.047693918949365,0.7403609784349798
1789224574098354700,8.037354736328124,3.7040988483309745,9.049515873679518,0.7458603065036237
1789224574108392400,8.047392333984375,3.698234047950804,9.051474606531858,0.7511710531976074
1789224574118429700,8.0574296875,3.6970392852082847,9.05141498529911,0.7577365491930395
1789224574128467500,8.067467529296875,3.7074934592053292,9.046618983194232,0.7639161146108061
1789224574138505700,8.077505615234376,3.721638304413855,9.040636986175178,0.7659516390264034
1789224574148543500,8.08754345703125,3.723993635368347,9.039451575782895,0.7684913135718554
1789224574158581500,8.09758154296875,3.725404086688161,9.03852978476286,0.7724957269076258
1789224574168619500,8.10761962890625,3.727573539681732,9.037329761323333,0.7760494738664477
1789224574178657500,8.117657470703126,3.7249861535370345,9.037900254687667,0.7818152708515524
1789224574188695600,8.127695556640624,3.7234476919233797,9.038015990021824,0.7877686262980103
1789224574198732500,8.137732666015625,3.726334061014652,9.036577481651305,0.7906288380347192
1789224574208770600,8.1477705078125,3.7303874280586835,9.035110916230082,0.7882587479025125
1789224574218808600,8.15780859375,3.729223060454428,9.035745707002281,0.7864867697939276
1789224574228846600,8.1678466796875,3.7273943837225434,9.036410892912745,0.7875241500176489
1789224574238884600,8.177884521484375,3.7297809865981337,9.035165861287712,0.7905023621108382
1789224574248922600,8.187922607421875,3.7296322257772085,9.034792351800203,0.7954685331508516
1789224574258960400,8.19796044921875,3.7249811851009724,9.03615604136884,0.8017369458958507
1789224574268997600,8.20799755859375,3.723159522631764,9.036545332947373,0.8058024417690932
1789224574279035600,8.21803564453125,3.724213123337924,9.035966071754693,0.8074190831854939
1789224574289073700,8.22807373046875,3.724853174807131,9.035570934957265,0.808893101260811
1789224574299111700,8.238111572265625,3.725717098160088,9.035110916230082,0.8100470936015248
1789224574309149400,8.2481494140625,3.7277509420752524,9.034134180152416,0.8115859936065971
1789224574319187700,8.258187744140624,3.726378484678268,9.03444397675395,0.8144346610359847
1789224574329225500,8.2682255859375,3.71828110294044,9.037180708241463,0.8210420234117657
1789224574339263700,8.278263671875,3.709461252146959,9.04003843576014,0.8294535126000643
1789224574349300700,8.28830078125,3.70087141071707,9.042902008497714,0.8365752542387693
1789224574359338500,8.29833837890625,3.6932647351056334,9.045563336661457,0.8413974867634475
1789224574369376800,8.308376708984374,3.6904318497672675,9.046615476062893,0.8425191112045198
1789224574379414500,8.31841455078125,3.6921310549005866,9.04604322913289,0.8412303865682333
1789224574389452800,8.328452880859375,3.6957235264346,9.04462810163796,0.8406590164210647
1789224574399490600,8.338490478515626,3.7007673658207056,9.042306380692123,0.8434512774880975
1789224574409528600,8.348528564453124,3.707819622419774,9.038876990765333,0.8492042880568653
1789224574419565600,8.358565673828124,3.7155548928469417,9.03509630318284,0.8556226306665689
1789224574429603600,8.368603515625,3.7218800042152402,9.032005351430177,0.8607382201146334
1789224574439641600,8.3786416015625,3.72823960237503,9.029075727719068,0.8639498756375164
1789224574449679600,8.3886796875,3.7367172156021,9.025365767285228,0.8660852071657776
1789224574459717600,8.398717529296874,3.7420419177561994,9.022944677618145,0.8683206380676478
1789224574469755600,8.408755615234375,3.742614456947148,9.022280076229572,0.8727391851622611
1789224574479793700,8.418793701171875,3.742453128905594,9.021813627761603,0.8782382209699601
1789224574489831700,8.428831787109376,3.7428739846661685,9.021215661868453,0.8825732544995843
1789224574499868700,8.43886865234375,3.7413098040893673,9.021559360739587,0.8857009580660611
1789224574509906400,8.448906494140624,3.7421076764687893,9.020974254328012,0.8882865175798534
1789224574519944700,8.45894482421875,3.7387042977660894,9.022424453136324,0.8878761101480573
1789224574529982500,8.468982421875,3.7263483818009493,9.027588704031706,0.8873213258095085
1789224574540020700,8.479020751953126,3.7182252810999747,9.030852089741826,0.8881967204045503
1789224574550058500,8.48905859375,3.7168344112634655,9.031437780675292,0.8880744091991335
1789224574560096500,8.499096435546875,3.7159716569542884,9.031909489840269,0.8868817653484642
1789224574570134500,8.509134521484375,3.714963064433634,9.032693918216228,0.8831073613762855
1789224574580171500,8.519171630859375,3.71613590760529,9.032710869351028,0.8779822003822774
1789224574590209500,8.52920947265625,3.718732646100223,9.03227832315266,0.8714041371662169
1789224574600247600,8.53924755859375,3.719948451630771,9.0324291298002,0.864640488250181
1789224574610285600,8.54928564453125,3.72248644567579,9.032025225174426,0.8578973706655204
1789224574620323600,8.559323486328125,3.726570792379975,9.031001727345584,0.85092767778337
1789224574630361600,8.569361572265626,3.7281387723490593,9.030943859678507,0.8446510086666792
1789224574640399600,8.579399658203124,3.7271073834747073,9.031959174200892,0.838311138120666
1789224574650437600,8.589437744140625,3.7270711431175467,9.0326331279397,0.8311761716742068
1789224574660474600,8.599474609375,3.7281522163525223,9.032999038642645,0.8223034947149455
1789224574670512600,8.6095126953125,3.7273537594512103,9.034203738257288,0.8126348450724035
1789224574680550700,8.619550537109374,3.7243639299854636,9.036296326622367,0.8030227479226887
1789224574690588400,8.62958837890625,3.7226848908573387,9.03781959066689,0.7936134798686951
1789224574700626700,8.639626708984375,3.7213212012887,9.039076312729716,0.7856516341440379
1789224574710664400,8.64966455078125,3.715162970919907,9.04223916067481,0.7783741904869675
1789224574720702700,8.65970263671875,3.7064948035567995,9.046325553205609,0.7721874646760523
1789224574730740500,8.669740478515624,3.698803372271359,9.049937313961982,0.7667255460083484
1789224574740777500,8.679777587890625,3.6916438559055327,9.053326956400275,0.7611929001919925
1789224574750815700,8.689815673828125,3.687523268844187,9.055510145658253,0.7551721785977482
1789224574760853500,8.699853515625,3.682055358827114,9.058510496518016,0.7458198283627628
1789224574770891500,8.7098916015625,3.668524553863704,9.064666096538305,0.7376603411741555
1789224574780929300,8.71992919921875,3.6650825967162843,9.066365301671624,0.7338781922869384
1789224574790967600,8.729967529296875,3.6833880687355993,9.058694620913267,0.7369468591425568
1789224574801005300,8.74000537109375,3.7007895776525137,9.051160718277096,0.7423084592409431
1789224574811043600,8.750043701171874,3.7068925707027316,9.048277856317162,0.7469950096219777
1789224574821080300,8.760080322265624,3.7034921146094795,9.050185151243209,0.7407274736598134
1789224574831118300,8.770118408203125,3.704384971795976,9.050582041606306,0.7313534961149096
1789224574841156600,8.780156494140625,3.6936639635562893,9.055019147270917,0.7306622989803552
1789224574851194400,8.7901943359375,3.6940690372258422,9.054504768007993,0.7349781894180923
1789224574861232600,8.800232666015624,3.701462946869433,9.05033361980319,0.749008687531948
1789224574871270400,8.8102705078125,3.7117365036025642,9.044025459569692,0.7739475331511348
1789224574881308400,8.820308349609375,3.723378426079452,9.037191814157365,0.7974993083260953
1789224574891346400,8.830346435546875,3.7325472364410754,9.032661184990406,0.805927821714431
1789224574901383400,8.840383544921876,3.735409055612981,9.03164587046802,0.8040380624450743
1789224574911421400,8.85042138671875,3.7393539938464757,9.030428895893692,0.7993607913490385
1789224574921459500,8.86045947265625,3.7473721728682516,9.026969110828638,0.8008877086553722
1789224574931497200,8.870497314453125,3.7470986166238784,9.026004065188765,0.8129538478937
1789224574941535500,8.880535400390626,3.731507956521213,9.031035629615188,0.8286324785407632
1789224574951573200,8.8905732421875,3.7091584698081013,9.03940539855361,0.8376558890823275
1789224574961611500,8.900611572265625,3.68255717086941,9.050573273777962,0.8344307895559817
1789224574971649500,8.9106494140625,3.6340333784580228,9.071952161893249,0.8147731722753494
1789224574981686300,8.920686279296875,3.564285596232116,9.101293407189846,0.7954322197284549
1789224574991724500,8.930724609375,3.500090187436342,9.125597827363015,0.8020146668586879
1789224575001762300,8.94076220703125,3.4610549388602374,9.13709186580181,0.8396597762506455
1789224575011800600,8.950800537109375,3.4660008708298204,9.128754245567322,0.9072349636778235
1789224575021838300,8.96083837890625,3.522650978812575,9.0981334818542,0.9926103770159185
1789224575031876400,8.97087646484375,3.619446926961839,9.050339465022086,1.077653928051144
1789224575041914400,8.980914306640624,3.733618957325816,8.997400486516952,1.1301561956394464
1789224575051952400,8.990952392578125,3.7812896400392053,8.979542173743248,1.1135812006745487
1789224575061989400,9.0009892578125,3.7590713784903285,8.992408669579028,1.0846049162328242
1789224575072027400,9.01102734375,3.73284621938765,9.007166678249835,1.0522257645450532
1789224575082065400,9.0210654296875,3.692225455185771,9.02627528334558,1.0316097505610435
1789224575092103400,9.031103515625,3.649811670087278,9.042415686285496,1.04114892860502
1789224575102141400,9.041141357421875,3.624437574855983,9.047769322273135,1.0824561407011002
1789224575112179500,9.051179443359375,3.6230423211053013,9.04244549690187,1.130554328111559
1789224575122217500,9.061217529296876,3.6496167320370674,9.028632075604795,1.1551975517850368
1789224575132255200,9.071255126953124,3.651881462098658,9.029533408358693,1.1409110330834984
1789224575142293500,9.08129345703125,3.614282676066458,9.044899904316663,1.1389159137435256
1789224575152330500,9.09133056640625,3.591976736234128,9.054062284937501,1.136683770777285
1789224575162368500,9.101368408203125,3.5909380408361553,9.05553469557762,1.128204550115019
1789224575172406500,9.111406494140626,3.6067002581134435,9.04955036047101,1.1259379203572868
1789224575182444300,9.1214443359375,3.639191784134507,9.035569765913486,1.1336416996676475
1789224575192482600,9.131482666015625,3.6638185681298374,9.025769671911,1.1323854159962385
1789224575202520300,9.141520263671875,3.6699873198926447,9.023568946996331,1.129949859412387
1789224575212558600,9.15155859375,3.6817388402238485,9.018977527552842,1.128379249094799
1789224575222596400,9.161596435546874,3.697905838909745,9.01237885994017,1.128234726057574
1789224575232633300,9.17163330078125,3.7073327156856655,9.008132308411598,1.1311988365601748
1789224575242671600,9.181671630859375,3.7153257602661847,9.004001492217183,1.1378450696416198
1789224575252709400,9.19170947265625,3.726259534473717,8.998821459230781,1.1430590048976241
1789224575262747600,9.20174755859375,3.7310613817974922,8.996793752795456,1.143354919104278
1789224575272785400,9.211785400390625,3.724656775452196,8.999518209323286,1.1428005000919104
1789224575282823400,9.221823486328125,3.7175267774417993,9.002241496807336,1.1445645140897482
1789224575292861400,9.231861328125,3.713924661296606,9.003383068057895,1.1472763303317128
1789224575302899500,9.2418994140625,3.703974637429416,9.00693520758152,1.1515538615204393
1789224575312937500,9.2519375,3.6837533949166534,9.014403059244156,1.1579629248451442
1789224575322974500,9.261974365234375,3.661274728865921,9.022892655169963,1.1631234494134783
1789224575333012200,9.27201220703125,3.6477924392193555,9.027963382562994,1.1661400207556782
1789224575343050500,9.282050537109376,3.644493689934909,9.029095601463318,1.167690465068072
1789224575353088300,9.292088134765624,3.6484845131367445,9.027221624284982,1.1697008550424128
1789224575363126500,9.30212646484375,3.6578070527553557,9.023082040262222,1.1725257032047955
1789224575373164300,9.312164306640625,3.666985507728159,9.018729105749726,1.1773333226822316
1789224575383202300,9.322202392578125,3.676169515658915,9.014252252596616,1.1829676022421567
1789224575393240600,9.332240478515626,3.6907822706401348,9.0076787194252,1.1875328643310814
1789224575403278300,9.3422783203125,3.712422440040111,8.998186083936691,1.1920322215769439
1789224575413315600,9.352315673828125,3.73406816239804,8.988964666604994,1.1939934386473148
1789224575423353300,9.362353271484375,3.7404008725509046,8.985314327403902,1.2016250295042992
1789224575433391400,9.372391357421876,3.743368490184843,8.98252381990254,1.213201193268597
1789224575443429400,9.382429443359374,3.748173260118067,8.979156389296055,1.2232527047488837
1789224575453467400,9.39246728515625,3.7509286963060497,8.97742971163392,1.227468788073957
1789224575463505400,9.40250537109375,3.7527512355580925,8.977287088292837,1.2229371359936891
1789224575473543400,9.41254345703125,3.7466263229370114,8.981058423525095,1.2139909554067998
1789224575483581400,9.42258154296875,3.7302082720994947,8.988540303713084,1.2091598819885403
1789224575493618400,9.432618408203124,3.707281277759373,8.99790668247342,1.2100104344032705
1789224575503656400,9.442656494140625,3.675655136395991,9.00993672748506,1.2169557234965265
1789224575513694500,9.452694580078125,3.6380119267001745,9.024183279502392,1.2244926218073815
1789224575523732500,9.462732421875,3.6058617614626884,9.036820058235525,1.2263880070999265
1789224575533770200,9.472770263671874,3.5896430325895547,9.044162237691879,1.2198221457783132
1789224575543808500,9.48280859375,3.602345277774334,9.04015066396296,1.2120912592653184
1789224575553846300,9.49284619140625,3.6448344661965963,9.023384822601079,1.209996771204099
1789224575563884500,9.502884521484376,3.687334760534763,9.00650616851449,1.2069735509254038
1789224575573922300,9.51292236328125,3.7128684302419424,8.99641498261094,1.2039547876261174
1789224575583960600,9.522960693359375,3.7317248141422867,8.98916106595993,1.1998312048900872
1789224575593997600,9.53299755859375,3.7477190866097807,8.983418138393759,1.1929730095583946
1789224575604035300,9.543035400390625,3.755293613517284,8.980726999613642,1.1894122483368963
1789224575614073600,9.553073486328126,3.7600454842194915,8.9784397654593,1.1916635343950241
1789224575624111400,9.563111328125,3.749711721731722,8.9829680565387,1.1901031532105057
1789224575634149400,9.5731494140625,3.7076962883010505,9.000203853499888,1.1915129469431935
1789224575644187400,9.5831875,3.6574162998721,9.01982274620533,1.1985332740340382
1789224575654225400,9.593225341796876,3.622611820733547,9.033429831275344,1.2017524552762509
1789224575664263400,9.603263427734374,3.6072561384305355,9.040799483260512,1.1924861028242855
1789224575674301400,9.613301513671875,3.608509353362024,9.043086132892967,1.1711621597666293
1789224575684338400,9.62333837890625,3.6181329217538236,9.042752370893954,1.1437314242664725
1789224575694376400,9.63337646484375,3.628336920382082,9.041392772978543,1.1219598105065525
1789224575704414500,9.64341455078125,3.635365211583674,9.03971928680837,1.1126475000210105
1789224575714452500,9.653452392578124,3.6530978521510957,9.031905982708931,1.1180090270541607
1789224575724490500,9.663490478515625,3.683960900187492,9.017654169994593,1.131702840559557
1789224575734528500,9.673528564453125,3.703749304240942,9.008677082812786,1.1385870471153408
1789224575744566500,9.68356640625,3.7155116382271047,9.003599341157079,1.1404217882618308
1789224575754604300,9.693604248046874,3.7291456113040446,8.998874066200852,1.1331935175087302
1789224575764642600,9.703642578125,3.747772278101742,8.993791648370028,1.1118888636734336
1789224575774679300,9.71367919921875,3.7631162699669596,8.990761486893891,1.0842289955925195
1789224575784717300,9.72371728515625,3.7629713085383174,8.9938781576097,1.0585875546619294
1789224575794755600,9.733755615234376,3.760435652580857,8.99675108269751,1.0430680600993334
1789224575804793300,9.74379345703125,3.7524130896449086,9.001210984715819,1.0334371121186763
1789224575814831600,9.75383154296875,3.720022978171706,9.016130321428179,1.0203923371065406
1789224575824869400,9.763869384765625,3.6770766936317085,9.03586261138022,1.0013328318495303
1789224575834907600,9.77390771484375,3.6444650483623144,9.052118749654293,0.9733520612511783
1789224575844945400,9.7839453125,3.624922435763478,9.064352208283543,0.9315762817952782
1789224575854983400,9.7939833984375,3.621762802688777,9.070863782134651,0.8790136623218655
1789224575865021400,9.804021484375,3.6282486575767394,9.072101799497007,0.8385424626585095
1789224575875058400,9.814058349609375,3.627276013152301,9.075150665673613,0.8092571122676133
1789224575885096200,9.82409619140625,3.625703357008099,9.077608580219746,0.7884784550677985
1789224575895134500,9.834134521484375,3.6315886156544086,9.07640680321455,0.775113800451532
1789224575905172200,9.844172119140625,3.6475945785596964,9.071078886190056,0.7622229738920927
1789224575915210500,9.85421044921875,3.6755414468884466,9.06120514242947,0.7452103912275284
1789224575925248500,9.86424853515625,3.7004882566183803,9.052840634188055,0.7230915714651346
1789224575935286500,9.87428662109375,3.7213515964269637,9.046215078568459,0.6985145448956638
1789224575945324500,9.884324462890625,3.747735160961747,9.037420946738123,0.6707444944385439
1789224575955362300,9.8943623046875,3.7674490384742616,9.031024523699283,0.6459804208643735
1789224575965399600,9.904399658203126,3.7708340047374365,9.030515989655255,0.6332158510331064
1789224575975437300,9.914437255859376,3.771763686802983,9.030372197270394,0.6297380919199437
1789224575985475600,9.9244755859375,3.772242994752526,9.030406684061884,0.6263500569168478
1789224575995513300,9.934513427734375,3.7549329635113478,9.03826441182494,0.6169562786929309
1789224576005551400,9.94455126953125,3.720142220637202,9.053561934199928,0.6032752516038715
1789224576015589400,9.95458935546875,3.687144790920615,9.068362612968683,0.5832208900906145
1789224576025627400,9.96462744140625,3.664294953469932,9.078967009091377,0.5618529252281412
1789224576035665400,9.97466552734375,3.670121175405383,9.076838764891027,0.5582007593961432
1789224576045703400,9.984703369140625,3.7166353815600273,9.05745660355091,0.5652379280239344
1789224576055741200,9.9947412109375,3.7547342260688543,9.041689125576616,0.5658868203867227
1789224576065779500,10.004779541015624,3.7742955433681606,9.033578299835323,0.5652695652712136
1789224576075816400,10.01481640625,3.7893501968979835,9.027799131911992,0.556820666681975
1789224576085854500,10.0248544921875,3.7948409032687542,9.026556438374518,0.5393060893120244
1789224576095892500,10.034892578125,3.7827141198843717,9.032117579632997,0.5313321147581562
1789224576105930200,10.04493017578125,3.7789004068151115,9.033078533619642,0.5420251024797559
1789224576115968500,10.054968505859375,3.805652512401342,9.019945495802164,0.5727002267286181
1789224576126006300,10.06500634765625,3.851201965177059,8.998700463199615,0.6016860827162861
1789224576136044500,10.07504443359375,3.8335353755831716,9.005828707644342,0.6078107761416583
1789224576146082300,10.085082275390626,3.7796781131893393,9.028073857200145,0.6150674692716449
1789224576156120600,10.09512060546875,3.742742467240989,9.044135349684954,0.6048940484447405
1789224576166157600,10.105157470703125,3.70905822430402,9.060587887313961,0.5648062220757827
1789224576176195300,10.1151953125,3.6712069248154755,9.078926092559099,0.5155005220390856
1789224576186233600,10.125233642578126,3.6496962270140645,9.088382487690449,0.5014242485547438
1789224576196271400,10.135271240234376,3.6617139970660206,9.082340284916757,0.5228246178494766
1789224576206309400,10.145309326171875,3.662152388483286,9.081429015290736,0.5354126255374402
1789224576216347400,10.155347412109375,3.645529170462489,9.087719639867544,0.5420966333460062
1789224576226385400,10.165385498046875,3.652917819409072,9.084195557394624,0.5513299968438222
1789224576236423400,10.17542333984375,3.6610198773220177,9.080627635779976,0.5563543643444776
1789224576246461400,10.18546142578125,3.657995268803835,9.08129106812477,0.5653447859318926
1789224576256499500,10.19549951171875,3.673684713105857,9.074483141675591,0.5728712724465876
1789224576266537500,10.205537353515625,3.6879827030494807,9.068302991735935,0.5788141430316492
1789224576276574500,10.215574462890626,3.6915737132787703,9.066090576383472,0.5904906618978828
1789224576286612500,10.225612548828124,3.71199573906064,9.056631258642673,0.6073659549836069
1789224576296650500,10.235650390625,3.735274907839298,9.046240213009714,0.6193808024261146
1789224576306688300,10.245688232421875,3.7311467219933867,9.047170187336206,0.6305881328780204
1789224576316726500,10.2557265625,3.731585990193486,9.045917556926607,0.6457789800081402
1789224576326764300,10.265764404296876,3.7516169708311558,9.036558776950836,0.6605770284283906
1789224576336802600,10.275802490234375,3.7620278902083633,9.031881432789564,0.6653212272807956
1789224576346840300,10.28584033203125,3.738917648255825,9.040731094199419,0.6753187435515224
1789224576356878600,10.295878662109375,3.7045366552263497,9.053826138094067,0.6892158245440572
1789224576366916400,10.305916259765626,3.682756200572848,9.061701986035704,0.7023205861151218
1789224576376954400,10.315954345703124,3.677739541454613,9.062835958501696,0.7138669392630458
1789224576386991600,10.32599169921875,3.6723821060746906,9.064334088104962,0.7223839346524328
1789224576397029400,10.336029296875,3.656564651478827,9.070298549467324,0.7277515261001885
1789224576407067600,10.346067626953126,3.6436595771983264,9.07534063528776,0.7296146165583283
1789224576417105400,10.35610546875,3.6335248444139956,9.079737993463873,0.7254384999174625
1789224576427143400,10.366143310546875,3.6258427654787897,9.082832452347875,0.7251113137897104
1789224576437181400,10.376181396484375,3.633005204454064,9.078822047662735,0.739350778479129
1789224576447219500,10.386219482421875,3.636918286244571,9.07571531381905,0.7580342169653624
1789224576457257500,10.396257568359376,3.6324101611703634,9.07614727549553,0.7742928394574672
1789224576467295500,10.40629541015625,3.6454496754854917,9.070264062675832,0.7819150779642164
1789224576477333200,10.416333251953125,3.680279873587191,9.05656286958158,0.7775676964096725
1789224576487371500,10.42637158203125,3.724439041048288,9.039588353905081,0.7646981318339705
1789224576497409300,10.4364091796875,3.775124103146791,9.01952580908537,0.7529889893397689
1789224576507446500,10.446446533203124,3.820593184162676,9.001157793223857,0.7433794494733214
1789224576517484500,10.456484619140625,3.836050281013548,8.994791765323281,0.7408209971621632
1789224576527522300,10.466522216796875,3.8314202831253406,8.995140724891424,0.7602962436132132
1789224576537560600,10.476560546875,3.8160140396788713,8.999914515164495,0.7810028584901243
1789224576547598300,10.486598388671876,3.7851369631171226,9.013153935965896,0.7785676672324537
1789224576557636600,10.49663671875,3.742611534337699,9.032781596499682,0.7563713983196765
1789224576567674400,10.50667431640625,3.695399701307714,9.055230159673094,0.7191716946076602
1789224576577712600,10.516712646484375,3.6742645588204264,9.065089874908328,0.7030757883965969
1789224576587750400,10.52675048828125,3.684263390265405,9.061018095424771,0.703229371523112
1789224576597788400,10.536788330078124,3.6536896805644035,9.073712157303094,0.6990521589037031
1789224576607826400,10.546826416015625,3.6121129308119415,9.090736357340216,0.6939288976058363
1789224576617864400,10.556864501953125,3.6048502463325858,9.094390203672647,0.683750325679779
1789224576627901400,10.5669013671875,3.6079689628750082,9.09428966590762,0.6684587215889245
1789224576637939500,10.576939453125,3.620689035977423,9.089671942979097,0.6624755555260926
1789224576647977500,10.5869775390625,3.6313016154065725,9.085058896225691,0.667630600201711
1789224576658015500,10.597015380859375,3.604905191390216,9.094455085602402,0.6825943605776876
1789224576668053500,10.607053466796875,3.5775562889546153,9.103663643452524,0.7034186835501343
1789224576678091500,10.617091552734376,3.5741321597248312,9.10395122822225,0.7169603752337396
1789224576688129500,10.627129638671875,3.585671790871024,9.099795277586578,0.7120744298230857
1789224576698167300,10.637167236328125,3.5879780219867823,9.099358639734984,0.7060146183274686
1789224576708205600,10.64720556640625,3.5736259637683627,9.104968296310306,0.7064987485826015
1789224576718243300,10.657243408203126,3.562349951994419,9.108977531951666,0.711736649236083
1789224576728281600,10.667281494140624,3.5742370814040303,9.103634417358041,0.7204600539177656
1789224576738319400,10.6773193359375,3.6049215580031273,9.090274585047364,0.7361079241003841
1789224576748356400,10.6873564453125,3.625312019602954,9.081140845999121,0.7486003259267657
1789224576758394000,10.69739404296875,3.625866730876267,9.080166448009013,0.7576652375224977
1789224576768431900,10.707431884765626,3.61556570161432,9.083431002762913,0.7677000901289284
1789224576778470100,10.71747021484375,3.5980902506783603,9.089254009827972,0.7807593320578337
1789224576788508000,10.7275078125,3.5903561492949723,9.090788379788398,0.7982981305535882
1789224576798546000,10.7375458984375,3.612322481909394,9.080058895981312,0.8210057099893688
1789224576808584000,10.747583984375,3.6299382180988786,9.071718937659263,0.8353644171442836
1789224576818622000,10.7576220703125,3.6211446707904336,9.074196725949644,0.846549097372964
1789224576828660000,10.767659912109375,3.6213264570981263,9.07327376588583,0.8556145204253495
1789224576838698000,10.777697998046875,3.6471494651407,9.061611385142802,0.8694184432417154
1789224576848735700,10.78773583984375,3.680696053172648,9.04628522119522,0.8874611726716161
1789224576858774000,10.79777392578125,3.688616324777901,9.040815265351533,0.910037161616981
1789224576868811000,10.80781103515625,3.6756791017934676,9.042714376971125,0.9429162256509065
1789224576878849000,10.81784912109375,3.6682007287368177,9.04155059388876,0.9823764216408133
1789224576888887000,10.827886962890625,3.6774420198127626,9.03476078761816,1.0098994385343045
1789224576898924800,10.8379248046875,3.687831604140997,9.030300301077961,1.0119077826820313
1789224576908963000,10.847963134765624,3.6739793121382593,9.036291650447248,1.0088090860143304
1789224576919000800,10.858000732421875,3.6478158200949427,9.04677329697311,1.0098106642723084
1789224576929039000,10.8680390625,3.6247128846660255,9.055507223048807,1.0147053775113075
1789224576939076900,10.878076904296876,3.608156009879708,9.061064272654056,1.0240722677282987
1789224576949115100,10.888115234375,3.5690959191232916,9.076139092189074,1.027444520640373
1789224576959153000,10.89815283203125,3.5006641879320144,9.1019930798918,1.0341425569742917
1789224576969191000,10.90819091796875,3.4554543423742055,9.118771196213364,1.038390204481408
1789224576979229000,10.91822900390625,3.452156177611649,9.120124948909877,1.0374636642210184
1789224576989267000,10.928266845703124,3.4938813959240913,9.1056089323014,1.0252226798724382
1789224576999304000,10.938303955078124,3.5329902942582962,9.092134533700346,1.0106647968836129
1789224577009342000,10.948342041015625,3.559703529138863,9.083332218563557,0.9959737890344112
1789224577019380000,10.9583798828125,3.6009491472408173,9.069136519950627,0.9768987939473242
1789224577029418000,10.96841796875,3.6471342675715683,9.052762308254838,0.9572388385791331
1789224577039456000,10.9784560546875,3.683502635025978,9.039604720517993,0.9421934643343091
1789224577049494000,10.988493896484375,3.697103874877095,9.034969461932779,0.9333415379021316
1789224577059532000,10.998531982421875,3.6969445926621556,9.034415919703244,0.9393187126155942
1789224577069569800,11.00856982421875,3.712784843611717,9.026341334319115,0.9543452360294759
1789224577079608000,11.018608154296874,3.728503221747279,9.019442222455144,0.9582865210011601
1789224577089645800,11.028645751953125,3.723283149011433,9.022416269829868,0.9505607490547001
1789224577099684000,11.03868408203125,3.7068621755644675,9.030871963486074,0.9342942355170846
1789224577109721900,11.048721923828126,3.690457276469469,9.041327306526899,0.8973869388803839
1789224577119760100,11.058760009765624,3.6706615658923982,9.053288962477446,0.8570732678662986
1789224577129798000,11.0687978515625,3.6460499794662,9.064809888923168,0.8401899376045912
1789224577139835000,11.0788349609375,3.624636896820366,9.071886695441604,0.8563119281049817
1789224577149873000,11.088872802734375,3.623393034239113,9.069098526027798,0.8904328819587827
1789224577159911000,11.098910888671876,3.6122678291127084,9.071942809543014,0.9065057726204395
1789224577169949000,11.108948974609374,3.5876159106761216,9.081735889282822,0.906349997536838
1789224577179987000,11.118987060546875,3.578366436293721,9.087338531595467,0.8865480033494532
1789224577190025000,11.12902490234375,3.5767280214369297,9.091598527127504,0.8486701811801641
1789224577200063000,11.13906298828125,3.585127308730781,9.090781365525721,0.8215421549536287
1789224577210101000,11.14910107421875,3.6214644042640924,9.075798315927386,0.8278080834805965
1789224577220139000,11.159138916015625,3.692491704906523,9.044501260387896,0.8560953627448529
1789224577230177000,11.169177001953125,3.7618411354646084,9.01431713452637,0.8723552273459731
1789224577240214800,11.17921484375,3.766308051745593,9.010947950354218,0.8877712615340948
1789224577250253000,11.189253173828124,3.7406229908689856,9.021159547767043,0.8926480007249862
1789224577260290800,11.199290771484375,3.706339612995088,9.036170069894194,0.8837664828721433
1789224577270327800,11.209327880859375,3.658218556165695,9.056223262363671,0.879006209667772
1789224577280365800,11.21936572265625,3.6205712548166513,9.070333036258816,0.8893285739786922
1789224577290403800,11.22940380859375,3.618866788986325,9.067594551205634,0.9235260271348059
1789224577300441900,11.23944189453125,3.6703362794607877,9.042343790093064,0.9669760234132408
1789224577310480000,11.24947998046875,3.7011055117338896,9.029608227160573,0.9687007283139973
1789224577320518100,11.25951806640625,3.6562644994884725,9.04831760380566,0.9644077803604304
1789224577330556000,11.269555908203126,3.6073555071517824,9.069924455457926,0.9454436252366751
1789224577340594000,11.279593994140624,3.5737197795316575,9.086127402240038,0.9171687670625746
1789224577350632000,11.2896318359375,3.5618493089959022,9.090998223146796,0.9150752288494258
1789224577360670000,11.299669921875,3.58180050239563,9.079955435606836,0.9463035300016402
1789224577370708000,11.3097080078125,3.6260026322156187,9.059056439962983,0.9777470082744956
1789224577380746000,11.31974609375,3.656659344024956,9.046255410578846,0.9820863526530563
1789224577390784000,11.329783935546875,3.648863575582206,9.048013652423023,0.9947939316000789
1789224577400822000,11.339822021484375,3.659339961411059,9.04335968913734,0.9986294181097298
1789224577410859800,11.34985986328125,3.6931063296735283,9.030151247996091,0.9938379460494965
1789224577420898000,11.35989794921875,3.69829717631489,9.027997284832596,0.994112963598594
1789224577430934800,11.369934814453124,3.677688395789265,9.034756111443043,1.0090559734474867
1789224577440972800,11.379972900390625,3.670188103161752,9.035846829289197,1.0264479108184577
1789224577451010800,11.3900107421875,3.6695495129972695,9.034153469374775,1.0434770062264054
1789224577461048800,11.400048828125,3.6764217368543144,9.029467941907047,1.059718604518473
1789224577471087000,11.410087158203124,3.689737145501375,9.022624944144487,1.0716668895307928
1789224577481124900,11.420124755859375,3.706720136745274,9.015296208691597,1.0747342412121594
1789224577491163100,11.4301630859375,3.7212583651855584,9.01021905155778,1.0670309733584522
1789224577501201000,11.440200927734375,3.726947224476933,9.009230625042319,1.0554632120963185
1789224577511239000,11.450239013671874,3.7272558520346877,9.010331864282488,1.0449235517729074
1789224577521277000,11.46027685546875,3.7210184189498423,9.013263826081156,1.0418644564632327
1789224577531315000,11.47031494140625,3.7160403382763265,9.01435688201487,1.0501390213988722
1789224577541353000,11.48035302734375,3.7241324593171474,9.008712738648056,1.069726496052742
1789224577551391000,11.490390869140626,3.725567460556328,9.006191695737838,1.085845929269865
1789224577561429000,11.500428955078124,3.7107018998578187,9.011656975406408,1.0913804017171262
1789224577571467000,11.510467041015625,3.6985312773317096,9.016756928893923,1.0905649936810136
1789224577581503700,11.520503662109375,3.6966935405105352,9.019554450657964,1.073533998576924
1789224577591542000,11.5305419921875,3.691665483215451,9.025493193057178,1.0404187876995652
1789224577601580000,11.540580078125,3.6641792181357737,9.041565206936001,0.9971395448781549
1789224577611618000,11.5506181640625,3.6123587222665545,9.06598068626821,0.9639753072272985
1789224577621656000,11.560656005859375,3.584541617797315,9.076512017154693,0.9686976595740765
1789224577631693800,11.57069384765625,3.6181525032371282,9.056378160664439,1.0302309364885092
1789224577641732000,11.580732177734374,3.6820325624734163,9.025704205459355,1.0722411092221735
1789224577651769900,11.590769775390624,3.6786955270051953,9.028338061094283,1.0614646444682032
1789224577661808000,11.60080810546875,3.640577977795899,9.045644585204125,1.045405490070954
1789224577671846000,11.610845947265625,3.617214053343236,9.057908438971639,1.020026426403597
1789224577681884000,11.6208837890625,3.606341653934121,9.06622326285243,0.984017320715636
1789224577691922000,11.630921875,3.6046044548779723,9.070091044196486,0.9542783082731068
1789224577701960000,11.6409599609375,3.6061230427473783,9.07092281884551,0.9405450395401567
1789224577711998000,11.650998046875,3.606495967712998,9.070897099882364,0.9393578755822032
1789224577722036000,11.661035888671876,3.624527591226995,9.063134064665435,0.9448751776989549
1789224577732074000,11.671073974609374,3.650368427187204,9.052787442696093,0.9445845241893083
1789224577742112000,11.681112060546875,3.6546652475982904,9.051648794054984,0.938860155193135
1789224577752149000,11.69114892578125,3.646153732101619,9.055812343475223,0.9317742885854094
1789224577762187500,11.7011875,3.636683892966807,9.061196374601126,0.9163177031911909
1789224577772225500,11.7112255859375,3.6358807598903775,9.06389160503447,0.8925428598500788
1789224577782263600,11.721263671875,3.6463597760677335,9.060986531242728,0.8791882151711732
1789224577792301600,11.731301513671875,3.668623045802116,9.051701401025056,0.8822172076035291
1789224577802339600,11.741339599609375,3.664855509962141,9.052263711082935,0.8920495964404195
1789224577812377600,11.751377685546874,3.6247315893664953,9.067682814010977,0.899349251929298
1789224577822415600,11.76141552734375,3.5781770512014623,9.085360509520768,0.9073287794411182
1789224577832453400,11.771453369140625,3.5431712042719123,9.098427496364712,0.9137490948121995
1789224577842491600,11.78149169921875,3.5368916856110095,9.100587304747105,0.9165645175591111
1789224577852529400,11.791529296875,3.5663024890124797,9.088820879107713,0.9193508603420109
1789224577862567700,11.801567626953124,3.608500877794623,9.072567663443088,0.9152113493844867
1789224577872605400,11.81160546875,3.607951427218318,9.072345545125007,0.919577216443792
1789224577882643700,11.821643798828125,3.5901731939435004,9.078306499356032,0.9302754283297806
1789224577892681500,11.831681396484376,3.5953278002277016,9.075338881722091,0.9392700511682778
1789224577902719500,11.841719482421874,3.6103438753128048,9.068819709086418,0.9446171843498945
1789224577912757800,11.8517578125,3.6310713137820363,9.060555738610029,0.9444740495521574
1789224577922795500,11.86179541015625,3.6487206599801776,9.053855364188552,0.9407087056692689
1789224577932833800,11.871833740234376,3.655576224963367,9.05064926162362,0.9449245697986334
1789224577942870500,11.88187060546875,3.6658641024827956,9.04440130714476,0.9646944152820854
1789224577952908500,11.891908447265624,3.676640932562947,9.037914867734909,0.9842706378895789
1789224577962946600,11.901946533203125,3.6687472567036745,9.039705842804908,0.9971904713477939
1789224577972984600,11.911984619140625,3.643912090654671,9.048851272290944,1.0052841998238116
1789224577983022600,11.922022705078126,3.6255759312361477,9.05557502758801,1.011006230732426
1789224577993060600,11.932060546875,3.6292750780150294,9.054050009977818,1.0114031941607593
1789224578003098400,11.942098388671875,3.621348961190879,9.05738178474903,1.0099824406426399
1789224578013136600,11.95213671875,3.5942113634184,9.067570001286267,1.0154813303198664
1789224578023174400,11.96217431640625,3.562094223667681,9.079629272392392,1.0208926147788762
1789224578033212700,11.972212646484374,3.534868655350804,9.089064624735713,1.031502783055231
1789224578043250700,11.982250732421875,3.5365833503141997,9.08610402136445,1.051514182209596
1789224578053288700,11.992288818359375,3.555193942759931,9.077254944476485,1.0650981786649674
1789224578063326700,12.00232666015625,3.5536674638450143,9.0764038806051,1.0773780337192118
1789224578073364500,12.012364501953124,3.540215277075767,9.080458124431967,1.087442916137725
1789224578083402800,12.02240283203125,3.5315275282293555,9.08291428541243,1.0951472799699753
1789224578093440500,12.0324404296875,3.526854860243201,9.084942576369643,1.0933926913876086
1789224578103478800,12.042478759765626,3.517757069291174,9.089082744914293,1.0882741062648593
1789224578113516500,12.0525166015625,3.510821717070043,9.091022188544272,1.094463389359042
1789224578123554800,12.062554931640625,3.5275896042585373,9.08211349042356,1.1143182827774434
1789224578133592600,12.072592529296875,3.5754695458084345,9.05997589289546,1.1415896629974245
1789224578143630600,12.082630615234375,3.649920683419704,9.02784004844427,1.1604190127603708
1789224578153668600,12.092668701171876,3.667703592869639,9.022259617963433,1.1476800157617777
1789224578163705600,12.10270556640625,3.620027357198298,9.03970175115168,1.1617205238129944
1789224578173743400,12.112743408203125,3.579734802037477,9.05507000067532,1.1668800254680216
1789224578183781600,12.12278173828125,3.5688799382850527,9.05820362252593,1.1757630776908248
1789224578193819600,12.132819580078126,3.5854216155022383,9.050653353276848,1.183554389154166
1789224578203857700,12.142857666015624,3.608930209122598,9.04115428804755,1.1847094774734228
1789224578213895700,12.152895751953125,3.6055054953709242,9.042281830772756,1.186523468092829
1789224578223933700,12.16293359375,3.5910935236588117,9.046930533361435,1.194766688042134
1789224578233971700,12.1729716796875,3.594129822614789,9.045088120365142,1.199577814650908
1789224578244009500,12.183009521484376,3.6057816819638013,9.040237757724523,1.2011739978011697
1789224578254047700,12.1930478515625,3.611621347902715,9.037503948846458,1.2041971450146287
1789224578264085500,12.20308544921875,3.6017861825868485,9.04052300440669,1.2109735803470014
1789224578274123800,12.213123779296875,3.5849633503407237,9.045804159680008,1.2214097802959383
1789224578284161500,12.22316162109375,3.5687881683483718,9.051293404746055,1.2280975874967872
1789224578294199800,12.23319970703125,3.551476968063414,9.057714962226152,1.2309319341398774
1789224578304237600,12.243237548828125,3.55514864231348,9.0547368231982,1.2421993242159486
1789224578314275600,12.253275634765625,3.593989829622209,9.03724208303988,1.257726271432638
1789224578324313600,12.263313720703126,3.615838088814914,9.02763312769532,1.2640984368130563
1789224578334351600,12.2733515625,3.604959551925957,9.030698945006728,1.2732365597754716
1789224578344389600,12.2833896484375,3.594526128455996,9.034239394092559,1.2776077605970204
1789224578354427600,12.293427734375,3.5901278934970495,9.035420128309726,1.2816215262830257
1789224578364465400,12.30346533203125,3.5953839143291115,9.030914049062133,1.298531890682131
1789224578374503700,12.313503662109374,3.627113808327913,9.014193800407648,1.326173784714937
1789224578384541400,12.32354150390625,3.662090429162979,8.99766293684542,1.3422164263688028
1789224578394579700,12.333579833984375,3.667784549151361,8.993946546670793,1.3515377969436346
1789224578404617500,12.343617431640626,3.652487319037318,8.999256343516707,1.3576065954633056
1789224578414655700,12.35365576171875,3.649945817860961,8.999923282992839,1.3600259315647185
1789224578424692700,12.363692626953124,3.67369757258743,8.990684914526343,1.3571728802211582
1789224578434730500,12.37373046875,3.6994022149473427,8.979980565160512,1.3582175669685006
1789224578444768800,12.383768798828125,3.695861765861511,8.97923646879494,1.3726954435236751
1789224578454806500,12.393806640625,3.6779856251701712,8.983626812708378,1.391857678502798
1789224578464844800,12.4038447265625,3.6640722506299612,8.987436141863466,1.4039083279110491
1789224578474882600,12.413882568359375,3.650957917512953,8.99229585685432,1.4069547098696231
1789224578484920600,12.423920654296875,3.653214464268088,8.98998348825872,1.4158375428967176
1789224578494958600,12.43395849609375,3.688545889890194,8.97345905443728,1.4290036062009632
1789224578504996600,12.44399658203125,3.6996357314422723,8.968535042038559,1.431241009864211
1789224578515034600,12.45403466796875,3.6751726135760543,8.977643062123656,1.437154179430753
1789224578525072600,12.46407275390625,3.6641219349905847,8.980808832678198,1.4455672029890119
1789224578535110400,12.4741103515625,3.6808494901686903,8.972250847691297,1.4561799285486339
1789224578545148700,12.484148681640624,3.73025444932878,8.949804038083553,1.4685397900365291
1789224578555186400,12.4941865234375,3.757230134537816,8.938290125900506,1.4698833135999738
1789224578565224700,12.504224609375,3.7213589029505845,8.952788606852293,1.472903392073512
1789224578575262500,12.514262451171875,3.6759737008258697,8.972609159609675,1.4662472951851784
1789224578585300700,12.52430078125,3.6499212679415938,8.98481397666633,1.4565613290816544
1789224578595338500,12.53433837890625,3.6670197022587057,8.977501023304463,1.4587107622005044
1789224578605376500,12.54437646484375,3.730873458009958,8.949217762628198,1.4705350555069743
1789224578615414500,12.55441455078125,3.7751439768910404,8.93216609006226,1.461188988882303
1789224578625452500,12.56445263671875,3.7349040287002917,8.948952974212169,1.4618838392786682
1789224578635490600,12.574490478515624,3.666614044067263,8.97633081048131,1.4669021058321
1789224578645528600,12.584528564453125,3.6068092714458704,9.002314562043548,1.455905787782371
1789224578655566600,12.594566650390625,3.552795649446547,9.026096419647336,1.4413915247395634
1789224578665604600,12.6046044921875,3.5366213442370293,9.03233619081974,1.442087982571125
1789224578675642400,12.614642333984374,3.5790164246350527,9.013235184508561,1.4569208100438118
1789224578685680600,12.6246806640625,3.674718147806823,8.972458352962136,1.470311329753697
1789224578695718400,12.634718505859375,3.7676986293211576,8.938489447864889,1.441607651708275
1789224578705756700,12.644756591796876,3.7601878152996298,8.946091155040264,1.4137944927617907
1789224578715794700,12.654794677734374,3.7192017249166964,8.966229687705635,1.39451170014292
1789224578725832700,12.664832763671875,3.705108902156353,8.975998217526078,1.3689473430365324
1789224578735870700,12.67487060546875,3.708545598606765,8.977757628414034,1.347942987322062
1789224578745908500,12.684908447265625,3.737220781210065,8.966942804411053,1.3407123054161667
1789224578755945700,12.69494580078125,3.7600574669182296,8.959261602258682,1.3281482996582985
1789224578765983500,12.7049833984375,3.723824124020338,8.97627411185801,1.3153051846981048
1789224578776021800,12.715021728515625,3.666644731466472,9.001912995505332,1.3006320778317748
1789224578786059500,12.7250595703125,3.633361470545828,9.018529199263453,1.278750939282775
1789224578796097800,12.735097900390626,3.633009003846347,9.022179538464545,1.2537598520196973
1789224578806134800,12.745134765625,3.6712703454405067,9.010356414201855,1.2270496858790516
1789224578816172500,12.755172607421875,3.690196287445724,9.007242666095495,1.192656125628948
1789224578826210800,12.7652109375,3.6588667909413575,9.023062166517972,1.1693683351524173
1789224578836248600,12.77524853515625,3.635474517177045,9.035755643874406,1.1440447279993444
1789224578846286800,12.785286865234376,3.6360520248040555,9.03800313054025,1.1242876689322292
1789224578856324600,12.79532470703125,3.6773137172579764,9.02334741320014,1.1076869550041855
1789224578866362600,12.805362548828125,3.7211838386446234,9.008574206960201,1.0810953737419098
1789224578876400600,12.815400634765625,3.701955114300549,9.01916866621077,1.058543350194022
1789224578886438700,12.825438720703126,3.6603231272295114,9.039288494175672,1.031358990670368
1789224578896476700,12.8354765625,3.6260406261384484,9.057112320157884,0.9954555373139679
1789224578906514700,12.8455146484375,3.5912492987424134,9.074775987142324,0.960086921486631
1789224578916552700,12.855552734375,3.567843580974638,9.086672761163115,0.9344804788041859
1789224578926590700,12.8655908203125,3.5723265716075896,9.086895464003085,0.9149836050432175
1789224578936628500,12.87562841796875,3.6129859142541885,9.072361911737918,0.899420636665076
1789224578946666800,12.885666748046875,3.6822348070472475,9.047105889928341,0.8725891822323203
1789224578956704500,12.89570458984375,3.7027553247675296,9.042077248111367,0.8371552460838109
1789224578966742800,12.90574267578125,3.659014967240393,9.062766984918714,0.8051372558586299
1789224578976780500,12.915780517578124,3.610664193308353,9.085800654503702,0.7626969480793923
1789224578986818800,12.92581884765625,3.5799040211245416,9.101244307351111,0.7225191053394228
1789224578996856600,12.935856689453125,3.5765082412064073,9.104295511615275,0.7005711851645261
1789224579006894600,12.94589453125,3.5994045481473207,9.096453565943241,0.6849748259734362
1789224579016932600,12.9559326171875,3.646271221001446,9.079006756579876,0.6683871176574379
1789224579026970600,12.965970703125,3.702036947365105,9.05851926434636,0.6391643111087382
1789224579037008600,12.976008544921875,3.698326986931264,9.062899086865782,0.5971767520656809
1789224579047046700,12.986046630859375,3.6580215722888707,9.081355365532636,0.5641356293378398
1789224579057084700,12.996084716796876,3.629892625391483,9.094469114127754,0.533753862012364
1789224579067122700,13.006122802734374,3.6121234522059558,9.10279504392445,0.5119391762956976
1789224579077160700,13.01616064453125,3.6073771344617005,9.105469816091656,0.4976435975048691
1789224579087198700,13.02619873046875,3.6115126268312334,9.104878864461183,0.47806938419137146
1789224579097236700,13.03623681640625,3.611395137931406,9.106374655976891,0.4495853767786175
1789224579107274800,13.046274658203124,3.6327190809890624,9.099499509510398,0.415764355719462
1789224579117312800,13.056312744140625,3.6578178664103147,9.09117767136693,0.3758401589469984
1789224579127350500,13.0663505859375,3.6556738401189444,9.093144587525725,0.34809856739938255
