time,seconds_elapsed,z,y,x
1790587946014904800,0.05490478515625,0.3121583622291684,0.049373394978046416,-0.2815270040567964
1790587946024984800,0.06498486328125,-0.011244447591900825,-0.02986614595353603,-0.018634996234625577
1790587946035064800,0.07506494140625,-0.3377233038574457,0.01127776533961296,0.12929456149823962
1790587946045144800,0.085144775390625,-0.40760114220380783,0.06259820273220539,0.05731902022026479
1790587946055224800,0.095224853515625,-0.26315175473690033,0.12521511016488074,-0.0887168327204883
1790587946065304800,0.105304931640625,-0.12088672557175159,0.10223170946240424,-0.09847476808167993
1790587946075384800,0.115384765625,0.041162908254563806,-0.05175006098151207,0.0283213276643306
1790587946085463800,0.1254638671875,0.23230098166018723,-0.15996961268186569,0.010874956692382693
1790587946095544800,0.135544921875,0.4149710864499211,-0.02635492296218872,-0.19584025974720715
1790587946105624800,0.145624755859375,0.23358839112222193,0.18863105902075766,0.134611445672065
1790587946115703800,0.155703857421875,-0.00550035098195076,0.10706804357767105,0.28734562720768153
1790587946125784800,0.165784912109375,-0.3296832052648067,-0.053850248131155964,0.19413827813491225
1790587946135863800,0.17586376953125,-0.4773907177448272,-0.2739531347364187,-0.11364698357656597
1790587946145943800,0.18594384765625,-0.2596282567858696,-0.3332213162630796,-0.4105261628050357
1790587946156023800,0.19602392578125,-0.18447861551642417,-0.37534722433090206,-0.41329402008317406
1790587946166103800,0.206103759765625,-0.20321780277788637,-0.5411076953738928,-0.0025455197643488646
1790587946176184000,0.21618408203125,0.1486646670743823,-0.5091413622707128,0.733097197977081
1790587946186263800,0.226263916015625,0.5076777194589376,-0.3552297344535589,1.2607535102993248
1790587946196343800,0.23634375,1.2130886728048325,-0.025402736803889273,1.4436055475272238
1790587946206423800,0.246423828125,1.8837761032938956,0.3913964418560266,1.1248173918947577
1790587946216503800,0.25650390625,2.415668811076879,0.6358242069005966,0.7734463786959648
1790587946226583800,0.266583740234375,2.1664070500046013,0.2227151149302721,0.6062319094523787
1790587946236663800,0.276663818359375,1.296050449129939,-0.6870183875650167,0.13618176372870802
1790587946246743800,0.286743896484375,0.5231383234411477,-1.072661964982748,-0.4771786824293434
1790587946256823800,0.29682373046875,-1.4605863468140363,-0.9228630331814288,-1.5955159185245633
1790587946266903800,0.30690380859375,-3.008992723639309,-1.0727163255184888,-2.000060741897672
1790587946276983800,0.31698388671875,-2.253173771570623,-0.7646686134785413,-0.43991526583135127
1790587946287063800,0.327063720703125,-1.8214798061177133,-0.6779243960052729,1.1569764710910617
1790587946297144000,0.33714404296875,-1.5836039469346403,-0.9134943163335323,1.890701080251485
1790587946307223800,0.347223876953125,-0.8710656259268522,-0.7289741997629403,1.1392176731690764
1790587946317303800,0.3573037109375,-0.25363924550414085,0.06169920806586742,0.06896189254522324
1790587946327383800,0.3673837890625,-0.16105623887479303,-0.2220914300739765,-0.32450141871273513
1790587946337463800,0.3774638671875,0.29983576401174067,-0.10804068800210952,1.0868369130685924
1790587946347543800,0.387543701171875,0.5469219346106052,0.7748363717496395,1.3480467399574816
1790587946357623800,0.397623779296875,0.6111570908948779,1.197234685590863,1.0951182730711997
1790587946367703800,0.407703857421875,0.6421756217539311,1.060278284227848,1.142034484155476
1790587946377783800,0.41778369140625,0.3762839206591248,0.783666159415245,0.5284722318150102
1790587946387863800,0.42786376953125,0.2204489235639572,0.5842085859537124,-0.19034926111549139
1790587946397943800,0.43794384765625,0.4542439431741833,0.8139268576443195,-0.5995730360850692
1790587946408023800,0.44802392578125,0.6132151924684643,1.0110188710182904,-0.606739420583099
1790587946418103800,0.458103759765625,0.6672887279614805,0.5282563971072435,-0.7445499545574188
1790587946428183800,0.468183837890625,0.831975432293117,-0.7005775418400764,-0.8309514960728586
1790587946438263800,0.478263916015625,1.133228077365458,-1.0883002636194228,-0.9796559106357395
1790587946448343800,0.48834375,1.0827592883661388,-0.7537462374478578,-1.7596717308498917
1790587946458423800,0.498423828125,0.9642071432217955,-0.1363274558097124,-1.2447975240156053
1790587946468503800,0.50850390625,0.37245764036923645,1.2340905443012713,-0.25803192750513554
1790587946478583800,0.518583740234375,-0.25902108467295765,2.313569788083434,0.7337821845665574
1790587946488663800,0.528663818359375,-0.8063118525959551,2.590816703668237,0.6487387796618044
1790587946498743800,0.538743896484375,-1.2538598052628338,2.5389403859585524,0.4618275301709771
1790587946508823800,0.54882373046875,-0.8366098140954971,1.8776105664014815,0.4098655800044536
1790587946518903800,0.55890380859375,-0.7272060210466385,0.828987648653984,-0.6087246030509471
1790587946528983800,0.56898388671875,-1.4492629887670279,-0.48137657251060006,-1.9261366969004272
1790587946539063800,0.579063720703125,-1.989161308351159,-1.6416297271847724,-1.7129928356528281
1790587946549143800,0.589143798828125,-1.7935808685839174,-2.081135827693343,-1.2046049220979214
1790587946559223800,0.599223876953125,-1.6421239404425023,-1.7767898927807806,-0.6714090227618813
1790587946569303800,0.6093037109375,-1.5641183252200483,-1.5383265890985727,-0.39582843295410275
1790587946579383800,0.6193837890625,-1.156883678241074,-1.678245931920409,-0.3817366331070661
1790587946589463800,0.6294638671875,-0.6936845674559473,-1.4078507819265127,-0.6411037547387183
1790587946599543800,0.639543701171875,3.4485642905995246,-0.9146931707292795,-0.42008652976751326
1790587946609623800,0.649623779296875,6.213461842149496,0.669233140027523,-0.7112241696693002
1790587946619703800,0.659703857421875,4.700156589321792,1.0173223550766706,-1.9453905556857585
1790587946629783800,0.66978369140625,3.4804926297798753,-0.6727315035372972,-0.7642717231154441
1790587946639863800,0.67986376953125,2.6493802440568803,-1.191156826981902,-0.0005174480028450488
1790587946649943800,0.68994384765625,1.3401277835264802,-1.7530097887426614,-1.1347891892023383
1790587946660023800,0.70002392578125,0.220697345367074,-2.0483236914157867,-0.6482735002376139
1790587946670103800,0.710103759765625,-1.3852923286378382,-1.1133446885049343,-0.09931552975475788
1790587946680183800,0.720183837890625,-3.4123841391935943,0.6545610560745,-0.061882601808756585
1790587946690263800,0.730263916015625,-3.817724642989039,2.503606037726998,0.449174530955404
1790587946700343800,0.74034375,-2.8327573280721903,3.205176682257652,2.0923815904594956
1790587946710423800,0.750423828125,-1.625997858288884,2.262677805235982,2.883912345770001
1790587946720503800,0.76050390625,0.12268339973017572,1.0429483792424201,2.222343456760049
1790587946730583800,0.770583740234375,0.421949254899472,0.10456745893359183,1.756678832644224
1790587946740663800,0.780663818359375,0.6498226293757557,-0.7409130593597889,2.4582035922065377
1790587946750743800,0.790743896484375,1.4029367063999174,-0.899723565134406,1.5597173137821256
1790587946760823800,0.80082373046875,1.0155307954847812,-0.9765665663182734,0.5833529189724475
1790587946770903800,0.81090380859375,0.5274731377750634,-1.2819739929825067,0.4976080147348344
1790587946780983800,0.82098388671875,0.5113128610908985,-1.4274398640155792,0.25012415005527433
1790587946791063800,0.831063720703125,-0.35035876741632815,-1.5664935299187899,-0.732465402879566
1790587946801143800,0.841143798828125,-0.4402221398234367,-1.8185978209406137,-0.7293046738263219
1790587946811223800,0.851223876953125,0.07833543169870973,-1.895501027879119,-1.4844127742119133
1790587946821303800,0.8613037109375,-0.021220921074599025,-1.6043559353232382,-1.9945371561706065
1790587946831383800,0.8713837890625,0.01112520512640476,-1.5737603060513734,-1.3353921333067118
1790587946841463800,0.8814638671875,-0.28943492763713,-1.5078642308175563,-1.4832557131312787
1790587946851543800,0.891543701171875,-0.3976204309374094,-1.563673211801052,0.40488618415668604
1790587946861623800,0.901623779296875,-0.7939161891423165,-1.0468804579943418,0.7099209050510078
1790587946871703800,0.911703857421875,-0.9940287193812429,-0.43403205301165576,-1.205562003627047
1790587946881783800,0.92178369140625,-0.726037561789155,-1.5184066676199435,-1.9968604845516382
1790587946891863800,0.93186376953125,-0.3838176040995866,-2.3187568353325125,-0.9113962480757385
1790587946901941000,0.94194091796875,0.2648490601740777,-2.067849645140767,-1.7839438561886547
1790587946912021000,0.95202099609375,1.1500186878424137,-1.6998697347074747,-1.9845999917849897
1790587946922101000,0.96210107421875,1.33640700943768,-1.4808756861269474,-1.2531269609436393
1790587946932181000,0.972180908203125,0.8049404181122779,-1.692888205257058,-0.7914940765619277
1790587946942261000,0.982260986328125,0.2308284248895943,-1.4801163921922444,-0.5618969470329582
1790587946952340700,0.9923408203125,-0.8139559376083314,-0.8459832071185112,-0.20044647490102796
1790587946962421000,1.0024208984375,-1.4351222352117299,0.04128770367801189,0.5210397802593186
1790587946972501000,1.0125009765625,-1.5461568443328142,0.9907628494530916,1.2264508432030676
1790587946982581000,1.0225810546875,-1.2683721686094998,1.7746932127624748,1.3764727701053023
1790587946992661000,1.032660888671875,-0.6457271767556667,2.5992969472438094,1.547332756244391
1790587947002740700,1.04274072265625,-0.43124980188198386,3.726830904620886,2.1152143306449056
1790587947012821000,1.052821044921875,-1.2787135298818348,4.0630250992149115,2.065321149576455
1790587947022901000,1.06290087890625,-1.786737286299467,3.549585162967443,1.1504603671953082
1790587947032981000,1.07298095703125,-1.7870704637765884,2.856684147104621,1.640521619812399
1790587947043061000,1.08306103515625,-0.8922270718991756,1.5791402455240486,1.2228599060390144
1790587947053141000,1.09314111328125,0.09446575163602829,0.5574047501802444,0.29597189165782184
1790587947063221000,1.103220947265625,0.45828094360530375,-0.6863087779909371,-0.15181134933596477
1790587947073300700,1.11330078125,-0.1707447622615844,-2.543581489762664,-0.049736734697991045
1790587947083381000,1.123381103515625,-0.42420799361169337,-2.4349393287360668,-0.3918533918432891
1790587947093461000,1.1334609375,0.8891974949449301,-0.839297445744276,-0.24817170081324874
1790587947103541000,1.143541015625,0.33436515253596005,-0.9420938033521175,-0.13167613200568593
1790587947113621000,1.15362109375,-0.3521463814854622,-0.9906102892398834,-0.10929264255827292
1790587947123700700,1.16370068359375,-0.07051745142415165,-0.03207096252143383,0.18987296710694207
1790587947133781000,1.173781005859375,0.33307971583530305,1.1221399893790482,0.3420987424626946
1790587947143861000,1.183861083984375,-0.16239260204508899,1.9660925674527883,0.11214872610913589
1790587947153941000,1.19394091796875,-0.1669851905323565,2.81369723829329,0.12073929819138719
1790587947164021000,1.20402099609375,0.10436346079409121,2.9973528469890356,-0.06775039786361158
1790587947174101000,1.21410107421875,0.12305880891382694,2.854533106550574,-0.0949944882178679
1790587947184181000,1.224180908203125,0.21508520457372068,2.3481799136936665,-0.2270567243311554
1790587947194260700,1.2342607421875,1.0100262067191301,0.7922598002374172,-1.471581203559041
1790587947204341000,1.244341064453125,1.589071710821241,-0.058030748686194414,-1.796340104164183
1790587947214421000,1.2544208984375,0.9103547031335533,-0.2553442958563566,-1.165660274414718
1790587947224501000,1.2645009765625,0.2628947112359106,-0.2047644476979971,-1.0412672942876815
1790587947234581000,1.2745810546875,0.36543329469040037,-0.48723640445470806,-1.0545445628814398
1790587947244660700,1.28466064453125,0.3027659722447395,-1.3643261129766702,-0.4743963947670534
1790587947254741000,1.294740966796875,0.11181085419058799,-1.4785259081304072,-0.5199577206436544
1790587947264821000,1.304821044921875,0.030555297261476516,-0.9627747723311185,-0.13212854281514883
1790587947274901000,1.31490087890625,0.035787352696061134,-0.4858569327950477,0.42517329497989265
1790587947284981000,1.32498095703125,0.2106054288111627,-0.2743675607562065,0.2576624366056174
1790587947295061000,1.33506103515625,0.04783420271202921,-0.13855097707808017,0.3804876924918964
1790587947305141000,1.34514111328125,0.05890037112757563,-0.3209258983135223,0.5946642212554812
1790587947315220700,1.355220703125,0.1076044885419309,-0.2669400411039591,0.2687281666297465
1790587947325301000,1.365301025390625,0.08225508936047554,-0.06172141989767551,0.29861513617560265
1790587947335381000,1.375381103515625,0.22858123048469423,0.15509060846865177,0.4449781387114897
1790587947345461000,1.3854609375,0.22488705214187502,0.4276461513668299,0.24626586719192564
1790587947355541000,1.395541015625,0.09581585107073187,0.619040245360136,0.31635055322200056
1790587947365620700,1.405620849609375,0.16801847910284995,0.608808774203062,-0.4654095168435946
1790587947375701000,1.415700927734375,0.18197043208777902,0.7370078686147927,-0.8167930607303977
1790587947385781000,1.425781005859375,-0.28708456511870023,0.683397858980298,-0.045672677296586334
1790587947395861000,1.435861083984375,-0.5904157700307667,0.9768857152700423,-0.03968370254747569
1790587947405941000,1.44594091796875,-0.22991540169790387,1.3385183025032281,-0.5169974825985729
1790587947416021000,1.45602099609375,0.418680754622817,0.8584943136453628,-0.5496761286895722
1790587947426101000,1.46610107421875,0.8838133176885544,-0.15037351681888103,-0.8110563437093049
1790587947436180700,1.4761806640625,0.6564344487309456,-0.5315723897874355,-0.5828724419791251
1790587947446261000,1.486260986328125,-0.12821253841519356,-0.6135305420279502,0.04902892892193049
1790587947456341000,1.496341064453125,-0.24950784478783605,-0.9310773192971944,0.5376427226770669
1790587947466421000,1.5064208984375,-0.08252806108295917,-0.47657589423060415,-0.05791220034044236
1790587947476501000,1.5165009765625,0.39276641503497955,-0.5077525382608175,0.08966931113973259
1790587947486580700,1.526580810546875,-0.10787190730646253,-0.5476368048816919,0.09531473314817994
1790587947496661000,1.536660888671875,-0.2934220975771546,-0.22113690582811832,0.3520010181980207
1790587947506741000,1.546740966796875,0.4492060951374471,0.4109884465545416,-0.20079397316444664
1790587947516821000,1.556821044921875,0.9500076452165841,0.9761556474298239,-1.3363041335850954
1790587947526901000,1.56690087890625,-0.023905191722512244,0.7867629563868045,0.053215603489428755
1790587947536981000,1.57698095703125,-0.4084482605524361,0.2874807248294353,0.9690996645037084
1790587947547061000,1.58706103515625,-0.4173661648929119,-0.014904723665118217,0.37723365913201123
1790587947557141000,1.59714111328125,-0.254218068305403,-0.4097749791115522,0.44075832905936985
1790587947567221000,1.607220947265625,-0.17205226466357706,-0.3311252207666635,0.23368706572372466
1790587947577301000,1.617301025390625,-0.012998013260960579,-0.3911538652718067,-0.3294208280015737
1790587947587381000,1.627381103515625,0.23491803229078648,-0.9202589881628751,-0.14285912260077893
1790587947597461000,1.6374609375,0.10584332408830523,-1.3262649701297282,0.2990285758147016
1790587947607540700,1.647540771484375,0.352975671916455,-1.416108322662115,-0.01733870934639126
1790587947617621000,1.65762109375,0.35923823944255706,-1.2519962033480405,-0.1624346145559102
1790587947627701000,1.667700927734375,-0.4728611114911735,-0.8357616728335618,1.221118250003457
1790587947637781000,1.677781005859375,-0.7308236270219087,-0.20033318725228308,1.4597884744346141
1790587947647861000,1.687861083984375,-0.33739845581725236,0.7556541168957949,0.8746684727244078
1790587947657941000,1.69794091796875,-0.10849325407519936,1.717761949750781,0.5344240528915077
1790587947668021000,1.70802099609375,-0.01068564466536045,1.7916916938364504,0.33435627510976046
1790587947678101000,1.71810107421875,-0.08269479595199226,0.9900678529262542,0.5410255700483918
1790587947688181000,1.728180908203125,-0.5169353771477937,0.0332049349874258,0.7318105922326446
1790587947698261000,1.738260986328125,-0.5194191567875445,-1.0270090518325568,1.052100238469243
1790587947708341000,1.748341064453125,-0.15903627735450862,-1.3853589641332626,0.9229480811163783
1790587947718421000,1.7584208984375,-0.287116713822633,-0.9599234745532274,0.31793343849927186
1790587947728500700,1.768500732421875,0.3625957331769168,-0.41676293830275535,-0.5682914703756571
1790587947738581000,1.7785810546875,1.0008053739093243,0.43035190319418903,-0.9812119079060851
1790587947748661000,1.788660888671875,0.5029600432872772,1.6152835720509289,-0.600627951965481
1790587947758741000,1.798740966796875,0.3850239842146635,2.4742449186861513,-0.142955495647341
1790587947768821000,1.808821044921875,0.6263444308936595,1.9285031337708234,0.4071603396337479
1790587947778900700,1.818900634765625,0.2743044323921203,0.4953355397582054,0.5613007712380961
1790587947788981000,1.82898095703125,0.4920392746917903,-0.1832838527739048,0.06782169126784429
1790587947799061000,1.83906103515625,1.0383322637490928,0.22304069362282752,-0.16177291751047596
1790587947809141000,1.84914111328125,0.15220336259454487,0.7115671378880739,0.3860674288529902
1790587947819221000,1.859220947265625,-0.5500765992492437,0.41909284255504603,0.6053842065818608
1790587947829301000,1.869301025390625,-0.09963117157518864,0.4174140956878662,0.03103221232453361
1790587947839381000,1.879381103515625,0.37988369871675964,0.4800625673025846,-0.37155725746341045
1790587947849460700,1.889460693359375,0.9608312370479106,0.5275397732704877,-0.446134396074526
1790587947859541000,1.899541015625,1.7674410496771336,0.7664554968953132,-0.6000355390302836
1790587947869621000,1.90962109375,1.395924051158875,1.2403934438377617,-0.8590224291726947
1790587947879701000,1.919700927734375,0.758614574136585,1.551613940694928,-0.8768367566742002
1790587947889781000,1.929781005859375,1.6206510904334483,1.7472744599610566,0.5676147766904905
1790587947899861200,1.939861328125,2.584016376003623,1.6155144581973553,3.103310006715357
1790587947909941500,1.94994140625,0.8136562240093946,0.13823299717009066,1.9718560994155703
1790587947920021200,1.960021240234375,-1.2518027266025542,-0.9732797997325658,0.44583939518332477
1790587947930101500,1.9701015625,-1.267795537765324,-3.003937486076355,-0.18430161498170344
1790587947940181200,1.98018115234375,-2.3094880717277526,-4.226879444375634,-1.246277971831709
1790587947950261200,1.99026123046875,-2.8322064161911604,-1.7752718894332646,-2.556201609621942
1790587947960341200,2.00034130859375,-2.546122990939021,0.7609533923476934,-2.223219362811744
1790587947970421200,2.010421142578125,-0.757388393342495,0.34264030199348927,-0.2829479219716973
1790587947980500200,2.020500244140625,0.7305752052187919,0.13236030574440955,0.5028739724390209
1790587947990581200,2.030581298828125,0.7366518947839736,0.20861820051670074,-0.2034910119623877
1790587948000661200,2.0406611328125,0.15167758515477178,-0.08938567189276218,-0.8702810514204203
1790587948010741200,2.0507412109375,-0.12273849091827868,-0.22756723113656044,-0.711247623610124
1790587948020821200,2.0608212890625,-0.20228446745052933,-0.20743629725575446,-0.8220634023487567
1790587948030900200,2.070900146484375,-0.3118517804980278,-0.009917582902312278,-0.9940974737685173
1790587948040980200,2.080980224609375,-0.4268307433307171,0.10392740746438503,-0.5920591533236205
1790587948051060500,2.091060546875,-0.25602935551106926,0.14171499406695365,-0.301292173365131
1790587948061140200,2.10114013671875,0.14422712301835416,0.15398936922848225,-0.18499849293837323
1790587948071220500,2.111220458984375,0.05437748687565326,-0.04395546158254146,-0.06702626657383516
1790587948081300200,2.12130029296875,-0.16694646595716475,-0.08969254588484764,-0.03566758050760254
1790587948091380500,2.13138037109375,-0.042720951351523394,-0.11686112331748008,0.03861066648848355
1790587948101460200,2.141460205078125,0.016291355717927218,0.005835866546630859,0.16058029192611575
1790587948111540200,2.151540283203125,-0.023407032942026854,0.09782032276093959,0.36041342070177196
1790587948121620500,2.161620361328125,-0.06398994935154914,0.15637071140706538,0.5831741283394396
1790587948131700200,2.1717001953125,-0.019622984358668327,0.08301730590462685,0.6683784228943288
1790587948141780500,2.181780517578125,0.22223814506828785,0.031253800919651985,0.645860009355098
1790587948151860200,2.191860107421875,0.3514278579525649,0.19067104041576385,0.69621825065203
1790587948161940200,2.201940185546875,-0.08870017384663224,0.12088497200608253,0.7458731659851968
1790587948172020500,2.2120205078125,-0.25475100613832474,-0.5840478424340486,0.07684429809181019
1790587948182100200,2.222100341796875,0.24036343821510672,-0.07819090866148472,0.29949045770540833
1790587948192180500,2.232180419921875,0.2685476224310696,0.17487667443454263,0.13121962954299524
1790587948202260200,2.24226025390625,-0.5138799350999296,-0.011728431716561316,-0.31772739453315735
1790587948212340500,2.252340576171875,-0.15104045629501342,0.0867617531299591,-0.15243050414761528
1790587948222420200,2.262420166015625,0.7338106800086796,0.1310556528866291,0.1694088740153238
1790587948232500200,2.272500244140625,0.28493279391229154,0.10978723940849304,0.20856847962345926
1790587948242580500,2.28258056640625,-0.18519056317806243,-0.13953998811542986,0.12428393026199192
1790587948252660200,2.29266015625,-0.18357918245866894,-0.2539414433211088,-0.2199320783493109
1790587948262740500,2.302740478515625,-0.06338306949958204,-0.22888708156347273,-0.641871670371294
1790587948272820200,2.3128203125,-0.29788799094483254,-0.25109423719644547,-0.6515414159923791
1790587948282900200,2.322900146484375,-0.24818930953517554,0.03354571124911308,-0.5656165155453607
1790587948292980500,2.33298046875,0.160858670476079,0.4108282875567674,-0.7074223662335425
1790587948303060200,2.343060302734375,0.5926676406107843,0.3099421474844217,-0.3119404816947877
1790587948313140500,2.353140380859375,0.7642651472441852,-0.041643092986941334,-0.4313771911213174
1790587948323220200,2.36322021484375,0.1736396799854934,-0.05179740725457668,-0.6621615942060947
1790587948333300500,2.373300537109375,-0.5067595817007124,-0.44624622241854667,-0.5065826176986098
1790587948343380200,2.383380126953125,-0.7149515196293592,-0.24380466471016404,-0.5930392138695344
1790587948353460200,2.393460205078125,0.20543299460932612,-0.20250410155057905,-0.5860790925333276
1790587948363540500,2.40354052734375,0.7987474086910485,0.42315059351325035,-0.6608500001508743
1790587948373620200,2.4136201171875,0.5202582379601896,0.33499884732961654,-1.0449791544176636
1790587948383700500,2.423700439453125,0.04789090133532881,0.07180792962610721,-1.080739838302508
1790587948393780200,2.4337802734375,-0.06748962803557515,0.003649754679203033,-0.633349122023955
1790587948403860200,2.443860107421875,-0.2529198451884091,0.0029150106638669965,-0.14124007003158331
1790587948413940500,2.4539404296875,-0.2587181562036276,-0.14120353741347788,0.2883540370652452
1790587948424020200,2.464020263671875,-0.1793574731104076,-0.28764263739287854,0.5569009653765707
1790587948434100500,2.4741005859375,-0.02738894218504429,-0.15689970371723175,0.6846855607032776
1790587948444180200,2.48418017578125,0.23429040191173553,-0.06555296088457108,0.4162763968948275
1790587948454260200,2.49426025390625,0.33214126594141125,0.08473463121652602,-0.0963766815575771
1790587948464340200,2.50434033203125,0.11238441629484296,0.10940846922397612,-0.2544737235669047
1790587948474420200,2.514420166015625,-0.37343247675076124,-0.10576222167611121,0.01457435919959098
1790587948484500500,2.52450048828125,-0.8057634249329566,-0.24596681118011474,0.5250525595646351
1790587948494580200,2.534580322265625,-0.8402173370681703,-0.21001579235494136,0.7714819467552005
1790587948504660500,2.544660400390625,-0.42759281374439595,-0.6257546483069658,0.8883776299294084
1790587948514740200,2.554740234375,0.004485182590037584,-0.39664661746919155,0.7298334469407797
1790587948524820200,2.5648203125,0.4533107539772987,0.019430092135071752,0.6414103364698589
1790587948534900500,2.574900390625,1.028303913948685,0.3094505645751953,0.17868987604714928
1790587948544980200,2.584980224609375,1.0092968695312738,0.5849602811038493,-0.5170295217046514
1790587948555060500,2.595060546875,0.5867519868262112,0.7021808853834867,-0.7738351588178426
1790587948565140200,2.60514013671875,0.4337171418435871,0.17744272553026674,-0.3128435680143535
1790587948575220200,2.61522021484375,0.01446735516116023,0.08137596843838692,0.8529900171406567
1790587948585300200,2.62530029296875,-0.2825989441372454,-0.22834172264039515,1.2584795740179717
1790587948595380200,2.635380126953125,0.37669104015529153,-0.3531336389571428,1.3512369143009184
1790587948605460500,2.64546044921875,0.6604290713250637,-0.5270937830686568,1.5415787227623163
1790587948615540200,2.655540283203125,0.6653888856895268,-0.8475970720559358,0.7293642219938338
1790587948625620500,2.665620361328125,0.6809509042195976,-1.09192371481359,-0.20921653173603116
1790587948635700200,2.6757001953125,-0.2213474798388779,-0.36222120077610015,-0.8799303387753665
1790587948645780200,2.6857802734375,-1.1059716755189002,0.32866146100163457,-1.055223192795366
1790587948655860500,2.695860595703125,-1.432834562665969,0.997701708805561,-0.5418164646977558
1790587948665940200,2.705940185546875,-0.8865560405254364,1.035671666237712,0.11260532903652637
1790587948676020500,2.7160205078125,0.09431319142282009,0.06875789440572261,0.0814744969094172
1790587948686100200,2.726100341796875,0.43707215135991573,-0.3851590087711811,-0.2901227637708187
1790587948696180200,2.73618017578125,0.2599197870783508,-0.8523620945006608,-0.8856688824273645
1790587948706260500,2.746260498046875,0.3138021839134395,-0.3414180667221546,-0.9925310281693934
1790587948716340200,2.75634033203125,0.14217851992547512,-0.1610147378206253,-0.6687989863939583
1790587948726420500,2.76642041015625,-0.1494208922691643,-0.131952893987298,0.07740341154560447
1790587948736500200,2.776500244140625,0.45435003389716144,0.09625672670602797,0.2854526530679315
1790587948746580500,2.78658056640625,0.13776757161542771,0.447469042211771,0.043413463660329575
1790587948756660200,2.79666015625,-0.6806717950172722,0.6310165143579244,-0.30109255913980304
1790587948766740200,2.806740234375,-0.5788001510389149,0.5435562575697899,-0.9053821754179895
1790587948776820500,2.816820556640625,-0.17225991606488822,0.6042103404968977,-0.6431194054100662
1790587948786900200,2.826900146484375,-0.15246566679254173,0.08763853596448898,-0.16875041010659186
1790587948796980500,2.83698046875,-0.6096382107645273,-0.9099223030656576,-0.11914351689992472
1790587948807060200,2.847060302734375,-0.12467924972251057,-0.6830880623787641,-0.24794841345138846
1790587948817140200,2.85714013671875,0.10389628167375922,-0.1676467231810093,-0.06692993005989119
1790587948827220500,2.867220458984375,-0.15888649362027643,0.014770868152379988,-0.02579993769424036
1790587948837300200,2.87730029296875,0.11998948447108268,0.6445879435926676,0.3389771763760596
1790587948847380500,2.88738037109375,0.9856063434727489,1.1542056912034748,0.6258799551870674
1790587948857460200,2.897460205078125,-0.3919863705731928,1.826227000644803,0.10190004808893427
1790587948867540500,2.90754052734375,-0.7482530468590557,0.6821691939681768,-1.0441760213412343
1790587948877620200,2.9176201171875,1.2105829735942184,0.4150052809804678,-0.573965497424081
1790587948887700200,2.9277001953125,0.4018075073637068,-0.14146832582950591,0.06612465982530266
1790587948897780200,2.9377802734375,0.06823766992390155,-0.30405484301149843,0.6409077937752008
1790587948907860000,2.94785986328125,0.43982875659167764,-0.07775310176610946,0.08629749661907553
1790587948917940200,2.957940185546875,0.1328149176441133,0.19371932207047937,-0.4732818941865116
1790587948928020000,2.96802001953125,0.09847264918982981,0.5642033242791891,-0.08716171223297714
1790587948938100200,2.978100341796875,-0.1777468230433762,0.5540396576613188,0.42002705466523765
1790587948948180000,2.988179931640625,-0.1029449722982943,0.40197745710313315,0.515585935300216
1790587948958260000,2.998260009765625,0.11639862037226557,0.18138591019809244,0.21920277769407256
1790587948968340200,3.00834033203125,0.2588144561849534,0.058121934100985526,-0.19485400692252441
1790587948978420000,3.018419921875,0.4338089117802679,0.14309855737984178,-0.43974129750393326
1790587948988500200,3.028500244140625,0.5125761590249837,0.3048983080983162,-0.25961313228197397
1790587948998580000,3.038580078125,0.4622954399436712,0.3834370072841644,0.07892000838732346
1790587949008659200,3.0486591796875,0.34996012348756195,0.41814416352808476,0.2832945251859724
1790587949018739000,3.058739013671875,0.2575847682595253,0.3303565744817257,0.15328434449797496
1790587949028819200,3.068819091796875,0.15190131090804934,0.1993085203796625,-0.14906497323727233
1790587949038899200,3.078899169921875,0.23218378502130507,0.11544950295388698,-0.14678882673252372
1790587949048979000,3.08897900390625,0.3297309899292886,-0.04035714482963085,0.10499934754483402
1790587949059059200,3.09905908203125,0.46077086072489615,-0.036838907575607295,0.34571327969804405
1790587949069139000,3.109138916015625,0.6970007062666118,0.01708089866042137,0.3696430213399231
1790587949079219200,3.11921923828125,0.7575976521790028,-0.3766787651956081,0.40742377634290605
1790587949089299000,3.129298828125,0.3751718677639961,-0.9182663530409335,0.43545046844221647
1790587949099379000,3.13937890625,-0.3018717998839915,-0.9321364729613065,0.47970549749322233
1790587949109459200,3.149459228515625,-0.7568447879850864,-0.786178434497118,0.5742166957061737
1790587949119539000,3.1595390625,-1.582269191199541,-0.9023907385170459,0.8865396739125251
1790587949129619200,3.169619140625,-1.7243424971848724,-0.6335556774467229,0.8787241778559982
1790587949139699000,3.179698974609375,-1.0770026976007967,-0.2353156533062458,0.5425793388290331
1790587949149779200,3.189779296875,0.1432503869406879,-0.14909925909936428,0.2835885031638667
1790587949159859200,3.199859130859375,0.9520948267541826,0.13801204789578914,0.3840624091735109
1790587949169939000,3.20993896484375,1.2076152098298072,0.0963514192521572,0.3745611519871279
1790587949180019200,3.220019287109375,0.5509158265523613,-0.035651159095764155,0.4026825000999495
1790587949190099000,3.230098876953125,-0.22872107734680175,0.05516483786106109,0.49799365305155513
1790587949200179200,3.24017919921875,-0.2938134349822998,-0.07849018386900425,0.7258266955174505
1790587949210259000,3.250259033203125,0.18913097136691212,-0.02998480389714241,0.6070789912683889
1790587949220339000,3.2603388671875,0.35365853961408134,0.02497194417119026,0.1468122076081112
1790587949230419200,3.270419189453125,-0.03552665593326092,0.03131809832751751,0.06696439858507365
1790587949240499000,3.2804990234375,-0.3345167629010975,0.04870820906758308,0.23429686818514017
1790587949250579200,3.2905791015625,-0.12870485197678208,0.013621698117256163,0.4150564631784335
1790587949260659000,3.300658935546875,0.1394032099932432,-0.018532851034402845,0.449177636227943
1790587949270739200,3.3107392578125,0.08623495277687906,-0.03983341321647167,0.2468099474733695
1790587949280819200,3.320819091796875,-0.04723302194848657,-0.02264145539700985,0.0616423633120954
1790587949290899000,3.33089892578125,-0.043573914919048544,0.04312485597729682,0.07062156938575208
1790587949300979200,3.340979248046875,0.07390753225386143,0.06571545796990394,0.09602043373212217
1790587949311059000,3.351058837890625,0.03124897861406207,0.06026596039235591,0.08815415733642876
1790587949321139200,3.36113916015625,-0.1196324877269566,0.015475217029452324,0.0497270672539249
1790587949331219000,3.371218994140625,-0.1399170047342777,-0.004237199178338051,0.04744403435066342
1790587949341299000,3.381298828125,-0.07906126175522804,-0.05904197155535221,0.0531166366269812
1790587949351379200,3.391379150390625,0.0025987843215465544,-0.022106033346056937,0.0936335020629689
1790587949361459000,3.401458984375,0.05664309372007847,0.006985621103644371,0.05192150855828076
1790587949371539200,3.411539306640625,-0.05886471529230475,0.05580547385215759,-0.08523205934464931
1790587949381619000,3.421618896484375,-0.09483999177590012,0.06004676468372345,-0.11385562135856597
1790587949391699200,3.43169921875,-0.04318097007870674,0.08271101643443107,-0.16484905528649688
1790587949401779200,3.441779296875,-0.012054887191951275,0.03317687793672085,-0.09349427625536919
1790587949411859000,3.45185888671875,-0.09365458138361572,-0.0060083005040884015,-0.04748016510996967
1790587949421939200,3.461939208984375,-0.12270473477914928,-0.02477496029436588,-0.08089834098927676
1790587949432019000,3.47201904296875,-0.08954729219526052,-0.01031447326540947,-0.10673260107822716
1790587949442099200,3.48209912109375,-0.0643798254519701,0.012526888617873192,-0.11167568350359797
1790587949452179000,3.492178955078125,-0.026524872701615094,0.04298164811432361,-0.1408593270856887
1790587949462259000,3.502259033203125,-0.06873451353013516,0.059198038899898525,-0.22424985021688043
1790587949472339200,3.512339111328125,-0.07565949048772454,0.0405249026119709,-0.2607296056238934
1790587949482419000,3.5224189453125,-0.08283098955228924,0.03917348800301552,-0.31903920778408645
1790587949492499200,3.532499267578125,-0.10121434911340474,0.012957681250572204,-0.22916052820999175
1790587949502579000,3.542578857421875,-0.13520765799954532,-0.0017073884397745133,-0.2660783097080886
1790587949512659200,3.5526591796875,-0.08200082233846187,0.02732639834284782,-0.23763489003404972
1790587949522739200,3.5627392578125,-0.07028583462536335,0.06694938367903232,-0.30533293665591626
1790587949532819000,3.57281884765625,-0.06627732963636516,0.0820259567797184,-0.3206494925249368
1790587949542899200,3.582899169921875,-0.10980886671841143,0.07646832265257834,-0.25894670426249505
1790587949552979000,3.59297900390625,-0.06325213659629225,0.04452186329364776,-0.28027386219054456
1790587949563059200,3.60305908203125,-0.04011281467974186,-0.0016594576448202133,-0.33394791350457814
1790587949573139200,3.61313916015625,-0.021219898161292074,0.04824409868717194,-0.6276148161556572
1790587949583219000,3.623218994140625,0.8528278123162686,0.6164923144429921,-1.7051771934658289
1790587949593299200,3.63329931640625,-0.4357949710309505,-0.7677829461067914,-1.8935240287177264
1790587949603379000,3.64337890625,-0.5446298781506717,0.3805371941894293,-1.1556126353919505
1790587949613459200,3.653459228515625,-0.7275852296225727,-0.39226679494976996,-0.05102529037091881
1790587949623539000,3.6635390625,0.5298112253338099,0.15934008260667323,0.5123026027806102
1790587949633619000,3.673618896484375,1.0377147163726388,-0.2267752039760351,-0.40790655489116906
1790587949643699200,3.68369921875,-0.05653437264859676,0.5138140302568673,-1.4818180815435944
1790587949653779000,3.693779052734375,-0.47407896284833545,-0.09371464100778103,-1.4863817361973226
1790587949663859200,3.703859130859375,-0.45715807705521583,0.27301322353780266,-0.37194771808572114
1790587949673939000,3.71393896484375,0.5230993066050112,-0.12161562436819076,-0.558403077035211
1790587949684019200,3.724019287109375,0.018075754916667935,-0.1756973431676626,-0.9442445516452193
1790587949694098000,3.734097900390625,-0.3718833476126194,-0.25719898381233214,-1.6068721559278667
1790587949704178200,3.74417822265625,-0.05058393981158733,0.06780220111608505,-2.4546587592065334
1790587949714258000,3.7542578125,-0.27019831224754454,0.06274784033596516,-1.9033190081536768
1790587949724338200,3.764338134765625,-0.1083564759530127,0.31052316224277016,-0.48187937093358485
1790587949734418200,3.774418212890625,0.860823341114819,0.20791092903017996,-0.769208594995737
1790587949744498000,3.784497802734375,0.8337526710987091,0.04649871632456779,-1.4291237254492937
1790587949754578200,3.794578125,-0.118189157050848,-0.1918535281985998,-1.632277669210732
1790587949764658000,3.804657958984375,-0.8060534939207136,-0.19102409163713455,-1.249201604193449
1790587949774738200,3.81473828125,-0.5496411304414272,-0.1184375788539648,-0.2785880279954523
1790587949784818200,3.824818115234375,0.38846842558011413,0.02522036597430706,-0.15170816295612602
1790587949794898000,3.83489794921875,0.6977496249377727,0.13381225811839104,-0.815308813522011
1790587949804978200,3.844978271484375,-0.15433423714339733,0.11103636268675326,-1.2381212611220775
1790587949815058000,3.855057861328125,-0.6022424014247953,0.04262859689295292,-1.0417794815935193
1790587949825138200,3.86513818359375,0.3451623678170144,-0.07327507956922054,-0.5567696671471
1790587949835218200,3.87521826171875,0.6840273890554904,-0.12389876686930655,-0.06458594248332084
1790587949845298200,3.885298095703125,0.08026318489089608,-0.07452887902259826,-0.19035517939962446
1790587949855378200,3.895378173828125,-0.35747678272798655,0.11376900252103805,-0.6832320739593356
1790587949865458000,3.9054580078125,-0.000052753100544214245,0.07757832972109317,-0.5610073047168552
1790587949875538200,3.9155380859375,0.15194398100599646,0.004768529576063156,-0.25363372907880694
1790587949885618000,3.925617919921875,0.010379501325637102,-0.03254442525207996,-0.006849190041329711
1790587949895698200,3.9356982421875,-0.11669395005702972,-0.11172434495091438,0.005868033516872674
1790587949905777700,3.945777587890625,-0.029763123970478773,-0.09322130453288555,-0.13649077487895264
1790587949915857700,3.955857666015625,0.2934272121436894,-0.024569208589196204,0.034281989634409545
1790587949925937700,3.965937744140625,0.180873869022727,-0.0014916998624801634,0.07550062839789316
1790587949936017700,3.976017578125,-0.1074140805363655,-0.007842530193924904,0.0037420726051554084
1790587949946098000,3.986097900390625,0.05655088539198041,0.02702536956965923,-0.04104631440388039
1790587949956177700,3.996177734375,0.0938332989513874,-0.03648410278856754,-0.05136601183367893
1790587949966258000,4.0062578125,-0.150033178948611,-0.062035308152437206,0.06228407701542601
1790587949976337700,4.016337646484375,-0.016952742236107588,-0.05996843875050544,0.2880359475594014
1790587949986417700,4.026417724609375,0.09376315632462501,-0.0705669896543026,0.12351212390558794
1790587949996497700,4.03649755859375,-0.04965513452887535,0.03631751405000686,-0.1348663794143591
1790587950006577700,4.04657763671875,-0.1580862831532955,0.08307984974682331,-0.2966822136179544
1790587950016658000,4.056657958984375,-0.00639700756072998,0.0492301871150732,-0.33689320970885456
1790587950026737700,4.066737548828125,-0.026713234880566594,-0.08934358631670475,-0.07833073725728318
1790587950036817700,4.076817626953125,-0.09132277743518352,-0.11855272966623305,-0.12722633125628344
1790587950046897700,4.086897705078125,0.018295096755772827,-0.15600538522601126,-0.31965949510689823
1790587950056977700,4.096977783203125,0.02173968425169587,-0.13632920937538145,-0.4662586079536006
1790587950067058000,4.107057861328125,-0.06145151691511273,-0.06860591871440411,-0.21372511346796527
1790587950077137700,4.1171376953125,-0.163101334836334,0.06425298420190811,0.15835308086331934
1790587950087218000,4.127218017578125,-0.28209771661683913,0.11061842953562735,0.43259442142397164
1790587950097297700,4.137297607421875,-0.11526552468910813,0.12567279080450533,0.16905803301734848
1790587950107377700,4.147377685546875,-0.2723626506745815,-0.03501110762655735,-0.3717046300448477
1790587950117457700,4.157457763671875,-0.5497194563746453,-0.17857786704003809,-0.18054618970463052
1790587950127537700,4.16753759765625,-0.7095908693790436,-0.162718034607172,0.11501248150980099
1790587950137618000,4.177617919921875,-0.5261212847746909,0.04225391836166382,0.9642816697627306
1790587950147697700,4.18769775390625,-0.27518472235798835,0.38543548762500285,1.7131350206024945
1790587950157777700,4.197777587890625,-0.3233103092320263,0.34879648653566836,1.3092718958832323
1790587950167857700,4.207857666015625,-0.35893224223330616,0.10330255356431006,0.4071848164878785
1790587950177937700,4.217937744140625,-0.25097455633953214,-0.02513444125652313,0.1376658100076951
1790587950188018000,4.228017822265625,-0.3826204302042722,-0.23240941047072408,0.06514498287187889
1790587950198097700,4.23809765625,-0.7802778321512043,-0.10291735363900661,-0.027961353511828928
1790587950208178000,4.248177978515625,-0.1735897033639252,-0.008392565292119979,0.0467191724085249
1790587950218257700,4.258257568359375,-0.2897833026833832,0.07459843712747097,-0.05733208063123747
1790587950228337700,4.268337646484375,-0.6151771401911974,0.1489069513976574,0.24123549007559195
1790587950238417700,4.278417724609375,-0.5599437671385705,0.1589578052908182,0.6057949062746018
1790587950248497700,4.28849755859375,-0.42056992937028403,0.15896481955349445,0.6442164799317717
1790587950258578000,4.298577880859375,-0.36613384417518974,0.08384498890042305,0.43768798170331863
1790587950268657700,4.30865771484375,-0.3568741406597197,0.0016577040791511534,0.09180643276628106
1790587950278737700,4.318737548828125,-0.4496173062868416,-0.12243453953564166,-0.23925799772385506
1790587950288817700,4.328817626953125,-0.4935895728737116,0.016056231787800787,-0.3664228171844035
1790587950298897700,4.338897705078125,-0.23105989555791018,0.07612754639089107,-0.28261487235873933
1790587950308978000,4.34897802734375,-0.33035774352550507,0.03321896351277828,0.10903839380256831
1790587950319057700,4.3590576171875,-0.36380057892203327,0.06179740774333477,0.023059023221954703
1790587950329137000,4.369136962890625,-0.24930501569211483,0.08174655531644821,-0.14941625262666494
1790587950339216600,4.379216552734375,-0.1373658589467406,0.17515081520080567,-0.3712044254377484
1790587950349297000,4.389296875,-0.044786359448730946,0.22929215523302554,-0.658983987083286
1790587950359376600,4.399376708984375,-0.18985154072642324,0.05704992095530033,-0.5586778388559818
1790587950369457000,4.409456787109375,-0.23466201170310377,-0.07269348028898238,-0.4490987988380715
1790587950379536600,4.41953662109375,-0.051403877892345184,-0.17025369080901145,-0.4757262916639447
1790587950389616600,4.42961669921875,-0.0038519992530345916,-0.18535539835095405,-0.6252505712423473
1790587950399697000,4.43969677734375,0.014632920986413955,-0.03423486255705356,-0.6450912169396877
1790587950409776600,4.449776611328125,0.1120991696126759,0.17932137888371943,-0.35356461425293234
1790587950419857000,4.45985693359375,0.17056173384487627,0.28247897101938724,-0.04250212096907198
1790587950429936600,4.4699365234375,0.19877002958878873,0.24810440773069858,0.165965747824125
1790587950440016600,4.4800166015625,0.09754778942987322,-0.09118483026921749,0.18669187111910432
1790587950450097000,4.490096923828125,0.10820493865311145,-0.3745668876081705,-0.011332125875353812
1790587950460176600,4.5001767578125,0.28874796828627586,-0.5146896440476179,-0.04065689496118575
1790587950470257000,4.5102568359375,0.38657238270044325,-0.327265622729063,-0.05606127524413168
1790587950480336600,4.520336669921875,0.4455108938813209,-0.020327917757630348,0.018672259505093096
1790587950490416600,4.530416748046875,0.5452786974482238,0.27971125987172124,0.49220217363592234
1790587950500496600,4.54049658203125,0.4903429921679198,0.31753450230956076,0.8459997198618948
1790587950510576600,4.55057666015625,-0.10835589143112301,0.18364684086740016,0.8105651991914957
1790587950520657000,4.560656982421875,-0.3346605552859604,0.013088029631972312,0.4608393593838438
1790587950530736600,4.570736572265625,-0.14256094337180256,-0.14666004925370216,0.0934687399553135
1790587950540817000,4.58081689453125,0.21362696858942506,-0.12960019338130951,-0.25074611787851897
1790587950550896600,4.590896728515625,0.4145464312970638,-0.05576397279798984,0.06319046953693032
1790587950560976600,4.6009765625,0.4182781651712954,0.016192425388097762,0.71825114569664
1790587950571057000,4.611056884765625,0.2899322096347809,-0.0379021528929472,1.1247807131461798
1790587950581136600,4.62113671875,0.41458910139501093,0.02174596786201,1.3535128964088856
1790587950591217000,4.631216796875,0.8085574395656585,-0.0036626141607761383,1.0140031475260853
1790587950601296600,4.641296630859375,0.5282349159277975,-0.05561725780367851,0.1973676885101944
1790587950611376600,4.651376708984375,-0.05526669080033898,-0.15799918939173221,-0.4639074782501906
1790587950621456600,4.66145654296875,-0.01776259731426835,-0.15859306363165376,-0.9448104418996721
1790587950631536600,4.67153662109375,0.5513565560571849,-0.03485562480390072,-1.1108661695621906
1790587950641617000,4.681616943359375,0.7644885807365178,0.06980711119771003,-0.800498782403022
1790587950651696600,4.691696533203125,0.7707682455278932,0.21814649184048174,-0.3269352947961539
1790587950661777000,4.70177685546875,0.7478900587655604,0.10000117393136024,0.21035335374623537
1790587950671856600,4.711856689453125,0.5221697706699371,-0.0978852046906948,0.4026871397424489
1790587950681936600,4.7219365234375,0.45640287477374075,-0.31750819882452486,0.3589536503475159
1790587950692017000,4.732016845703125,0.4159783637963235,-0.4085217641800642,0.04673486316800117
1790587950702096600,4.7420966796875,0.32882045095562934,-0.2324485734373331,-0.39829116980582474
1790587950712177000,4.752177001953125,0.5645435160189867,0.06770283239483833,-0.5734320481345058
1790587950722256600,4.762256591796875,0.825102916175127,0.3190536747008562,-0.3577626869972795
1790587950732336600,4.772336669921875,0.5027976923324168,0.3419733625173568,-0.12071546065807341
1790587950742417000,4.7824169921875,0.1664998912334442,0.2586374921828508,-0.18478234770335256
1790587950752496600,4.79249658203125,0.26577216636836526,0.056942368927598,-0.4693007886610925
1790587950762577000,4.802576904296875,0.38864758153930307,-0.14761457349956034,-0.3373706910274923
1790587950772656600,4.81265673828125,0.5146124871581792,-0.3425859414577484,0.1593614176556468
1790587950782737000,4.82273681640625,0.5117611893802881,-0.3637029637664556,0.5870744967788457
1790587950792816600,4.832816650390625,0.5659574744701386,-0.32020576734542844,0.8504623252939433
1790587950802896600,4.842896728515625,0.5331229802303016,-0.11300795502066611,0.45409364798329765
1790587950812977000,4.852976806640625,0.47243324146792287,0.09940320803821086,-0.04751980300061404
1790587950823056600,4.863056640625,0.5045749311380088,0.12254384512901305,-0.24487660479061304
1790587950833137000,4.873136962890625,0.2437840603135526,0.03580138122141361,-0.06929762730561197
1790587950843216600,4.883216552734375,-0.028487989468127486,-0.08150573229789733,0.2508097942318767
1790587950853296600,4.893296630859375,-0.055210576698929065,-0.08584288471937179,0.5027645937804133
1790587950863377000,4.903376953125,-0.10661197037324309,-0.10810206280052662,0.5726526612598448
1790587950873456600,4.91345654296875,-0.04284384707883,-0.039926936718821526,0.3970427771799266
1790587950883537000,4.923536865234375,0.22622443822547791,0.03484685697555542,0.2326147237844765
1790587950893616600,4.93361669921875,0.21528291910290717,0.09332418038547038,0.046329643367975945
1790587950903700000,4.943699951171875,0.025554858625680205,0.09410743971765041,0.037389892521873115
1790587950913779700,4.95377978515625,-0.0949661023736,0.052602293896675104,0.15748502932451663
1790587950923859700,4.963859619140625,-0.10036591559052467,-0.010786182430386542,0.2102503317631781
1790587950933940000,4.97393994140625,-0.101070264467597,-0.18052724754214286,0.12102123867161571
1790587950944019700,4.984019775390625,-0.3814199683733284,0.10390811824202537,0.07517272988408803
1790587950954100000,4.994099853515625,-0.7329682378351688,0.2659194658845663,0.09798764215186238
1790587950964179700,5.0041796875,0.4438924988992512,-0.48792847837209696,0.11717318494133651
1790587950974260000,5.014260009765625,-0.35257834316194053,-0.08817512705922126,-0.1429129716798663
1790587950984338700,5.024338623046875,0.36608839759826656,0.4739712646901607,-0.03632577042169869
1790587950994419000,5.0344189453125,0.7390864284545183,0.07868424513638018,0.4238132952056825
1790587951004498700,5.044498779296875,-1.1814793364457785,0.01726619209945202,-0.344423312952742
1790587951014579000,5.054578857421875,0.8787574956037104,0.5122352366328239,-0.31776546152122315
1790587951024659000,5.064658935546875,-0.03202303172647953,-0.6263683962911367,-0.18703838300183415
1790587951034738700,5.07473876953125,-0.41302798955813047,0.3338818259984255,-0.8565032128933817
1790587951044819000,5.08481884765625,0.6518300236754119,-0.4488111044704914,0.44072950482368467
1790587951054898700,5.094898681640625,-1.2236879543609915,-0.1578203256934881,0.08068418678194283
1790587951064979000,5.10497900390625,-0.42923488186299796,0.2326712762773037,-0.2882330775666982
1790587951075059000,5.115058837890625,0.8461777067773043,0.44540977159440515,-0.05237988331764936
1790587951085138700,5.125138671875,-1.7962885201074181,0.02618716517984867,0.0782582748092711
1790587951095219000,5.135218994140625,-1.1259785446286201,0.6647066025137901,0.4925537270199507
1790587951105298700,5.145298583984375,-0.26549466460123655,-0.7354092012465,0.7351550072897225
1790587951115379000,5.15537890625,-0.766775668760389,-0.07570493706464768,-0.2588109490536153
1790587951125458700,5.165458740234375,1.7258149078249931,-0.14881342789530752,-0.30463951103165743
1790587951135539000,5.1755390625,1.0256441932201386,-0.025075989067554472,-0.33430640808604656
1790587951145619000,5.185618896484375,0.6043352820508182,0.4794406360119581,-0.2355332415796816
1790587951155698700,5.19569873046875,-0.4745530101008713,0.10076222143173218,0.33508484511263664
1790587951165779000,5.205779052734375,-1.770702097299695,0.5121230084300041,0.03724624626748264
1790587951175858700,5.215858642578125,-0.4382670602329075,0.3655506374597549,-0.007529591787233949
1790587951185939000,5.22593896484375,0.27975670644864437,0.009855039060115813,-0.035116321566700935
1790587951196019000,5.23601904296875,-0.3758629187680781,-0.5036959563463926,-0.4090996371332556
1790587951206098700,5.2460986328125,-1.078326712746173,-0.6236690742045641,0.2689950008723885
1790587951216179000,5.256178955078125,-0.570011133775115,-0.09153437435925006,0.22100129674971103
1790587951226258700,5.2662587890625,0.9651019001044332,0.2563420747220516,-0.03742079911679029
1790587951236339000,5.2763388671875,0.7791999737866222,0.3798205703526735,-0.00007533025853335857
1790587951246418700,5.286418701171875,-0.6460213373966515,0.383023750308156,-0.5919989475689829
1790587951256498700,5.296498779296875,-0.6450621369756758,0.18843875131905077,-0.4872844813801348
1790587951266579000,5.306578857421875,-0.20987199997007847,-0.1895008275926113,-0.21504903728179633
1790587951276658700,5.31665869140625,-0.565588202766329,-0.19531974300444124,-0.31912790898084636
1790587951286739000,5.326739013671875,-0.7192262743391096,-0.19582126278579234,0.28131854893788694
1790587951296818700,5.336818603515625,-0.43759895171299573,0.062084992513060565,-0.270995600105077
1790587951306899000,5.34689892578125,-0.17578209884166718,0.2375502804905176,-0.5944240558240562
1790587951316979000,5.35697900390625,0.10461991977319121,0.41221185086965556,-0.7147310818117112
1790587951327058700,5.36705859375,0.08978592325672506,0.231027600723505,-0.46375141090564426
1790587951337139000,5.377138916015625,-0.3710026192553341,-0.0051315176695585244,-0.10637757709547876
1790587951347218700,5.38721875,-0.793913558793813,-0.15078385118544102,-0.0643359863102436
1790587951357299000,5.397298828125,-0.695040950500965,-0.09513912085294723,-0.11889474803693592
1790587951367378700,5.407378662109375,-0.38024215676560996,0.06547346590757369,-0.25457762233279646
1790587951377458700,5.417458740234375,-0.7016333345033228,0.07033844159543513,-0.20644312149994073
1790587951387539000,5.4275390625,-1.015423243457079,0.1729436605453491,-0.07721241901814938
1790587951397618700,5.43761865234375,-0.5716716143332421,0.2783049002051353,0.09629903147779405
1790587951407699000,5.447698974609375,0.01134089370369911,0.33360885427594184,0.10170023293420671
1790587951417778700,5.45777880859375,-0.38998496762290596,0.2389355973690748,0.09723170921802521
1790587951427859000,5.46785888671875,-1.0986790342926978,0.033581367084383966,0.11866934178322552
1790587951437939000,5.47793896484375,-0.8132318611174821,-0.07940437610447407,-0.04480206847451627
1790587951448018700,5.488018798828125,-0.5012853880733251,-0.03113631201982498,-0.045641514973342415
1790587951458099000,5.498098876953125,-0.8466086455404758,0.08235153547227382,0.06561316663920878
1790587951468178700,5.5081787109375,-1.1108563788205386,0.21932196536064147,0.16785707799606026
1790587951478259000,5.518259033203125,-0.6630231794714927,0.3047936786800623,0.26157230352573096
1790587951488338700,5.528338623046875,-0.4888216278195381,0.3593558744728565,0.15057349637039005
1790587951498418700,5.538418701171875,-0.93552436183393,0.314175255009532,0.0989518110089004
1790587951508499000,5.5484990234375,-1.022463225096464,0.11602291892766951,0.3964747680336237
1790587951518578700,5.55857861328125,-0.9801192903637885,-0.0791758280456066,0.5083464125007391
1790587951528659000,5.568658935546875,-1.257411214134097,-0.06509586476683617,0.649753071270883
1790587951538738700,5.57873876953125,-1.4106746071755885,0.05585340464711189,0.769349976227805
1790587951548819000,5.58881884765625,-0.8495739250868558,0.3128630033671856,0.49722215722240504
1790587951558899000,5.59889892578125,-0.31233927175402637,0.3075602207839489,0.4722611728366464
1790587951568978700,5.608978759765625,-0.592648497518897,0.1837806963801384,0.9951200217492878
1790587951579059000,5.619058837890625,-1.1103257790751755,0.09220949714183807,1.3484179113574326
1790587951589138700,5.629138671875,-1.0952905608981847,0.15166180306375027,1.7041148249313234
1790587951599219000,5.639218994140625,-0.8694390476383268,0.15224574043154715,1.8175160170532763
1790587951609298700,5.649298583984375,-1.1760669560082255,0.14325228663682937,1.1330193299856037
1790587951619378700,5.659378662109375,-0.9475520687580108,0.2110112331330776,0.746267279869318
1790587951629459000,5.669458984375,-0.7306336574077605,-0.04746726909577846,0.7978392808701843
1790587951639538700,5.67953857421875,-1.1352696661956607,-0.33095454037487504,0.7935695676617324
1790587951649619000,5.689618896484375,-0.6733271313428878,-0.6349965239048003,1.4115949368909
1790587951659698700,5.69969873046875,0.1105991403132677,-0.1588572675257921,1.5151128867715595
1790587951669779000,5.709779052734375,0.18717735308110714,1.0077350270420313,1.251599897506833
1790587951679859000,5.71985888671875,-0.8753538246400654,1.1212123531401157,0.2668413299698382
1790587951689938700,5.729938720703125,-0.7935985014952719,0.6176695415288209,-0.9921760772518813
1790587951700019000,5.74001904296875,0.12408902874439955,-0.29907237842381,-1.5182795341089368
1790587951710098700,5.7500986328125,-0.600226969949156,-1.0098498272389174,-1.4162886476650833
1790587951720179000,5.760178955078125,-1.4501966163553297,-0.9696966805487871,-1.2647735595956444
1790587951730259000,5.770259033203125,-0.4132448471792042,-0.15888590909838676,-1.0337245507579296
1790587951740338700,5.780338623046875,0.4050432744145393,0.46452772904038425,-0.8992446955762803
1790587951750419000,5.7904189453125,-0.6221062088020145,1.1712784065574406,-0.8316483922958373
1790587951760498700,5.800498779296875,-0.3669698566079139,1.3061205922454595,-0.8475450496077537
1790587951770579000,5.810578857421875,-0.3818940156258642,0.33637422733604905,-1.1408110067751258
1790587951780658700,5.82065869140625,-1.2398176897764206,-0.2226414651721716,-1.903591395354271
1790587951790739000,5.830739013671875,-0.5682954158984125,-0.610278262233734,-2.131441973476857
1790587951800819000,5.84081884765625,-0.8522790923923254,-0.9118652538269758,-1.9838173169746993
1790587951810898700,5.850898681640625,-0.7969717773206532,-0.2867898199558258,-1.6166687427990138
1790587951820979000,5.86097900390625,0.3996146734945476,0.42236908774673937,-0.8712264425117522
1790587951831058700,5.87105859375,0.1448281576514244,0.6532160712063312,-0.08538301212266088
1790587951841139000,5.881138916015625,-0.7525004751704633,0.520062569257617,0.2506815647423267
1790587951851217700,5.8912177734375,-1.4870821395516394,0.07098667637109755,-0.5535345576833933
1790587951861298700,5.901298583984375,-1.7219886275351046,-0.02210720238983631,-0.7652106114007532
1790587951871377700,5.911377685546875,-1.1118588338613509,0.04260112436413765,-1.4314026301667093
1790587951881458000,5.9214580078125,-0.5547418145813048,0.051070846545696255,-1.7456351683214306
1790587951891538000,5.931537841796875,0.012246902632713318,0.2053735195070505,-1.522144977365434
1790587951901615000,5.941614990234375,-0.4493194923840463,0.2651841373473406,-1.5645520404621958
1790587951911695400,5.9516953125,-0.8990051877319812,0.02179214509129524,-0.9841909237168729
1790587951921772300,5.961772216796875,-0.9021883478127419,0.023092706295847892,-0.9911035526495426
1790587951931852300,5.971852294921875,-0.8497223936468362,-0.40119712038040156,-0.7864492873277514
1790587951941932300,5.981932373046875,-0.6697652010776102,-0.03464402787983417,-0.4117150803286582
1790587951952012300,5.99201220703125,-0.6355179174304008,0.545898436781764,-0.5041403391130268
1790587951962092300,6.00209228515625,-1.8018794719822704,0.3721183254122734,-0.4543342518061399
1790587951972172300,6.01217236328125,-1.7310085309453307,0.6410001482337713,-0.08022599468566477
1790587951982252300,6.022252197265625,-1.1798163716696202,0.1975695677578449,-0.47316323624290524
1790587951992332300,6.032332275390625,-1.1302303568542003,0.2424035657405853,-0.45204066097624596
1790587952002412300,6.042412353515625,-0.9997967813886701,-0.0346469504892826,-0.0700040220092982
1790587952012492300,6.0524921875,-1.501456701862812,0.028532267001271247,0.5883664362855255
1790587952022572300,6.062572265625,-0.4790883154429495,0.25059797811210155,0.8132144715912639
1790587952032652000,6.072652099609375,-0.6511470098473131,0.3559825986474752,1.656665237622708
1790587952042732300,6.082732177734375,-1.51787723691836,0.764005181133747,1.582285119421035
1790587952052812300,6.092812255859375,-1.4015082810319959,0.46593291966319084,1.0987976922363043
1790587952062892300,6.102892333984375,-1.6279349638313054,0.40390521029531956,1.5457386189207434
1790587952072972300,6.11297216796875,-1.4198527698874472,0.5193816012561321,1.9582257796004414
1790587952083052000,6.123052001953125,-1.039821917784959,0.6192500887185335,2.6720091322332618
1790587952093132300,6.13313232421875,-1.2791139273762702,0.2241910327017307,3.611999825826287
1790587952103212300,6.14321240234375,-1.6518027461528777,-0.3388467549294233,4.645301548062265
1790587952113292300,6.153292236328125,-1.5382833344787359,0.20535539932847022,5.930285536515712
1790587952123372300,6.163372314453125,-1.1919519228823483,0.43775896458029745,6.710008511263132
1790587952133452300,6.173452392578125,-1.9401900644332168,-0.02854863361418247,6.322391003423929
1790587952143532300,6.1835322265625,-2.752870136886835,0.4154302283942699,4.408654646152257
1790587952153612000,6.193612060546875,-2.199756946420669,0.8650824598640203,2.7119173642516134
1790587952163692300,6.2036923828125,-2.43459796795249,-0.39985330455601215,4.33933824108094
1790587952173772300,6.213772216796875,-2.8644460132777687,-1.426397661486268,4.891644499078392
1790587952183852300,6.223852294921875,-1.8892228243924676,-1.2159773799836635,4.477619753567875
1790587952193932300,6.233932373046875,-2.0673009252168235,-0.3396224154770374,4.3788715023070575
1790587952204012000,6.244011962890625,-2.1580549628533423,0.7937158442646265,3.3023619219854474
1790587952214092300,6.25409228515625,-1.0462995893664657,1.0304390262812375,1.7208403342828154
1790587952224172300,6.26417236328125,-0.695144557005912,0.45763680048286914,2.273365495727956
1790587952234252300,6.274252197265625,-1.736484770399332,-0.39769291165173054,2.638270528760552
1790587952244332300,6.284332275390625,-2.4070804309517144,-1.6547832232683897,4.053924093392491
1790587952254412300,6.294412353515625,-1.8987357720166445,-0.63067047739923,5.703783304262161
1790587952264492300,6.3044921875,-0.431615128063038,-0.3424462407261133,3.700533849325776
1790587952274572000,6.314572021484375,-0.4014677540153265,-1.048047748208046,1.976704123968631
1790587952284652300,6.32465234375,-1.0793436347037553,0.17206921579837797,0.5558388891030103
1790587952294732300,6.334732177734375,-0.3406611108750105,-0.06705635118484497,-1.5836720437347889
1790587952304812300,6.344812255859375,-0.6740642134457826,-0.18472469923198223,-1.8984478949859738
1790587952314892300,6.354892333984375,-0.891520238804072,-0.37177170393168923,0.7931332220710814
1790587952324972000,6.364971923828125,-1.0294862556010485,-0.9046978464156389,3.1042049097284674
1790587952335052300,6.37505224609375,-0.4383861565679312,0.10870879652202128,2.873018903572857
1790587952345132300,6.38513232421875,0.544423103532195,0.29141806427836414,0.8598219089873135
1790587952355212300,6.39521240234375,-0.8270072884917259,-0.5149474182009697,-1.3248100951462984
1790587952365292300,6.405292236328125,-0.8937227172844111,-0.5029840086847543,-2.4241166136875747
1790587952375372300,6.415372314453125,0.23547815039157866,-0.4829524435251951,-3.7926995073258873
1790587952385452300,6.425452392578125,0.18095453304350376,0.5697498524904251,-5.2143619569838044
1790587952395532000,6.435531982421875,-1.1916862576834857,1.0458142900675536,-3.5444992380052804
1790587952405612300,6.4456123046875,-1.6191344022601841,-1.2504787845224141,0.2531735276885331
1790587952415692300,6.4556923828125,-2.3263550353765488,-0.9599982933551072,0.026025599676277485
1790587952425772300,6.465772216796875,-0.9788308579884469,0.004145429241657257,-4.417015355001389
1790587952435852300,6.475852294921875,0.5794142643492669,0.9166858058512211,-5.079355520644784
1790587952445932000,6.48593212890625,-0.20647300518155096,1.2560288198649883,-3.648331660662591
1790587952456012300,6.49601220703125,-0.9264538242150098,1.2293132468968628,-2.2567232807457445
1790587952466092300,6.50609228515625,-1.6969266669929026,-0.9120131378650664,-2.155317354582995
1790587952476172300,6.51617236328125,-1.5179904880344868,-0.5347241318166256,-2.0850649838358164
1790587952486252300,6.526252197265625,-0.04522562764883041,-0.11653262201547622,-2.565720548595488
1790587952496332300,6.536332275390625,-0.07643390892632305,0.8789882356196641,-1.8335180344358086
1790587952506412300,6.546412353515625,-1.3274521340876817,0.2269230880141258,-0.14595851338822394
1790587952516492000,6.556491943359375,-0.8248449958913028,-0.16805296589434146,-1.6781996085606514
1790587952526572300,6.566572265625,-0.3335631154380739,-0.7253413962185382,-2.543396780845523
1790587952536652300,6.57665234375,-0.9880512524068354,0.7528682855695485,-2.792118735952675
1790587952546732300,6.586732177734375,-0.45052200004160403,1.1257155097782612,-4.451062878292799
1790587952556812300,6.596812255859375,0.1096883821438998,0.83237086135149,-4.425817377877235
1790587952566892000,6.60689208984375,-0.8822651383984833,-0.1566881067931652,-3.3355291553109883
1790587952576972300,6.61697216796875,-0.653925096258521,-0.9897574718028307,-2.4321447295814753
1790587952587052300,6.62705224609375,-1.4015548966526985,-1.7213970913827419,-1.4103214098237453
1790587952597132300,6.63713232421875,-1.1970098638590425,-0.27422610645890233,-0.9966188089396804
1790587952607212300,6.64721240234375,1.364385734209418,1.0438888749629258,-2.6393928107887503
1790587952617292300,6.657292236328125,0.7247279404953122,1.5850936009705066,-4.1554242737099525
1790587952627372300,6.667372314453125,-1.5141764827042816,-0.4531137701004743,-3.432619994753599
1790587952637452000,6.6774521484375,-3.038592035350203,-1.4727052391529083,-2.447085401342809
1790587952647532300,6.6875322265625,-0.8428128334540873,0.21373568966090678,-1.981496180550754
1790587952657612300,6.6976123046875,1.9110884731113909,0.6766857941210269,-0.7329568396583199
1790587952667692300,6.7076923828125,1.856924921247363,0.06268237388432026,-0.04978741913903504
1790587952677772300,6.717772216796875,0.5399935966521501,-0.4280664226055145,-1.1971790098808706
1790587952687852000,6.72785205078125,0.1496720174860209,0.44000119054913517,-3.0661288615733384
1790587952697932300,6.737932373046875,0.9878655205763875,0.4868009356468916,-2.2715298047333956
1790587952708012300,6.74801220703125,-0.908286664687842,-0.04825520460307598,-1.553678472009301
1790587952718092300,6.75809228515625,-0.33879297891557214,0.21583938394188878,-2.7062799428865314
1790587952728172300,6.76817236328125,2.691369374002516,-0.566450810945034,-0.9038802464224398
1790587952738252300,6.778252197265625,1.6245340693466364,-0.7603150944441557,-0.13728709462210537
1790587952748332300,6.788332275390625,0.5786543128274381,-0.4620540324032306,-0.548704653308913
1790587952758412000,6.798412109375,-0.9281903656840323,-0.5513783294975757,-0.5087888955712319
1790587952768492300,6.8084921875,-0.1028990873299539,1.1474275753706693,-0.4972002376515418
1790587952778572300,6.818572265625,2.7355875781744716,0.7880635175913572,-0.8289875025235116
1790587952788652300,6.82865234375,2.4660996061533687,0.9673556703805923,-1.734133238837123
1790587952798732300,6.838732177734375,0.16219649495109914,-0.009275777867436408,-2.500942955997586
1790587952808812000,6.84881201171875,-2.357195725450665,-0.5177782577127218,-1.7991973932914436
1790587952818892300,6.858892333984375,-2.1711313020475207,-0.9733891053259373,-0.9583847937438636
1790587952828972300,6.86897216796875,-0.15304770446419716,-0.9821920049846172,-0.7436711989615112
1790587952839052300,6.87905224609375,2.5293425365298985,0.26671500017642974,-1.3525525269441305
1790587952849132300,6.88913232421875,2.086239434442669,1.010092988345027,-1.0168191547948866
1790587952859212300,6.89921240234375,-2.208970180445909,-0.07557341963946819,-0.3760061996962875
1790587952869292300,6.909292236328125,-3.929733650100231,-0.2112292597979307,0.09580532967671751
1790587952879372300,6.919372314453125,-0.7470850259929895,0.6763087775021791,-0.2124341786082834
1790587952889452300,6.929452392578125,2.769535440483689,-0.5190455011695623,-1.1084960063647478
1790587952899532300,6.9395322265625,1.4000525292657315,-0.24678923347890375,-1.0763281593400984
1790587952909611800,6.94961181640625,-1.126801259188354,-0.33028409376740453,-0.25043869589716194
1790587952919691800,6.95969189453125,-1.1505671885706483,-0.3127145348072052,0.935402050628513
1790587952929771800,6.969771728515625,0.5105230258874595,0.006101824006438255,0.7679333143629133
1790587952939851800,6.979851806640625,1.6317575908593833,0.2812958987146616,-0.2549938749834895
1790587952949931500,6.989931640625,0.35221988511309027,1.0479098010420798,-0.3164484606385231
1790587952960011800,7.00001171875,-0.5659172885902226,1.3142851940006017,-0.07137699086293578
1790587952970091500,7.010091552734375,-0.654948155695945,0.22158348055183885,-0.08978723843097686
1790587952980171800,7.020171875,0.37992037746533747,-0.6062766253769397,0.10252879271283745
1790587952990251800,7.030251708984375,1.7766857017539441,-1.644411466857791,-0.9001635639868676
1790587953000331500,7.04033154296875,1.6097826365470884,-0.5813029276400804,-1.6440724441617727
1790587953010411800,7.050411865234375,1.239126054250449,1.6246616412490604,-1.3586686717368661
1790587953020491500,7.060491455078125,0.05293941689655184,1.7762158922851086,-0.3545204171404242
1790587953030571800,7.07057177734375,-0.9503256251245736,0.6056722297430038,-0.6712798434242606
1790587953040651800,7.08065185546875,-0.015046031831949948,-0.18275544498562812,-0.9435203290238976
1790587953050731800,7.090731689453125,0.7768845364511012,-1.4688783743411302,-0.8132838835656643
1790587953060811800,7.100811767578125,-0.01774491552710533,0.10572188966572284,-0.5183021354563534
1790587953070891500,7.1108916015625,0.46952203019633887,0.07956044344902038,0.18572130905389786
1790587953080970800,7.120970703125,-0.9853449160575866,0.3847305542260408,0.2886046142928302
1790587953091050800,7.13105078125,1.2342150474637745,1.1429127282947302,-0.01784691459685564
1790587953101130800,7.141130859375,2.3079946182996034,0.8097299904763698,0.2171409680597484
1790587953111210500,7.15121044921875,-0.7726702797569334,0.27860183732509614,0.5669442935504019
1790587953121290800,7.161290771484375,-1.4729859557904301,-0.11298398962318897,0.8245989121757448
1790587953131370800,7.171370849609375,0.39412893555983897,0.011759995898604393,0.6816081990845501
1790587953141450800,7.18145068359375,0.9130683460064232,0.14967852029204368,1.126869502118975
1790587953151530800,7.19153076171875,-0.6157137312859297,0.021226912423968312,0.40591903433576226
1790587953161610500,7.201610595703125,0.5211335594899952,0.9099702338606118,0.8415383565388619
1790587953171690800,7.211690673828125,0.5156346698127686,-1.3312363288015125,1.1657935454055666
1790587953181770800,7.221770751953125,-1.0688783547908067,-0.18388415675461292,0.04409487005323171
1790587953191850800,7.231850830078125,1.7955507073521613,0.6111468617618083,0.868783067947626
1790587953201930800,7.2419306640625,0.6885042422086,-0.3447422427088022,1.7258572856619954
1790587953212010500,7.252010498046875,-1.5327439666606486,0.6568728401482105,0.7313564187243581
1790587953222090800,7.2620908203125,1.7923771918825804,1.0971598619014025,1.4349068388953805
1790587953232170500,7.27217041015625,1.7182761828832327,1.055205218747258,1.5690261171363293
1790587953242250800,7.282250732421875,-0.9320254138022661,-0.29790742629766465,1.190045358608663
1790587953252330800,7.292330810546875,-1.5794887667007744,-1.2444880196750163,1.1855540385387837
1790587953262410800,7.30241064453125,-1.9968140150614082,-2.371655481827259,0.18770400730371475
1790587953272490800,7.31249072265625,0.2425910511367023,0.014903554621338843,0.3011193740814924
1790587953282570500,7.322570556640625,2.1490853283256293,0.663099167317152,0.5700444515228271
1790587953292650800,7.332650634765625,1.4768740492701529,-1.2281447876393794,0.7834728288002312
1790587953302730800,7.342730712890625,-0.48164369901418685,0.24705402189493178,-0.10983071322403848
1790587953312810800,7.352810791015625,-1.1038210733562708,2.6847318356841803,-1.5695003105193375
1790587953322890800,7.362890869140625,1.1247386275701223,1.5903490372806786,1.3945933870770035
1790587953332970500,7.372970458984375,-1.7895104042746126,-1.5042308427512645,2.771087053839862
1790587953343050800,7.38305078125,0.6241076117523014,-1.1590291658371685,-0.5853077793672681
1790587953353130800,7.393130859375,5.406701807394623,-2.2360943342149255,-3.6480700871169565
1790587953363210800,7.403210693359375,3.1454508200913667,-1.1443430533587933,-2.9740684175133705
1790587953373290800,7.413290771484375,-2.9599066211700436,-0.4123468754261732,0.37343992940485476
1790587953383370800,7.423370849609375,-4.850406479761004,1.4931243423253298,1.8032047292366622
1790587953393450800,7.43345068359375,0.28625556694865223,2.5527485465586186,-0.4236632192105055
1790587953403530500,7.443530517578125,6.984955917733907,1.1127005453824996,-2.052731863246858
1790587953413610800,7.45361083984375,7.618965768688916,-1.6796195583611726,-1.4281499119810759
1790587953423690800,7.463690673828125,1.731027674037218,-2.6884412115961314,-1.023583315167576
1790587953433770800,7.473770751953125,-2.9279519785046575,-0.8506739952832459,-1.738942977206409
1790587953443850800,7.483850830078125,-2.081857858357578,0.3779167825579643,-2.0770731082990763
1790587953453930500,7.493930419921875,2.58915081628263,1.612359209036827,-1.5474316865742206
1790587953464010800,7.5040107421875,4.025669474288821,0.7868792762428521,0.012748422414064407
1790587953474090800,7.5140908203125,0.5582482152670621,-0.4793962123483419,0.7430984405748545
1790587953484170800,7.524170654296875,-0.12065233229398727,0.4717635255128145,0.3401352603700012
1790587953494250800,7.534250732421875,1.2595780367791651,-1.2325117506772278,0.5339176377393305
1790587953504330800,7.544330810546875,-1.1503491619057953,-1.7889391802579164,0.6893509952310473
1790587953514410800,7.55441064453125,-0.5864791612342,0.43248248548209667,-0.4867659373987466
1790587953524490500,7.564490478515625,2.113321210374683,0.5608914232522249,0.0573305645275861
1790587953534570800,7.57457080078125,0.2395014145582914,0.33823476051092144,0.6346555284474045
1790587953544650800,7.584650634765625,-0.3285853270255029,-0.39652445239424705,-0.13897468238286673
1790587953554730800,7.594730712890625,0.7619155153781175,-0.5739525648772716,0.5172516034901142
1790587953564810800,7.604810791015625,0.7103394957892596,0.6952870342165232,0.41820254265181717
1790587953574890500,7.614890380859375,-0.07872925332188606,0.6198755271404981,1.0985932557053864
1790587953584970800,7.624970703125,-0.8437894964665174,-0.546897969213128,1.8399881072327493
1790587953595050800,7.63505078125,-1.104763468772918,-0.8000076378852129,1.4822864297077059
1790587953605130800,7.645130859375,-0.6039825230903924,-0.03865443256497383,1.3342168059170245
1790587953615210800,7.655210693359375,0.8804401879936457,0.863038971337676,1.5107166976392268
1790587953625290800,7.665290771484375,0.29698899627849457,0.8355892388761043,1.47167648062706
1790587953635370800,7.675370849609375,-2.529680974704027,-1.214376374527812,1.9381898305267093
1790587953645450500,7.685450439453125,-2.1716291685670615,0.2628197463035583,2.2319933286368845
1790587953655530800,7.69553076171875,1.1478601215690374,-0.8491349491477013,2.6633818814024326
1790587953665610800,7.70561083984375,1.0049866051167249,-0.6989134080201387,1.8321973072260618
1790587953675690800,7.715690673828125,0.7442781518787145,0.33448739067614075,-0.6439193236161023
1790587953685770800,7.725770751953125,-0.030875030735135076,0.5176993472576141,-1.0354549547471106
1790587953695850500,7.7358505859375,-0.18891060661450026,0.8634235867410898,1.7803455394357441
1790587953705930800,7.7459306640625,0.4565523662470281,0.027764789760112762,3.2301427812099455
1790587953716010800,7.7560107421875,-1.0401726309187709,-1.443892986166477,2.5349320271000266
1790587953726090800,7.7660908203125,-0.5450112786836921,-0.07371814716160296,2.6356027708560226
1790587953736170800,7.776170654296875,2.3914234276145696,-0.6955804642051457,2.736097573523223
1790587953746250800,7.786250732421875,-0.24194135505631564,-1.1708037747830151,2.344957444515824
1790587953756330800,7.796330810546875,-2.2815467563569545,0.40356911020874975,1.4809481668412685
1790587953766410500,7.806410400390625,0.40266251675784587,0.3021218291223049,1.1566423437658697
1790587953776490800,7.81649072265625,1.7275382244862616,0.9529986437261104,0.5453283087436109
1790587953786570800,7.82657080078125,1.3112982871443033,-0.13508476227223873,0.4156051831023767
1790587953796650800,7.836650634765625,-0.9215754045236855,-0.7734200752109289,1.7278094426430761
1790587953806730800,7.846730712890625,-0.46472003674209117,-0.1419394504725933,1.8620079236000775
1790587953816810500,7.856810546875,0.8690649536289274,-0.6360358038246631,1.9840745066061616
1790587953826890800,7.866890869140625,-0.200467627286911,0.6238689806908368,1.7888178919658064
1790587953836970800,7.876970703125,0.0723620563775301,0.22002339162826537,1.1611050953283906
1790587953847050800,7.88705078125,-1.3951485367417336,-0.73617375587821,1.8598337944313883
1790587953857130800,7.897130859375,-1.2035307169951497,0.05804536173343658,0.593664615758881
1790587953867210800,7.907210693359375,0.8502429834548384,-0.37358489083349705,0.7152072479560971
1790587953877290800,7.917290771484375,-0.9196008165150881,-1.163923952141404,1.3444954772166906
1790587953887370500,7.92737060546875,-1.151126429888606,0.2411667174220085,-0.3660529974913224
1790587953897450800,7.93745068359375,0.6773422122031449,-0.23977497080266474,0.3097934597287327
1790587953907531000,7.947531005859375,-1.188012683737278,-0.19665303743481635,1.4806592668972909
1790587953917611000,7.957611083984375,-1.0868238343913108,0.668313687095046,0.11867571672508492
1790587953927691300,7.967691162109375,0.9761964908968657,0.8409060499846934,0.7556601082451642
1790587953937771000,7.97777099609375,0.3714280050605535,0.8806196362137794,-0.15762741520358248
1790587953947851300,7.987851318359375,-0.5258310696564614,-0.38501287829875946,-0.5310041249128058
1790587953957931000,7.997930908203125,-0.9766996911786496,-1.2755863377720116,0.6995644192747771
1790587953968011300,8.00801123046875,-1.3764825608469544,-1.3566846583127974,0.00020648235753178596
1790587953978091000,8.018091064453126,0.19798165569007395,0.4723614914059639,-0.04031980849392712
1790587953988170200,8.028170166015625,2.5968559838324783,1.4281909746438264,0.10907832395415752
1790587953998250000,8.03825,1.0494424174368382,0.3956704659134149,-0.7454489492237567
1790587954008330000,8.048330078125,-1.3122633327841757,0.277669524911046,-0.16273041916470973
1790587954018410200,8.05841015625,-1.1866544009961186,-1.7116957815796137,0.43315676801446823
1790587954028490000,8.068489990234376,-1.9134154547542332,-0.6155635091602802,0.29186807306818663
1790587954038570200,8.0785703125,-0.15447357254885136,0.48194414326548574,0.050663434788584705
1790587954048650000,8.08864990234375,-0.18961247127354144,-0.9366407986432314,0.8331583584673702
1790587954058730200,8.098730224609374,-1.932173931238055,-0.8161112159460783,-0.0330935470348224
1790587954068810200,8.108810302734375,0.2741167278002947,0.8584843767732381,0.22319807614162562
1790587954078890000,8.118889892578125,2.0286013383358714,1.7045581847846507,0.8648476281948387
1790587954088970200,8.12897021484375,-0.5514661539115011,-0.4033002301394939,1.106147032085806
1790587954099050000,8.139050048828125,-1.7326485532373188,-0.21920389193892478,0.6096593266177922
1790587954109130200,8.149130126953125,0.6890343304973096,0.09729776019155978,0.5122023572765291
1790587954119210000,8.1592099609375,0.3607498861145228,1.153088669872284,1.2918855845354498
1790587954129290000,8.1692900390625,-0.7622091645624488,-0.21257482918798923,0.5569828715063632
1790587954139370200,8.179370361328125,-2.273371633207798,-1.2331354355335236,0.6740992847591638
1790587954149450000,8.189449951171875,-0.7743658316284417,0.6825526403278112,0.22441804639063775
1790587954159530200,8.1995302734375,2.7026298959463833,0.8969260433703661,0.5505403443034738
1790587954169610000,8.20960986328125,0.5040525146991014,-0.43556466940641403,0.6550310847390443
1790587954179690200,8.219690185546876,-2.0630093655027446,-0.5297060113936662,-0.10721161676682531
1790587954189770200,8.229770263671876,0.9747047179691493,0.7055161672860384,0.07637531060688198
1790587954199850000,8.23985009765625,1.5976652055129408,-0.20415712945461273,1.1654347950957715
1790587954209930200,8.24993017578125,0.08261150158271192,0.43142917703688144,0.5986226034924388
1790587954220010000,8.260010009765624,1.6258873836517334,0.9141787914663553,0.4230686143182218
1790587954230090200,8.27009033203125,1.7593014362327752,0.8748281933307647,0.9220995014630258
1790587954240170000,8.280169921875,-0.6408512412823736,-0.6446767909198999,0.4335226421847939
1790587954250250000,8.29025,-2.462123688259721,-1.2864017462968826,0.1677048100437969
1790587954260330200,8.300330322265625,-0.8188130222506821,-1.0166840571731328,0.34870866212174295
1790587954270410000,8.310409912109375,1.24800143462345,-0.5207721788316965,0.5490564624212682
1790587954280490200,8.320490234375,2.3175420527152717,1.256301791587472,-0.041973420919850464
1790587954290570000,8.330570068359375,0.4115823207944631,0.39422786588966846,0.28332565097659823
1790587954300650200,8.340650146484375,-2.4441719981141388,0.22768530455827712,0.09717179572433232
1790587954310730200,8.350730224609375,-0.702756639444828,0.5158703782647848,-0.09743768011890351
1790587954320810000,8.36081005859375,2.0415122578352687,-0.1270247899353504,-0.04773498012125492
1790587954330890200,8.37089013671875,0.6267829684413969,-0.9684761988431214,0.14631766555681824
1790587954340970000,8.380969970703125,-2.3303717236720023,-0.29513094732165335,-0.1352683752108365
1790587954351050200,8.39105029296875,-1.0808170682571827,0.7487205182403326,0.828355122904107
1790587954361130000,8.4011298828125,-0.19607772176489233,0.6065735624969005,1.0974061648126692
1790587954371210000,8.4112099609375,-0.4614794473856687,0.09474632214307785,-0.23765600588731467
1790587954381290200,8.421290283203126,0.9389828317247331,0.5553858115732669,0.08156703403107822
1790587954391370000,8.431369873046876,0.16684928919300435,0.7944979345530271,-0.07439436592273414
1790587954401450200,8.4414501953125,-1.0486768398918211,0.22034312510192394,0.4259485536687076
1790587954411530000,8.451530029296874,-2.438739890062809,-0.8509194944769144,1.0824402855448425
1790587954421610200,8.4616103515625,-1.0670740818478166,-0.1613017380684614,0.017601415403187274
1790587954431690200,8.471690185546874,0.9522294129192829,-0.010496844094991683,0.2596944538898766
1790587954441770000,8.48177001953125,0.00811827839538455,0.9821090028762817,-0.14896993363127112
1790587954451850200,8.491850341796875,-0.16201602381765842,0.5604997935861349,-0.10775726795084774
1790587954461930000,8.501929931640625,-1.1160995401710272,-0.23534546392261982,0.5778299177672713
1790587954472010200,8.51201025390625,-0.39377559207752344,0.06955225965380668,0.03674414196424186
1790587954482090200,8.52209033203125,1.6981462719157336,-0.09075696024596691,0.03913564021065831
1790587954492170000,8.532169921875,0.6480833844929933,0.2957259906053543,-0.2793416228417307
1790587954502250200,8.542250244140625,-0.16226137688085435,0.7135691253602504,-0.6854388632886111
1790587954512330000,8.552330078125,-0.012862258052080869,-0.03982172277867794,0.4151099103987217
1790587954522410200,8.56241015625,-1.0408378168292343,-0.33674189160466195,0.3149877404361963
1790587954532490000,8.572489990234375,0.6614231969289481,0.11166998441517352,0.4287799777023494
1790587954542570200,8.5825703125,1.69744002334252,0.14293079959750174,0.6528592936579137
1790587954552650200,8.592650146484376,-0.7875427085876464,-1.0907055711954832,0.3280495396483689
1790587954562730000,8.60272998046875,-1.345843092433363,0.24912556747198103,0.4276100571401417
1790587954572809200,8.612809326171876,1.3408055366575717,0.4470984553337097,0.6757046010639518
1790587954582889000,8.622888916015626,1.5075800070486962,0.17918226267397402,0.43519978161677714
1790587954592969200,8.63296923828125,0.0548638090878725,0.18439795149564742,-0.46126551237404345
1790587954603049000,8.643049072265624,0.9705132576286792,0.6335498322278261,-0.2287058797776699
1790587954613129200,8.653129150390624,0.24685236184298992,0.35860008766949175,0.7434600404288619
1790587954623209000,8.663208984375,-0.9046592679709196,0.06859422827661037,0.9051762775823473
1790587954633289200,8.673289306640624,0.9378775008313357,0.18330723364949225,1.7577742266654968
1790587954643369200,8.683369140625,2.057903274535388,-0.12453589572906494,1.9970880096971988
1790587954653449000,8.693448974609375,0.014468524204939603,-0.561971035182476,1.5857449044860898
1790587954663529200,8.703529296875,-1.250498804397136,-0.7020984677970409,0.9243222190137952
1790587954673609000,8.71360888671875,-0.02864697942212224,0.26709786201417446,0.904332958626002
1790587954683689200,8.723689208984375,0.9925222603410482,0.3544301085084677,0.7203897651605308
1790587954693769200,8.733769287109375,0.17968159049823879,0.8213678213000297,0.7074829373143613
1790587954703849000,8.743848876953125,1.239988370168209,1.3111375436246395,0.7644152232393622
1790587954713929200,8.75392919921875,0.3074963617675006,0.3298410261750221,1.2137857151582836
1790587954724009000,8.764009033203125,-1.6861908995755015,-0.46590486261248587,1.1494559393931179
1790587954734089200,8.774089111328125,-0.7351027656458318,-0.9683598789870739,0.9911795404952018
1790587954744169000,8.7841689453125,1.4085181597940624,0.011133388432860374,0.8228316833075136
1790587954754249200,8.794249267578126,1.5094785341463983,0.5376461567431688,0.010182444383576511
1790587954764329200,8.8043291015625,-1.486166339880973,0.28878362412154673,0.017251944378390907
1790587954774409000,8.814408935546876,-0.9602437925487756,1.001498763000965,-0.11114691038914024
1790587954784489200,8.8244892578125,1.1519940065033734,-0.2973082913607359,-0.10020195720046758
1790587954794569000,8.83456884765625,0.5740196387641131,-0.150802555885911,0.04460997996851802
1790587954804649200,8.844649169921874,0.292101808758825,-0.19502455945014951,0.324458383288607
1790587954814729200,8.854729248046874,-0.8572060274004936,0.014468670335412024,0.694280560587719
1790587954824809000,8.86480908203125,-0.8830537314929068,0.11472820294201373,1.0619109269309788
1790587954834889200,8.87488916015625,0.12531915506124497,-0.7326385674893856,0.5675601604264229
1790587954844969000,8.884968994140625,1.104947885429114,0.3704407475888729,-0.29801702415198084
1790587954855049200,8.89504931640625,1.358313720819354,0.855916572111845,-0.021781331436336038
1790587954865129200,8.905129150390625,-1.7830619587875902,-0.3968389251708984,0.17025705180987716
1790587954875209200,8.915209228515625,-2.4954613097161054,-0.4301186789602041,0.29772732049040496
1790587954885289200,8.925289306640625,1.015106870984286,0.5614397047847509,0.19583689874634144
1790587954895369000,8.935368896484375,2.3182839571237563,0.06755787096619606,0.6519139025665819
1790587954905449000,8.945448974609375,-0.43400823374465103,0.79766312058568,0.12486461622677743
1790587954915529000,8.955529052734375,-1.5585411096096038,0.06793430306315422,0.2037128197532147
1790587954925609000,8.96560888671875,-0.2588997963808477,0.5574047501802444,0.37997196152210233
1790587954935689000,8.97568896484375,0.31829920307174325,0.11240005225539207,-0.40682124387249347
1790587954945769000,8.98576904296875,1.2490205485381185,1.6437766760855912,-0.8319718520965427
1790587954955849000,8.995848876953126,0.33861002356410025,-0.8495429454267025,-0.13410086580142377
1790587954965929000,9.005928955078126,-2.616135269320011,-0.4064244996398687,-0.40606406882964075
1790587954976009000,9.016009033203124,-1.6457932766050098,-1.3289029174178837,-0.8408166181355714
1790587954986089000,9.0260888671875,0.02902165795341134,0.42250937300026414,-0.7331560885574668
1790587954996169000,9.0361689453125,0.4964724348336458,-0.4625877008885145,0.01267776833064854
1790587955006249000,9.0462490234375,-2.0081972866021096,-0.4824813188821077,0.042584684685990214
1790587955016329000,9.056328857421875,-0.8683493527054786,0.42653614429831505,-1.1346283726174384
1790587955026409000,9.066408935546875,0.5551461575984955,0.8960568593204021,-0.33817638138718903
1790587955036489000,9.076489013671875,-0.08895999382659793,1.6271324152767657,-0.9798756178010255
1790587955046569000,9.08656884765625,-0.22624270453453063,0.6817647048205137,-1.0113935495495796
1790587955056648000,9.09664794921875,0.40650501753017304,0.8086363500207662,-1.0019709836225956
1790587955066728000,9.10672802734375,0.19422610254883765,-1.0506278278291226,-1.0641078524533658
1790587955076808000,9.116807861328125,-2.751494172358513,-1.7868869239032268,-0.5957908871978521
1790587955086888000,9.126887939453125,-2.055060160063952,-0.3883306245446205,-0.7685838872261345
1790587955096968000,9.136968017578125,1.1787993035815656,0.9386381099402904,-0.6224284995589405
1790587955107048000,9.1470478515625,1.616937768998742,1.3956062173813581,-0.5444607321288436
1790587955117128000,9.1571279296875,-0.934643048954755,-0.28502222576141356,-1.153516028438881
1790587955127208000,9.1672080078125,-1.303552349192649,0.7495902868121862,-1.3431217046454549
1790587955137288000,9.177287841796876,0.6344581792443991,-0.1666916144132614,0.12701762954220175
1790587955147368000,9.187367919921876,0.5087520706921815,0.16049802047014236,0.14437697981782258
1790587955157448000,9.197447998046876,-0.30232129721716045,-0.9858423441857099,-0.6048001230835914
1790587955167528000,9.20752783203125,-1.600603450921923,-1.1436761138826608,0.07272986677661537
1790587955177608000,9.21760791015625,-1.8638117581516502,-1.0199743308901785,-0.15565752163641153
1790587955187688000,9.22768798828125,-2.178672072815895,-0.89119305267632,0.26794015805721283
1790587955197768000,9.237767822265624,-0.06425546841993927,1.1843185053944587,-0.1229256109882146
1790587955207848000,9.247847900390624,2.62687936617434,1.2676830173015594,-0.4428929664678871
1790587955217928000,9.257927978515625,-0.5858097375400364,-0.8474281452298164,-0.12035400693453847
1790587955228008000,9.268008056640625,-2.10420734507069,0.6002975509673356,0.4605146209415048
1790587955238088000,9.278087890625,1.7244518027782438,0.20760814669132233,0.8453792498759924
1790587955248168000,9.28816796875,1.5865115049444138,-1.0113409425795077,1.842044162979722
1790587955258248000,9.298248046875,-0.19016674415543675,-0.9873042334318161,0.6119012603256851
1790587955268328000,9.308327880859375,-0.28484862276017664,0.8186164767652749,0.5554172661574557
1790587955278408000,9.318407958984375,0.2454131228201091,1.3107979364067315,1.099208026602864
1790587955288488000,9.328488037109375,0.26315818447768685,0.8420300855785607,0.5685366042431443
1790587955298568000,9.33856787109375,0.03350822878293693,0.5238227985739707,0.33895511067472395
1790587955308648000,9.34864794921875,0.4203711188625544,-0.7912281191021203,1.1014094821698963
1790587955318728000,9.35872802734375,-1.8294634983479976,-1.706109505879879,1.2403601260900496
1790587955328808000,9.368807861328126,-1.970267953441292,-0.060602060478925704,0.9611945174023508
1790587955338888000,9.378887939453126,1.168843142234534,0.34740766252577304,1.4151185809724032
1790587955348968000,9.388968017578126,1.6883510002188384,0.8467764033228159,0.8742837111905216
1790587955359048000,9.3990478515625,0.3772738084793091,0.14488836340606212,0.4297339174263179
1790587955369128000,9.4091279296875,-1.2079899614263325,0.6404547893106937,1.0059817536339164
1790587955379208000,9.4192080078125,-1.6131021363586187,-0.8859510603696107,0.17314922958742826
1790587955389288000,9.429287841796874,-1.4529565825879573,-1.438258779671788,0.49299515064451843
1790587955399368000,9.439367919921875,0.8323981146845966,-0.11629472160637377,-0.12780256937481463
1790587955409448000,9.449447998046875,0.7974502084873616,-0.09622691608965396,-0.27430377480499446
1790587955419528000,9.45952783203125,-2.9222265865951775,0.5816928037405014,0.3530655421569943
1790587955429607000,9.46960693359375,-1.081734183102101,1.6673516129404304,-0.5349284587496891
1790587955439687000,9.47968701171875,2.583653972432017,0.42382162464261053,-0.654548561919108
1790587955449767000,9.489766845703125,1.6493547684788703,-0.004579729005694389,-1.1643003842383624
1790587955459847000,9.499846923828125,-0.6684867055743933,-0.5896212586522102,-1.4717258727267384
1790587955469927000,9.509927001953125,-2.526239894339442,-0.36130233236551285,-0.491631607206352
1790587955480007000,9.5200068359375,-1.8311831617474554,-0.07159282557070255,-1.1638532980579883
1790587955490087000,9.5300869140625,1.009670963540673,0.6772066031247377,-2.22295662022233
1790587955500167000,9.5401669921875,1.0570010161228478,0.10576689785122871,-2.262175993193686
1790587955510247000,9.550246826171875,-1.4982449002094567,0.761233962854743,-1.906167529452592
1790587955520327000,9.560326904296875,-2.013160461967438,-0.6985948435902595,-1.7776885951861738
1790587955530407000,9.570406982421876,-0.612046440950036,0.30089959385097026,-2.1575762394256888
1790587955540487200,9.580487060546876,2.887825719821453,0.17117665087282657,-2.7207766702726484
1790587955550567000,9.59056689453125,1.3063818735301493,-0.6576520078271627,-2.5138249416634437
1790587955560647000,9.60064697265625,-1.7681009748905896,0.2867535795986652,-2.577499541455507
1790587955570727000,9.610726806640624,-1.281982760810852,-0.7877718411684036,-2.2657531210280952
1790587955580807000,9.620806884765624,-0.33012627285718915,-0.31841596131920813,-2.092525528974831
1790587955590887000,9.630886962890624,1.2820024884246288,0.2935860559672117,-2.6800989151865244
1790587955600967000,9.640966796875,-0.32001119462139904,-0.8023176683932542,-1.9022920031934976
1790587955611047000,9.651046875,-2.9210201334148644,-0.7290466804772615,-2.297838550466299
1790587955621127000,9.661126953125,-0.15907470966875553,1.2478186254024506,-3.2796547078758476
1790587955631207000,9.67120703125,2.846140541258454,0.3907832783937454,-2.966129733468592
1790587955641287000,9.681286865234375,-0.01889532767124474,-1.4124316799759864,-2.691861833694577
1790587955651367000,9.691366943359375,-0.9683500151801854,0.7014040557920932,-3.3528120062842963
1790587955661447200,9.701447265625,1.5447485849700868,-0.13766484189331532,-2.8943405085429545
1790587955671527000,9.71152685546875,-0.7451227860093116,-1.0568062242031098,-2.8615146360009907
1790587955681607000,9.72160693359375,-0.005961538752913474,-0.19292437230050563,-4.210943916358054
1790587955691687000,9.73168701171875,1.828567426291108,0.3639537236571312,-2.9510598823696372
1790587955701767000,9.741766845703125,-0.023362170886993407,0.08646832314133644,-2.6245865790620444
1790587955711847200,9.75184716796875,-1.405589851257205,-0.6881482683777809,-2.6355919572010635
1790587955721927000,9.761927001953126,1.2039398823179304,0.8442682198941707,-3.2369507076591253
1790587955732007000,9.7720068359375,2.720903803783655,-1.09304248971045,-2.274739998951554
1790587955742087000,9.7820869140625,-1.123749762663245,-0.5383545972734689,-2.0260688972488046
1790587955752167000,9.7921669921875,0.2439852819740772,0.7153747134774923,-1.7960069266870617
1790587955762247000,9.802246826171874,1.8888322176396846,-0.05542378105819225,-0.4815861236080527
1790587955772327000,9.812326904296874,0.2805383583456278,-0.37343934488296504,-0.7315260762028396
1790587955782407200,9.8224072265625,-0.30459976354315876,-1.0688169799923897,-0.47546128405220806
1790587955792486000,9.83248583984375,-0.34070728810429574,0.007817980274558068,0.1663283340588212
1790587955802566100,9.842566162109375,0.016677432426065206,-0.2580804428219795,0.301292173365131
1790587955812646000,9.85264599609375,0.8564647075138986,0.2735650122016668,0.5323005579315125
1790587955822726000,9.862725830078125,1.4276402088932691,-0.23958850831985473,0.5076961318984627
1790587955832806000,9.872805908203125,0.08143558967113494,0.25712942570745945,0.5591034438569098
1790587955842886000,9.882885986328125,-0.14581263864412902,0.18201193314194677,0.5069820653449744
1790587955852966000,9.8929658203125,0.10583470239043236,0.3211889331638813,0.5597414494995028
1790587955863046000,9.9030458984375,1.8124116796515881,1.0186714315980672,-0.27795542918033894
1790587955873126100,9.913126220703125,2.102545549338311,1.2125643566697835,0.6437571187917143
1790587955883206000,9.923205810546875,-1.1587674461610615,0.1808867285043001,1.0215417263373732
1790587955893286000,9.933285888671875,-1.3547073668904601,0.7638461911797523,0.5579200792912393
1790587955903366000,9.943365966796875,1.6712484742484985,-0.22488135305345058,0.8588754219174385
1790587955913445400,9.9534453125,0.9680547585606575,-0.9777496386229991,0.31105303133577106
1790587955923525400,9.963525390625,-0.904914850167185,-0.10289631085097789,-0.16942556942179798
1790587955933605400,9.97360546875,-1.0471125131845473,-0.6248030466705561,1.0034778079889715
1790587955943685600,9.983685546875,0.5425980800621211,0.08815466879308223,0.07694426960125565
1790587955953765400,9.993765380859376,1.373692491737008,-0.12020166591703892,-0.41521906986162066
1790587955963845400,10.003845458984374,0.36223639834523197,0.9524819263756275,-0.11276998154632746
1790587955973925400,10.01392529296875,-1.2377413218937814,-0.26156711589396,0.3488374030679464
1790587955984005400,10.02400537109375,-1.4510615626215935,0.922797566729784,0.9272049348432571
1790587955994085600,10.034085693359375,1.944826492062211,0.9629863692551851,0.20202552425339818
1790587956004165400,10.044165283203125,1.6862481827206908,0.2530968091905117,0.3720886609263718
1790587956014245600,10.05424560546875,-1.3029304179020225,0.2919260138005018,-0.714416682100296
1790587956024325400,10.064325439453125,-1.2846020033985375,-0.2544178286612034,-0.680157781080529
1790587956034405400,10.0744052734375,-0.4386667270749807,-0.6046773734867572,-0.062642772526294
1790587956044485400,10.0844853515625,1.943810008496046,1.326118255135417,-1.090620669391006
1790587956054565400,10.0945654296875,1.1322025337100028,-0.6816191588699817,-0.2443267888881266
1790587956064645600,10.104645751953125,-3.1380922740221022,-0.18223638954758642,0.43465887967310846
1790587956074725400,10.114725341796875,-0.9654173957943916,0.5055559049993753,-0.486312421477586
1790587956084805400,10.124805419921875,1.837360242947191,0.40247137809991834,0.5099870193146169
1790587956094885400,10.134885498046875,0.29355186143666506,-0.8915057718873024,0.31407727452777323
1790587956104965400,10.14496533203125,-1.6563782373748719,-0.8721130891531705,0.3137624364249408
1790587956115044400,10.15504443359375,-0.8482191494770348,-0.0751893887579441,0.027625819680839776
1790587956125124400,10.165124267578125,1.3047124790132045,1.4490128133982418,0.40082887158989905
1790587956135204600,10.17520458984375,1.9243207335196435,1.0299766694664954,-0.059551382382214066
1790587956145284400,10.185284423828126,-0.43704350978732104,-0.5520552058458328,0.7030254464488476
1790587956155364600,10.195364501953126,-0.7164180850505828,0.6025695875525474,0.8719046340342611
1790587956165444400,10.2054443359375,0.9926052624493836,-0.7736959695428609,0.8802923770207911
1790587956175524400,10.2155244140625,-0.54847968544662,-0.1967418847620487,1.3480892639249562
1790587956185604400,10.225604248046874,0.1687269196331501,0.6316331849515437,-0.16529183061793445
1790587956195684400,10.235684326171874,0.09543357375487685,-0.15663725338876247,1.1414409021764993
1790587956205764600,10.2457646484375,-2.4339393579132853,-1.5428174707770346,1.342075118201971
1790587956215844400,10.25584423828125,-1.1334728459067642,0.12540332621335984,1.5306278512895106
1790587956225924600,10.265924560546875,1.8978974214963613,-0.15081775345504284,1.8305011708326637
1790587956236004400,10.27600439453125,-0.4975960320360958,0.06835457430183887,1.6906033091902732
1790587956246084400,10.28608447265625,-2.117934403258562,0.7432248434334993,0.7792370178613811
1790587956256164600,10.29616455078125,0.8330937687985599,1.409288121253252,1.4831503530606627
1790587956266244400,10.306244384765625,1.221096476563066,-0.2422603578776121,1.1938779225088656
1790587956276324600,10.31632470703125,-1.2262398308008908,-0.32847616756260395,0.7137272385314106
1790587956286404400,10.326404296875,-1.772659222716838,-1.2313853769958019,0.9064932784650475
1790587956296484400,10.336484375,-2.2176737113833425,-0.8306658109992742,0.8310598518181592
1790587956306564400,10.346564453125,0.43529944259896874,1.7051807005971669,0.17431699472516773
1790587956316644400,10.356644287109376,2.468296239414811,0.42354163865745065,0.5033988730959594
1790587956326724600,10.366724609375,-1.2878146818347274,0.11032675311267376,0.6698616471894085
1790587956336804400,10.376804443359376,-1.2768582574039697,0.9464835627436637,-0.28454956674836573
1790587956346884600,10.386884521484374,1.6852613636404274,-0.06331891822218895,-0.07511566593460738
1790587956356964400,10.39696435546875,-1.0912732880808413,-1.8057921153813599,-0.0800608672518283
1790587956367044400,10.40704443359375,-2.252976641563326,-0.6458294680863619,-0.4963213359251618
1790587956377124600,10.41712451171875,-0.12866963453292846,0.7344388949096202,-0.023423180359229443
1790587956387203300,10.427203369140624,0.21416750520691274,0.8114578371822834,0.3455854155346751
1790587956397283600,10.43728369140625,0.26402137717828156,0.863988234886527,-0.775747349114716
1790587956407363300,10.44736328125,-0.7010178329534829,-0.6649930182397366,-0.7382040195968002
1790587956417443600,10.457443603515625,-1.9489939870052038,-0.8368892155587673,-0.0037801030606031414
1790587956427523300,10.4675234375,-0.06719079121947288,-0.9747083712309599,-0.6047086454078555
1790587956437603600,10.477603515625,0.5053191736340522,-1.0397001911014319,-0.9179303260196
1790587956447683300,10.487683349609375,0.4991694188326597,-0.18410393698513508,-0.5123346784193068
1790587956457763300,10.497763427734375,-0.18947218602001667,0.49260699157714843,-1.0395909585732965
1790587956467843600,10.507843505859375,-0.888238879045844,0.14096096082925796,-0.20357742987051605
1790587956477923300,10.51792333984375,0.32188758295252917,0.8167267174959182,-0.3380548008341342
1790587956488003600,10.528003662109375,1.8859559315510093,-0.05198562330305576,-0.6641417351726442
1790587956498083300,10.538083251953125,-0.6817401549011468,-0.5941314295530319,-0.3354288362447172
1790587956508163300,10.548163330078125,-1.4734231781639158,0.21867080797553062,-1.1072062588151543
1790587956518243600,10.55824365234375,1.4985041356675326,0.25121932488083837,-1.0649778402209282
1790587956528323300,10.5683232421875,1.0199024346977472,-0.8681488616973161,-1.2639350629448889
1790587956538403600,10.578403564453126,0.1437486918516457,0.9342547802895307,-1.8389187244355678
1790587956548483300,10.5884833984375,0.7062842290490865,-0.4074450748592615,-1.127941807525605
1790587956558563600,10.5985634765625,-1.31376613856256,-0.05352233135104179,-1.295705581215024
1790587956568643300,10.608643310546874,0.6903034005850553,0.6427671579062938,-1.8875607363991438
1790587956578723300,10.618723388671874,1.6228642364382744,0.05262684381604194,0.026269290505349634
1790587956588803600,10.628803466796874,-1.4176387470997869,0.13052899866402148,-0.11217895685061811
1790587956598883300,10.63888330078125,-1.8667782067418097,-0.23489070589244365,0.07464921746663748
1790587956608963600,10.648963623046875,1.0128536852300167,0.2858838110268116,-0.12392675085477531
1790587956619043300,10.659043212890625,2.570119368076324,-0.9099071054965258,-1.528327465392649
1790587956629123300,10.669123291015625,-1.0107944146126508,-0.06685059947967528,-1.3486354996308683
1790587956639203600,10.67920361328125,-0.9848701381526886,1.017961237502098,-0.38028935690820215
1790587956649283300,10.689283447265625,2.598955001938343,1.5812983003407717,-0.426842506833747
1790587956659363600,10.699363525390625,2.1539877134144305,0.6768886232167483,-0.5721084713805467
1790587956669442300,10.7094423828125,0.041695042369887234,-0.20692776321172712,-0.95571981231831
1790587956679522600,10.7195224609375,-2.0512632519990204,-1.4803805960863827,-0.8570208800919353
1790587956689602300,10.729602294921875,-2.8278742322057484,-0.736405226546526,-0.9874908420450985
1790587956699682600,10.7396826171875,1.5396066920369862,0.4061234708666801,-0.6392763931810855
1790587956709762300,10.74976220703125,1.6440864726871252,-0.7183411620676518,0.2185256273511797
1790587956719842600,10.759842529296876,-2.0272697974711655,0.2882195604979992,0.3141012764578685
1790587956729922600,10.769922607421876,1.2508749442331493,1.281065061444044,-0.03616626901105046
1790587956740002300,10.780002197265626,2.4909663363844157,-0.31390462137460706,-0.41253078062571585
1790587956750082600,10.79008251953125,0.11569763249605894,-0.040697921091318125,-0.6118993971621617
1790587956760162300,10.800162353515624,0.46494551606103773,-0.15767653330862522,-0.7599975529275834
1790587956770242600,10.81024267578125,-1.613638727453351,-1.5079220984846353,0.5029925938500092
1790587956780322600,10.820322509765624,-2.755931862545013,-0.09426116897463797,0.08420008594840765
1790587956790402300,10.83040234375,1.6074911646090446,2.0819348691165445,-0.7855106913033872
1790587956800482600,10.840482666015625,2.992652121952176,1.1527864720553158,0.17254012124575674
1790587956810562300,10.850562255859375,-1.4676228213220834,0.11288345185816287,0.005441496934182942
1790587956820642600,10.860642578125,-0.8649626328766346,0.1632768375337124,-0.47448323280029
1790587956830722300,10.870722412109375,1.1882833173722027,-2.5589678594648837,0.5026190843624994
1790587956840802300,10.88080224609375,-2.1917526497937736,-3.1909909205168483,0.013137933188304304
1790587956850882600,10.890882568359375,-1.4718853010721504,-0.36061785723268985,-0.11226838869974017
1790587956860962300,10.90096240234375,2.0399420859090984,2.081238119024038,1.1302800412148237
1790587956871042600,10.91104248046875,2.868666261321306,2.3731384138613936,1.4549354814454911
1790587956881122300,10.921122314453125,0.19981457020565865,-0.08689502412080764,1.6042613889075814
1790587956891202600,10.93120263671875,-1.6059166087687013,-0.22062135752141473,1.4202077208049595
1790587956901282600,10.941282470703126,-0.5032048118285835,-1.0780196926236152,2.0820893290258944
1790587956911362000,10.951362060546876,-0.42430794685482975,0.22741233283579348,1.9451380422294138
1790587956921442300,10.9614423828125,0.6117968501031399,0.26888416090905665,0.7924816993597894
1790587956931522000,10.97152197265625,-0.18870777751877904,0.4958925891190767,1.434092599903047
1790587956941602300,10.981602294921874,-0.9141543146122246,0.44020694225430484,0.5544380458617583
1790587956951682300,10.991682373046874,-0.42448681055307386,-0.420441334554553,1.652300174281001
1790587956961762300,11.00176220703125,-1.7247335423290728,-1.3144587970018387,2.082002965916693
1790587956971842300,11.01184228515625,-1.712325311654806,0.28719781623482704,1.8001421267956494
1790587956981922000,11.021922119140624,0.6123172207154334,0.7271633509486913,2.276485381314158
1790587956992002300,11.032002197265625,-0.49123336513638494,-0.24357903926074503,1.5688140818208456
1790587957002082300,11.042082275390625,-0.4411665810666978,0.49895314573347566,0.8588198923379182
1790587957012162300,11.052162353515625,0.7732213377684354,0.5535112498730421,2.011306066272408
1790587957022242300,11.0622421875,-1.3414292215138672,0.21383096672892568,1.9185555941216645
1790587957032322000,11.072322021484375,-0.6450685667164623,0.23525310946404931,1.974779293385893
1790587957042402300,11.08240234375,2.0139524891279637,0.12359832261800766,1.7601709125436842
1790587957052482000,11.09248193359375,0.5089956701897085,-1.2947943115890026,1.3414924960084258
1790587957062562300,11.102562255859375,-2.975628506436944,-1.8417863888263701,1.1654578837104141
1790587957072642300,11.112642333984375,-1.1818752038955689,-0.13082652030587197,0.3476774924430996
1790587957082722300,11.122722412109376,2.7390806809872386,0.18069792793393133,0.24257647462207824
1790587957092802300,11.13280224609375,2.01196818344295,0.44342707334458825,-0.029397331998543812
1790587957102882000,11.142882080078126,0.3227478530436754,1.6445599354177713,-0.15366985495053231
1790587957112962300,11.15296240234375,-1.579209657498449,0.15882862595319747,0.6580141191378236
1790587957123042300,11.163042236328126,-0.14273834576532243,-0.08262626076042652,-0.13724036940354853
1790587957133122300,11.173122314453124,3.4235248341500757,-0.8568325179129839,-2.299091180875897
1790587957143201300,11.183201171875,0.09896825068704783,-1.7549901489049196,-1.6396502438053489
1790587957153281300,11.19328125,-3.3847499900758264,-0.6474415794581174,0.6036083194831385
1790587957163361300,11.203361328125,0.25989362972378727,2.4098668467998503,1.117079271923378
1790587957173441300,11.213441162109374,4.851102645331621,1.1392863544911145,-0.8706582141697407
1790587957183521300,11.223521240234374,0.6701670598767697,0.37885084853768347,-2.092838248185813
1790587957193601000,11.23360107421875,-4.105236347478628,0.23922552022635934,-1.773024841158837
1790587957203681300,11.243681396484375,-2.6495143918305635,0.6479793395966291,-0.8559647221025078
1790587957213761300,11.25376123046875,0.918436010519415,-1.6655968782275914,-0.576265700657852
1790587957223841300,11.26384130859375,0.15518252453580497,-2.7148955032795667,-1.2582802520535885
1790587957233921300,11.27392138671875,-1.6711067276902496,-0.6464291875451803,-1.173800837707147
1790587957244001000,11.2840009765625,-0.08970204436555504,1.9660422985702752,0.0025180683559534373
1790587957254081300,11.294081298828125,-0.9448854798972606,0.5910200195342302,0.1749226507344283
1790587957264161300,11.304161376953125,-0.10639993505775928,2.588700734427571,-1.216410072312504
1790587957274241300,11.3142412109375,1.8084715637236832,-0.624577421221137,-2.4222385448560115
1790587957284321300,11.3243212890625,-1.4149376714475452,-1.2508008560836315,-1.7890078615799545
1790587957294401300,11.3344013671875,-1.2751270496971905,-0.22885551738142965,-1.2254993146318942
1790587957304481300,11.344481201171876,-0.09360051310881971,-0.6097200438290834,0.14110842474224045
1790587957314561000,11.35456103515625,-1.7441671415954827,-0.9630869070202112,-0.5931127174971624
1790587957324641300,11.364641357421876,0.6197298350594937,1.2261655965209006,-1.6190638212420045
1790587957334721300,11.37472119140625,3.0335394281357524,0.5152274041861296,-1.2615448068074882
1790587957344801300,11.38480126953125,-2.032190302738547,-1.0359235951721668,-0.6641608782645314
1790587957354881300,11.39488134765625,-2.3566636644005774,1.5747265207350254,-1.3519253349564968
1790587957364960300,11.404960205078124,2.7650971657752987,0.292608150845766,-0.474213256752491
1790587957375040300,11.415040283203124,1.2094435943007469,-1.0133505288362503,-0.46634288870356977
1790587957385120300,11.425120361328124,-1.362822284284979,-0.5148363590419293,-1.934718062762916
1790587957395200300,11.4352001953125,-1.2268325359970331,-0.32787469453811646,-0.47156230385228987
1790587957405280300,11.4452802734375,0.7308423317223787,1.2410089453876019,-0.03673385803224519
1790587957415360300,11.4553603515625,1.4671931977331638,-0.0217635035187006,-0.1133335519795306
1790587957425440300,11.465440185546875,-0.7394194598011672,0.320299875369668,0.3353069634307176
1790587957435520300,11.475520263671875,-0.6642472413737327,-0.04245674745738506,0.32255415710248053
1790587957445600300,11.485600341796875,-0.7207219197243452,-0.4772673836261034,0.3839302341612056
1790587957455680300,11.49568017578125,-0.10007891534268855,-0.6265835003465414,0.13552585710324347
1790587957465760300,11.50576025390625,0.7107954959284514,0.014923428365588187,-0.09200738043216988
1790587957475840300,11.51584033203125,0.570753476575017,0.6161918701916933,0.4609074927166104
1790587957485920300,11.525920166015625,-0.5281722259551287,0.13288169927000998,0.7856715078882872
1790587957496000300,11.536000244140626,-0.003265723797678947,1.0902835463911293,0.14802404934959484
1790587957506080300,11.546080322265626,2.0234967086732385,0.3201858936011791,0.9528825430657714
1790587957516160300,11.55616015625,-1.432922240949422,-0.9491682717829942,1.7345111322388052
1790587957526240300,11.566240234375,-1.5652777243882416,0.3004799071341753,1.3480571152210234
1790587957536320300,11.5763203125,1.066442798206955,-0.9757043965309857,1.3445476457953451
1790587957546400300,11.586400146484374,-1.0113012681562452,-0.08542202895879746,0.567925121281296
1790587957556480300,11.596480224609374,-0.30967385193705554,0.1514642346650362,0.7870943072330207
1790587957566559200,11.606559326171874,1.2992740873515605,0.7543488795161247,1.71554427370131
1790587957576639200,11.61663916015625,1.1677354732535778,-0.3059545391529798,0.9445740027952939
1790587957586719200,11.62671923828125,0.519151811088249,0.16293781483769415,1.6752378361456095
1790587957596799200,11.63679931640625,-0.6580635112375021,-0.7998433872342109,1.356608232075721
1790587957606879200,11.646879150390625,-1.7040099032521248,-0.5289636685937643,1.5060042821645736
1790587957616959200,11.656959228515625,1.0509760567449034,-0.13255202892422677,1.324475164103508
1790587957627039200,11.667039306640625,1.7176169883221386,-0.09148410547673702,0.8501938836161047
1790587957637119200,11.677119140625,-1.1959935994885862,-0.5287596704542636,0.6060964465044438
1790587957647199200,11.68719921875,-0.5662548499815165,1.1434978347063063,0.5681599529504776
1790587957657279200,11.697279296875,2.911000259181857,0.1857674862831831,0.494970469305478
1790587957667359200,11.707359130859375,1.2733726072452962,-0.41253158434331416,0.9423222052805125
1790587957677439200,11.717439208984375,-0.7461221723102033,-0.3644973290145397,0.24728680773749945
1790587957687519200,11.727519287109375,0.12886362273506818,0.49462709922790526,0.6213114051625133
1790587957697599200,11.73759912109375,1.5105037855409085,0.5293862779200077,0.03603499818104319
1790587957707679200,11.74767919921875,0.7940263715185224,0.24393209048211573,0.05256232264589052
1790587957717759200,11.75775927734375,-0.6022837563484906,-0.048313656792044635,0.13395203191526234
1790587957727839200,11.767839111328126,1.1419785892497747,1.09957043017447,0.0016404972160235047
1790587957737919200,11.777919189453126,1.1180044239442795,-0.9343816215395927,-0.197483295980189
1790587957747999200,11.787999267578124,-1.031181515211612,-0.2427092706888914,-0.41410424048751593
1790587957758078500,11.798078369140624,0.5451343936067075,-0.5531324796885252,-0.5731260509252548
1790587957768158200,11.808158203125,0.8838042575992643,0.4354541947692632,0.17559044872708618
1790587957778238200,11.81823828125,0.008056611336022614,-0.23309447012543677,-0.5662917479258031
1790587957788318200,11.828318115234374,-1.3146978664547204,-0.5088356573224068,-0.14377269378174096
1790587957798398200,11.838398193359374,-0.4008265335023403,0.00454699577987194,-0.2084741889361292
1790587957808478500,11.848478515625,1.3848049835123122,0.5682651668906211,-0.17839598940080031
1790587957818558200,11.85855810546875,0.38849304856471717,-0.6307037951469421,0.2728851949776523
1790587957828638200,11.86863818359375,-0.9458880810685455,0.7040057627230882,-0.2640542930671945
1790587957838718200,11.87871826171875,-0.23935711071677504,-0.039595512807369226,-0.42383916029930113
1790587957848798200,11.888798095703125,0.11866722289137542,0.026379472881555555,0.27846852980162945
1790587957858878200,11.898878173828125,0.4398427851170301,-0.468226583558321,-1.1920214079219846
1790587957868958200,11.908958251953125,0.10504735140502452,0.10414601865112781,-0.27355270070936527
1790587957879038200,11.9190380859375,-0.6584932078916579,-0.5585638570874929,0.5701839330587536
1790587957889118200,11.9291181640625,-0.8183740463115274,-0.0792810419857502,-0.3712866603611037
1790587957899198200,11.9391982421875,1.9434655789725481,-0.3634726621419191,-0.35153756540473546
1790587957909278000,11.94927783203125,1.372221250140667,-0.5580249279052019,0.007650450821081176
1790587957919357700,11.959357666015626,-1.6312041947603224,-0.12805296393930912,-0.7152250758737325
1790587957929437000,11.96943701171875,0.20201945983879266,0.9658318218141794,0.16036814701277763
1790587957939516700,11.9795166015625,1.9356927530139683,0.7055348719865083,-0.06181911725164391
1790587957949597000,11.989596923828126,0.5064402866184711,0.6029448506057262,-1.0807649727437645
1790587957959677000,11.999677001953126,-0.9073461689673363,-0.4130050470739603,0.15596406683493405
1790587957969757000,12.0097568359375,-1.2805009978204964,-0.733784814915061,-0.14611949436990543
1790587957979837000,12.0198369140625,-0.03178630036115646,-0.10513444516658782,-0.4385626821786165
1790587957989917000,12.0299169921875,0.9896393983811139,-0.6462590916752815,-0.16734204114601015
1790587957999997000,12.039996826171874,-0.47498131851553915,0.36053602416813374,-0.6313264570899307
1790587958010076700,12.05007666015625,-1.3319699037730692,0.41189562452733514,-0.5111897461678833
1790587958020157000,12.060156982421875,0.9659434654951095,1.061070895910263,0.15944756156913936
1790587958030237000,12.07023681640625,2.6375036360412834,-0.42370179765522475,-0.16510489321108907
1790587958040317000,12.08031689453125,-2.00206521358788,-0.8589356276720762,-0.26182753866212444
1790587958050397000,12.09039697265625,-2.924443093600869,0.5472837536603212,0.4047644574731588
1790587958060476700,12.1004765625,1.0375853909045458,0.5381237111270427,0.5786702045163139
1790587958070557000,12.110556884765625,1.1356601268179713,-0.03529810787439346,0.4669885661959648
1790587958080637000,12.120636962890625,-0.4188257891166955,0.012158639827370643,0.5229523724149913
1790587958090717000,12.130717041015625,-1.6623074812933802,-0.048500119274854654,0.9019143531769513
1790587958100797000,12.140796875,0.13201719139516352,1.1241688648581505,0.541752423018217
1790587958110876000,12.1508759765625,1.541864115574956,-0.30996319027245045,0.7396063606753945
1790587958120956000,12.160955810546875,-1.1067799231618642,-0.21588556117117402,0.4524645854767412
1790587958131036000,12.171035888671875,-1.6532862627089022,-0.6420727459013462,0.9253411137327552
1790587958141116000,12.181115966796876,-0.4801344634950161,0.7483850026756524,1.072931283443421
1790587958151195600,12.191195556640626,1.1648223622858525,0.5849421609252691,0.6144810476858168
1790587958161276000,12.20127587890625,-1.14633751511164,-0.5630646756380796,1.359122991375625
1790587958171356000,12.21135595703125,-1.2589220570884645,0.9730343005388975,0.4531905616637319
1790587958181436000,12.221435791015624,1.2070505616843699,-0.07925590754449367,1.3143392622753978
1790587958191516000,12.231515869140624,-1.0450748698771,-0.16939970432817936,0.6608752807226032
1790587958201596000,12.241595947265624,-0.8238543774187564,0.2615489957153797,-0.14065222367364913
1790587958211676000,12.251676025390625,-0.8475088092505931,-1.2323697118580341,1.0480694485832005
1790587958221756000,12.261755859375,-1.4421269994072616,0.1925163760215044,0.6315513518869876
1790587958231836000,12.2718359375,1.2776572988271713,-0.42432080633640284,0.7138022765289992
1790587958241916000,12.281916015625,-0.7257014617025852,0.13153203822672366,1.3861242494173347
1790587958251996000,12.291995849609375,-0.8205529977858066,1.516115341812372,0.07076978221740574
1790587958262076000,12.302075927734375,0.9988538014501332,0.0854763894945383,0.8826623940877616
1790587958272155600,12.31215576171875,-0.009117372435331344,0.3048182285994291,0.4152965555446222
1790587958282235000,12.32223486328125,0.6259824657134712,-0.6439280183792114,0.051239535909798
1790587958292315000,12.33231494140625,-2.0137053824990985,-1.8202771523296832,1.3395092132367192
1790587958302395000,12.342394775390625,-1.4814952793300151,0.8162894951224327,-0.08113534634923562
1790587958312475000,12.352474853515625,1.406464296004176,0.10305004010796547,0.22701896787034345
1790587958322555000,12.362554931640625,0.2998947276573628,1.8324924907803535,0.41027744874097405
1790587958332635000,12.372634765625,1.1239693967632949,1.8192098153591154,-0.10916035794811323
1790587958342715000,12.38271484375,0.513539743360132,-0.10568097313344478,0.9909382790852338
1790587958352795000,12.392794921875,-1.940838883730769,-2.7224060250401494,0.3767966559542343
1790587958362875000,12.402875,-1.7432500267505644,-1.7589596370577811,0.3145077748995274
1790587958372955000,12.412954833984376,-0.18930267467200754,-1.376646665367484,0.6590000614352524
1790587958383035000,12.423034912109374,0.12515249325744807,0.49860067903399463,0.45607941497303545
1790587958393115000,12.433114990234374,0.5453138418268412,1.0634715273112059,0.003792779879085719
1790587958403195000,12.44319482421875,-0.8171669355440885,1.5773375800162552,0.43419659592360255
1790587958413275000,12.45327490234375,1.4183341820180415,3.0072949798107147,0.03455229447577148
1790587958423355000,12.46335498046875,2.6800071452498435,-0.3145002491801977,0.5549515118092299
1790587958433435000,12.473434814453125,-1.2092039403259753,-1.4686048180967568,-0.5388018661169335
1790587958443513900,12.483513916015625,-1.9458990897297859,-2.081948897641897,-0.9970496746376156
1790587958453593900,12.49359375,-1.4790619147032498,-0.9881704948723316,0.5570259069304913
1790587958463673900,12.503673828125,0.4833579555861652,1.5790882230758667,-0.41498759919330475
1790587958473753900,12.51375390625,1.6770418168276546,2.060444921842217,-0.569619504109025
1790587958483833900,12.523833740234375,-0.7879447135172784,0.5479460169613362,-0.09511111860116943
1790587958493913900,12.533913818359375,-0.1682768377780914,0.997643841138482,-1.190102860949561
1790587958503993900,12.543993896484375,0.5867371545832604,-1.5936889953583477,-0.023982312079332768
1790587958514073900,12.554073974609375,-2.0053379516482353,-2.1140853266149757,0.08179390158951282
1790587958524153900,12.56415380859375,-0.43614159251153467,0.011451368340849876,-1.510292188616842
1790587958534233900,12.57423388671875,3.14128493258357,1.004402667748928,-0.65416248521097
