time,seconds_elapsed,z,y,x
1790587946004824800,0.044824951171875,4.499602745056152,9.029432286071776,-1.6129437309265136
1790587946014904800,0.05490478515625,4.39904627532959,8.949525805664061,-1.3549685020446776
1790587946024984800,0.06498486328125,4.121318882751464,8.867374761199951,-1.0468646759033202
1790587946035064800,0.07506494140625,3.764283560180664,8.871265338897704,-0.8610147720336914
1790587946045144800,0.085144775390625,3.631555005645752,8.925733426666259,-0.8728361427307129
1790587946055224800,0.095224853515625,3.7400422683715817,8.998158026885985,-1.02786070022583
1790587946065304800,0.105304931640625,3.9004537796020506,8.999804040527343,-1.070657054901123
1790587946075384800,0.115384765625,4.051587759399414,8.86812294921875,-0.948103857421875
1790587946085463800,0.1254638671875,4.249259033966064,8.731354179382324,-0.8882488159179687
1790587946095544800,0.135544921875,4.458153128814697,8.786869730377196,-1.1182418128967284
1790587946105624800,0.145624755859375,4.354753544616699,9.035717065429687,-0.8964788841247558
1790587946115703800,0.155703857421875,4.103362370300292,9.023895694732666,-0.6370072792053222
1790587946125784800,0.165784912109375,3.7997476722717285,8.882188883972168,-0.709880792236328
1790587946135863800,0.17586376953125,3.5516485252380368,8.658929579162598,-0.9648632690429687
1790587946145943800,0.18594384765625,3.7165491645812985,8.559121297454833,-1.3124714225769043
1790587946156023800,0.19602392578125,3.8703766212463377,8.52844558868408,-1.3825018211364746
1790587946166103800,0.206103759765625,3.820397661590576,8.366836976623535,-1.0951976219177246
1790587946176184000,0.21618408203125,4.109048599243164,8.337657643890381,-0.34760815353393554
1790587946186263800,0.226263916015625,4.4841900718688965,8.47128402404785,0.2211643783569336
1790587946196343800,0.23634375,5.06283868560791,8.744821563720702,0.5172971961975097
1790587946206423800,0.246423828125,5.776011505126953,9.178321701812743,0.2549824768066406
1790587946216503800,0.25650390625,6.2864253715515135,9.523685291290283,-0.18270751419067383
1790587946226583800,0.266583740234375,6.255450387573242,9.335291548156738,-0.41060558471679687
1790587946236663800,0.276663818359375,5.29253240737915,8.498667705535889,-0.8441057228088379
1790587946246743800,0.286743896484375,4.4762592788696285,7.956231391906738,-1.48111300201416
1790587946256823800,0.29682373046875,2.679410932922363,8.093449074554442,-2.5207950729370117
1790587946266903800,0.30690380859375,0.5921159980773926,8.046762142181397,-3.415029393005371
1790587946276983800,0.31698388671875,0.8373720306396484,8.239645013427733,-2.256834339904785
1790587946287063800,0.327063720703125,1.4254478134155273,8.484302495574951,-0.565630142211914
1790587946297144000,0.33714404296875,1.5738883163452146,8.28004716644287,0.42751463394165035
1790587946307223800,0.347223876953125,2.1570260581970215,8.268076158142089,-0.012569558715820313
1790587946317303800,0.3573037109375,3.0071172851562498,9.063549659729004,-1.1513117233276366
1790587946327383800,0.3673837890625,3.057395520019531,9.004592443847656,-1.9053356086730955
1790587946337463800,0.3774638671875,3.52411520614624,8.869918600463867,-0.8316858016967773
1790587946347543800,0.387543701171875,3.8093244789123535,9.623194297790526,-0.15831658477783203
1790587946357623800,0.397623779296875,3.8584056129455564,10.263343966674803,-0.6483797370910644
1790587946367703800,0.407703857421875,3.8394016372680664,10.192565380096434,-0.6450877098083496
1790587946377783800,0.41778369140625,3.54311918182373,9.964517671966552,-1.2523171058654785
1790587946387863800,0.42786376953125,3.2000001564025875,9.693075058746338,-2.122908684539795
1790587946397943800,0.43794384765625,3.2517747673034667,9.854833308410644,-2.716521058654785
1790587946408023800,0.44802392578125,3.3851018722534176,10.151714314270018,-2.8746880058288573
1790587946418103800,0.458103759765625,3.3659482589721677,9.887304668426513,-2.926612254333496
1790587946428183800,0.468183837890625,3.402010921478271,8.766967929077149,-3.1383494636535643
1790587946438263800,0.478263916015625,3.676745561981201,8.091653423309326,-3.0617350105285643
1790587946448343800,0.48834375,3.651157531738281,8.361599660491942,-3.853317934417724
1790587946458423800,0.498423828125,3.5013702903747554,8.876203379821776,-3.681384327697754
1790587946468503800,0.50850390625,2.9828759933471676,10.079439351654052,-2.7033529495239255
1790587946478583800,0.518583740234375,2.2301988464355467,11.418396630096435,-1.6768389877319334
1790587946488663800,0.528663818359375,1.6657658050537107,11.783063470458984,-1.5429133323669433
1790587946498743800,0.538743896484375,1.0431237358093262,11.83049859085083,-1.9639935493469236
1790587946508823800,0.54882373046875,1.3054384552001952,11.311256105804443,-1.9888333915710448
1790587946518903800,0.55890380859375,1.5215151550292967,10.292822574615478,-2.846256861114502
1790587946528983800,0.56898388671875,1.041926634979248,9.073874654388428,-4.320336895751953
1790587946539063800,0.579063720703125,0.2688987739562988,7.7596075805664055,-4.481197319793701
1790587946549143800,0.589143798828125,0.4563946914672851,7.133823121643066,-3.883694367980957
1790587946559223800,0.599223876953125,0.6928221054077148,7.291690793609619,-3.3072903182983397
1790587946569303800,0.6093037109375,0.8646060745239257,7.649474304199218,-2.79014275970459
1790587946579383800,0.6193837890625,1.23855044631958,7.5546040634155265,-2.5846903297424313
1790587946589463800,0.6294638671875,1.7341501899719238,7.723096005249023,-2.5755624359130858
1790587946599543800,0.639543701171875,4.53925671005249,8.138190718078613,-2.3784897117614743
1790587946609623800,0.649623779296875,8.947580516815185,9.562591068267821,-2.060659441375732
1790587946619703800,0.659703857421875,7.774272065734863,10.47747537765503,-3.399766357421875
1790587946629783800,0.66978369140625,6.371120255279541,9.016114539337158,-2.77727392578125
1790587946639863800,0.67986376953125,5.515492436981201,8.199392498016357,-1.409137314605713
1790587946649943800,0.68994384765625,4.176984071350097,7.782951046752929,-2.460640756225586
1790587946660023800,0.70002392578125,2.9167361724853516,7.299920861816406,-2.366219428253174
1790587946670103800,0.710103759765625,1.3832500091552733,7.99962629699707,-1.6002245346069335
1790587946680183800,0.720183837890625,-0.7882908966064452,9.604339959716796,-1.445349614715576
1790587946690263800,0.730263916015625,-1.8366519485473631,11.599607768249511,-1.094299796295166
1790587946700343800,0.74034375,-1.0836755264282225,12.71171443939209,0.479438882446289
1790587946710423800,0.750423828125,-0.05297171173095703,12.127529234313965,1.7335516395568846
1790587946720503800,0.76050390625,1.6716016716003417,10.876708504486084,1.4332289688110351
1790587946730583800,0.770583740234375,2.375646597290039,9.879972425842285,0.6630442222595214
1790587946740663800,0.780663818359375,2.3395839347839353,8.998606939697265,1.345840608215332
1790587946750743800,0.790743896484375,3.171718649291992,8.679579568481445,0.8940846824645996
1790587946760823800,0.80082373046875,2.9741970123291015,8.640374516296387,-0.3528454696655273
1790587946770903800,0.81090380859375,2.3535002319335936,8.373121755981446,-0.5671265182495117
1790587946780983800,0.82098388671875,2.2096984947204588,8.22258632659912,-0.7630021415710448
1790587946791063800,0.831063720703125,1.6313491561889648,8.035838597106933,-1.6698060203552245
1790587946801143800,0.841143798828125,0.946158568572998,7.880514764404296,-2.045396405792236
1790587946811223800,0.851223876953125,1.6479589302062987,7.651419593048095,-2.3129484413146972
1790587946821303800,0.8613037109375,1.4606126502990722,7.964461460113525,-3.3833062210083007
1790587946831383800,0.8713837890625,1.4835072036743162,8.042721926879882,-2.593369310760498
1790587946841463800,0.8814638671875,1.1905167755126953,8.109759573364258,-2.812738037872314
1790587946851543800,0.891543701171875,1.0223241088867188,8.087912483215332,-1.365592771911621
1790587946861623800,0.901623779296875,0.565630142211914,8.396016309356689,-0.37184944534301756
1790587946871703800,0.911703857421875,0.29882629470825195,9.192986186981202,-1.728314323425293
1790587946881783800,0.92178369140625,0.4032733421325683,8.511686177062987,-3.358915291595459
1790587946891863800,0.93186376953125,0.7294833183288574,7.423820797729491,-2.088192760467529
1790587946901941000,0.94194091796875,1.2337620429992675,7.499687062835693,-2.545485277557373
1790587946912021000,0.95202099609375,2.1054010848999023,7.904606418609618,-3.037643356323242
1790587946922101000,0.96210107421875,2.50268892288208,8.214505895996094,-2.3075614875793455
1790587946932181000,0.972180908203125,2.010381206512451,8.053346196746826,-1.5957354064941405
1790587946942261000,0.982260986328125,1.4196119468688964,8.163479473114013,-1.2937667221069336
1790587946952340700,0.9923408203125,0.388159944152832,8.70157629623413,-0.8351274665832519
1790587946962421000,1.0024208984375,-0.4643254844665527,9.558850128173827,-0.1005564697265625
1790587946972501000,1.0125009765625,-0.7142202827453613,10.524012672424316,0.7873930709838867
1790587946982581000,1.0225810546875,-0.5877765075683593,11.367819120025635,1.16837041015625
1790587946992661000,1.032660888671875,-0.00718260498046875,12.138602416992187,1.3527239379882812
1790587947002740700,1.04274072265625,0.3359364204406738,13.226467796325682,1.8977040908813476
1790587947012821000,1.052821044921875,-0.311545491027832,13.906421067810058,2.241571304321289
1790587947022901000,1.06290087890625,-1.0371382316589355,13.443741596984863,1.2499229042053221
1790587947032981000,1.07298095703125,-1.1381436141967773,12.883648046112059,1.501014803314209
1790587947043061000,1.08306103515625,-0.41090485992431636,11.679663886260986,1.466448516845703
1790587947053141000,1.09314111328125,0.6884826148986816,10.558728596496582,0.4403834678649902
1790587947063221000,1.103220947265625,1.3168109130859373,9.4618849609375,-0.10878653793334961
1790587947073300700,1.11330078125,0.9961375282287597,7.6562079963684075,-0.18465280303955078
1790587947083381000,1.123381103515625,0.38666356811523434,6.9725137847900385,-0.3408744613647461
1790587947093461000,1.1334609375,1.748665037536621,8.648305309295655,-0.4333505004882812
1790587947103541000,1.143541015625,1.7049708572387694,8.910620028686523,-0.22565350646972654
1790587947113621000,1.15362109375,0.9190741622924804,8.666561096954345,-0.2641103706359863
1790587947123700700,1.16370068359375,1.0060136100769042,9.381080654907226,-0.024690204620361325
1790587947133781000,1.173781005859375,1.6313491561889648,10.590601406097411,0.19033903198242186
1790587947143861000,1.183861083984375,1.2912228828430174,11.468076314544676,-0.02633621826171875
1790587947153941000,1.19394091796875,1.159990704345703,12.341511007690428,-0.11207856521606445
1790587947164021000,1.20402099609375,1.5055039314270018,12.707524586486816,-0.26351182022094727
1790587947174101000,1.21410107421875,1.6404770500183103,12.580781536102295,-0.45714287948608395
1790587947184181000,1.224180908203125,1.681627391052246,12.25771394958496,-0.41464580001831053
1790587947194260700,1.2342607421875,2.376394785308838,10.858602354431152,-1.5269021087646484
1790587947204341000,1.244341064453125,3.1842882080078123,9.723750767517089,-2.261922018432617
1790587947214421000,1.2544208984375,2.825008321380615,9.43644656829834,-1.690007096862793
1790587947224501000,1.2645009765625,1.9822493370056151,9.402927745056152,-1.402553260040283
1790587947234581000,1.2745810546875,2.043451116943359,9.365069431304931,-1.4879963317871092
1790587947244660700,1.28466064453125,2.0470424194335934,8.42773948135376,-0.9599252281188965
1790587947254741000,1.294740966796875,1.8508675209045409,8.147468249511718,-0.8252513847351074
1790587947264821000,1.304821044921875,1.7775450950622558,8.525003923797607,-0.6557119796752929
1790587947274901000,1.31490087890625,1.7287632362365721,9.077465956878662,0.017208324432373044
1790587947284981000,1.32498095703125,1.9310732765197753,9.32182416381836,-0.033818098449707026
1790587947295061000,1.33506103515625,1.8197428993225098,9.50632732925415,-0.07152677459716797
1790587947305141000,1.34514111328125,1.7865233512878418,9.36626653213501,0.21353286056518553
1790587947315220700,1.355220703125,1.8412907142639159,9.33424408493042,-0.05776011505126953
1790587947325301000,1.365301025390625,1.8368015861511229,9.529072245025635,-0.2232593048095703
1790587947335381000,1.375381103515625,1.915361328125,9.74245546798706,-0.0028431144714355467
1790587947345461000,1.3854609375,1.9936217948913573,9.984120198059081,-0.2561795776367187
1790587947355541000,1.395541015625,1.8415899894714354,10.24044941329956,-0.20949264526367187
1790587947365620700,1.405620849609375,1.8619407035827635,10.233266808319092,-0.7772177139282226
1790587947375701000,1.415700927734375,1.9526210914611815,10.358214207458495,-1.47482822265625
1790587947385781000,1.425781005859375,1.581370196533203,10.324545746612548,-0.8315361640930176
1790587947395861000,1.435861083984375,1.1528080993652343,10.485106895446776,-0.5460276161193848
1790587947405941000,1.44594091796875,1.3675380607604979,10.974421859741211,-1.0809820495605469
1790587947416021000,1.45602099609375,2.0293851821899414,10.647164420318603,-1.132008472442627
1790587947426101000,1.46610107421875,2.526481301879883,9.743802206420899,-1.3672387855529784
1790587947436180700,1.4761806640625,2.591573659515381,9.083002548217772,-1.2810475257873535
1790587947446261000,1.486260986328125,1.7576432937622068,9.10320362472534,-0.6862380508422851
1790587947456341000,1.496341064453125,1.5064017570495605,8.690652751159668,-0.06808510971069336
1790587947466421000,1.5064208984375,1.5556325286865234,9.06594386138916,-0.4086602958679199
1790587947476501000,1.5165009765625,2.1015105072021485,9.159317726135253,-0.5832873794555664
1790587947486580700,1.526580810546875,1.814355945587158,9.067739512634278,-0.42721535873413086
1790587947496661000,1.536660888671875,1.387290224456787,9.293093743896485,-0.28580782318115233
1790587947506741000,1.546740966796875,1.9692308654785156,9.880421338653564,-0.45819034271240233
1790587947516821000,1.556821044921875,2.7335797454833983,10.504859059143065,-1.769763939666748
1790587947526901000,1.56690087890625,1.9782091217041013,10.567407577514647,-1.009455274963379
1790587947536981000,1.57698095703125,1.3645453086853025,10.01659155807495,0.4686649749755859
1790587947547061000,1.58706103515625,1.3135188858032225,9.700856214141846,-0.046238019561767575
1790587947557141000,1.59714111328125,1.4395137481689453,9.299228885650635,-0.09726444244384765
1790587947567221000,1.607220947265625,1.5919944664001464,9.250596664428711,-0.16130933685302734
1790587947577301000,1.617301025390625,1.6910545600891111,9.311499169158935,-0.6923731925964355
1790587947587381000,1.627381103515625,1.9852420890808105,8.853458464050293,-0.7595604766845703
1790587947597461000,1.6374609375,1.925536685180664,8.366687339019775,-0.21428104858398436
1790587947607540700,1.647540771484375,2.0364181495666505,8.226327266693115,-0.2867056488037109
1790587947617621000,1.65762109375,2.2563854270935058,8.300547518157959,-0.716315209197998
1790587947627701000,1.667700927734375,1.5122376235961914,8.685565072631835,0.5009866973876953
1790587947637781000,1.677781005859375,1.0592845970153808,9.246706086730956,1.177947216796875
1790587947647861000,1.687861083984375,1.365592771911621,10.128221210479735,0.6651391487121582
1790587947657941000,1.69794091796875,1.6871639823913573,11.137526847839355,0.23343466186523437
1790587947668021000,1.70802099609375,1.8466776679992676,11.519252375030517,0.05327098693847656
1790587947678101000,1.71810107421875,1.838746875,10.819397302246093,0.1396118843078613
1790587947688181000,1.728180908203125,1.5183727653503416,9.920524216461182,0.39145197143554683
1790587947698261000,1.738260986328125,1.3376105400085447,8.814702324676514,0.6896797157287597
1790587947708341000,1.748341064453125,1.7654244491577147,8.206425465393066,0.7260416534423828
1790587947718421000,1.7584208984375,1.7640777107238768,8.505999948120117,0.24660277099609373
1790587947728500700,1.768500732421875,2.1250036109924317,9.02718772201538,-0.6284779357910156
1790587947738581000,1.7785810546875,3.0475194381713866,9.749787710571288,-1.230918928527832
1790587947748661000,1.788660888671875,2.7355250343322752,10.901099433898926,-0.9525929855346679
1790587947758741000,1.798740966796875,2.443432431793213,11.926565932464598,-0.44547114639282226
1790587947768821000,1.808821044921875,2.71337866897583,11.800421432495117,0.10070610733032226
1790587947778900700,1.818900634765625,2.503736386108398,10.395324333190917,0.45444940261840816
1790587947788981000,1.82898095703125,2.4377462028503416,9.45530090637207,0.07332242584228515
1790587947799061000,1.83906103515625,3.134159610748291,9.609876551055908,-0.3163338943481445
1790587947809141000,1.84914111328125,2.5713725830078125,10.267084906768797,0.1370680450439453
1790587947819221000,1.859220947265625,1.5897499023437498,10.073304209899902,0.4999392341613769
1790587947829301000,1.869301025390625,1.8403928886413574,9.96586441040039,0.10818798751831055
1790587947839381000,1.879381103515625,2.381931376647949,10.063128852844237,-0.4423287567138672
1790587947849460700,1.889460693359375,2.841618095397949,10.08093572769165,-0.5404910247802734
1790587947859541000,1.899541015625,3.6641760032653807,10.263194329071045,-0.6581061813354492
1790587947869621000,1.90962109375,3.6516064445495604,10.706121636199951,-0.8705915786743164
1790587947879701000,1.919700927734375,2.7314848190307615,11.118073959350586,-1.0414777221679687
1790587947889781000,1.929781005859375,3.196558491516113,11.318588348388671,-0.023792378997802732
1790587947899861200,1.939861328125,4.326172762298584,11.393257512664794,2.618957341003418
1790587947909941500,1.94994140625,3.209277687835693,10.197952333831786,2.503137835693359
1790587947920021200,1.960021240234375,0.6001964286804199,8.95655877304077,0.558597174835205
1790587947930101500,1.9701015625,0.3458125022888183,7.320870126342773,-0.1441010124206543
1790587947940181200,1.98018115234375,-0.6118681617736816,5.4418707359313965,-1.0699088668823242
1790587947950261200,1.99026123046875,-1.3332710494995117,7.043142733764648,-2.488772625732422
1790587947960341200,2.00034130859375,-1.3465887962341307,10.163086772155761,-2.7247511268615723
1790587947970421200,2.010421142578125,0.13572130661010742,10.235212097167969,-0.9156324974060058
1790587947980500200,2.020500244140625,1.9101240119934082,9.798120656585693,0.29658173065185545
1790587947990581200,2.030581298828125,2.268805348205566,9.936086527252197,-0.1352723937988281
1790587948000661200,2.0406611328125,1.6823755790710448,9.689932669067382,-0.9938929641723632
1790587948010741200,2.0507412109375,1.3250409812927246,9.495553421783447,-0.9566332008361815
1790587948020821200,2.0608212890625,1.1997943069458008,9.478494734954834,-0.946158568572998
1790587948030900200,2.070900146484375,1.1260229682922362,9.64578957595825,-1.1849801841735839
1790587948040980200,2.080980224609375,0.9765350021362305,9.805452899169921,-0.912340470123291
1790587948051060500,2.091060546875,1.0625766242980956,9.821763397979735,-0.5348047958374023
1790587948061140200,2.10114013671875,1.4516343940734862,9.884760829162596,-0.40491935577392574
1790587948071220500,2.111220458984375,1.5255553703308105,9.708936644744872,-0.2765302917480469
1790587948081300200,2.12130029296875,1.2406453727722166,9.617358431243895,-0.23448212509155272
1790587948091380500,2.13138037109375,1.3193547523498534,9.578452654266357,-0.18300678939819334
1790587948101460200,2.141460205078125,1.4110826034545898,9.666888478088378,-0.07392097625732422
1790587948111540200,2.151540283203125,1.3856442108154297,9.784503634643555,0.10220248336791991
1790587948121620500,2.161620361328125,1.3473369842529297,9.856628959655762,0.3450643142700195
1790587948131700200,2.1717001953125,1.3542203140258788,9.824307237243652,0.47809214401245115
1790587948141780500,2.181780517578125,1.5448586212158202,9.731980835723876,0.4655225852966308
1790587948151860200,2.191860107421875,1.7769465446472168,9.846303964996338,0.45759179229736324
1790587948161940200,2.201940185546875,1.437119546508789,9.921870954895018,0.5992986030578613
1790587948172020500,2.2120205078125,1.120486376953125,9.244012609863281,0.02124853973388672
1790587948182100200,2.222100341796875,1.4815619148254393,9.420884257507323,-0.0383072265625
1790587948192180500,2.232180419921875,1.7721581413269043,9.903914442443847,0.0613514175415039
1790587948202260200,2.24226025390625,1.0489596023559569,9.705345342254638,-0.47809214401245115
1790587948212340500,2.252340576171875,0.9994295555114745,9.772382988739013,-0.4439747703552246
1790587948222420200,2.262420166015625,2.0403087272644043,9.834183319091796,-0.10339958419799804
1790587948232500200,2.272500244140625,1.8216881881713867,9.812036953735351,0.004189852905273437
1790587948242580500,2.28258056640625,1.3099275833129882,9.643245736694336,-0.05731120223999023
1790587948252660200,2.29266015625,1.1454758567810057,9.460238947296142,-0.34267011260986324
1790587948262740500,2.302740478515625,1.3242927932739257,9.475801258087158,-0.805050308227539
1790587948272820200,2.3128203125,1.1555015762329102,9.443180260467528,-0.9400234268188477
1790587948282900200,2.322900146484375,1.0845733520507812,9.629030164337157,-0.7761702507019043
1790587948292980500,2.33298046875,1.4510358436584472,10.049960743713378,-0.9874585472106933
1790587948303060200,2.343060302734375,1.8758570007324218,10.097395864105223,-0.6380547424316406
1790587948313140500,2.353140380859375,2.192789445495605,9.702202952575684,-0.5945101997375488
1790587948323220200,2.36322021484375,1.7606360458374022,9.68529390335083,-0.9020154754638672
1790587948333300500,2.373300537109375,1.0453682998657226,9.339032488250732,-0.8022071937561035
1790587948343380200,2.383380126953125,0.621145693206787,9.393350938415526,-0.8251017471313477
1790587948353460200,2.393460205078125,1.3344681503295899,9.443629173278808,-0.8575731071472168
1790587948363540500,2.40354052734375,2.120963395690918,9.979780707550049,-0.902763663482666
1790587948373620200,2.4136201171875,2.032677209472656,10.133159251403807,-1.2164040809631347
1790587948383700500,2.423700439453125,1.5081974082946776,9.799317757415771,-1.4088380393981932
1790587948393780200,2.4337802734375,1.3224971420288085,9.74200655517578,-1.0322001907348632
1790587948403860200,2.443860107421875,1.1581950531005858,9.700407301330566,-0.5406406623840332
1790587948413940500,2.4539404296875,1.0851719024658202,9.63456675567627,-0.06898293533325195
1790587948424020200,2.464020263671875,1.1555015762329102,9.434650917053222,0.23792378997802732
1790587948434100500,2.4741005859375,1.2771569480895995,9.498246898651123,0.4008791404724121
1790587948444180200,2.48418017578125,1.520168416595459,9.636661682128906,0.2690484115600586
1790587948454260200,2.49426025390625,1.6871639823913573,9.751583361816406,-0.2685994987487793
1790587948464340200,2.50434033203125,1.5294459480285643,9.847351428222655,-0.5339069702148437
1790587948474420200,2.514420166015625,1.1053729789733886,9.685443540954589,-0.3655646659851074
1790587948484500500,2.52450048828125,0.5909188972473144,9.440935696411133,0.1327285545349121
1790587948494580200,2.534580322265625,0.4860229370117187,9.569474398040771,0.4514566505432129
1790587948504660500,2.544660400390625,0.7740753242492675,9.137769911193848,0.5927145484924317
1790587948514740200,2.554740234375,1.281945351409912,9.213636176300048,0.46836569976806636
1790587948524820200,2.5648203125,1.687912170410156,9.62080009613037,0.3564367721557617
1790587948534900500,2.574900390625,2.29828395614624,9.949404273986817,0.012419921112060545
1790587948544980200,2.584980224609375,2.4836849472045897,10.207379502868651,-0.7085340538024902
1790587948555060500,2.595060546875,2.0618565422058106,10.448146407318115,-1.108365731048584
1790587948565140200,2.60514013671875,1.8353052101135252,9.974693029022216,-0.8571241943359375
1790587948575220200,2.61522021484375,1.5474024604797363,9.833435131072997,0.24346038131713865
1790587948585300200,2.62530029296875,1.057339308166504,9.531616084289551,0.9382277755737304
1790587948595380200,2.635380126953125,1.5562310791015623,9.3852705078125,0.9614216041564941
1790587948605460500,2.64546044921875,2.014271784210205,9.23757819290161,1.2339116806030272
1790587948615540200,2.655540283203125,1.9832968002319336,8.991573972320555,0.6676829879760742
1790587948625620500,2.665620361328125,2.0774188529968263,8.557325646209716,-0.3848679168701172
1790587948635700200,2.6757001953125,1.3865420364379881,9.133879333496093,-1.1206360145568848
1790587948645780200,2.6857802734375,0.36810850524902344,9.90181951599121,-1.4679448928833008
1790587948655860500,2.695860595703125,-0.10175357055664062,10.538826795196533,-1.1095628318786621
1790587948665940200,2.705940185546875,0.2166752502441406,10.861744744110107,-0.3806780639648437
1790587948676020500,2.7160205078125,1.21939683303833,10.02287633743286,-0.24211364288330076
1790587948686100200,2.726100341796875,1.7931074058532714,9.386617246246338,-0.5575497116088867
1790587948696180200,2.73618017578125,1.6371850227355955,8.925733426666259,-1.1406874534606932
1790587948706260500,2.746260498046875,1.6871639823913573,9.170390908813475,-1.3889362380981445
1790587948716340200,2.75634033203125,1.6041151123046875,9.560496141815184,-1.1474211456298828
1790587948726420500,2.76642041015625,1.2382511711120605,9.53086789627075,-0.4176385520935058
1790587948736500200,2.776500244140625,1.692401298522949,9.734075762176513,-0.01780687484741211
1790587948746580500,2.78658056640625,1.745522647857666,10.037840097808838,-0.20949264526367187
1790587948756660200,2.79666015625,0.850989052581787,10.338611681365967,-0.4677671493530273
1790587948766740200,2.806740234375,0.7050923889160156,10.250175857543944,-1.119139638519287
1790587948776820500,2.816820556640625,1.1682207725524902,10.312574738311767,-1.0766425590515136
1790587948786900200,2.826900146484375,1.2823942642211914,9.981875634002686,-0.5515642074584961
1790587948796980500,2.83698046875,0.9132382957458496,9.016862727355957,-0.3555389465332031
1790587948807060200,2.847060302734375,1.1106102951049803,8.809016095733641,-0.5288192916870117
1790587948817140200,2.85714013671875,1.579424907684326,9.50572877883911,-0.3537432952880859
1790587948827220500,2.867220458984375,1.3319243110656738,9.598354455566406,-0.3103483901977539
1790587948837300200,2.87730029296875,1.3925275405883788,10.216208121490478,0.004339490509033203
1790587948847380500,2.88738037109375,2.384624853515625,10.662876368713379,0.3172317199707031
1790587948857460200,2.897460205078125,1.6129437309265136,11.49785419769287,0.1566705711364746
1790587948867540500,2.90754052734375,0.4236240562438965,10.701782145690917,-1.1559504890441894
1790587948877620200,2.9176201171875,2.4205378784179685,10.111611436462402,-0.9885060104370117
1790587948887700200,2.9277001953125,2.214037985229492,9.694870709991454,-0.3751414726257324
1790587948897780200,2.9377802734375,1.5185224029541016,9.363573055267333,0.3480570663452148
1790587948907860000,2.94785986328125,1.9195511810302732,9.577405191040038,0.05850830307006836
1790587948917940200,2.957940185546875,1.694496224975586,9.764901108551024,-0.6664858871459961
1790587948928020000,2.96802001953125,1.6072575019836426,10.210970805358887,-0.4795885200500488
1790587948938100200,2.978100341796875,1.3786112434387205,10.263194329071045,0.08454524612426757
1790587948948180000,2.988179931640625,1.3254898941040039,10.145878447723389,0.28999767608642574
1790587948958260000,2.998260009765625,1.5453075340270994,9.922469505310058,0.06898293533325195
1790587948968340200,3.00834033203125,1.7030255683898925,9.764901108551024,-0.34012627334594725
1790587948978420000,3.018419921875,1.8679262077331542,9.797073193359374,-0.675464143371582
1790587948988500200,3.028500244140625,1.9782091217041013,9.95898108062744,-0.5943605621337891
1790587948998580000,3.038580078125,1.939602619934082,10.06791725616455,-0.2645592834472656
1790587949008659200,3.0486591796875,1.8164508720397947,10.119691867065429,0.0010474632263183592
1790587949018739000,3.058739013671875,1.7137994758605957,10.064325953674317,-0.05087678527832031
1790587949028819200,3.068819091796875,1.5734394035339354,9.94027638015747,-0.35718496017456053
1790587949038899200,3.078899169921875,1.5981296081542968,9.833884043884277,-0.4412812934875488
1790587949048979000,3.08897900390625,1.6929998489379883,9.708487731933593,-0.239420166015625
1790587949059059200,3.09905908203125,1.7717092285156248,9.638457333374022,0.03501519927978516
1790587949069139000,3.109138916015625,1.9898808547973632,9.745148944854735,0.08918401184082031
1790587949079219200,3.11921923828125,2.083105081939697,9.468917928314209,0.11222820281982421
1790587949089299000,3.129298828125,1.7949030570983886,8.911517854309082,0.13392565536499024
1790587949099379000,3.13937890625,1.0826280632019043,8.730755628967284,0.16310498809814453
1790587949109459200,3.149459228515625,0.5942109245300292,8.952518557739257,0.22221184158325194
1790587949119539000,3.1595390625,-0.1936310592651367,8.827571158599852,0.5018845230102539
1790587949129619200,3.169619140625,-0.5747580360412597,8.981847528076171,0.5966051261901855
1790587949139699000,3.179698974609375,-0.12135609664916991,9.431957440185545,0.3232172241210937
1790587949149779200,3.189779296875,1.0824784255981446,9.55032078475952,-0.023044190979003905
1790587949159859200,3.199859130859375,2.0323779342651367,9.809044201660155,0.0026934768676757813
1790587949169939000,3.20993896484375,2.456750178527832,9.835380419921874,0.047884033203124995
1790587949180019200,3.220019287109375,2.015319247436523,9.730035546875,0.040701428222656245
1790587949190099000,3.230098876953125,1.1519102737426756,9.73617068862915,0.10773907470703124
1790587949200179200,3.24017919921875,0.8837596878051758,9.696815998840332,0.31379005508422847
1790587949210259000,3.250259033203125,1.304390991973877,9.64683703918457,0.33099837951660155
1790587949220339000,3.2603388671875,1.610100616455078,9.74275474319458,-0.14125789794921875
1790587949230419200,3.270419189453125,1.3244424308776854,9.740061266326904,-0.3226186737060547
1790587949240499000,3.2804990234375,0.9382277755737304,9.777470667266845,-0.2027589530944824
1790587949250579200,3.2905791015625,1.0206780952453613,9.738265615081787,-0.01750759963989258
1790587949260659000,3.300658935546875,1.3500304611206053,9.705494979858399,0.060303954315185544
1790587949270739200,3.3107392578125,1.3646949462890625,9.679158761596678,-0.08634089736938476
1790587949280819200,3.320819091796875,1.2253823371887207,9.682600426483154,-0.33324294357299805
1790587949290899000,3.33089892578125,1.1825859825134277,9.746346045684813,-0.3550900337219238
1790587949300979200,3.340979248046875,1.304241354370117,9.778817405700684,-0.34611177749633787
1790587949311059000,3.351058837890625,1.3031938911437988,9.787646024322509,-0.33399113159179683
1790587949321139200,3.36113916015625,1.1668740341186523,9.733626849365233,-0.3895066825866699
1790587949331219000,3.371218994140625,1.0975918235778808,9.730933372497558,-0.3933972602844238
1790587949341299000,3.381298828125,1.1613374427795409,9.663895726013182,-0.4052186309814453
1790587949351379200,3.391379150390625,1.234809506225586,9.682750064086914,-0.381126976776123
1790587949361459000,3.401458984375,1.3166612754821776,9.717914900970458,-0.3773860366821289
1790587949371539200,3.411539306640625,1.2325649421691893,9.760561618041992,-0.5479729049682617
1790587949381619000,3.421618896484375,1.1592425163269042,9.776273566436767,-0.5792471641540528
1790587949391699200,3.43169921875,1.2051812606811523,9.798270294189452,-0.6575076309204101
1790587949401779200,3.441779296875,1.2466308769226073,9.767295310211182,-0.6057330200195312
1790587949411859000,3.45185888671875,1.1987468437194824,9.700856214141846,-0.5460276161193848
1790587949421939200,3.461939208984375,1.1358990501403807,9.68484499053955,-0.5801449897766113
1790587949432019000,3.47201904296875,1.1694178733825682,9.697115274047851,-0.6183025787353515
1790587949442099200,3.48209912109375,1.193210252380371,9.720758015441893,-0.6220435188293457
1790587949452179000,3.492178955078125,1.236006607055664,9.744849669647216,-0.6477811866760254
1790587949462259000,3.502259033203125,1.2144587921142578,9.767295310211182,-0.7387608497619629
1790587949472339200,3.512339111328125,1.1968015548706055,9.76235726928711,-0.7707832969665527
1790587949482419000,3.5224189453125,1.1942577156066894,9.73632032623291,-0.8658031753540039
1790587949492499200,3.532499267578125,1.1722609878540038,9.730334822082519,-0.787841983795166
1790587949502579000,3.542578857421875,1.1424831047058104,9.702202952575684,-0.8075941474914551
1790587949512659200,3.5526591796875,1.1677718597412108,9.728389533233642,-0.7971195152282714
1790587949522739200,3.5627392578125,1.2153566177368162,9.764452195739745,-0.8339303657531738
1790587949532819000,3.57281884765625,1.2183493698120116,9.796923555755615,-0.8866028022766113
1790587949542899200,3.582899169921875,1.176600478363037,9.783456171417235,-0.8399158699035644
1790587949552979000,3.59297900390625,1.2107178520202635,9.765050746154785,-0.8361749298095703
1790587949563059200,3.60305908203125,1.2421417488098143,9.713425772857665,-0.8933364944458008
1790587949573139200,3.61313916015625,1.248725803375244,9.714922148895264,-1.061080248260498
1790587949583219000,3.623218994140625,1.8860323577880858,10.211270080566406,-1.979705497741699
1790587949593299200,3.63329931640625,1.3702315376281737,9.22590645980835,-2.6307787117004393
1790587949603379000,3.64337890625,0.5660790550231933,9.947907897949218,-1.9060837966918944
1790587949613459200,3.653459228515625,0.6539163284301758,9.311648806762694,-0.9916484001159668
1790587949623539000,3.6635390625,1.3220482292175293,9.875333660125731,-0.02633621826171875
1790587949633619000,3.673618896484375,2.5383026725769042,9.42342809677124,-0.7109282554626465
1790587949643699200,3.68369921875,1.4050970993041991,10.145878447723389,-1.8363526733398436
1790587949653779000,3.693779052734375,0.9386766883850097,9.728988083648682,-2.210895595550537
1790587949663859200,3.703859130859375,0.6667851623535156,9.890895970916748,-1.2044330726623536
1790587949673939000,3.71393896484375,1.6585832000732421,9.694122521972655,-0.9401730644226074
1790587949684019200,3.724019287109375,1.5342343513488768,9.536404487609863,-1.460163737487793
1790587949694098000,3.734097900390625,0.881664761352539,9.41639512939453,-1.9315221893310546
1790587949704178200,3.74417822265625,1.1869254730224608,9.705195704650878,-2.895786907958984
1790587949714258000,3.7542578125,1.107617543029785,9.769539874267577,-2.7781717514038085
1790587949724338200,3.764338134765625,1.0260650489807128,9.945812971496581,-1.281346800994873
1790587949734418200,3.774418212890625,1.9403508079528808,9.976787955474853,-1.1113584831237793
1790587949744498000,3.784497802734375,2.2738930267333983,9.794678991699218,-1.8480244064331053
1790587949754578200,3.794578125,1.4148235435485839,9.577854103851317,-2.130390564727783
1790587949764658000,3.804657958984375,0.5858312187194824,9.490615380859374,-1.9189526306152342
1790587949774738200,3.81473828125,0.5584475372314452,9.575609539794922,-1.0039186836242675
1790587949784818200,3.824818115234375,1.453729320526123,9.680056587219237,-0.5229834251403809
1790587949794898000,3.83489794921875,2.0144214218139647,9.845855052185058,-1.11734398727417
1790587949804978200,3.844978271484375,1.4012065216064453,9.827150351715087,-1.6364368347167968
1790587949815058000,3.855057861328125,0.6277297477722168,9.792284790039062,-1.5625158584594725
1790587949825138200,3.86513818359375,1.3603554557800293,9.667187753295899,-1.1047744285583496
1790587949835218200,3.87521826171875,1.9975123725891113,9.588029460906982,-0.5657797798156738
1790587949845298200,3.885298095703125,1.5477017356872558,9.61496422958374,-0.4535515769958496
1790587949855378200,3.895378173828125,0.9513958847045898,9.788693487548828,-0.9701005851745604
1790587949865458000,3.9054580078125,1.1528080993652343,9.823110136413574,-0.9931447761535644
1790587949875538200,3.9155380859375,1.4443021514892578,9.74290438079834,-0.6509235763549804
1790587949885618000,3.925617919921875,1.3141174362182617,9.69741454925537,-0.3564367721557617
1790587949895698200,3.9356982421875,1.1866261978149413,9.619602995300292,-0.2507926239013672
1790587949905777700,3.945777587890625,1.182436344909668,9.612869303131102,-0.3877110313415527
1790587949915857700,3.955857666015625,1.507449220275879,9.68469535293579,-0.2629132698059082
1790587949925937700,3.965937744140625,1.5312415992736816,9.714622873687743,-0.13407529296874998
1790587949936017700,3.976017578125,1.2081740127563476,9.711480484008788,-0.19767127456665037
1790587949946098000,3.986097900390625,1.2660837654113768,9.746944596099853,-0.21891981430053709
1790587949956177700,3.996177734375,1.4036007232666015,9.71073229598999,-0.23089082260131835
1790587949966258000,4.0062578125,1.1643301948547362,9.657760584259032,-0.136619132232666
1790587949976337700,4.016337646484375,1.1908160507202148,9.677213472747802,0.11566986770629882
1790587949986417700,4.026417724609375,1.3606547309875487,9.626187049865722,0.10190320816040038
1790587949996497700,4.03649755859375,1.2556091331481933,9.753229375457764,-0.18869301834106444
1790587950006577700,4.04657763671875,1.1065700798034668,9.788394212341307,-0.3199251968383789
1790587950016658000,4.056657958984375,1.2126631408691406,9.816974994659423,-0.42766427154541015
1790587950026737700,4.066737548828125,1.268627604675293,9.656413845825195,-0.16445172653198242
1790587950036817700,4.076817626953125,1.1623849060058593,9.617508068847656,-0.1183633445739746
1790587950046897700,4.086897705078125,1.2642881141662596,9.575609539794922,-0.26066870574951173
1790587950056977700,4.096977783203125,1.2892775939941405,9.58354033279419,-0.4469675224304199
1790587950067058000,4.107057861328125,1.2159551681518554,9.632022916412353,-0.2684498611450195
1790587950077137700,4.1171376953125,1.1294646331787108,9.773131176757811,0.12719196319580078
1790587950087218000,4.127218017578125,0.9747393508911132,9.811737678527832,0.44367549514770505
1790587950097297700,4.137297607421875,1.1035773277282714,9.888352131652832,0.4230255058288574
1790587950107377700,4.147377685546875,1.0708066925048827,9.707290631103515,-0.22355858001708984
1790587950117457700,4.157457763671875,0.7643488800048828,9.581595043945311,-0.10684124908447265
1790587950127537700,4.16753759765625,0.5594950004577637,9.542090716552734,0.14036007232666015
1790587950137618000,4.177617919921875,0.6596025573730468,9.682750064086914,0.8686462898254395
1790587950147697700,4.18769775390625,0.9476549446105956,10.05459950942993,1.7853262504577636
1790587950157777700,4.197777587890625,0.9600748657226562,10.121038605499267,1.690605647277832
1790587950167857700,4.207857666015625,0.8924386688232422,9.893888722991942,0.7897872726440429
1790587950177937700,4.217937744140625,0.9786299285888671,9.711031571197509,0.35179800643920894
1790587950188018000,4.228017822265625,0.9861118087768554,9.570821136474608,0.31872809600830077
1790587950198097700,4.23809765625,0.4830301849365234,9.520991814422606,0.19557634811401367
1790587950208178000,4.248177978515625,0.9293991569519042,9.740659816741942,0.29882629470825195
1790587950218257700,4.258257568359375,1.0975918235778808,9.737218151855469,0.2109890213012695
1790587950228337700,4.268337646484375,0.6682815383911133,9.882067352294921,0.3898059577941894
1790587950238417700,4.278417724609375,0.6814496475219726,9.86411083984375,0.8257002975463866
1790587950248497700,4.28849755859375,0.8019079185485839,9.907356107330322,0.9488520454406738
1790587950258578000,4.298577880859375,0.9100959060668945,9.816077169036864,0.8116343627929687
1790587950268657700,4.30865771484375,0.9011176498413085,9.75547393951416,0.49724575729370113
1790587950278737700,4.318737548828125,0.8662520881652832,9.594014965057372,0.14484920043945312
1790587950288817700,4.328817626953125,0.7408557762145995,9.701155489349365,-0.020949264526367185
1790587950298897700,4.338897705078125,0.9909002120971679,9.789142400360106,-0.006434416961669922
1790587950308978000,4.34897802734375,0.9877578224182129,9.758017778778076,0.3904045082092285
1790587950319057700,4.3590576171875,0.8930372192382812,9.77462755279541,0.44801498565673825
1790587950329137000,4.369136962890625,1.0018237571716309,9.79303297805786,0.2700958747863769
1790587950339216600,4.379216552734375,1.1053729789733886,9.85632968444824,0.08843582382202148
1790587950349297000,4.389296875,1.2349591438293457,9.954940865325927,-0.21263503494262695
1790587950359376600,4.399376708984375,1.13649760055542,9.81996774673462,-0.20231004028320312
1790587950369457000,4.409456787109375,1.0215759208679198,9.663147537994384,-0.018854338073730468
1790587950379536600,4.41953662109375,1.1791443176269532,9.567379471588135,-0.04339490509033203
1790587950389616600,4.42961669921875,1.2876315803527831,9.51261210861206,-0.12853870162963865
1790587950399697000,4.43969677734375,1.2868833923339842,9.630077627563477,-0.21652561264038084
1790587950409776600,4.449776611328125,1.3633482078552246,9.849147079467773,0.02454056701660156
1790587950419857000,4.45985693359375,1.449838742828369,9.970353538513184,0.37828386230468747
1790587950429936600,4.4699365234375,1.488894157409668,10.00491982498169,0.6322188758850097
1790587950440016600,4.4800166015625,1.4239514373779296,9.699659113311768,0.7070376777648926
1790587950450097000,4.490096923828125,1.3651438591003417,9.408763611602783,0.5502174690246582
1790587950460176600,4.5001767578125,1.552639776611328,9.190442347717285,0.4860229370117187
1790587950470257000,4.5102568359375,1.6674118186950682,9.317185398101806,0.4923077163696289
1790587950480336600,4.520336669921875,1.7432780838012694,9.599401918792724,0.5069722015380859
1790587950490416600,4.530416748046875,1.8089689918518066,9.924714069366454,0.9213187263488769
1790587950500496600,4.54049658203125,1.8743606246948241,10.044873065185547,1.3452420578002928
1790587950510576600,4.55057666015625,1.3504793739318848,9.912443785858153,1.4284405654907226
1790587950520657000,4.560656982421875,0.9639654434204101,9.772831901550292,1.1384428894042968
1790587950530736600,4.570736572265625,1.1098621070861816,9.572766425323486,0.7716811225891113
1790587950540817000,4.58081689453125,1.4380173721313476,9.565583820343017,0.40028059005737304
1790587950550896600,4.590896728515625,1.7130512878417967,9.617358431243895,0.5289689292907714
1790587950560976600,4.6009765625,1.7357962036132812,9.705345342254638,1.192611701965332
1790587950571057000,4.611056884765625,1.6539444343566894,9.667487028503418,1.674594423675537
1790587950581136600,4.62113671875,1.6460136413574218,9.702651865386962,1.9678841270446776
1790587950591217000,4.631216796875,2.0751742889404294,9.708338094329834,1.813757395172119
1790587950601296600,4.641296630859375,1.9795558601379393,9.655964933013916,1.0538976432800293
1790587950611376600,4.651376708984375,1.3831003715515136,9.560645779418945,0.33144729232788084
1790587950621456600,4.66145654296875,1.2173019065856934,9.51859761276245,-0.17178396911621094
1790587950631536600,4.67153662109375,1.741033519744873,9.622595747375488,-0.44098201828002925
1790587950641617000,4.681616943359375,2.0862474716186523,9.730783734893798,-0.21652561264038084
1790587950651696600,4.691696533203125,2.0877438476562498,9.874286196899414,0.2458545829772949
1790587950661777000,4.70177685546875,2.1046528968811034,9.840468098449707,0.8137292892456054
1790587950671856600,4.711856689453125,1.9125182136535643,9.63456675567627,1.1240776794433593
1790587950681936600,4.7219365234375,1.7769465446472168,9.426420848846435,1.1189900009155274
1790587950692017000,4.732016845703125,1.78113639755249,9.268104264068603,0.9169792358398436
1790587950702096600,4.7420966796875,1.6623241401672362,9.394099126434325,0.4655225852966308
1790587950712177000,4.752177001953125,1.8118121063232422,9.662399349975585,0.20081366424560546
1790587950722256600,4.762256591796875,2.139368820953369,9.977236868286132,0.34401685104370117
1790587950732336600,4.772336669921875,1.9671359390258787,10.014496631622315,0.6239888076782226
1790587950742417000,4.7824169921875,1.543062969970703,9.983072734832763,0.654365241241455
1790587950752496600,4.79249658203125,1.5809212837219238,9.783605809020996,0.3842693664550781
1790587950762577000,4.802576904296875,1.697638614654541,9.590274024963378,0.3767874862670898
1790587950772656600,4.81265673828125,1.8421885398864746,9.373598774719238,0.8596680335998534
1790587950782737000,4.82273681640625,1.8689736709594726,9.311050256347656,1.3066355560302734
1790587950792816600,4.832816650390625,1.9023428565979004,9.32795930557251,1.6627730529785156
1790587950802896600,4.842896728515625,1.9228432083129883,9.504531678009032,1.4366706336975097
1790587950812977000,4.852976806640625,1.8347066596984862,9.735422500610351,0.8756792572021483
1790587950823056600,4.863056640625,1.8755577255249023,9.813832604980469,0.6287772109985351
1790587950833137000,4.873136962890625,1.6949451377868652,9.737068514251709,0.7009025360107421
1790587950843216600,4.883216552734375,1.3871405868530273,9.609427638244629,1.036838956451416
1790587950853296600,4.893296630859375,1.299153675842285,9.587879823303222,1.3051391799926757
1790587950863377000,4.903376953125,1.2883797683715819,9.562142155456542,1.4510358436584472
1790587950873456600,4.91345654296875,1.2746131088256836,9.607332711791992,1.3220482292175293
1790587950883537000,4.923536865234375,1.5415665939331054,9.69112976989746,1.1517606361389159
1790587950893616600,4.93361669921875,1.6163853958129881,9.745148944854735,0.9721955116271972
1790587950903700000,4.943699951171875,1.4489409172058105,9.769839149475096,0.9080009796142577
1790587950913779700,4.95377978515625,1.2969091117858886,9.732579386138916,1.0242693977355957
1790587950923859700,4.963859619140625,1.2841899154663086,9.675268183898925,1.118541088104248
1790587950933940000,4.97393994140625,1.2105682144165038,9.472958143615722,1.0571896705627442
1790587950944019700,4.984019775390625,1.2211924842834472,9.829394915771484,1.0152911415100097
1790587950954100000,4.994099853515625,0.4670189613342285,9.746196408081055,0.9599252281188965
1790587950964179700,5.0041796875,1.6579846496582031,9.593117139434813,1.1424831047058104
1790587950974260000,5.014260009765625,1.2792518745422363,9.26361513595581,0.7767688011169434
1790587950984338700,5.024338623046875,1.328632283782959,10.178349807739258,0.8857049766540527
1790587950994419000,5.0344189453125,2.4378958404541016,9.869348155975342,1.2746131088256836
1790587951004498700,5.044498779296875,0.37828386230468747,9.502736026763916,0.9077017044067383
1790587951014579000,5.054578857421875,1.6716016716003417,10.302997931671142,0.45295302658081055
1790587951024659000,5.064658935546875,1.9578584075927734,9.119364485931396,0.9335890098571776
1790587951034738700,5.07473876953125,0.6012438919067382,9.828197814941406,0.11821370697021484
1790587951044819000,5.08481884765625,2.126649624633789,9.443180260467528,1.0752958206176757
1790587951054898700,5.094898681640625,0.5779004257202148,9.32107597579956,1.3441945945739746
1790587951064979000,5.10497900390625,0.41524435043334956,9.808894564056397,0.6587047317504883
1790587951075059000,5.115058837890625,2.3116017028808593,10.13779801712036,0.9074024291992187
1790587951085138700,5.125138671875,0.23747487716674803,9.6779616607666,1.0576385833740234
1790587951095219000,5.135218994140625,-0.3716998077392578,10.314520027160643,1.3446435073852538
1790587951105298700,5.145298583984375,1.3462895210266113,9.245508985900878,1.854758098602295
1790587951115379000,5.15537890625,0.3398269981384277,9.244012609863281,0.9808744926452636
1790587951125458700,5.165458740234375,2.658012755584717,9.702651865386962,0.670975015258789
1790587951135539000,5.1755390625,2.806453258514404,9.411906001281737,0.750133307647705
1790587951145619000,5.185618896484375,1.9610007972717285,10.15769981842041,0.6868366012573242
1790587951155698700,5.19569873046875,1.4170681076049805,9.763404732513427,1.313967798614502
1790587951165779000,5.205779052734375,-0.3456628646850586,10.075997686767577,1.1981482933044434
1790587951175858700,5.215858642578125,0.52986675491333,10.092757098388672,1.0063128852844239
1790587951185939000,5.22593896484375,1.6596306632995605,9.769390236663817,1.1028291397094725
1790587951196019000,5.23601904296875,1.2328642173767088,9.275586144256591,0.697161595916748
1790587951206098700,5.2460986328125,0.42871173477172847,8.933514582061767,1.1200374641418456
1790587951216179000,5.256178955078125,0.5214870491027832,9.451111053466796,1.4226046989440917
1790587951226258700,5.2662587890625,2.0603601661682127,9.801113408660887,1.0242693977355957
1790587951236339000,5.2763388671875,2.4697686500549314,10.076147324371338,1.1104606575012206
1790587951246418700,5.286418701171875,1.0239701225280762,9.974693029022216,0.6619967590332031
1790587951256498700,5.296498779296875,0.6260837341308594,9.94102456817627,0.4171896392822265
1790587951266579000,5.306578857421875,1.1502642601013182,9.524134204101562,0.9822212310791015
1790587951276658700,5.31665869140625,0.9479542198181152,9.412953464508057,0.6316203254699707
1790587951286739000,5.326739013671875,0.6606500205993652,9.469666116333007,1.3723264640808104
1790587951296818700,5.336818603515625,0.8955810585021972,9.605537060546874,0.9849147079467773
1790587951306899000,5.34689892578125,1.1716624374389648,9.854085120391845,0.5662286926269531
1790587951316979000,5.35697900390625,1.46195938873291,10.01015714111328,0.4101566719055176
1790587951327058700,5.36705859375,1.5536872398376464,9.956437241363524,0.5568015235900878
1790587951337139000,5.377138916015625,1.1828852577209472,9.656563483428954,0.9542389991760253
1790587951347218700,5.38721875,0.689530078125,9.529820433044433,1.0672153900146484
1790587951357299000,5.397298828125,0.6408978569030761,9.497049797821044,1.0592845970153808
1790587951367378700,5.407378662109375,0.9997288307189941,9.68409680252075,0.9069535163879394
1790587951377458700,5.417458740234375,0.8490437637329101,9.688735568237304,0.9211690887451172
1790587951387539000,5.4275390625,0.41105449752807616,9.789740950775146,1.047762501525879
1790587951397618700,5.43761865234375,0.6851905876159667,9.879373875427245,1.2241852363586425
1790587951407699000,5.447698974609375,1.3525743003845214,9.969306075286864,1.2792518745422363
1790587951417778700,5.45777880859375,1.2395979095458984,9.919626390838623,1.2636895637512207
1790587951427859000,5.46785888671875,0.42766427154541015,9.701604402160644,1.3165116378784179
1790587951437939000,5.47793896484375,0.4816834465026855,9.573664250946045,1.1819874320983885
1790587951448018700,5.488018798828125,0.9195230751037597,9.559897591400146,1.1142015975952149
1790587951458099000,5.498098876953125,0.7073369529724121,9.69083049468994,1.2431892120361328
1790587951468178700,5.5081787109375,0.330699104309082,9.798569569396973,1.3217489540100096
1790587951478259000,5.518259033203125,0.6368576416015624,9.915885450744629,1.4600140998840332
1790587951488338700,5.528338623046875,1.005564697265625,9.974693029022216,1.401954709625244
1790587951498418700,5.538418701171875,0.6150105514526367,9.964068759155273,1.2716203567504882
1790587951508499000,5.5484990234375,0.4080617454528808,9.798719207000731,1.5333365257263183
1790587951518578700,5.55857861328125,0.48123453369140623,9.57067149887085,1.7178396911621092
1790587951528659000,5.568658935546875,0.27563246612548825,9.54463455581665,1.8224363761901854
1790587951538738700,5.57873876953125,0.017357962036132813,9.636960957336425,1.992574331665039
1790587951548819000,5.58881884765625,0.4171896392822265,9.878775325012207,1.8136077575683593
1790587951558899000,5.59889892578125,1.078288572692871,9.95284593887329,1.6186299598693847
1790587951568978700,5.608978759765625,1.0016741195678711,9.83882208480835,2.082506531524658
1790587951579059000,5.619058837890625,0.438587816619873,9.72360112991333,2.4958055931091305
1790587951589138700,5.629138671875,0.29134441452026366,9.746346045684813,2.8324902015686035
1790587951599219000,5.639218994140625,0.5620388397216797,9.796325005340575,3.0769980461120605
1790587951609298700,5.649298583984375,0.35314474487304687,9.725995331573486,2.5567080978393553
1790587951619378700,5.659378662109375,0.37005379409790035,9.86994670639038,1.9680337646484374
1790587951629459000,5.669458984375,0.7612064903259277,9.63456675567627,2.0196587379455564
1790587951639538700,5.67953857421875,0.36795886764526364,9.400832818603515,1.9428946472167967
1790587951649619000,5.689618896484375,0.5639841285705566,9.028235185241698,2.450465399169922
1790587951659698700,5.69969873046875,1.3844471099853515,9.229647399902344,2.7355250343322752
1790587951669779000,5.709779052734375,1.7289128738403319,10.41223338241577,2.5317186180114746
1790587951679859000,5.71985888671875,0.8170213165283202,10.797101299285888,1.7565958305358886
1790587951689938700,5.729938720703125,0.4191349281311035,10.431835908508301,0.4400841926574707
1790587951700019000,5.74001904296875,1.415272456359863,9.565583820343017,-0.3229179489135742
1790587951710098700,5.7500986328125,1.1212345649719238,8.757690397644042,-0.30735563812255856
1790587951720179000,5.760178955078125,0.016160861206054686,8.578574185943603,-0.16250643768310546
1790587951730259000,5.770259033203125,0.6085761344909668,9.240570944976806,0.0618003303527832
1790587951740338700,5.780338623046875,1.8323124580383299,9.976638317871092,0.20335750350952148
1790587951750419000,5.7904189453125,1.0324994659423827,10.608857193756103,0.2991255699157715
1790587951760498700,5.800498779296875,0.82360537109375,11.059266381072998,0.30346506042480464
1790587951770579000,5.810578857421875,1.2301707405090332,10.252121146392822,0.09995791931152344
1790587951780658700,5.82065869140625,0.23822306518554687,9.455450543975829,-0.5865794067382812
1790587951790739000,5.830739013671875,0.6402993064880371,9.208548497772217,-1.0532990928649901
1790587951800819000,5.84081884765625,0.745644179534912,8.701426658630371,-0.8731354179382323
1790587951810898700,5.850898681640625,0.3993827644348144,9.150788382720947,-0.6778583450317383
1790587951820979000,5.86097900390625,1.5910966407775877,9.929203197479248,0.10100538253784179
1790587951831058700,5.87105859375,1.759588582611084,10.280701928710936,0.8135796516418456
1790587951841139000,5.881138916015625,0.8467991996765136,10.23401499633789,1.4573206230163573
1790587951851217700,5.8912177734375,0.1001075569152832,9.821763397979735,0.755220986175537
1790587951861298700,5.901298583984375,-0.3808277015686035,9.581146131134032,0.4103063095092773
1790587951871377700,5.911377685546875,0.13721768264770506,9.67856021118164,-0.08140285644531249
1790587951881458000,5.9214580078125,0.7029974624633789,9.666589202880859,-0.6549637916564941
1790587951891538000,5.931537841796875,1.3584101669311524,9.798569569396973,-0.3746925598144531
1790587951901615000,5.941614990234375,1.1513117233276366,9.918429290008545,-0.49949032135009763
1790587951911695400,5.9516953125,0.5574000740051269,9.743951844024657,0.07077858657836913
1790587951921772300,5.961772216796875,0.5511152946472168,9.32736075515747,0.3054103492736816
1790587951931852300,5.971852294921875,0.6762123313903808,9.374496600341796,0.6804021842956542
1790587951941932300,5.981932373046875,0.9006687370300293,10.173411766815185,0.733523533630371
1790587951952012300,5.99201220703125,-0.09053075027465819,9.964966584777832,0.639700756072998
1790587951962092300,6.00209228515625,-0.48617257461547847,10.276960988616942,1.1013327636718748
1790587951972172300,6.01217236328125,0.2232593048095703,9.904363355255127,0.8005611801147461
1790587951982252300,6.022252197265625,0.24346038131713865,9.845256501770018,0.74699091796875
1790587951992332300,6.032332275390625,0.5189432098388671,9.66000514831543,0.9843161575317382
1790587952002412300,6.042412353515625,-0.019003975677490233,9.60149684524536,1.71095636138916
1790587952012492300,6.0524921875,0.66394204788208,9.835530057525634,1.9253870475769042
1790587952022572300,6.062572265625,1.052850180053711,9.881169526672362,2.7020062110900875
1790587952032652000,6.072652099609375,0.00613514175415039,10.353725079345702,2.9535470230102536
1790587952042732300,6.082732177734375,0.032172084808349606,10.18298857345581,2.3728034828186035
1790587952052812300,6.092812255859375,-0.13168109130859373,9.995642293548583,2.652476164245605
1790587952062892300,6.102892333984375,-0.08080430603027343,10.112509262084961,3.127874831390381
1790587952072972300,6.11297216796875,0.33054946670532226,10.225485652923583,3.715052788543701
1790587952083052000,6.123052001953125,0.2512415367126465,10.034248795318604,4.71822328414917
1790587952093132300,6.13313232421875,-0.18315642700195311,9.304166926574707,5.692364084625244
1790587952103212300,6.14321240234375,-0.229843359375,9.631723641204834,6.986130806732177
1790587952113292300,6.153292236328125,0.15218144302368164,10.108917959594725,7.954585378265381
1790587952123372300,6.163372314453125,-0.28745383682250975,9.69142904510498,7.863156802368164
1790587952133452300,6.173452392578125,-1.3346177879333496,9.79408044128418,6.299593480682373
1790587952143532300,6.1835322265625,-1.0516530792236327,10.581772787475586,4.088398609924316
1790587952153612000,6.193612060546875,-0.9211690887451172,9.581595043945311,5.060594121551514
1790587952163692300,6.2036923828125,-1.6220716247558593,8.39526812133789,6.140678345489501
1790587952173772300,6.213772216796875,-0.805050308227539,8.314164540100098,5.718849940490722
1790587952183852300,6.223852294921875,-0.6251859085083007,8.987384119415283,5.499331575775146
1790587952193932300,6.233932373046875,-1.001075569152832,10.287585258483887,4.832247138214111
1790587952204012000,6.244011962890625,-0.08424597091674804,10.697891567993164,2.94292275314331
1790587952214092300,6.25409228515625,0.6420949577331543,10.318260967254638,3.0635306617736813
1790587952224172300,6.26417236328125,-0.19662381134033202,9.600150106811522,3.5034652168273923
1790587952234252300,6.274252197265625,-1.1215338401794432,8.181435985565185,4.4211926406860345
1790587952244332300,6.284332275390625,-0.9080009796142577,8.602067289733887,6.408828931427002
1790587952254412300,6.294412353515625,0.45325230178833004,9.728539170837402,5.267692565155029
1790587952264492300,6.3044921875,1.0027215827941893,8.422053252410889,2.8956372703552242
1790587952274572000,6.314572021484375,0.16983868026733398,9.7683427734375,1.7878700897216795
1790587952284652300,6.32465234375,0.6622960342407226,9.70444751663208,-0.5213374114990235
1790587952294732300,6.334732177734375,0.7576151878356933,9.534908111572266,-1.5280992095947266
1790587952304812300,6.344812255859375,0.25004443588256836,9.503035301971435,0.5596446380615234
1790587952314892300,6.354892333984375,0.2519897247314453,8.761730612945556,3.2095769630432125
1790587952324972000,6.364971923828125,0.4085106582641601,9.635165306091308,3.7141549629211426
1790587952335052300,6.37505224609375,1.7286135986328124,10.08093572769165,1.7935563186645507
1790587952345132300,6.38513232421875,0.6995557975769042,9.368511096191405,-0.405368268585205
1790587952355212300,6.39521240234375,0.1301847152709961,9.204508282470703,-1.9633949989318846
1790587952365292300,6.405292236328125,1.1192892761230469,9.200617704772949,-3.0737060188293457
1790587952375372300,6.415372314453125,1.6029180114746093,9.907206469726562,-4.784812017822265
1790587952385452300,6.425452392578125,0.21652561264038084,11.064802972412108,-4.129100038146972
1790587952395532000,6.435531982421875,-0.3447650390625,8.911068941497803,-0.37319618377685543
1790587952405612300,6.4456123046875,-1.0634744499206543,8.54191297302246,0.9437643669128417
1790587952415692300,6.4556923828125,-0.38097733917236326,9.48133784942627,-3.3420062423706054
1790587952425772300,6.465772216796875,1.5976806953430174,10.518176805877685,-5.061342309570312
1790587952435852300,6.475852294921875,1.2134113288879393,10.83451070022583,-3.948487450408935
1790587952445932000,6.48593212890625,0.35778351058959956,11.283124236297606,-2.2834698333740233
1790587952456012300,6.49601220703125,-0.33369185638427734,9.18026699066162,-2.0313304710388183
1790587952466092300,6.50609228515625,-0.6208464179992675,9.120112673950194,-1.844433103942871
1790587952476172300,6.51617236328125,0.7866448829650878,9.277232157897949,-2.310703877258301
1790587952486252300,6.526252197265625,1.2593500732421874,10.668412960052489,-2.0337246726989746
1790587952496332300,6.536332275390625,0.06643909606933593,9.983372010040283,-0.19048866958618163
1790587952506412300,6.546412353515625,0.012419921112060545,9.899425314331054,-0.8882488159179687
1790587952516492000,6.556491943359375,0.8864531646728515,8.846425496673584,-2.422333529663086
1790587952526572300,6.566572265625,0.25004443588256836,10.178050532531739,-2.291250988769531
1790587952536652300,6.57665234375,0.4435258575439453,10.816404550170898,-3.9459436111450192
1790587952546732300,6.586732177734375,1.286434479522705,10.806528468322753,-4.320336895751953
1790587952556812300,6.596812255859375,0.4786906944274902,9.693523971557617,-3.407248237609863
1790587952566892000,6.60689208984375,0.3494038047790527,9.110086954498291,-2.2966379425048826
1790587952576972300,6.61697216796875,0.11327566604614257,7.978677032470703,-1.4112322410583495
1790587952587052300,6.62705224609375,-0.5229834251403809,8.992920710754394,-0.5309142181396485
1790587952597132300,6.63713232421875,2.03656778717041,10.53403839187622,-1.7823334983825683
1790587952607212300,6.64721240234375,2.3108535148620604,11.366322743988036,-3.5218706420898434
1790587952617292300,6.657292236328125,0.18555062866210936,9.885060104370117,-3.3807623817443844
1790587952627372300,6.667372314453125,-1.726967584991455,8.270470359802246,-2.0712837112426756
1790587952637452000,6.6774521484375,-0.5503671066284179,9.431658164978026,-1.7045219444274902
1790587952647532300,6.6875322265625,2.7027543991088865,10.484508345031738,-0.4730044654846191
1790587952657612300,6.6976123046875,3.229778039550781,9.931298123931883,0.4225765930175781
1790587952667692300,6.7076923828125,2.0814590682983396,9.329754956817627,-0.07347206344604491
1790587952677772300,6.717772216796875,1.2205939338684082,9.866505041503906,-2.2041619033813475
1790587952687852000,6.72785205078125,2.1350293304443357,10.370933403778075,-2.029684457397461
1790587952697932300,6.737932373046875,0.9133879333496093,9.745298582458496,-0.748936206817627
1790587952708012300,6.74801220703125,0.17387889556884764,9.808296013641357,-1.8589479515075682
1790587952718092300,6.75809228515625,3.4913445709228514,9.443928448486327,-0.7445967163085937
1790587952728172300,6.76817236328125,3.3228526290893554,8.82278275527954,0.7553706237792969
1790587952738252300,6.778252197265625,1.981052236175537,9.251644127655029,0.25258827514648435
1790587952748332300,6.788332275390625,0.7846995941162109,9.068487700653076,0.3935468978881836
1790587952758412000,6.798412109375,0.4837783729553222,10.378564921569824,0.31438860549926756
1790587952768492300,6.8084921875,3.561674244689941,10.720037933349609,0.2262520568847656
1790587952778572300,6.818572265625,4.032284508514404,10.489596023559569,-0.5642834037780762
1790587952788652300,6.82865234375,2.1643583007812497,10.15710126800537,-1.514332550048828
1790587952798732300,6.838732177734375,-0.6425438705444335,9.03392141418457,-1.0369885940551757
1790587952808812000,6.84881201171875,-1.1700164237976074,8.97601166152954,-0.15248071823120116
1790587952818892300,6.858892333984375,0.5539584091186524,8.404844927978516,0.34820670394897457
1790587952828972300,6.86897216796875,3.2392052085876464,9.695020347595214,-0.15128361740112303
1790587952839052300,6.87905224609375,4.034229797363281,10.555735844421386,-0.13377601776123046
1790587952849132300,6.88913232421875,0.14499883804321287,10.013299530792235,0.6370072792053222
1790587952859212300,6.89921240234375,-2.615515676116943,9.132083682250975,1.0995371124267577
1790587952869292300,6.909292236328125,-0.5301660301208496,10.369885940551757,1.1791443176269532
1790587952879372300,6.919372314453125,3.6290111663818356,9.374646237945557,0.18375497741699218
1790587952889452300,6.929452392578125,3.502417753601074,9.249549201202392,0.10190320816040038
1790587952899532300,6.9395322265625,0.625036270904541,9.354744436645507,0.6362590911865234
1790587952909611800,6.94961181640625,0.043245267486572266,9.258976370239257,2.0177134490966795
1790587952919691800,6.95969189453125,1.395071379852295,9.553313536834716,2.193537633514404
1790587952929771800,6.969771728515625,2.9686604209899903,9.840318460845946,1.2651859397888183
1790587952939851800,6.979851806640625,2.1800702491760253,10.427047505187987,0.8958803337097168
1790587952949931500,6.989931640625,0.9214683639526366,11.117325771331787,1.2373533454895018
1790587952960011800,7.00001171875,0.738012661743164,9.954791227722167,1.1966519172668457
1790587952970091500,7.010091552734375,1.4010568840026854,9.333346259307861,1.4659996040344236
1790587952980171800,7.020171875,3.005022358703613,8.10901138534546,0.7492354820251464
1790587952990251800,7.030251708984375,3.1419407661437986,8.468889822387695,-0.2289455337524414
1790587953000331500,7.04033154296875,2.8112416618347167,10.945242527008055,-0.13946224670410157
1790587953010411800,7.050411865234375,1.8065747901916502,11.326818416595458,0.7790133651733397
1790587953020491500,7.060491455078125,0.6554127044677734,10.66197854309082,0.8843582382202148
1790587953030571800,7.07057177734375,0.9701005851745604,9.619453357696532,0.44756607284545896
1790587953040651800,7.08065185546875,2.3747487716674804,8.283488831329345,0.46627077331542965
1790587953050731800,7.090731689453125,1.4040496360778807,9.25718071899414,0.8517372406005859
1790587953060811800,7.100811767578125,2.020706201171875,9.760561618041992,1.2990040382385253
1790587953070891500,7.1108916015625,0.7103297050476074,9.89508582382202,1.8447323791503905
1790587953080970800,7.120970703125,1.8324620956420898,10.487501097106932,1.3537714012145996
1790587953091050800,7.13105078125,4.081066367340088,10.62367131652832,1.5291466728210448
1790587953101130800,7.141130859375,1.3989619575500487,10.064625228881836,1.898601916503906
1790587953111210500,7.15121044921875,-0.14335282440185546,9.326014016723633,2.118868469238281
1790587953121290800,7.161290771484375,1.343895319366455,9.846453602600096,2.136824981689453
1790587953131370800,7.171370849609375,2.550572956085205,9.607183074188232,2.3843255783081054
1790587953141450800,7.18145068359375,1.1450269439697265,9.471012854766846,2.007987004852295
1790587953151530800,7.19153076171875,1.426196001434326,10.61648871154785,1.9692308654785156
1790587953161610500,7.201610595703125,2.464980246734619,8.735843307495117,2.5936685859680173
1790587953171690800,7.211690673828125,0.3479074287414551,8.873509902954101,1.688660358428955
1790587953181770800,7.221770751953125,2.480392919921875,10.287734896087645,1.7444751846313475
1790587953191850800,7.231850830078125,3.0253730728149413,9.465027350616454,3.1631893058776854
1790587953201930800,7.2419306640625,-0.14739303970336914,9.85632968444824,2.249801372528076
1790587953212010500,7.252010498046875,2.350657117462158,10.658387240600586,2.473958502960205
1790587953222090800,7.2620908203125,3.672256433868408,10.89092407684326,3.051110740661621
1790587953232170500,7.27217041015625,0.9932944137573242,9.497947623443602,2.4212860664367675
1790587953242250800,7.282250732421875,-0.1083376251220703,8.875754467010497,2.664896085357666
1790587953252330800,7.292330810546875,-0.5536591339111328,7.077409745025634,1.5946879432678223
1790587953262410800,7.30241064453125,0.8134300140380859,9.00923120956421,1.464652865600586
1790587953272490800,7.31249072265625,3.455281908416748,10.54032317123413,1.7589900321960448
1790587953282570500,7.322570556640625,3.1151556350708005,8.795249436187744,1.9469348625183105
1790587953292650800,7.332650634765625,1.5626654960632322,9.156474611663818,1.562964771270752
1790587953302730800,7.342730712890625,-0.1548749198913574,11.79802723083496,-0.3318962051391601
1790587953312810800,7.352810791015625,2.365920153045654,12.179303845214843,1.601271997833252
1790587953322890800,7.362890869140625,0.41793782730102536,8.342296409606933,4.07313557434082
1790587953332970500,7.372970458984375,0.6405985816955566,8.64396581878662,1.6112977172851561
1790587953343050800,7.38305078125,6.074538524627685,7.42471862335205,-2.1248539733886718
1790587953353130800,7.393130859375,5.800402434539794,8.292018174743651,-2.4253262817382812
1790587953363210800,7.403210693359375,-0.328155265045166,8.956858048248291,0.63206923828125
1790587953373290800,7.413290771484375,-3.5509003372192383,10.625466967773438,2.899827123260498
1790587953383370800,7.423370849609375,-0.12060790863037109,12.12408756942749,1.3340192375183104
1790587953393450800,7.43345068359375,7.16315209197998,11.363030716705321,-0.8644564369201659
1790587953403530500,7.443530517578125,9.599102643585205,8.65623610229492,-0.6708253776550293
1790587953413610800,7.45361083984375,4.7931917236328125,6.839485955047607,0.004938040924072265
1790587953423690800,7.463690673828125,-0.8292916000366211,8.326734098815917,-0.5559036979675293
1790587953433770800,7.473770751953125,-1.4713865577697753,9.764003282928467,-1.1155483360290526
1790587953443850800,7.483850830078125,2.8520927276611325,11.061510945129394,-0.7734767738342284
1790587953453930500,7.493930419921875,5.623830062103271,10.847828446960449,0.5199906730651855
1790587953464010800,7.5040107421875,2.87932677154541,9.303867651367186,1.7480664871215819
1790587953474090800,7.5140908203125,0.8607154968261719,9.899425314331054,1.356614515686035
1790587953484170800,7.524170654296875,2.6273370468139645,9.104849638366698,1.3563152404785155
1790587953494250800,7.534250732421875,0.8622118728637694,7.573608039093017,1.6907552848815917
1790587953504330800,7.544330810546875,0.06389525680541992,9.654318919372558,0.685040950012207
1790587953514410800,7.55441064453125,3.169025172424316,10.385448251342773,0.6323685134887695
1790587953524490500,7.564490478515625,2.2418705795288085,9.999083958435058,1.5614683952331543
1790587953534570800,7.57457080078125,0.7972691528320313,9.575310264587403,0.8470984748840331
1790587953544650800,7.584650634765625,1.9125182136535643,8.961047901153563,1.1622352684020996
1790587953554730800,7.594730712890625,2.1130326026916504,10.084975942993163,1.3455413330078123
1790587953564810800,7.604810791015625,1.4791677131652832,10.453832636260985,1.6014216354370117
1790587953574890500,7.614890380859375,0.5861304939270019,9.483582413482665,2.608482708740234
1790587953584970800,7.624970703125,0.2533364631652832,8.766219741058348,2.3774422485351563
1790587953595050800,7.63505078125,0.4203320289611816,9.443329898071289,2.0491373458862303
1790587953605130800,7.645130859375,1.8171990600585937,10.284143593597411,2.274192301940918
1790587953615210800,7.655210693359375,2.0727800872802735,10.950330205535888,2.1059996353149413
1790587953625290800,7.665290771484375,-0.6362590911865234,8.716091143798828,2.5863363433837887
1790587953635370800,7.675370849609375,-1.5408184059143066,9.541791441345215,2.7814637786865233
1790587953645450500,7.685450439453125,1.81315884475708,9.39140564956665,3.282600113677978
1790587953655530800,7.69553076171875,2.4984990699768064,8.620622352600098,2.8260557846069334
1790587953665610800,7.70561083984375,1.9750667320251463,9.966762236022948,0.5539584091186524
1790587953675690800,7.715690673828125,1.5056535690307615,10.110115060424803,-0.7860463325500487
1790587953685770800,7.725770751953125,0.8631096984863281,10.570101054382324,1.5652093353271483
1790587953695850500,7.7358505859375,1.7111059989929198,10.158298368835448,3.6834792541503902
1790587953705930800,7.7459306640625,0.6287772109985351,8.374618132019043,3.200449069213867
1790587953716010800,7.7560107421875,0.11177929000854492,9.28920316619873,3.0303111137390135
1790587953726090800,7.7660908203125,3.155857063293457,9.387963984680175,3.162740393066406
1790587953736170800,7.776170654296875,2.085200008392334,8.419808688354491,2.921674213409424
1790587953746250800,7.786250732421875,-1.1929109771728514,9.81996774673462,1.998859111022949
1790587953756330800,7.796330810546875,0.9334393722534179,10.010306778717041,1.5131354492187499
1790587953766410500,7.806410400390625,2.7597663261413574,10.622324578094481,1.0574889457702636
1790587953776490800,7.81649072265625,2.855684030151367,9.925911170196533,0.46716859893798823
1790587953786570800,7.82657080078125,0.769286920928955,9.037363079071044,1.701379554748535
1790587953796650800,7.836650634765625,0.27129297561645505,9.36521906890869,2.0738275505065915
1790587953806730800,7.846730712890625,2.0286369941711424,9.330802420043945,2.046743144226074
1790587953816810500,7.856810546875,1.1834838081359862,9.835978970336914,2.0943279022216794
1790587953826890800,7.866890869140625,1.2065279991149902,10.432733734130858,1.2003928573608398
1790587953836970800,7.876970703125,0.25737667846679685,8.973318184661865,1.822137100982666
1790587953847050800,7.88705078125,-0.47554830474853516,9.60179612045288,0.964713631439209
1790587953857130800,7.897130859375,1.7751508934020994,9.711480484008788,0.3993827644348144
1790587953867210800,7.907210693359375,0.9069535163879394,8.457367726898193,1.3322235862731933
1790587953877290800,7.917290771484375,-0.3847182792663574,9.762656544494629,-0.020949264526367185
1790587953887370500,7.92737060546875,1.659181750488281,9.682151513671874,-0.3634697395324707
1790587953897450800,7.93745068359375,0.6133645378112793,9.383175581359863,1.3537714012145996
1790587953907531000,7.947531005859375,-0.3987842140197754,10.296713152313233,0.1785176612854004
1790587953917611000,7.957611083984375,1.8779519271850584,10.43916815109253,0.24091654205322263
1790587953927691300,7.967691162109375,1.8257284034729002,10.859949092864989,0.04219780426025391
1790587953937771000,7.97777099609375,0.8264484855651855,9.492261394500732,-1.112106671142578
1790587953947851300,7.987851318359375,0.2859574607849121,8.774599446868896,0.22026655273437498
1790587953957931000,7.997930908203125,-0.12689268798828124,8.168866426849364,-0.16759411621093748
1790587953968011300,8.00801123046875,0.7321767951965331,9.722703304290771,-0.5276221908569335
1790587953978091000,8.018091064453126,3.40949280166626,11.080215645599365,-0.25947160491943355
1790587953988170200,8.028170166015625,3.0098107620239256,10.384101512908934,-1.0518027168273925
1790587953998250000,8.03825,0.09666589202880858,10.077045149993896,-0.8764274452209472
1790587954008330000,8.048330078125,0.027533319091796873,8.616432499694824,-0.184503165435791
1790587954018410200,8.05841015625,-0.6461351730346679,8.32553699798584,-0.06733692169189452
1790587954028490000,8.068489990234376,0.423923331451416,10.434679022979736,-0.6362590911865234
1790587954038570200,8.0785703125,1.4710872825622558,8.974964198303223,0.20425532913208005
1790587954048650000,8.08864990234375,-0.6057330200195312,8.753500544738769,-0.38247371520996093
1790587954058730200,8.098730224609374,0.7140706451416016,9.998635045623779,-0.6145616386413574
1790587954068810200,8.108810302734375,3.164685681915283,11.632976953887939,0.1396118843078613
1790587954078890000,8.118889892578125,1.556380716705322,9.702053314971923,0.3950432739257812
1790587954088970200,8.12897021484375,-0.7618050407409668,9.361029216003418,0.1910872200012207
1790587954099050000,8.139050048828125,1.4212579605102538,9.680954412841796,-0.4333505004882812
1790587954109130200,8.149130126953125,1.872564973449707,10.637138700866698,0.6265326469421386
1790587954119210000,8.1592099609375,0.7218518005371093,10.128969398498535,-0.10130465774536132
1790587954129290000,8.1692900390625,-0.6813000099182128,8.271068910217284,-0.08200140686035155
1790587954139370200,8.179370361328125,-0.41629181365966794,9.994295555114746,-0.4495113616943359
1790587954149450000,8.189449951171875,3.42176308517456,10.69310316467285,-0.41404724960327144
1790587954159530200,8.1995302734375,2.7819126914978027,9.611223289489745,-0.0713771369934082
1790587954169610000,8.20960986328125,-0.7187094108581542,8.945485590362548,-0.7474398307800293
1790587954179690200,8.219690185546876,1.2943652725219725,10.243741440582275,-0.9819219558715819
1790587954189770200,8.229770263671876,3.253271143341064,9.697115274047851,0.08723872299194335
1790587954199850000,8.23985009765625,1.41093296585083,9.892392346954345,0.03965396499633789
1790587954209930200,8.24993017578125,2.460640756225586,10.470741685485839,-0.6619967590332031
1790587954220010000,8.260010009765624,3.2308255027770993,10.733954230499267,-0.022296002960205077
1790587954230090200,8.27009033203125,1.3420996681213377,9.460388584899901,-0.3173813575744629
1790587954240170000,8.280169921875,-1.0601824226379395,8.355913431549071,-0.8387187690734863
1790587954250250000,8.29025,-0.16160861206054686,8.648604584503174,-0.6597521949768066
1790587954260330200,8.300330322265625,2.11333187789917,8.749759604644774,-0.448164623260498
1790587954270410000,8.310409912109375,3.4247558372497555,10.764779576873778,-0.9127893829345702
1790587954280490200,8.320490234375,2.5514707817077635,10.299406629180908,-0.8544307174682617
1790587954290570000,8.330570068359375,-0.8101379867553711,9.88296517791748,-0.8176198669433593
1790587954300650200,8.340650146484375,-0.18390461502075195,10.10667339553833,-1.133205573272705
1790587954310730200,8.350730224609375,2.8649615615844723,9.850044905090332,-1.1604396171569824
1790587954320810000,8.36081005859375,2.721758374786377,8.688557824707031,-0.8988730857849121
1790587954330890200,8.37089013671875,-0.6510732139587402,9.210044873809814,-1.2190975578308105
1790587954340970000,8.380969970703125,-0.34222119979858395,10.107271945953368,-0.5566518859863281
1790587954351050200,8.39105029296875,1.1547533882141112,10.526706149291991,0.1637035385131836
1790587954361130000,8.4011298828125,0.70868369140625,9.708787007141114,-1.08532154006958
1790587954371210000,8.4112099609375,1.9636942741394041,10.147524461364746,-1.1882722114562987
1790587954381290200,8.421290283203126,1.8300678939819335,10.296264239501953,-1.0975918235778808
1790587954391370000,8.431369873046876,0.5193921226501464,10.303446844482421,-0.9784802909851074
1790587954401450200,8.4414501953125,-0.854879630279541,8.787917193603516,-0.01915361328125
1790587954411530000,8.451530029296874,-0.4560954162597656,9.35968247756958,-0.917428148651123
1790587954421610200,8.4616103515625,2.1025579704284665,9.616909518432617,-0.9810241302490234
1790587954431690200,8.471690185546874,1.5924433792114256,10.315866765594482,-1.1299135459899903
1790587954441770000,8.48177001953125,1.16193599319458,10.511293476104736,-1.4381670097351074
1790587954451850200,8.491850341796875,0.479438882446289,9.516951599121093,-0.6542156036376953
1790587954461930000,8.501929931640625,0.4343979637145996,9.60793126220703,-0.9600748657226562
1790587954472010200,8.51201025390625,2.70050983505249,9.642347911071777,-1.2214917594909667
1790587954482090200,8.52209033203125,2.465578797149658,9.70369932861328,-1.2521674682617188
1790587954492170000,8.532169921875,1.107617543029785,10.409539905548096,-1.9367595054626463
1790587954502250200,8.542250244140625,1.4564227973937987,9.846303964996338,-1.029207438659668
1790587954512330000,8.552330078125,0.41195232315063474,9.27019919052124,-0.7100304298400878
1790587954522410200,8.56241015625,1.335515613555908,9.547776945495604,-0.9211690887451172
1790587954532490000,8.572489990234375,3.146130619049072,10.071807833862303,-0.4605845443725586
1790587954542570200,8.5825703125,1.2785036865234374,8.620472714996337,-0.840813695526123
1790587954552650200,8.592650146484376,-0.34715924072265625,9.545682019042967,-0.7707832969665527
1790587954562730000,8.60272998046875,2.0784663162231443,10.091111084747315,-0.6280290229797363
1790587954572809200,8.612809326171876,3.131915046691894,9.99070425262451,-0.5277718284606934
1790587954582889000,8.622888916015626,1.5972317825317381,9.623792848205566,-1.4823101028442383
1790587954592969200,8.63296923828125,1.9868881027221679,10.338761318969725,-1.624166551208496
1790587954603049000,8.643049072265624,2.060659441375732,9.989357514190674,-0.5645826789855957
1790587954613129200,8.653129150390624,0.4382885414123535,9.872939458465575,-0.35778351058959956
1790587954623209000,8.663208984375,1.6947955001831054,9.635763856506347,0.3736450965881347
1790587954633289200,8.673289306640624,3.4460043769836424,9.805003986358642,0.8249521095275878
1790587954643369200,8.683369140625,2.00469497756958,9.111732968139648,0.6117185241699218
1790587954653449000,8.693448974609375,0.1331774673461914,8.851513175201415,-0.1936310592651367
1790587954663529200,8.703529296875,0.9011176498413085,9.68454571533203,-0.2314893730163574
1790587954673609000,8.71360888671875,2.314744092559814,10.11280853729248,-0.4209305793762207
1790587954683689200,8.723689208984375,1.6856676063537597,10.117596940612792,-0.47150808944702144
1790587954693769200,8.733769287109375,2.2521955741882325,11.069142462921143,-0.4423287567138672
1790587954703849000,8.743848876953125,2.2354361625671384,10.225186377716064,-0.06808510971069336
1790587954713929200,8.75392919921875,-0.0570119270324707,9.324816915893555,0.039354689788818356
1790587954724009000,8.764009033203125,0.14724340209960937,8.785822267150879,-0.17791911087036133
1790587954734089200,8.774089111328125,2.2839187461853028,9.16799670715332,-0.2715922508239746
1790587954744169000,8.7841689453125,3.226635649871826,10.391882668304444,-0.9656114570617675
1790587954754249200,8.794249267578126,0.5581482620239258,9.6779616607666,-1.268029054260254
1790587954764329200,8.8043291015625,-0.21951836471557615,10.773308920288086,-1.1656769332885741
1790587954774409000,8.814408935546876,2.2685060729980466,9.613767128753661,-1.3739724777221678
1790587954784489200,8.8244892578125,2.1230583221435544,9.400982456207275,-1.1170447120666502
1790587954794569000,8.83456884765625,1.7245733833312988,9.43016178894043,-0.9723451492309569
1790587954804649200,8.844649169921874,0.7939771255493163,9.60179612045288,-0.5421370384216309
1790587954814729200,8.854729248046874,0.2720411636352539,9.766696759796142,-0.17642273483276366
1790587954824809000,8.86480908203125,1.2740145584106444,9.14255831451416,-0.33578678283691404
1790587954834889200,8.87488916015625,2.1279963630676266,9.517550149536133,-1.3587094421386718
1790587954844969000,8.884968994140625,2.9900585983276367,10.709563301086424,-1.2888286811828613
1790587954855049200,8.89504931640625,0.381126976776123,9.510367544555663,-0.9886556480407714
1790587954865129200,8.905129150390625,-1.4541782333374023,8.947281241607666,-0.8889970039367675
1790587954875209200,8.915209228515625,1.340004741668701,10.235212097167969,-0.9044096771240234
1790587954885289200,8.925289306640625,3.9106291366577146,9.603442134094237,-0.6374561920166015
1790587954895369000,8.935368896484375,1.5861585998535155,10.574739820098877,-0.7317278823852539
1790587954905449000,8.945448974609375,-0.2045546043395996,9.58294178237915,-1.1538555625915528
1790587954915529000,8.955529052734375,0.6654384239196777,10.449044232940674,-0.5850830307006836
1790587954925609000,8.96560888671875,1.6600795761108398,9.389161085510253,-1.3506290115356445
1790587954935689000,8.97568896484375,2.2061071922302244,11.419893006134032,-1.9167080665588379
1790587954945769000,8.98576904296875,2.396745499420166,9.249100288391112,-1.4258967262268065
1790587954955849000,8.995848876953126,-0.9150339469909667,9.10365253753662,-1.2805986129760742
1790587954965929000,9.005928955078126,-0.730979694366455,8.456469901275634,-1.9113211128234862
1790587954976009000,9.016009033203124,0.9023147506713867,9.622895022583007,-1.8064251525878905
1790587954986089000,9.0260888671875,2.061407629394531,9.672724344635009,-1.3072341064453123
1790587954996169000,9.0361689453125,-0.15951368560791016,8.846724771881103,-0.7453449043273925
1790587955006249000,9.0462490234375,-0.21517887420654297,10.074650948333739,-2.05572140045166
1790587955016329000,9.056328857421875,1.84503165435791,10.248829119110107,-1.5209166046142577
1790587955026409000,9.066408935546875,1.326686994934082,11.375301000213623,-1.7401356941223143
1790587955036489000,9.076489013671875,1.1215338401794432,10.539574983215331,-2.1015105072021485
1790587955046569000,9.08656884765625,1.408987677001953,10.500968481445312,-1.878400839996338
1790587955056648000,9.09664794921875,1.9279308868408203,9.249998114013671,-2.0693384223937987
1790587955066728000,9.10672802734375,-0.856824919128418,7.673266683197021,-1.627308940887451
1790587955076808000,9.116807861328125,-1.3947721046447754,8.98214680328369,-1.603666199493408
1790587955086888000,9.126887939453125,1.7877204521179197,10.345195735931396,-1.587206063079834
1790587955096968000,9.136968017578125,3.1765070526123047,11.113584831237793,-1.3717279136657714
1790587955107048000,9.1470478515625,0.9817723182678222,9.728389533233642,-1.8281226051330566
1790587955117128000,9.1571279296875,-0.3416226493835449,10.214711745452881,-2.255786876678467
1790587955127208000,9.1672080078125,1.5758336051940918,9.764302558135986,-1.138891802215576
1790587955137288000,9.177287841796876,1.9283797996520995,9.767295310211182,-0.3437175758361816
1790587955147368000,9.187367919921876,1.1950059036254883,9.125798902893067,-1.405845287322998
1790587955157448000,9.197447998046876,-0.06045359191894531,8.3502272026062,-0.7671919944763184
1790587955167528000,9.20752783203125,-0.6126163497924805,8.840589630126953,-0.8405144203186035
1790587955177608000,9.21760791015625,-0.8804676605224608,8.476371702575683,-0.541388850402832
1790587955187688000,9.22768798828125,0.2932897033691406,10.427496417999267,-0.6383540176391601
1790587955197768000,9.237767822265624,3.677942662811279,11.333252833557129,-1.0871171913146973
1790587955207848000,9.247847900390624,1.8128595695495604,9.120860861968994,-0.939724151611328
1790587955217928000,9.257927978515625,-1.2057798110961913,9.878326412200927,-0.213233585357666
1790587955228008000,9.268008056640625,2.094627177429199,10.313322926330565,0.013766659545898436
1790587955238088000,9.278087890625,3.346645008087158,8.780285675811767,1.1592425163269042
1790587955248168000,9.28816796875,1.2943652725219725,8.672546601104736,0.42975919799804685
1790587955258248000,9.298248046875,0.9250596664428711,10.03619408416748,-0.17522563400268554
1790587955268328000,9.308327880859375,1.3108254089355469,11.019911691284179,0.5316624061584473
1790587955278408000,9.318407958984375,1.6223708999633788,10.726023437499999,0.256029940032959
1790587955288488000,9.328488037109375,1.156249764251709,10.223091451263427,-0.2678513107299805
1790587955298568000,9.33856787109375,1.7718588661193846,9.540295065307618,0.4565443290710449
1790587955308648000,9.34864794921875,0.0378583137512207,7.866897742462157,0.8246528343200683
1790587955318728000,9.35872802734375,-1.1915642387390135,9.242216958618164,0.5041290870666504
1790587955328808000,9.368807861328126,1.702726293182373,10.011803154754638,0.8574234695434569
1790587955338888000,9.378887939453126,3.0729578308105467,10.544513024139404,0.7217021629333495
1790587955348968000,9.388968017578126,1.996913822174072,10.027964015960693,-0.10474632263183593
1790587955359048000,9.3990478515625,0.31379005508422847,10.22713166656494,0.6361094535827636
1790587955369128000,9.4091279296875,-0.37544074783325193,9.3975407913208,-0.08035539321899414
1790587955379208000,9.4192080078125,-0.39534254913330075,8.089708134460448,0.0047884033203125
1790587955389288000,9.429287841796874,1.354669226837158,9.453355617523194,-0.20051438903808594
1790587955399368000,9.439367919921875,2.602946117401123,9.573664250946045,-0.7912836486816406
1790587955409448000,9.449447998046875,-1.001075569152832,10.012700980377197,0.004638765716552734
1790587955419528000,9.45952783203125,-0.9136872085571288,11.341931814575196,-0.6177040283203125
1790587955429607000,9.46960693359375,3.2899323562622067,10.529698901367187,-1.016338604736328
1790587955439687000,9.47968701171875,3.348590296936035,9.730035546875,-1.1991957565307616
1790587955449767000,9.489766845703125,1.1104606575012206,9.264512961578369,-1.8685247581481932
1790587955459847000,9.499846923828125,-1.0088567245483397,9.329455681610106,-0.9214683639526366
1790587955469927000,9.509927001953125,-1.118541088104248,9.51949543838501,-1.0494085151672363
1790587955480007000,9.5200068359375,1.5336358009338378,10.3038957572937,-2.277334691619873
1790587955490087000,9.5300869140625,2.68120658416748,9.917830739593505,-2.5278280403137208
1790587955500167000,9.5401669921875,0.2123357597351074,10.446799668884276,-2.10674782333374
1790587955510247000,9.550246826171875,-0.8313865264892578,9.388712172698973,-1.9933225196838378
1790587955520327000,9.560326904296875,-0.06539163284301758,9.586383447265625,-2.044348942565918
1790587955530407000,9.570406982421876,3.4050036735534666,10.284742144012451,-2.799121015930176
1790587955540487200,9.580487060546876,3.4611177749633786,8.929175091552734,-2.5857377929687497
1790587955550567000,9.59056689453125,-0.21068974609375,10.010905329132079,-2.596362062835693
1790587955560647000,9.60064697265625,-0.3360860580444336,9.176526050567626,-2.385971591949463
1790587955570727000,9.610726806640624,0.5662286926269531,9.102754711914063,-1.945288848876953
1790587955580807000,9.620806884765624,2.1505916412353514,10.147075548553467,-2.5583541114807127
1790587955590887000,9.630886962890624,1.6864157943725584,9.174880036926268,-1.9867384651184081
1790587955600967000,9.640966796875,-1.4763245986938476,8.74018279800415,-1.8525135345458983
1790587955611047000,9.651046875,-0.04548983154296875,10.537330419158934,-2.9761423011779784
1790587955621127000,9.661126953125,3.8202480239868164,10.752958206176757,-2.86017315826416
1790587955631207000,9.67120703125,2.1896470558166503,8.341398583984375,-2.407519406890869
1790587955641287000,9.681286865234375,-0.184503165435791,9.931298123931883,-2.853140190887451
1790587955651367000,9.691366943359375,2.498349432373047,10.092308185577393,-2.8208184684753417
1790587955661447200,9.701447265625,1.1822867073059082,8.584110777282714,-2.1734861946105957
1790587955671527000,9.71152685546875,0.5045779998779296,9.466374089050293,-3.6544495590209958
1790587955681607000,9.72160693359375,3.030760026550293,9.687987380218505,-2.820519193267822
1790587955691687000,9.73168701171875,1.74926358795166,10.263643241882324,-2.094926452636719
1790587955701767000,9.741766845703125,-0.019602526092529295,8.827421520996094,-2.011877582550049
1790587955711847200,9.75184716796875,1.4302362167358398,10.428843156433105,-2.5200468849182127
1790587955721927000,9.761927001953126,4.3342531929016115,9.135674984741211,-1.952321816253662
1790587955732007000,9.7720068359375,0.9449614677429199,8.568548466491698,-1.2387000839233397
1790587955742087000,9.7820869140625,0.6947673942565917,10.500519568634033,-1.2445359504699707
1790587955752167000,9.7921669921875,3.2507273040771483,9.65312181854248,0.02319382858276367
1790587955762247000,9.802246826171874,1.9473837753295897,9.651924717712403,0.3082534637451172
1790587955772327000,9.812326904296874,1.0781389350891113,8.443451429748535,0.1637035385131836
1790587955782407200,9.8224072265625,0.922515827178955,9.533561373138427,1.0296563514709471
1790587955792486000,9.83248583984375,1.2593500732421874,9.45485199356079,1.1493664344787597
1790587955802566100,9.842566162109375,1.924938134765625,9.865008665466307,1.530942324066162
1790587955812646000,9.85264599609375,2.8281507110595703,9.590722937774657,1.4381670097351074
1790587955822726000,9.862725830078125,1.7872715393066405,9.622446109771728,1.6488567558288574
1790587955832806000,9.872805908203125,1.1532570121765136,10.041281762695311,1.4930840103149414
1790587955842886000,9.882885986328125,1.3711293632507324,9.745148944854735,1.7347487403869628
1790587955852966000,9.8929658203125,2.6560674667358395,10.571447792816162,0.9183259742736816
1790587955863046000,9.9030458984375,3.858704888153076,10.989385620117186,1.446097802734375
1790587955873126100,9.913126220703125,1.0290578010559082,9.90196915359497,2.2111948707580567
1790587955883206000,9.923205810546875,-0.4327519500732422,10.290129097747801,1.7571943809509276
1790587955893286000,9.933285888671875,2.4824878463745117,9.858873523712157,1.9340660285949707
1790587955903366000,9.943365966796875,2.912546319580078,8.584709327697754,1.7366940292358397
1790587955913445400,9.9534453125,0.7875427085876464,9.412803826904296,0.9084498924255371
1790587955923525400,9.963525390625,0.2624643569946289,9.008931934356688,1.968781952667236
1790587955933605400,9.97360546875,1.4252981758117675,9.663746088409424,1.6786346389770508
1790587955943685600,9.983685546875,2.874837643432617,9.445125549316407,0.6612485710144043
1790587955953765400,9.993765380859376,2.04300220413208,10.421810189056396,1.1709142494201659
1790587955963845400,10.003845458984374,0.6587047317504883,9.679607674407958,1.248875440979004
1790587955973925400,10.01392529296875,-0.41195232315063474,10.116399839782714,2.2541408630371094
1790587955984005400,10.02400537109375,2.565387078857422,10.697741930389403,1.4662988792419434
1790587955994085600,10.034085693359375,3.705924894714355,10.151415039062499,1.6698060203552245
1790587956004165400,10.044165283203125,0.6681319007873535,9.676614922332764,0.7408557762145995
1790587956014245600,10.05424560546875,-0.07885901718139648,9.83792425918579,0.40506899337768554
1790587956024325400,10.064325439453125,0.7040449256896972,8.58096838760376,1.1324573852539062
1790587956034405400,10.0744052734375,2.692878317260742,10.898256319427489,0.366462491607666
1790587956044485400,10.0844853515625,3.4364275703430174,9.475651620483397,0.5720645591735839
1790587956054565400,10.0945654296875,-1.070058504486084,8.977657675170898,1.7462708358764647
1790587956064645600,10.104645751953125,-0.6226420692443847,10.188076251983642,0.8209118942260741
1790587956074725400,10.114725341796875,3.0000843177795407,10.082282466125488,1.4555249717712402
1790587956084805400,10.124805419921875,2.31743756942749,9.120860861968994,1.6849194183349607
1790587956094885400,10.134885498046875,0.020350714111328123,8.46529851989746,1.4612112007141111
1790587956104965400,10.14496533203125,0.08469488372802735,9.483881688690184,1.2841899154663086
1790587956115044400,10.15504443359375,2.258031440734863,10.614992335510253,1.5206173294067382
1790587956125124400,10.165124267578125,3.427299676513672,11.182118853759764,1.2641384765625
1790587956135204600,10.17520458984375,1.6519991455078125,9.025242433166504,1.5433622451782225
1790587956145284400,10.185284423828126,0.25827450408935543,10.174159954833984,2.249202822113037
1790587956155364600,10.195364501953126,2.293345915222168,9.181613729095458,1.7943045066833494
1790587956165444400,10.2054443359375,1.2297218276977537,9.214384364318848,2.704550050354004
1790587956175524400,10.2155244140625,1.1074679054260252,10.121786793518066,1.1908160507202148
1790587956185604400,10.225604248046874,1.8915689491271972,9.820566297149657,1.8275240547180174
1790587956195684400,10.235684326171874,-0.5793968017578125,8.348281913757324,2.5953145996093747
1790587956205764600,10.2457646484375,-0.5891232460021972,9.140014475250243,2.495506317901611
1790587956215844400,10.25584423828125,2.8694506896972656,9.880870251464843,2.901024224090576
1790587956225924600,10.265924560546875,1.8109142807006835,9.415497303771971,2.9180829109191895
1790587956236004400,10.27600439453125,-0.8942343200683593,10.344447547912598,1.9693805030822753
1790587956246084400,10.28608447265625,1.3609540061950682,10.92294652404785,2.3286603897094724
1790587956256164600,10.29616455078125,2.9593828895568848,9.942520944213866,2.3690625427246093
1790587956266244400,10.306244384765625,0.5389946487426758,9.260622383880614,1.8339584716796873
1790587956276324600,10.31632470703125,-0.3616740882873535,8.707262525177,1.7411831573486327
1790587956286404400,10.326404296875,-0.9192237998962401,8.444349255371094,1.9572598571777342
1790587956296484400,10.336484375,0.7960720520019531,10.958560273742675,1.2216413970947264
1790587956306564400,10.346564453125,3.845237503814697,10.657489414978027,1.2648866645812988
1790587956316644400,10.356644287109376,1.0890624801635742,9.554361000061034,1.6877625328063963
1790587956326724600,10.366724609375,-0.7230489013671875,10.429890619659423,0.7897872726440429
1790587956336804400,10.376804443359376,2.712780118560791,10.212467181396484,0.6733692169189452
1790587956346884600,10.386884521484374,1.1140519599914551,8.042871564483642,0.8457517364501953
1790587956356964400,10.39696435546875,-1.1424831047058104,8.58066911239624,0.43200376205444335
1790587956367044400,10.40704443359375,0.5992986030578613,10.284742144012451,0.5674257934570313
1790587956377124600,10.41712451171875,1.6385317611694334,10.353874716949463,1.2331634925842285
1790587956387203300,10.427203369140624,1.3781623306274413,10.832266136169434,0.3371335212707519
1790587956397283600,10.43728369140625,1.1094131942749024,9.233388339996337,-0.20979192047119138
1790587956407363300,10.44736328125,-0.7330746208190918,9.019705841827392,0.7628525039672851
1790587956417443600,10.457443603515625,0.6907271789550781,8.557624921417236,0.2959831802368164
1790587956427523300,10.4675234375,1.791461392211914,8.775048359680175,-0.1806125877380371
1790587956437603600,10.477603515625,1.7473182991027831,9.109189128875732,0.1806125877380371
1790587956447683300,10.487683349609375,1.3409025672912598,10.308384885406493,-0.20904373245239258
1790587956457763300,10.497763427734375,0.43978491744995113,9.739313078308104,0.2353799507141113
1790587956467843600,10.507843505859375,1.0429740982055664,10.43841996307373,0.5732616600036621
1790587956477923300,10.51792333984375,3.073406743621826,10.000131421661376,-0.05327098693847656
1790587956488003600,10.528003662109375,1.4276923774719237,9.105448188781738,0.38681320571899414
1790587956498083300,10.538083251953125,-0.5591957252502441,9.684246440124511,-0.24690204620361328
1790587956508163300,10.548163330078125,2.089988411712646,10.14483098449707,-0.49844285812377925
1790587956518243600,10.55824365234375,2.791788773345947,8.876652292633056,-0.4355950645446777
1790587956528323300,10.5683232421875,1.257105509185791,10.269928021240235,-1.1189900009155274
1790587956538403600,10.578403564453126,2.141463747406006,9.745747495269775,-0.7583633758544921
1790587956548483300,10.5884833984375,0.28909985046386716,9.294590119934082,-0.34446576385498046
1790587956558563600,10.5985634765625,1.0806827743530272,10.449642783355712,-1.3742717529296875
1790587956568643300,10.608643310546874,3.258658097076416,9.752032274627686,0.20964228286743164
1790587956578723300,10.618723388671874,0.4676175117492676,9.907655382537842,0.74699091796875
1790587956588803600,10.628803466796874,-0.7826046676635742,9.487772266387939,0.5042787246704101
1790587956598883300,10.63888330078125,1.3127706977844238,10.015095182037353,0.7815572044372558
1790587956608963600,10.648963623046875,4.055627974700927,8.89281315383911,-0.6616974838256836
1790587956619043300,10.659043212890625,1.1640309196472167,9.539995790100097,-0.9044096771240234
1790587956629123300,10.669123291015625,-0.34386721343994137,10.219200873565674,0.034715924072265626
1790587956639203600,10.67920361328125,3.155707425689697,11.553818661499022,0.3051110740661621
1790587956649283300,10.689283447265625,3.8804023406982417,10.365097537231446,0.06254851837158203
1790587956659363600,10.699363525390625,1.7247230209350586,9.92770682144165,-0.2485480598449707
1790587956669442300,10.7094423828125,-0.24346038131713865,8.453177873992919,-0.2911947769165039
1790587956679522600,10.7195224609375,-1.857152300262451,8.55508108215332,-0.3085527389526367
1790587956689602300,10.729602294921875,1.5254057327270507,10.045022702789305,-0.21188684692382811
1790587956699682600,10.7396826171875,3.7569513175964353,9.255983618164063,0.6489782875061034
1790587956709762300,10.74976220703125,-0.405368268585205,9.507674067687988,1.0167875175476073
1790587956719842600,10.759842529296876,1.3307272102355956,10.984447579193114,0.6305728622436523
1790587956729922600,10.769922607421876,4.097825778961181,9.94042601776123,0.3182791831970215
1790587956740002300,10.780002197265626,1.695693325805664,9.184756118774413,0.02483984222412109
1790587956750082600,10.79008251953125,1.6238672760009765,10.021379961395263,-0.2214636535644531
1790587956760162300,10.800162353515624,0.36631285400390623,8.308179035949706,0.7752724250793457
1790587956770242600,10.81024267578125,-1.755099454498291,9.00863265914917,1.0166378799438476
1790587956780322600,10.820322509765624,1.5469535476684568,11.46598138809204,-0.1589151351928711
1790587956790402300,10.83040234375,4.692036703491211,11.334599571990966,0.4629787460327148
1790587956800482600,10.840482666015625,0.7893383598327637,9.877428586578368,0.8406640579223632
1790587956810562300,10.850562255859375,-0.4601356315612793,10.030657492828368,0.030226795959472655
1790587956820642600,10.860642578125,2.5124153671264646,7.938723792266845,0.8652046249389648
1790587956830722300,10.870722412109375,-0.10788871231079102,6.18003303527832,0.8423100715637206
1790587956840802300,10.88080224609375,-1.025915411376953,8.67658681640625,0.26740239791870113
1790587956850882600,10.890882568359375,2.614318575286865,11.170896033477783,1.4190133964538574
1790587956860962300,10.90096240234375,4.172644580841064,12.552799304199217,2.0034978767395017
1790587956871042600,10.91104248046875,2.3282114768981934,9.87054525680542,2.0911855125427246
1790587956881122300,10.921122314453125,-0.3699041564941406,9.711480484008788,1.9910779556274414
1790587956891202600,10.93120263671875,0.489015689086914,8.630498434448242,2.334645893859863
1790587956901282600,10.941282470703126,0.752677146911621,9.571419686889648,2.690783390808105
1790587956911362000,10.951362060546876,1.584512586212158,10.2410479637146,1.3947721046447754
1790587956921442300,10.9614423828125,1.4431050506591796,9.936685077667235,1.7610849586486816
1790587956931522000,10.97152197265625,0.21293431015014647,10.36838956451416,1.2062287239074707
1790587956941602300,10.981602294921874,0.7960720520019531,9.457246195220947,1.607556777191162
1790587956951682300,10.991682373046874,-0.12075754623413085,8.606406780242919,2.6083330711364745
1790587956961762300,11.00176220703125,-0.8758288948059082,9.393350938415526,2.1000141311645506
1790587956971842300,11.01184228515625,1.401356159210205,10.671854624938964,2.602497204589844
1790587956981922000,11.021922119140624,1.2208932090759277,9.577405191040038,2.191592344665527
1790587956992002300,11.032002197265625,0.33848025970458984,9.994744467926024,1.168968960571289
1790587957002082300,11.042082275390625,2.03671742477417,10.299556266784668,2.03043264541626
1790587957012162300,11.052162353515625,0.36496611557006836,10.046369441223144,2.326415825653076
1790587957022242300,11.0622421875,-0.04129997863769531,9.947010072326659,2.133084041595459
1790587957032322000,11.072322021484375,2.7430069145202634,10.015993007659912,2.1888988677978514
1790587957042402300,11.08240234375,2.5450363647460934,8.79674581222534,1.5319897872924804
1790587957052482000,11.09248193359375,-1.2204442962646485,7.8176669708251945,1.5222633430480956
1790587957062562300,11.102562255859375,-0.9730933372497558,9.101407973480224,0.6280290229797363
1790587957072642300,11.112642333984375,3.310881620788574,10.13271033859253,0.39848493881225583
1790587957082722300,11.122722412109376,3.707271633148193,9.741707279968262,0.18779519271850584
1790587957092802300,11.13280224609375,1.8863316329956055,11.501744775390625,-0.08693944778442382
1790587957102882000,11.142882080078126,0.07302315063476562,10.187178426361083,0.5104138664245605
1790587957112962300,11.15296240234375,0.11192892761230468,9.559747953796386,0.45594577865600583
1790587957123042300,11.163042236328126,4.179677548217773,9.369109646606445,-1.901893943786621
1790587957133122300,11.173122314453124,2.6131214744567868,7.908796271514892,-2.0317793838500977
1790587957143201300,11.183201171875,-1.8716671478271483,8.661174143218993,0.1261444999694824
1790587957153281300,11.19328125,-0.03426701126098632,11.48498536376953,1.3162123626708984
1790587957163361300,11.203361328125,5.544222856903076,11.534216135406494,-0.2856581855773926
1790587957173441300,11.213441162109374,3.470993856811523,10.09365492401123,-1.9711761543273925
1790587957183521300,11.223521240234374,-2.274790852355957,9.88266590270996,-1.938255881500244
1790587957193601000,11.23360107421875,-2.3738509460449215,10.53418802947998,-1.1112088455200195
1790587957203681300,11.243681396484375,1.4847043045043944,8.77220524520874,-0.5184942970275879
1790587957213761300,11.25376123046875,1.8969559028625487,6.922385187530518,-1.07888712310791
1790587957223841300,11.26384130859375,-0.35134909362792965,8.402001813507079,-1.3856442108154297
1790587957233921300,11.27392138671875,0.6486790122985839,11.380089403533935,-0.19871873779296872
1790587957244001000,11.2840009765625,0.7004536231994628,10.493486601257324,0.20814590682983397
1790587957254081300,11.294081298828125,0.3416226493835449,12.02203472366333,-0.7012018112182616
1790587957264161300,11.304161376953125,3.0735563812255857,10.1636853225708,-2.3699603683471677
1790587957274241300,11.3142412109375,0.5847837554931641,8.112602687835693,-1.9488801513671874
1790587957284321300,11.3243212890625,-0.6126163497924805,9.510367544555663,-1.443404325866699
1790587957294401300,11.3344013671875,1.1578957778930663,9.243563697052002,-0.07631517791748046
1790587957304481300,11.344481201171876,-0.2410661796569824,8.67553935317993,-0.22056582794189453
1790587957314561000,11.35456103515625,0.7276876670837402,10.34833812561035,-1.4238017997741699
1790587957324641300,11.364641357421876,4.316147042846679,10.973823309326171,-1.4532804077148436
1790587957334721300,11.37472119140625,0.6346130775451659,8.461258304595948,-0.6138134506225585
1790587957344801300,11.38480126953125,-2.0944775398254394,10.852467212677002,-1.156249764251709
1790587957354881300,11.39488134765625,3.0391397323608396,10.65479593811035,-0.7704840217590332
1790587957364960300,11.404960205078124,3.3354221878051757,8.718335707855225,-0.08394669570922851
1790587957375040300,11.415040283203124,0.11522095489501953,9.284265125274658,-1.6949451377868652
1790587957385120300,11.425120361328124,-0.1879448303222656,9.094973556518553,-0.8631096984863281
1790587957395200300,11.4352001953125,1.2771569480895995,10.755651683044434,0.16789339141845702
1790587957405280300,11.4452802734375,2.925115878295898,10.097096588897704,-0.08125321884155273
1790587957415360300,11.4553603515625,0.8578723823547363,9.856180046844482,0.37753567428588863
1790587957425440300,11.465440185546875,0.4020762413024902,9.881917714691161,0.469263525390625
1790587957435520300,11.475520263671875,0.5339069702148437,9.35863501434326,0.5080196647644043
1790587957445600300,11.485600341796875,0.8044517578125,9.005340631866455,0.3434183006286621
1790587957455680300,11.49568017578125,1.8197428993225098,9.572467150115965,0.06344634399414062
1790587957465760300,11.50576025390625,1.8442834663391112,10.247781655883788,0.3833715408325195
1790587957475840300,11.51584033203125,1.0527005424499511,9.99175171585083,0.9907505744934082
1790587957485920300,11.525920166015625,0.6120177993774414,10.51488477859497,0.4176385520935058
1790587957496000300,11.536000244140626,3.181894006347656,10.595689084625244,0.7359177352905273
1790587957506080300,11.546080322265626,0.7875427085876464,8.772354882812499,1.8893243850708006
1790587957516160300,11.55616015625,-1.0435726486206054,9.797073193359374,1.5391723922729492
1790587957526240300,11.566240234375,2.0415058280944822,9.114576082611084,1.5387234794616698
1790587957536320300,11.5763203125,0.7638999671936034,9.205555745697021,0.9320926338195801
1790587957546400300,11.586400146484374,0.34311902542114253,9.99728830718994,0.6272808349609375
1790587957556480300,11.596480224609374,2.3083096755981445,10.274267511749267,1.8535609977722167
1790587957566559200,11.606559326171874,2.4902690017700193,9.795427179718017,1.1182418128967284
1790587957576639200,11.61663916015625,1.8655320060729979,9.756970315551758,1.6415245132446288
1790587957586719200,11.62671923828125,0.9503484214782715,9.230096312713622,1.579424907684326
1790587957596799200,11.63679931640625,-0.5695207199096679,8.88054287033081,1.5150807380676268
1790587957606879200,11.646879150390625,1.41093296585083,9.681852238464355,1.5113397979736327
1790587957616959200,11.656959228515625,3.257909909057617,9.58339069519043,1.050156703186035
1790587957627039200,11.667039306640625,0.6866869636535644,9.286808964538574,0.6461351730346679
1790587957637119200,11.677119140625,-0.09427169036865234,10.370185215759276,0.6956652198791503
1790587957647199200,11.68719921875,3.565714459991455,10.523563759613037,0.4246715194702148
1790587957657279200,11.697279296875,3.272424756622314,9.241319132995605,1.0075099861145018
1790587957667359200,11.707359130859375,0.6114192489624023,9.367463632965087,0.37065234451293944
1790587957677439200,11.717439208984375,0.9726444244384765,9.935637614440918,0.5553051475524902
1790587957687519200,11.727519287109375,2.431162148284912,10.392032305908202,0.23104046020507812
1790587957697599200,11.73759912109375,2.457348728942871,10.014795906829834,-0.050727147674560547
1790587957707679200,11.74767919921875,0.6792050834655762,9.656264208221435,0.1388636962890625
1790587957717759200,11.75775927734375,1.7329530891418456,10.684723458862305,0.026186580657958983
1790587957727839200,11.767839111328126,2.8200702804565427,9.385869058227538,-0.24046762924194334
1790587957737919200,11.777919189453126,0.38531682968139647,9.132831870269776,-0.2947860794067383
1790587957747999200,11.787999267578124,1.2158055305480957,9.280524185180663,-0.7998129920959473
1790587957758078500,11.798078369140624,2.1857564781188965,9.873238733673094,0.1236006607055664
1790587957768158200,11.808158203125,1.4775216995239258,9.826551801300049,-0.5027823486328125
1790587957778238200,11.81823828125,0.1370680450439453,9.147645993041992,-0.3408744613647461
1790587957788318200,11.828318115234374,0.2781763053894043,9.57022258605957,-0.2198176399230957
1790587957798398200,11.838398193359374,2.3234230735778807,10.352228703308105,-0.28446108474731446
1790587957808478500,11.848478515625,2.0554221252441405,9.349507120513916,0.047884033203124995
1790587957818558200,11.85855810546875,0.33414076919555663,9.92770682144165,-0.029927520751953124
1790587957828638200,11.86863818359375,0.7411550514221191,10.15769981842041,-0.7598597518920898
1790587957838718200,11.87871826171875,1.215655892944336,9.619004444885253,0.2998737579345703
1790587957848798200,11.888798095703125,1.6041151123046875,9.32152488861084,-1.0043675964355467
1790587957858878200,11.898878173828125,1.3953706550598144,9.702352590179443,-0.8152256652832031
1790587957868958200,11.908958251953125,0.7748235122680663,9.454403080749511,0.4848258361816406
1790587957879038200,11.9190380859375,0.14050970993041992,9.367912545776367,-0.20245967788696287
1790587957889118200,11.9291181640625,2.4105121589660645,9.552714986419677,-0.6485293746948242
1790587957899198200,11.9391982421875,3.264194688415527,9.2443118850708,-0.0026934768676757813
1790587957909278000,11.94927783203125,-0.010773907470703125,9.303418738555907,-0.7314286071777343
1790587957919357700,11.959357666015626,0.5880757827758789,10.535834043121337,-0.27039514999389647
1790587957929437000,11.96943701171875,3.0654759506225586,10.55932714691162,0.18570026626586913
1790587957939516700,11.9795166015625,2.138171720123291,10.43782141265869,-1.2375029830932616
1790587957949597000,11.989596923828126,0.5445312400817871,9.565284545135498,-0.20096330184936523
1790587957959677000,11.999677001953126,-0.10699088668823241,8.942792113494873,-0.08409633331298827
1790587957969757000,12.0097568359375,0.6732195793151855,9.6151138671875,-0.5713163711547852
1790587957979837000,12.0198369140625,2.2334908737182615,9.080907621765137,-0.3274070770263672
1790587957989917000,12.0299169921875,1.0938508834838867,9.887155030822754,-0.5641337661743163
1790587957999997000,12.039996826171874,-0.08798691101074219,10.092158547973632,-0.8267477607727051
1790587958010076700,12.05007666015625,1.2421417488098143,10.707917287445067,-0.010773907470703125
1790587958020157000,12.060156982421875,4.067299707794189,9.801263046264648,-0.1683423042297363
1790587958030237000,12.07023681640625,0.4471171600341797,8.815001599884033,-0.4355950645446777
1790587958040317000,12.08031689453125,-2.2566847023010252,9.807098912811279,0.12524667434692383
1790587958050397000,12.09039697265625,1.3621511070251464,10.612448496246337,0.49844285812377925
1790587958060476700,12.1004765625,2.691681216430664,9.523386016082764,0.3730465461730957
1790587958070557000,12.110556884765625,1.096095447540283,10.077643700408935,0.3642179275512695
1790587958080637000,12.120636962890625,-0.25438392639160157,9.255235430145262,0.7255927406311035
1790587958090717000,12.130717041015625,0.5155015449523925,10.934767894744873,0.5241805259704589
1790587958100797000,12.140796875,2.919728924560547,9.659855510711669,0.5351040710449219
1790587958110876000,12.1508759765625,0.7074865905761718,9.564237081909178,0.45504795303344725
1790587958120956000,12.160955810546875,-0.5618892021179199,9.036016340637207,0.5397428367614746
1790587958131036000,12.171035888671875,0.27742811737060546,10.089465071105957,1.1028291397094725
1790587958141116000,12.181115966796876,2.16405902557373,10.786776304626464,0.4165910888671875
1790587958151195600,12.191195556640626,0.849791951751709,8.927229802703858,1.145326219177246
1790587958161276000,12.20127587890625,-0.6477811866760254,10.658836153411865,0.5027823486328125
1790587958171356000,12.21135595703125,2.166902140045166,9.905410818481444,0.8476970252990722
1790587958181436000,12.221435791015624,0.7875427085876464,9.325415466308593,0.9000701866149902
1790587958191516000,12.231515869140624,-0.07541735229492187,10.251522595977782,-0.3618237258911133
1790587958201596000,12.241595947265624,0.7270891166687011,8.661772693634033,0.577152237701416
1790587958211676000,12.251676025390625,-0.5737105728149414,9.519944351196289,0.7490858444213867
1790587958221756000,12.261755859375,1.986139914703369,9.600898294830321,0.2002151138305664
1790587958231836000,12.2718359375,1.2442366752624512,9.538798689270019,1.3437456817626952
1790587958241916000,12.281916015625,-0.15951368560791016,11.033678350830078,0.04548983154296875
1790587958251996000,12.291995849609375,2.085798558807373,10.334721103668212,0.4016273284912109
1790587958262076000,12.302075927734375,1.2825439018249511,9.662399349975585,0.5307645805358886
1790587958272155600,12.31215576171875,1.7750012557983397,9.879822788238524,-0.40132805328369137
1790587958282235000,12.32223486328125,-0.020649989318847654,7.481281637573241,0.9802759422302245
1790587958292315000,12.33231494140625,-1.0966939979553223,10.290727648162841,0.12375029830932617
1790587958302395000,12.342394775390625,2.3110031524658203,9.834781869506836,-0.37229835815429685
1790587958312475000,12.352474853515625,1.7763479942321776,11.073631591033935,0.4112041351318359
1790587958322555000,12.362554931640625,1.9200000938415527,11.881824288940429,-0.5220855995178222
1790587958332635000,12.372634765625,2.21523508605957,10.24059905090332,0.6183025787353515
1790587958342715000,12.38271484375,-0.29613281784057616,7.448810277557373,0.2641103706359863
1790587958352795000,12.392794921875,-0.9184756118774413,7.48262837600708,0.014963760375976562
1790587958362875000,12.402875,0.7306804191589356,8.33167213973999,0.23358429946899412
1790587958372955000,12.412954833984376,1.2113164024353027,9.767594585418701,0.40836102066040036
1790587958383035000,12.423034912109374,1.7857751632690428,10.721235034179687,-0.3624222763061523
1790587958393115000,12.433114990234374,0.639700756072998,11.011531985473631,0.1619078872680664
1790587958403195000,12.44319482421875,1.6472107421875,12.712312989807128,-0.2180219886779785
1790587958413275000,12.45327490234375,4.265419895172119,10.326640673065185,0.12090718383789062
1790587958423355000,12.46335498046875,0.8396165946960449,8.394071020507813,-0.3589806114196777
1790587958433435000,12.473434814453125,-0.8723872299194335,7.693767034912109,-1.5620669456481933
1790587958443513900,12.483513916015625,-0.44577042160034175,8.247126893615722,0.05297171173095703
1790587958453593900,12.49359375,1.024718310546875,10.673051725769042,-0.4055179061889648
1790587958463673900,12.503673828125,2.9595325271606443,12.184092248535155,-0.9906009368896483
1790587958473753900,12.51375390625,1.0380360572814942,10.2786070022583,-0.39369653549194333
1790587958483833900,12.523833740234375,0.41838674011230464,10.964994690704344,-1.246780514526367
1790587958493913900,12.533913818359375,2.0745757385253905,8.660725230407714,-0.8367734802246093
1790587958503993900,12.543993896484375,-0.29433716659545894,7.5528084121704095,0.11537059249877929
1790587958514073900,12.554073974609375,-0.1984194625854492,9.04604206008911,-1.617732134246826
1790587958524153900,12.56415380859375,3.844040402984619,10.793210721588133,-1.271171443939209
1790587958534233900,12.57423388671875,2.980631429290771,10.9681370803833,-0.6795043586730957
1790587958544313900,12.58431396484375,-0.11477204208374023,10.390984842681885,-1.3347674255371094
1790587958554393900,12.594393798828126,-0.17791911087036133,9.574711714172363,-0.13691840744018555
1790587958564473900,12.604473876953126,1.3295301094055174,8.758139310455322,-0.852335791015625
1790587958574553900,12.614553955078126,0.9154828598022461,8.091054872894286,-0.6509235763549804
1790587958584633900,12.6246337890625,0.757166275024414,10.31721350402832,-0.32875381546020505
1790587958594713000,12.634713134765626,2.0726304496765136,10.072556021881104,-0.16385317611694336
1790587958604792800,12.644792724609376,1.0996867500305174,9.322273076629639,-0.34715924072265625
1790587958614872800,12.654872802734374,1.5655086105346678,9.951648838043212,-1.2105682144165038
1790587958624952800,12.664952880859374,2.256834339904785,10.245836367034912,-0.4418798439025879
1790587958635032800,12.67503271484375,0.9660603698730468,10.190470453643798,0.002992752075195312
1790587958645112800,12.68511279296875,1.8306664443969725,9.923068055725096,-0.6536170532226562
1790587958655192800,12.69519287109375,2.2857143974304197,10.24149687652588,-0.620547142791748
1790587958665272800,12.70527294921875,0.5084685775756835,9.273940130615234,-0.4234744186401367
1790587958675352800,12.715352783203125,0.21742343826293944,10.639832177734375,-0.9501987838745116
1790587958685432800,12.725432861328125,3.2830490264892576,9.219920955657958,-0.194079972076416
1790587958695512800,12.735512939453125,1.192611701965332,8.333018878173828,-0.11641805572509765
1790587958705592800,12.7455927734375,-1.3006500518798827,9.438391857147217,-1.6826748542785643
1790587958715673000,12.755673095703125,2.693027954864502,10.956614984893799,-0.10609306106567382
1790587958725752800,12.7657529296875,2.1422119354248044,8.321796057891845,0.088735099029541
1790587958735832800,12.775832763671875,-1.3168109130859373,11.032780525207519,-1.3328221366882322
1790587958745911800,12.785911865234375,3.19850378036499,11.400739392852783,-0.15322890625
1790587958755991800,12.79599169921875,1.5562310791015623,8.590694831848143,0.29553426742553707
1790587958766071800,12.80607177734375,-1.3977648567199705,9.760561618041992,-1.6829741294860838
1790587958776151800,12.81615185546875,2.6026468421936033,9.462483511352538,-0.6223427940368652
1790587958786231800,12.826231689453126,0.30960020217895506,8.54939485321045,0.5888239707946777
1790587958796311800,12.836311767578126,-0.9054571403503417,10.527304699707031,-1.2389993591308592
1790587958806392000,12.84639208984375,2.635267839813232,10.808324119567871,-0.39444472351074217
1790587958816471800,12.856471923828124,0.8761281700134277,10.24089832611084,0.09202712631225586
1790587958826551800,12.8665517578125,0.25318682556152344,9.561992517852783,-0.3826233528137207
1790587958836631800,12.8766318359375,1.9972130973815916,9.195081113433837,-0.4408323806762695
1790587958846711800,12.8867119140625,2.0464438690185545,9.55780266494751,-0.5410895751953124
1790587958856792000,12.8967919921875,-0.22026655273437498,8.525003923797607,-0.13003507766723632
1790587958866871800,12.906871826171875,-0.29658173065185545,10.51473514099121,-0.6672340751647949
1790587958876951800,12.916951904296875,3.321206615447998,10.092158547973632,-0.45549686584472654
