time,seconds_elapsed,z,y,x
1790587946004824800,0.044824951171875,0.05722041428089142,-0.20709805190563202,-0.012175439856946468
1790587946014904800,0.05490478515625,0.04634938761591911,-0.1941404491662979,0.0032866070978343487
1790587946024984800,0.06498486328125,0.023871777579188347,-0.12107156217098236,-0.0025217472575604916
1790587946035064800,0.07506494140625,0.002377137541770935,-0.07740477472543716,-0.023268837481737137
1790587946045144800,0.085144775390625,-0.005627525504678488,-0.09022895991802216,-0.04153812304139137
1790587946055224800,0.095224853515625,0.005510346498340368,-0.12412381172180176,-0.0539734847843647
1790587946065304800,0.105304931640625,0.04000121355056763,-0.1389664113521576,-0.048353951424360275
1790587946075384800,0.115384765625,0.05795997381210327,-0.1220042034983635,-0.029941920191049576
1790587946085463800,0.1254638671875,0.06340879946947098,-0.11051825433969498,0.009726929478347301
1790587946095544800,0.135544921875,0.03743019700050354,-0.06468871235847473,0.0514589287340641
1790587946105624800,0.145624755859375,-0.02713494747877121,-0.01564500667154789,0.08668935298919678
1790587946115703800,0.155703857421875,-0.07316076010465622,0.023920511826872826,0.08777432888746262
1790587946125784800,0.165784912109375,-0.08191244304180145,0.07572299242019653,0.03977377712726593
1790587946135863800,0.17586376953125,-0.052317265421152115,0.02847025729715824,-0.007287207525223494
1790587946145943800,0.18594384765625,-0.007173490710556507,-0.09416777640581131,-0.03965499997138977
1790587946156023800,0.19602392578125,0.03684430196881294,-0.20097064971923828,-0.07603777945041656
1790587946166103800,0.206103759765625,0.021637383848428726,-0.2603610157966614,-0.07468968629837036
1790587946176184000,0.21618408203125,-0.06561416387557983,-0.24789901077747345,-0.02479376271367073
1790587946186263800,0.226263916015625,-0.23171311616897583,-0.13611309230327606,0.05660388991236687
1790587946196343800,0.23634375,-0.3939278721809387,-0.0407964326441288,0.24066586792469025
1790587946206423800,0.246423828125,-0.48930203914642334,0.007730624172836542,0.48995718359947205
1790587946216503800,0.25650390625,-0.4936520457267761,0.05562011897563934,0.7983624339103699
1790587946226583800,0.266583740234375,-0.4535437822341919,0.2858160436153412,1.0210466384887695
1790587946236663800,0.276663818359375,-0.3788764774799347,0.5828152298927307,1.187196135520935
1790587946246743800,0.286743896484375,-0.2652239501476288,1.0866509675979614,1.243094563484192
1790587946256823800,0.29682373046875,-0.03259922191500664,1.6969342231750488,1.087188959121704
1790587946266903800,0.30690380859375,0.1680164337158203,1.73135507106781,0.8556203842163086
1790587946276983800,0.31698388671875,0.14784325659275055,1.3289463520050049,0.5950859785079956
1790587946287063800,0.327063720703125,-0.00025513084256090224,0.9806858897209167,0.24975097179412842
1790587946297144000,0.33714404296875,-0.13938824832439423,0.6674454212188721,-0.05141019448637962
1790587946307223800,0.347223876953125,-0.223274365067482,0.14364691078662872,-0.23057489097118378
1790587946317303800,0.3573037109375,-0.22660838067531586,0.07954435795545578,-0.35134097933769226
1790587946327383800,0.3673837890625,-0.29361429810523987,0.4537475109100342,-0.2714956998825073
1790587946337463800,0.3774638671875,-0.45997026562690735,0.9278247952461243,-0.07927671074867249
1790587946347543800,0.387543701171875,-0.5235681533813477,1.4681956768035889,0.15687189996242523
1790587946357623800,0.397623779296875,-0.5737013816833496,1.9658310413360596,0.39417633414268494
1790587946367703800,0.407703857421875,-0.6010355353355408,2.325275421142578,0.5650873780250549
1790587946377783800,0.41778369140625,-0.5285831689834595,2.418483257293701,0.6409807801246643
1790587946387863800,0.42786376953125,-0.36267033219337463,2.284187078475952,0.6116908192634583
1790587946397943800,0.43794384765625,-0.12103747576475143,2.0450992584228516,0.5473960041999817
1790587946408023800,0.44802392578125,0.16315962374210358,1.693251371383667,0.45723652839660645
1790587946418103800,0.458103759765625,0.4357738494873047,1.3536930084228516,0.36461392045021057
1790587946428183800,0.468183837890625,0.5440401434898376,1.283339023590088,0.2887444496154785
1790587946438263800,0.478263916015625,0.6281589865684509,1.375754952430725,0.24905961751937866
1790587946448343800,0.48834375,0.7179706692695618,1.5340220928192139,0.22844329476356506
1790587946458423800,0.498423828125,0.6106023788452148,1.7625607252120972,0.22284692525863647
1790587946468503800,0.50850390625,0.29050666093826294,2.0237388610839844,0.16038674116134644
1790587946478583800,0.518583740234375,-0.2491437792778015,2.172842502593994,0.059782907366752625
1790587946488663800,0.528663818359375,-0.5742736458778381,2.020326614379883,-0.08111189305782318
1790587946498743800,0.538743896484375,-0.6293869614601135,1.6562625169754028,-0.15691238641738892
1790587946508823800,0.54882373046875,-0.6089557409286499,1.1592873334884644,-0.08790615200996399
1790587946518903800,0.55890380859375,-0.44512978196144104,0.4435042142868042,0.01979048177599907
1790587946528983800,0.56898388671875,-0.16594316065311432,-0.424656480550766,-0.036491699516773224
1790587946539063800,0.579063720703125,0.02900342270731926,-1.2455077171325684,-0.1279856562614441
1790587946549143800,0.589143798828125,0.24131515622138977,-1.947066307067871,-0.17976230382919312
1790587946559223800,0.599223876953125,0.5421293377876282,-2.5190863609313965,-0.18353813886642456
1790587946569303800,0.6093037109375,0.8887069821357727,-2.899616003036499,-0.13985536992549896
1790587946579383800,0.6193837890625,1.1984992027282715,-3.1126389503479004,-0.015810389071702957
1790587946589463800,0.6294638671875,1.4299238920211792,-2.9030327796936035,-0.01642611064016819
1790587946599543800,0.639543701171875,1.308134913444519,-1.5402053594589233,-0.17294327914714813
1790587946609623800,0.649623779296875,0.9934581518173218,-0.3411019444465637,-0.1302461475133896
1790587946619703800,0.659703857421875,0.7706285119056702,0.8057734966278076,0.04480555281043053
1790587946629783800,0.66978369140625,0.5044511556625366,1.6534086465835571,0.3825790584087372
1790587946639863800,0.67986376953125,0.5724166631698608,1.976575493812561,0.6148181557655334
1790587946649943800,0.68994384765625,0.8581083416938782,1.9942187070846558,0.7636361122131348
1790587946660023800,0.70002392578125,0.8947161436080933,1.7995504140853882,0.9040054678916931
1790587946670103800,0.710103759765625,0.8166090846061707,1.0239311456680298,1.001882553100586
1790587946680183800,0.720183837890625,0.8415085673332214,-0.2097947746515274,1.0234863758087158
1790587946690263800,0.730263916015625,0.8385894894599915,-1.322341799736023,1.0321086645126343
1790587946700343800,0.74034375,0.534142255783081,-1.9151339530944824,0.918280303478241
1790587946710423800,0.750423828125,0.15904611349105835,-1.902089238166809,0.6591342091560364
1790587946720503800,0.76050390625,0.014737134799361229,-1.8251252174377441,0.45605728030204773
1790587946730583800,0.770583740234375,-0.15148566663265228,-1.5423716306686401,0.3366810977458954
1790587946740663800,0.780663818359375,-0.35081902146339417,-1.2107234001159668,0.4188515841960907
1790587946750743800,0.790743896484375,-0.3608069121837616,-0.9168262481689453,0.5205816626548767
1790587946760823800,0.80082373046875,-0.39415794610977173,-0.5542967915534973,0.53706294298172
1790587946770903800,0.81090380859375,-0.48424044251441956,-0.09350331872701645,0.5485198497772217
1790587946780983800,0.82098388671875,-0.45909273624420166,-0.048834118992090225,0.5429660677909851
1790587946791063800,0.831063720703125,-0.3478040397167206,-0.010968228802084923,0.4303146302700043
1790587946801143800,0.841143798828125,-0.3367316722869873,-0.0335792638361454,0.5470297932624817
1790587946811223800,0.851223876953125,-0.13126587867736816,-0.19582010805606842,0.617694616317749
1790587946821303800,0.8613037109375,-0.03273983672261238,-0.26584765315055847,0.6580716371536255
1790587946831383800,0.8713837890625,0.00355878216214478,-0.3358325958251953,0.6538742184638977
1790587946841463800,0.8814638671875,-0.016754211857914925,-0.5068994164466858,0.5727181434631348
1790587946851543800,0.891543701171875,-0.006057626102119684,-0.5253127813339233,0.4623383581638336
1790587946861623800,0.901623779296875,0.07163982838392258,-0.49253007769584656,0.44726645946502686
1790587946871703800,0.911703857421875,0.3758487403392792,-0.6177796125411987,0.4287993013858795
1790587946881783800,0.92178369140625,0.43433094024658203,-0.7224844098091125,0.40131253004074097
1790587946891863800,0.93186376953125,0.4592336416244507,-0.7064434289932251,0.33569544553756714
1790587946901941000,0.94194091796875,0.6573461890220642,-0.6968278288841248,0.3395719528198242
1790587946912021000,0.95202099609375,0.8884323835372925,-0.5686269402503967,0.43439245223999023
1790587946922101000,0.96210107421875,1.02772057056427,-0.28086361289024353,0.5021401047706604
1790587946932181000,0.972180908203125,1.1216694116592407,0.034140393137931824,0.5634306073188782
1790587946942261000,0.982260986328125,1.1814205646514893,0.17014670372009277,0.6465385556221008
1790587946952340700,0.9923408203125,1.1943262815475464,0.10156497359275818,0.6208235621452332
1790587946962421000,1.0024208984375,1.126979947090149,-0.07517171651124954,0.5160385966300964
1790587946972501000,1.0125009765625,1.028799057006836,-0.19930964708328247,0.3489079177379608
1790587946982581000,1.0225810546875,0.9412176012992859,-0.08031854033470154,0.29766789078712463
1790587946992661000,1.032660888671875,0.7748011946678162,0.2718466818332672,0.3657851815223694
1790587947002740700,1.04274072265625,0.476470410823822,0.4691845178604126,0.3659510910511017
1790587947012821000,1.052821044921875,0.24481746554374695,0.41522783041000366,0.14736308157444
1790587947022901000,1.06290087890625,0.07506092637777328,0.2371869832277298,-0.14521072804927826
1790587947032981000,1.07298095703125,-0.11506613343954086,0.16557058691978455,-0.40012556314468384
1790587947043061000,1.08306103515625,-0.17976683378219604,0.17154964804649353,-0.5048080682754517
1790587947053141000,1.09314111328125,-0.16541771590709686,0.2425420731306076,-0.48393872380256653
1790587947063221000,1.103220947265625,-0.16413567960262299,0.30800309777259827,-0.5186184048652649
1790587947073300700,1.11330078125,-0.17901502549648285,-0.04692836105823517,-0.8455432653427124
1790587947083381000,1.123381103515625,-0.0878363773226738,-0.05007382109761238,-0.7724248170852661
1790587947093461000,1.1334609375,-0.07850918918848038,0.15767565369606018,-0.4812891185283661
1790587947103541000,1.143541015625,-0.14736256003379822,0.08929552137851715,-0.5475685596466064
1790587947113621000,1.15362109375,-0.21629129350185394,-0.06042872369289398,-0.6797226071357727
1790587947123700700,1.16370068359375,-0.23135678470134735,0.038716237992048264,-0.5719074606895447
1790587947133781000,1.173781005859375,-0.2570597529411316,0.1789172887802124,-0.4738285541534424
1790587947143861000,1.183861083984375,-0.3251490592956543,0.20846478641033173,-0.530933141708374
1790587947153941000,1.19394091796875,-0.3865825831890106,0.21911343932151794,-0.5764870047569275
1790587947164021000,1.20402099609375,-0.3809225857257843,0.25345197319984436,-0.5715106129646301
1790587947174101000,1.21410107421875,-0.3624570071697235,0.23761282861232758,-0.564105212688446
1790587947184181000,1.224180908203125,-0.28588953614234924,0.11044155806303024,-0.4957636892795563
1790587947194260700,1.2342607421875,-0.15148432552814484,0.043666254729032516,-0.3739219307899475
1790587947204341000,1.244341064453125,-0.04079163819551468,0.1026827022433281,-0.25636839866638184
1790587947214421000,1.2544208984375,0.022650983184576035,0.10742419213056564,-0.20343434810638428
1790587947224501000,1.2645009765625,0.09323220700025558,0.05193616822361946,-0.1614091396331787
1790587947234581000,1.2745810546875,0.1295100599527359,0.0903802290558815,-0.1451721042394638
1790587947244660700,1.28466064453125,0.12887196242809296,0.11805606633424759,-0.11224105209112167
1790587947254741000,1.294740966796875,0.12368572503328323,0.13964791595935822,-0.09573424607515335
1790587947264821000,1.304821044921875,0.06890396773815155,0.20372143387794495,-0.09685224294662476
1790587947274901000,1.31490087890625,-0.027355192229151726,0.23602904379367828,-0.07787003368139267
1790587947284981000,1.32498095703125,-0.07723166793584824,0.2475602626800537,-0.04397198557853699
1790587947295061000,1.33506103515625,-0.16405338048934937,0.25627440214157104,-0.031039942055940628
1790587947305141000,1.34514111328125,-0.21780183911323547,0.27044427394866943,-0.018617892637848854
1790587947315220700,1.355220703125,-0.246808722615242,0.2549111247062683,-0.006296245381236076
1790587947325301000,1.365301025390625,-0.29573604464530945,0.24840368330478668,0.0060323262587189674
1790587947335381000,1.375381103515625,-0.31114163994789124,0.24917574226856232,0.026805248111486435
1790587947345461000,1.3854609375,-0.30928513407707214,0.24662043154239655,0.019664781168103218
1790587947355541000,1.395541015625,-0.2935325503349304,0.20053522288799286,0.01667059026658535
1790587947365620700,1.405620849609375,-0.18685030937194824,0.12239754945039749,0.03231959044933319
1790587947375701000,1.415700927734375,-0.12369877099990845,0.09702162444591522,0.023144200444221497
1790587947385781000,1.425781005859375,-0.1026611328125,0.0872265174984932,-0.043231360614299774
1790587947395861000,1.435861083984375,-0.03838920220732689,0.06444956362247467,-0.10925165563821793
1790587947405941000,1.44594091796875,0.029089441522955894,0.033303894102573395,-0.1173228994011879
1790587947416021000,1.45602099609375,0.08867686986923218,0.006726079620420933,-0.07448488473892212
1790587947426101000,1.46610107421875,0.15841680765151978,-0.011626562103629112,0.020326843485236168
1790587947436180700,1.4761806640625,0.1824726015329361,0.004224838688969612,0.0460849367082119
1790587947446261000,1.486260986328125,0.1372033953666687,0.02803296595811844,0.025019599124789238
1790587947456341000,1.496341064453125,0.08575298637151718,0.05768406763672829,-0.013159211724996567
1790587947466421000,1.5064208984375,0.04153252765536308,0.0758337751030922,0.003930293023586273
1790587947476501000,1.5165009765625,0.016032762825489044,0.12673397362232208,-0.005288771353662014
1790587947486580700,1.526580810546875,-0.001365668955259025,0.11451539397239685,-0.027729365974664688
1790587947496661000,1.536660888671875,-0.040716804563999176,0.10763511806726456,-0.051065314561128616
1790587947506741000,1.546740966796875,0.04315119981765747,0.049544382840394974,0.015146195888519287
1790587947516821000,1.556821044921875,0.15039536356925964,0.015359781682491302,0.07392322272062302
1790587947526901000,1.56690087890625,0.1345338374376297,0.013941382057964802,0.035046134144067764
1790587947536981000,1.57698095703125,0.1017489954829216,0.008460862562060356,-0.028071315959095955
1790587947547061000,1.58706103515625,0.1020755022764206,-0.012193283066153526,-0.0659896656870842
1790587947557141000,1.59714111328125,0.07617519795894623,-0.006898119580000639,-0.10512029379606247
1790587947567221000,1.607220947265625,0.07827403396368027,-0.028363997116684914,-0.10839944332838058
1790587947577301000,1.617301025390625,0.14206206798553467,-0.09350358694791794,-0.08034916967153549
1790587947587381000,1.627381103515625,0.1595289409160614,-0.048473794013261795,-0.06886322051286697
1790587947597461000,1.6374609375,0.16741056740283966,-0.07871744781732559,-0.03925685957074165
1790587947607540700,1.647540771484375,0.24061527848243713,-0.09498696774244308,0.011334680020809174
1790587947617621000,1.65762109375,0.24629925191402435,-0.0829572007060051,-0.0030804784037172794
1790587947627701000,1.667700927734375,0.17458565533161163,-0.11369966715574265,-0.08213188499212265
1790587947637781000,1.677781005859375,0.1141795665025711,-0.11072811484336853,-0.12607884407043457
1790587947647861000,1.687861083984375,0.11139683425426483,-0.10243716090917587,-0.16284431517124176
1790587947657941000,1.69794091796875,0.12304016947746277,-0.13747051358222961,-0.21051062643527985
1790587947668021000,1.70802099609375,0.13807052373886108,-0.14482882618904114,-0.23577576875686646
1790587947678101000,1.71810107421875,0.1255563199520111,-0.17576037347316742,-0.26991698145866394
1790587947688181000,1.728180908203125,0.08584140241146088,-0.20911353826522827,-0.3195769190788269
1790587947698261000,1.738260986328125,0.010804444551467896,-0.2248256504535675,-0.3488091230392456
1790587947708341000,1.748341064453125,-0.018262626603245735,-0.2243654578924179,-0.34560081362724304
1790587947718421000,1.7584208984375,0.01666819304227829,-0.2693987190723419,-0.3617209196090698
1790587947728500700,1.768500732421875,0.11420673131942749,-0.31597793102264404,-0.2680729925632477
1790587947738581000,1.7785810546875,0.19889365136623383,-0.26435017585754395,-0.19752159714698792
1790587947748661000,1.788660888671875,0.2425583153963089,-0.2636313736438751,-0.1626696139574051
1790587947758741000,1.798740966796875,0.2344266176223755,-0.2681656777858734,-0.1108173280954361
1790587947768821000,1.808821044921875,0.1768043339252472,-0.2488553524017334,-0.06470628827810287
1790587947778900700,1.818900634765625,0.12951883673667908,-0.2332732081413269,-0.048834383487701416
1790587947788981000,1.82898095703125,0.10321506857872009,-0.1965484768152237,0.029438849538564682
1790587947799061000,1.83906103515625,0.06391479820013046,-0.13361132144927979,0.09120341390371323
1790587947809141000,1.84914111328125,-0.002951581496745348,-0.11072517931461334,0.07837789505720139
1790587947819221000,1.859220947265625,-0.05457482859492302,-0.07794699817895889,0.03555000573396683
1790587947829301000,1.869301025390625,-0.03448900207877159,-0.08204639703035355,0.042323753237724304
1790587947839381000,1.879381103515625,0.003117496380582452,-0.09797343611717224,0.09886506199836731
1790587947849460700,1.889460693359375,0.038472823798656464,-0.0844416469335556,0.21897335350513458
1790587947859541000,1.899541015625,0.07968097925186157,-0.10374264419078827,0.39067721366882324
1790587947869621000,1.90962109375,0.16910752654075623,-0.19252097606658936,0.5370101928710938
1790587947879701000,1.919700927734375,0.2484114021062851,-0.21233968436717987,0.6251943707466125
1790587947889781000,1.929781005859375,0.12996385991573334,-0.15589958429336548,0.820090115070343
1790587947899861200,1.939861328125,-0.16179423034191132,0.01594114862382412,1.0449258089065552
1790587947909941500,1.94994140625,-0.2968263328075409,0.12957103550434113,1.039467692375183
1790587947920021200,1.960021240234375,-0.36185115575790405,-0.12446016818284988,0.98149573802948
1790587947930101500,1.9701015625,-0.39284607768058777,-0.054794538766145706,0.7392532825469971
1790587947940181200,1.98018115234375,-0.2679257094860077,-0.018633605912327766,0.433957040309906
1790587947950261200,1.99026123046875,-0.05770191177725792,0.010779144242405891,0.1590794026851654
1790587947960341200,2.00034130859375,0.04833877086639404,-0.009005745872855186,-0.040471259504556656
1790587947970421200,2.010421142578125,-0.0005033374181948602,0.008495483547449112,-0.06791912764310837
1790587947980500200,2.020500244140625,-0.07052503526210785,0.028443891555070877,0.005282380152493715
1790587947990581200,2.030581298828125,-0.062239937484264374,0.029100626707077026,0.05409679189324379
1790587948000661200,2.0406611328125,-0.02371518313884735,0.02110981196165085,0.07161213457584381
1790587948010741200,2.0507412109375,-0.008666724897921085,0.02443450316786766,0.06392785161733627
1790587948020821200,2.0608212890625,0.009093630127608776,0.043593816459178925,0.05488109216094017
1790587948030900200,2.070900146484375,0.027215907350182533,0.04663195088505745,0.027963723987340927
1790587948040980200,2.080980224609375,0.023356188088655472,0.0579618364572525,-0.00555269094184041
1790587948051060500,2.091060546875,0.014758439734578133,0.068814218044281,-0.023121297359466553
1790587948061140200,2.10114013671875,0.008193748071789742,0.07661967724561691,-0.0019867182709276676
1790587948071220500,2.111220458984375,-0.0025784724857658148,0.08255879580974579,-0.006384129635989666
1790587948081300200,2.12130029296875,-0.006607835181057453,0.07782316207885742,-0.016405072063207626
1790587948091380500,2.13138037109375,-0.0002569950302131474,0.0635446235537529,-0.013192767277359962
1790587948101460200,2.141460205078125,0.014699583873152733,0.04177168011665344,-0.009546633809804916
1790587948111540200,2.151540283203125,0.018606174737215042,0.016628244891762733,-0.012292885221540928
1790587948121620500,2.161620361328125,0.00902598537504673,-0.0013800500892102718,-0.01673237420618534
1790587948131700200,2.1717001953125,-0.009827597066760063,-0.005287972744554281,-0.018204569816589355
1790587948141780500,2.181780517578125,-0.033186715096235275,-0.008985505439341068,0.007727694697678089
1790587948151860200,2.191860107421875,-0.061046842485666275,-0.028183700516819954,0.03755829483270645
1790587948161940200,2.201940185546875,-0.054478954523801804,-0.02647182159125805,0.02040940150618553
1790587948172020500,2.2120205078125,-0.01782054267823696,-0.03960014134645462,-0.005783586762845516
1790587948182100200,2.222100341796875,-0.02942926064133644,-0.0639912337064743,0.027543211355805397
1790587948192180500,2.232180419921875,-0.02376098930835724,-0.0670059323310852,0.03267618641257286
1790587948202260200,2.24226025390625,-0.015136076137423515,-0.062067899852991104,-0.025114674121141434
1790587948212340500,2.252340576171875,-0.0287589430809021,-0.059906210750341415,-0.021018732339143753
1790587948222420200,2.262420166015625,-0.051296211779117584,-0.060552824288606644,0.0227402001619339
1790587948232500200,2.272500244140625,-0.07173676788806915,-0.03284742683172226,0.040111199021339417
1790587948242580500,2.28258056640625,-0.08560411632061005,-0.03111424297094345,0.012621785514056683
1790587948252660200,2.29266015625,-0.0826922133564949,-0.016923589631915092,0.006469350773841143
1790587948262740500,2.302740478515625,-0.05281367897987366,-0.0008274441352114081,0.0035004590172320604
1790587948272820200,2.3128203125,-0.0381910614669323,0.013951235450804234,-0.022470954805612564
1790587948282900200,2.322900146484375,-0.010127202607691288,0.03339524194598198,-0.04950843006372452
1790587948292980500,2.33298046875,0.022250443696975708,0.04241883009672165,-0.04625457897782326
1790587948303060200,2.343060302734375,-0.002240783767774701,0.03003299981355667,-0.009522931650280952
1790587948313140500,2.353140380859375,-0.02731897309422493,0.07321189343929291,0.04675765335559845
1790587948323220200,2.36322021484375,-0.03870105743408203,0.09467431157827377,0.060798369348049164
1790587948333300500,2.373300537109375,-0.06280346214771271,0.09329985082149506,0.014197844080626965
1790587948343380200,2.383380126953125,-0.05139767751097679,0.14563283324241638,-0.05035664886236191
1790587948353460200,2.393460205078125,-0.03232065588235855,0.10705001652240753,-0.01792067661881447
1790587948363540500,2.40354052734375,-0.020369986072182655,0.05552158132195473,0.06651590764522552
1790587948373620200,2.4136201171875,0.01085903961211443,0.08779057115316391,0.08555671572685242
1790587948383700500,2.423700439453125,0.04646177589893341,0.10319296270608902,0.07254956662654877
1790587948393780200,2.4337802734375,0.06076401472091675,0.12535205483436584,0.06403917074203491
1790587948403860200,2.443860107421875,0.06308335810899734,0.10587529838085175,0.040825195610523224
1790587948413940500,2.4539404296875,0.04098232090473175,0.08367492258548737,0.030074546113610268
1790587948424020200,2.464020263671875,-0.0017651431262493134,0.0698467269539833,0.021574268117547035
1790587948434100500,2.4741005859375,-0.05428827181458473,0.028420722112059593,0.020128704607486725
1790587948444180200,2.48418017578125,-0.06983527541160583,0.0020037624053657055,0.04422818124294281
1790587948454260200,2.49426025390625,-0.03123861365020275,-0.05091511085629463,0.07866951078176498
1790587948464340200,2.50434033203125,0.0029430591966956854,-0.04641543701291084,0.08403578400611877
1790587948474420200,2.514420166015625,0.0052022188901901245,-0.06211450323462486,0.039255525916814804
1790587948484500500,2.52450048828125,-0.040473390370607376,-0.04123026132583618,-0.03407754376530647
1790587948494580200,2.534580322265625,-0.09445193409919739,-0.09386284649372101,-0.11527785658836365
1790587948504660500,2.544660400390625,-0.1436581015586853,-0.07177964597940445,-0.13299693167209625
1790587948514740200,2.554740234375,-0.1633356660604477,-0.05410211533308029,-0.14635321497917175
1790587948524820200,2.5648203125,-0.1614685207605362,-0.06435634940862656,-0.12620773911476135
1790587948534900500,2.574900390625,-0.11474229395389557,-0.05439799278974533,-0.03700515627861023
1790587948544980200,2.584980224609375,-0.0183438528329134,-0.08473911881446838,0.03988509625196457
1790587948555060500,2.595060546875,0.05192418396472931,-0.0710320994257927,0.025791648775339127
1790587948565140200,2.60514013671875,0.08971550315618515,-0.08480756729841232,0.05818314477801323
1790587948575220200,2.61522021484375,0.04675765335559845,-0.15566202998161316,0.08012519776821136
1790587948585300200,2.62530029296875,-0.022849388420581818,-0.12427347898483276,0.040589239448308945
1790587948595380200,2.635380126953125,-0.09665223956108093,-0.1259816288948059,0.08374948799610138
1790587948605460500,2.64546044921875,-0.17026227712631226,-0.13100115954875946,0.12005157023668289
1790587948615540200,2.655540283203125,-0.21361614763736725,-0.05272712558507919,0.11258087307214737
1790587948625620500,2.665620361328125,-0.18336236476898193,-0.021031249314546585,0.1484224945306778
1790587948635700200,2.6757001953125,-0.10246086120605469,-0.04891720786690712,0.10082115232944489
1790587948645780200,2.6857802734375,0.0022269352339208126,-0.09810259938240051,0.05590774118900299
1790587948655860500,2.695860595703125,0.021562550216913223,-0.09227320551872253,-0.09946613758802414
1790587948665940200,2.705940185546875,-0.00785525981336832,-0.14208416640758514,-0.17580750584602356
1790587948676020500,2.7160205078125,-0.01823173463344574,-0.14953356981277466,-0.14266660809516907
1790587948686100200,2.726100341796875,0.00817936658859253,-0.1435563713312149,-0.118539959192276
1790587948696180200,2.73618017578125,0.07686308771371841,-0.1743563562631607,-0.08516256511211395
1790587948706260500,2.746260498046875,0.15158046782016754,-0.18842370808124542,-0.05036943033337593
1790587948716340200,2.75634033203125,0.17649726569652557,-0.1796344816684723,-0.03732020780444145
1790587948726420500,2.76642041015625,0.11618439853191376,-0.21550752222537994,-0.07955261319875717
1790587948736500200,2.776500244140625,0.05360357463359833,-0.16421690583229065,-0.0005539375124499202
1790587948746580500,2.78658056640625,0.004459729418158531,-0.17951463162899017,0.03500112518668175
1790587948756660200,2.79666015625,0.001253017340786755,-0.16948357224464417,-0.025053154677152634
1790587948766740200,2.806740234375,0.04592408239841461,-0.15505057573318481,-0.04845035821199417
1790587948776820500,2.816820556640625,0.07303506135940552,-0.17668423056602478,-0.07244117558002472
1790587948786900200,2.826900146484375,0.07434560358524323,-0.2466646432876587,-0.06637236475944519
1790587948796980500,2.83698046875,0.07035645097494125,-0.22731411457061768,-0.12121723592281342
1790587948807060200,2.847060302734375,0.06858784705400467,-0.22449062764644623,-0.10717465728521347
1790587948817140200,2.85714013671875,0.06788317859172821,-0.180123433470726,-0.09171473979949951
1790587948827220500,2.867220458984375,0.06539178639650345,-0.1114644780755043,-0.13255351781845093
1790587948837300200,2.87730029296875,0.023331156000494957,-0.08785821497440338,-0.16707393527030945
1790587948847380500,2.88738037109375,-0.041735462844371796,-0.026977289468050003,-0.036547090858221054
1790587948857460200,2.897460205078125,-0.04066300764679909,0.02623080462217331,-0.10182463377714157
1790587948867540500,2.90754052734375,-0.01859259232878685,0.04362604022026062,-0.1226138025522232
1790587948877620200,2.9176201171875,0.017887653782963753,0.062369901686906815,-0.027881165966391563
1790587948887700200,2.9277001953125,0.038230475038290024,0.06698169559240341,-0.007751929108053446
1790587948897780200,2.9377802734375,0.028080370277166367,0.05904148146510124,0.01914253458380699
1790587948907860000,2.94785986328125,0.027273166924715042,0.07021237909793854,0.05458521470427513
1790587948917940200,2.957940185546875,0.033487387001514435,0.08873865753412247,0.0560787171125412
1790587948928020000,2.96802001953125,0.018751051276922226,0.10685721039772034,0.05246507376432419
1790587948938100200,2.978100341796875,-0.0001675128296483308,0.10715921223163605,0.021682126447558403
1790587948948180000,2.988179931640625,-0.021978003904223442,0.11270524561405182,0.01197889819741249
1790587948958260000,2.998260009765625,-0.03605041280388832,0.1219935491681099,0.02197214402258396
1790587948968340200,3.00834033203125,-0.025411350652575493,0.14209508895874023,0.04241563379764557
1790587948978420000,3.018419921875,0.005170527379959822,0.1616046130657196,0.06739874929189682
1790587948988500200,3.028500244140625,0.027363447472453117,0.1686076521873474,0.10195831954479218
1790587948998580000,3.038580078125,0.028978655114769936,0.17952847480773926,0.13420628011226654
1790587949008659200,3.0486591796875,0.009879528544843197,0.2117292881011963,0.1528204381465912
1790587949018739000,3.058739013671875,0.001731587341055274,0.23883149027824402,0.16868647933006287
1790587949028819200,3.068819091796875,0.01366441324353218,0.27493196725845337,0.156870037317276
1790587949038899200,3.078899169921875,0.028120851144194603,0.30478280782699585,0.16485393047332764
1790587949048979000,3.08897900390625,0.013788250274956226,0.3429560363292694,0.17237895727157593
1790587949059059200,3.09905908203125,-0.007844873704016209,0.37063637375831604,0.19736607372760773
1790587949069139000,3.109138916015625,-0.028899291530251503,0.3847157061100006,0.2495560348033905
1790587949079219200,3.11921923828125,-0.03633510321378708,0.33063942193984985,0.34066757559776306
1790587949089299000,3.129298828125,-0.035050928592681885,0.29540660977363586,0.36374813318252563
1790587949099379000,3.13937890625,-0.027888089418411255,0.12322579324245453,0.307980477809906
1790587949109459200,3.149459228515625,-0.04242522269487381,0.09641522169113159,0.22817698121070862
1790587949119539000,3.1595390625,-0.0797739252448082,0.04247875139117241,0.043901942670345306
1790587949129619200,3.169619140625,-0.09537285566329956,-0.004238154739141464,-0.1067940890789032
1790587949139699000,3.179698974609375,-0.08066874742507935,-0.035476233810186386,-0.18139296770095825
1790587949149779200,3.189779296875,-0.06728929281234741,-0.036736175417900085,-0.1698438972234726
1790587949159859200,3.199859130859375,-0.059785835444927216,-0.08265839517116547,-0.07993824034929276
1790587949169939000,3.20993896484375,-0.0588097870349884,-0.10148534178733826,0.019939087331295013
1790587949180019200,3.220019287109375,-0.06222795322537422,-0.10912621766328812,0.034178476780653
1790587949190099000,3.230098876953125,-0.0726129487156868,-0.13650697469711304,0.0032141690608114004
1790587949200179200,3.24017919921875,-0.09626395255327225,-0.15893559157848358,-0.020387031137943268
1790587949210259000,3.250259033203125,-0.10225073993206024,-0.1788371205329895,0.005154015496373177
1790587949220339000,3.2603388671875,-0.09173817932605743,-0.19214867055416107,0.026031866669654846
1790587949230419200,3.270419189453125,-0.08543740212917328,-0.2070104330778122,0.014543256722390652
1790587949240499000,3.2804990234375,-0.08184026926755905,-0.22863876819610596,-0.013995710760354996
1790587949250579200,3.2905791015625,-0.08980339020490646,-0.2518458068370819,-0.013940849341452122
1790587949260659000,3.300658935546875,-0.10392586886882782,-0.26541516184806824,0.0010285128373652697
1790587949270739200,3.3107392578125,-0.11188925057649612,-0.26760080456733704,0.006087986286729574
1790587949280819200,3.320819091796875,-0.11390819400548935,-0.27498042583465576,-0.0006348976166918874
1790587949290899000,3.33089892578125,-0.11179684102535248,-0.28227537870407104,-0.0032719597220420837
1790587949300979200,3.340979248046875,-0.10678743571043015,-0.29385027289390564,0.006974818650633097
1790587949311059000,3.351058837890625,-0.10392293334007263,-0.3040589690208435,0.007006510626524687
1790587949321139200,3.36113916015625,-0.10250773280858994,-0.313812255859375,0.0012591425329446793
1790587949331219000,3.371218994140625,-0.1076071560382843,-0.31911858916282654,-0.004568386357277632
1790587949341299000,3.381298828125,-0.1095946729183197,-0.32196924090385437,-0.005391303449869156
1790587949351379200,3.391379150390625,-0.12048833072185516,-0.32443639636039734,-0.00014194648247212172
1790587949361459000,3.401458984375,-0.11874076724052429,-0.328045517206192,0.00720464950427413
1790587949371539200,3.411539306640625,-0.11552419513463974,-0.32990866899490356,0.005357747431844473
1790587949381619000,3.421618896484375,-0.10803885012865067,-0.3309321105480194,0.004043211229145527
1790587949391699200,3.43169921875,-0.10489791631698608,-0.33103305101394653,0.00344559783115983
1790587949401779200,3.441779296875,-0.10713790357112885,-0.3283568322658539,0.009417204186320305
1790587949411859000,3.45185888671875,-0.11198006570339203,-0.3317696750164032,0.0036554548423737288
1790587949421939200,3.461939208984375,-0.10987776517868042,-0.33241522312164307,0.001612544059753418
1790587949432019000,3.47201904296875,-0.10940558463335037,-0.3323236107826233,0.002971555106341839
1790587949442099200,3.48209912109375,-0.10666359215974808,-0.3430548310279846,0.0024588967207819223
1790587949452179000,3.492178955078125,-0.10735122114419937,-0.3429933190345764,0.003907656297087669
1790587949462259000,3.502259033203125,-0.10287205129861832,-0.34398719668388367,0.004506334662437439
1790587949472339200,3.512339111328125,-0.09844455122947693,-0.340970903635025,0.004161987919360399
1790587949482419000,3.5224189453125,-0.094526506960392,-0.3393953740596771,0.008295213803648949
1790587949492499200,3.532499267578125,-0.09084122627973557,-0.3381226658821106,0.006036320701241493
1790587949502579000,3.542578857421875,-0.08990965038537979,-0.33893677592277527,0.0023257385473698378
1790587949512659200,3.5526591796875,-0.08942202478647232,-0.3358001112937927,0.004006193019449711
1790587949522739200,3.5627392578125,-0.08647789806127548,-0.33862411975860596,0.007561246864497662
1790587949532819000,3.57281884765625,-0.08586191385984421,-0.345161110162735,0.004553738981485367
1790587949542899200,3.582899169921875,-0.08074278384447098,-0.35330691933631897,0.0034796863328665495
1790587949552979000,3.59297900390625,-0.07709558308124542,-0.3614735007286072,0.008136223070323467
1790587949563059200,3.60305908203125,-0.0803009644150734,-0.3674381971359253,0.005288771353662014
1790587949573139200,3.61313916015625,-0.10017000883817673,-0.30776315927505493,-0.05309411138296127
1790587949583219000,3.623218994140625,-0.08129405975341797,-0.21303504705429077,0.1130322813987732
1790587949593299200,3.63329931640625,-0.06733909249305725,-0.20028115808963776,0.003329750383272767
1790587949603379000,3.64337890625,-0.00990243162959814,-0.21044617891311646,-0.00008788431296125054
1790587949613459200,3.653459228515625,-0.020795825868844986,-0.26659920811653137,-0.08885210752487183
1790587949623539000,3.6635390625,-0.025127191096544266,-0.29270297288894653,0.015438877046108246
1790587949633619000,3.673618896484375,-0.010929613374173641,-0.28622323274612427,0.04712623357772827
1790587949643699200,3.68369921875,0.03160852566361427,-0.23056823015213013,0.06072087213397026
1790587949653779000,3.693779052734375,0.04283428192138672,-0.17574146389961243,-0.007242732681334019
1790587949663859200,3.703859130859375,0.009326389990746975,-0.1281646192073822,-0.015514245256781578
1790587949673939000,3.71393896484375,0.019825901836156845,-0.09659924358129501,0.030429011210799217
1790587949684019200,3.724019287109375,-0.011087272316217422,-0.05650189146399498,0.015431420877575874
1790587949694098000,3.734097900390625,-0.007649397477507591,0.0019121496006846428,-0.002639192622154951
1790587949704178200,3.74417822265625,0.058152783662080765,0.050095923244953156,0.0036099147982895374
1790587949714258000,3.7542578125,0.09395019710063934,0.03543549031019211,-0.03861876577138901
1790587949724338200,3.764338134765625,0.09796677529811859,0.001847434788942337,-0.046365901827812195
1790587949734418200,3.774418212890625,0.12688231468200684,-0.003230147995054722,0.02039209008216858
1790587949744498000,3.784497802734375,0.14190280437469482,0.03371562063694,0.05927664041519165
1790587949754578200,3.794578125,0.1505487561225891,0.0878819152712822,0.044498492032289505
1790587949764658000,3.804657958984375,0.1505327820777893,0.11866353452205658,-0.014699317514896393
1790587949774738200,3.81473828125,0.13215456902980804,0.11944810301065445,-0.04152613878250122
1790587949784818200,3.824818115234375,0.12828287482261658,0.10969587415456772,-0.0018967032665386796
1790587949794898000,3.83489794921875,0.15528173744678497,0.12300155311822891,0.04103824496269226
1790587949804978200,3.844978271484375,0.17830955982208252,0.13643667101860046,-0.0026498453225940466
1790587949815058000,3.855057861328125,0.19264747202396393,0.13022005558013916,-0.038960982114076614
1790587949825138200,3.86513818359375,0.19646325707435608,0.11045327037572861,0.0018306568963453174
1790587949835218200,3.87521826171875,0.18453575670719147,0.07876724749803543,0.04523512348532677
1790587949845298200,3.885298095703125,0.1902221441268921,0.05868914723396301,0.024697089567780495
1790587949855378200,3.895378173828125,0.2056618183851242,0.05239023640751839,-0.005106877535581589
1790587949865458000,3.9054580078125,0.211578831076622,0.0579405315220356,0.007552991155534983
1790587949875538200,3.9155380859375,0.21291519701480865,0.0602329820394516,0.012486496940255165
1790587949885618000,3.925617919921875,0.20492517948150635,0.061641525477170944,0.00869202520698309
1790587949895698200,3.9356982421875,0.20198558270931244,0.06718995422124863,-0.004890096373856068
1790587949905777700,3.945777587890625,0.20858916640281677,0.0665806233882904,-0.001335575245320797
1790587949915857700,3.955857666015625,0.20118211209774017,0.06354808062314987,0.018065286800265312
1790587949925937700,3.965937744140625,0.19788432121276855,0.058392204344272614,0.01738458313047886
1790587949936017700,3.976017578125,0.19757778942584991,0.0449506975710392,0.0021433120127767324
1790587949946098000,3.986097900390625,0.20072564482688904,0.034637872129678726,0.011201255023479462
1790587949956177700,3.996177734375,0.2070634365081787,0.025681927800178528,0.010872088372707367
1790587949966258000,4.0062578125,0.21258336305618286,0.014127270318567753,0.00032144354190677404
1790587949976337700,4.016337646484375,0.2056729942560196,0.019205918535590172,0.007330084685236216
1790587949986417700,4.026417724609375,0.198581263422966,0.03284157067537308,0.02056785859167576
1790587949996497700,4.03649755859375,0.18685750663280487,0.061112888157367706,0.0114958006888628
1790587950006577700,4.04657763671875,0.1912061721086502,0.08900444209575653,0.0012857741676270962
1790587950016658000,4.056657958984375,0.19560837745666504,0.10818612575531006,0.00571833923459053
1790587950026737700,4.066737548828125,0.1954115778207779,0.12168435752391815,0.0024141555186361074
1790587950036817700,4.076817626953125,0.19825635850429535,0.12955665588378906,0.001103880233131349
1790587950046897700,4.086897705078125,0.2059132158756256,0.1527533233165741,0.0054608117789030075
1790587950056977700,4.096977783203125,0.2096962332725525,0.17683017253875732,0.009977798908948898
1790587950067058000,4.107057861328125,0.21235381066799164,0.19508028030395508,0.01070990227162838
1790587950077137700,4.1171376953125,0.21571284532546997,0.19702358543872833,0.004412058740854263
1790587950087218000,4.127218017578125,0.19983108341693878,0.19748058915138245,-0.000040746363083599135
1790587950097297700,4.137297607421875,0.207060769200325,0.23119060695171356,0.012258264236152172
1790587950107377700,4.147377685546875,0.21296393871307373,0.26901975274086,0.014904913492500782
1790587950117457700,4.157457763671875,0.217145636677742,0.3144910931587219,0.008078699000179768
1790587950127537700,4.16753759765625,0.23180580139160156,0.33506080508232117,-0.005289836786687374
1790587950137618000,4.177617919921875,0.2093297839164734,0.3197955787181854,-0.004618986509740353
1790587950147697700,4.18769775390625,0.15455494821071625,0.28600752353668213,-0.004822452086955309
1790587950157777700,4.197777587890625,0.12807674705982208,0.25755777955055237,-0.007309045642614365
1790587950167857700,4.207857666015625,0.1282796710729599,0.24090689420700073,-0.010915231890976429
1790587950177937700,4.217937744140625,0.1326480507850647,0.2289186716079712,0.016020245850086212
1790587950188018000,4.228017822265625,0.1546361744403839,0.22109003365039825,0.002380866091698408
1790587950198097700,4.23809765625,0.16272713243961334,0.20525407791137695,-0.01666925847530365
1790587950208178000,4.248177978515625,0.1558479219675064,0.21169067919254303,0.01233203336596489
1790587950218257700,4.258257568359375,0.16047489643096924,0.21935871243476868,0.009722402319312096
1790587950228337700,4.268337646484375,0.1497602015733719,0.21864445507526398,-0.0017451694002375007
1790587950238417700,4.278417724609375,0.13612401485443115,0.19781747460365295,-0.00974397361278534
1790587950248497700,4.28849755859375,0.12635821104049683,0.17139145731925964,-0.0030929953791201115
1790587950258578000,4.298577880859375,0.12021802365779877,0.14849252998828888,-0.006743123754858971
1790587950268657700,4.30865771484375,0.11816898733377457,0.13875654339790344,0.0018154769204556942
1790587950278737700,4.318737548828125,0.12535978853702545,0.13465848565101624,-0.006740194279700518
1790587950288817700,4.328817626953125,0.13574877381324768,0.13735705614089966,-0.005333246197551489
1790587950298897700,4.338897705078125,0.14407116174697876,0.13665638864040375,0.001924932817928493
1790587950308978000,4.34897802734375,0.13840395212173462,0.13305632770061493,-0.002097505610436201
1790587950319057700,4.3590576171875,0.14181599020957947,0.14059226214885712,-0.006590258330106735
1790587950329137000,4.369136962890625,0.13465102016925812,0.15419596433639526,-0.01022920198738575
1790587950339216600,4.379216552734375,0.13296657800674438,0.18599623441696167,-0.006196909584105015
1790587950349297000,4.389296875,0.14390817284584045,0.2230895459651947,0.002560895634815097
1790587950359376600,4.399376708984375,0.14338885247707367,0.24934858083724976,-0.004400607198476791
1790587950369457000,4.409456787109375,0.14919666945934296,0.2675875127315521,-0.01245240867137909
1790587950379536600,4.41953662109375,0.15412752330303192,0.2784617245197296,-0.0054613444954156876
1790587950389616600,4.42961669921875,0.16476204991340637,0.2966034412384033,-0.00407543545588851
1790587950399697000,4.43969677734375,0.17577502131462097,0.3140316903591156,-0.008252071216702461
1790587950409776600,4.449776611328125,0.1760362833738327,0.33089616894721985,-0.0064986455254256725
1790587950419857000,4.45985693359375,0.1773902326822281,0.33544084429740906,-0.007168963085860014
1790587950429936600,4.4699365234375,0.17297977209091187,0.35001125931739807,-0.004905542824417353
1790587950440016600,4.4800166015625,0.16533862054347992,0.3686789572238922,-0.015030615031719208
1790587950450097000,4.490096923828125,0.16015611588954926,0.39899054169654846,-0.017557688057422638
1790587950460176600,4.5001767578125,0.14854872226715088,0.419463574886322,-0.010415356606245041
1790587950470257000,4.5102568359375,0.14660701155662537,0.43823620676994324,0.00016484966909047216
1790587950480336600,4.520336669921875,0.14455612003803253,0.4388202428817749,0.004866660572588444
1790587950490416600,4.530416748046875,0.13011139631271362,0.41320115327835083,0.021887188777327538
1790587950500496600,4.54049658203125,0.11774075031280518,0.3620713949203491,0.03934288024902344
1790587950510576600,4.55057666015625,0.12013573199510574,0.3054419457912445,0.010350375436246395
1790587950520657000,4.560656982421875,0.1312006264925003,0.2573942542076111,-0.014935806393623352
1790587950530736600,4.570736572265625,0.1436794102191925,0.23265720903873444,-0.025742914527654648
1790587950540817000,4.58081689453125,0.15549451112747192,0.22060933709144592,-0.018098575994372368
1790587950550896600,4.590896728515625,0.14032168686389923,0.20214085280895233,-0.01082628220319748
1790587950560976600,4.6009765625,0.115139901638031,0.16611281037330627,-0.0029052423778921366
1790587950571057000,4.611056884765625,0.0996144711971283,0.10501110553741455,-0.017644774168729782
1790587950581136600,4.62113671875,0.07595574855804443,0.03430471196770668,-0.017616011202335358
1790587950591217000,4.631216796875,0.06497793644666672,-0.029160548001527786,0.011382883414626122
1790587950601296600,4.641296630859375,0.07083955407142639,-0.07064833492040634,0.009096292778849602
1790587950611376600,4.651376708984375,0.07712780684232712,-0.0930820032954216,-0.024267788976430893
1790587950621456600,4.66145654296875,0.09410865604877472,-0.09165561944246292,-0.04068511351943016
1790587950631536600,4.67153662109375,0.11407703906297684,-0.08296705782413483,-0.028170384466648102
1790587950641617000,4.681616943359375,0.13174684345722198,-0.06743310391902924,-0.013970676809549332
1790587950651696600,4.691696533203125,0.13444143533706665,-0.0540270172059536,-0.005149754695594311
1790587950661777000,4.70177685546875,0.12421435862779617,-0.04145609587430954,-0.0013731258222833276
1790587950671856600,4.711856689453125,0.11828110367059708,-0.03110811859369278,-0.008886436000466347
1790587950681936600,4.7219365234375,0.10540764778852463,-0.00440992834046483,-0.005887716542929411
1790587950692017000,4.732016845703125,0.09444767236709595,0.036323387175798416,-0.012777314521372318
1790587950702096600,4.7420966796875,0.09299945086240768,0.09245989471673965,-0.027341343462467194
1790587950712177000,4.752177001953125,0.09332275390625,0.14486265182495117,-0.014581872150301933
1790587950722256600,4.762256591796875,0.09194909781217575,0.18310751020908356,0.013676131144165993
1790587950732336600,4.772336669921875,0.09862617403268814,0.20096400380134583,0.0021550299134105444
1790587950742417000,4.7824169921875,0.11558651924133301,0.22627441585063934,-0.010691526345908642
1790587950752496600,4.79249658203125,0.1331050544977188,0.251759797334671,-0.02009301818907261
1790587950762577000,4.802576904296875,0.12422234565019608,0.279859334230423,-0.018011225387454033
1790587950772656600,4.81265673828125,0.10927589237689972,0.2885393798351288,-0.016690030694007874
1790587950782737000,4.82273681640625,0.09122738242149353,0.2751636505126953,-0.011153052560985088
1790587950792816600,4.832816650390625,0.07501405477523804,0.25562912225723267,0.00484402384608984
1790587950802896600,4.842896728515625,0.08483872562646866,0.24030713737010956,0.007731422781944275
1790587950812977000,4.852976806640625,0.09837290644645691,0.24114790558815002,0.007409446872770786
1790587950823056600,4.863056640625,0.10547928512096405,0.2509475350379944,0.018882079049944878
1790587950833137000,4.873136962890625,0.09946214407682419,0.25150707364082336,0.01315148826688528
1790587950843216600,4.883216552734375,0.08733943104743958,0.23074905574321747,-0.00006711165769957006
1790587950853296600,4.893296630859375,0.07624683529138565,0.1930520087480545,-0.005681321490556002
1790587950863377000,4.903376953125,0.0671156570315361,0.14448633790016174,-0.017287110909819603
1790587950873456600,4.91345654296875,0.06638860702514648,0.0949651300907135,-0.016089754179120064
1790587950883537000,4.923536865234375,0.06274407356977463,0.06195551156997681,-0.002320145955309272
1790587950893616600,4.93361669921875,0.07140760123729706,0.03681154549121857,0.003858920419588685
1790587950903700000,4.943699951171875,0.08338171243667603,0.018257301300764084,0.001142496126703918
1790587950913779700,4.95377978515625,0.08123386651277542,0.003756921272724867,0.004263454582542181
1790587950923859700,4.963859619140625,0.0749908909201622,-0.002936667762696743,-0.004126035608351231
1790587950933940000,4.97393994140625,0.0637478232383728,0.0031827439088374376,0.05946146324276924
1790587950944019700,4.984019775390625,0.05362620949745178,0.0020839234348386526,-0.03639129549264908
1790587950954100000,4.994099853515625,0.0404512844979763,-0.0012937636347487569,-0.028206337243318558
1790587950964179700,5.0041796875,0.06064470484852791,0.017136909067630768,0.044078510254621506
1790587950974260000,5.014260009765625,0.06369029730558395,-0.025708293542265892,-0.034009899944067
1790587950984338700,5.024338623046875,0.0669044628739357,-0.047201067209243774,0.0354650504887104
1790587950994419000,5.0344189453125,0.03588369861245155,-0.05736448988318443,0.022336997091770172
1790587951004498700,5.044498779296875,0.06409456580877304,-0.0716712549328804,-0.0780671015381813
1790587951014579000,5.054578857421875,0.043950412422418594,-0.0529436431825161,0.04790360853075981
1790587951024659000,5.064658935546875,0.06348203867673874,-0.06658701598644257,-0.045700643211603165
1790587951034738700,5.07473876953125,0.10902901738882065,-0.05146026238799095,0.009883789345622063
1790587951044819000,5.08481884765625,0.06949492543935776,-0.04640824347734451,0.0602891743183136
1790587951054898700,5.094898681640625,0.08669547736644745,-0.03886084631085396,-0.055689360946416855
1790587951064979000,5.10497900390625,0.07861678302288055,0.004247475415468216,0.012684902176260948
1790587951075059000,5.115058837890625,0.07322121411561966,0.05037209391593933,0.13535062968730927
1790587951085138700,5.125138671875,0.08070895820856094,0.04691930487751961,-0.053169477730989456
1790587951095219000,5.135218994140625,0.0522347092628479,0.04247581958770752,-0.00398728484287858
1790587951105298700,5.145298583984375,0.0345771498978138,0.03814765065908432,-0.11878018081188202
1790587951115379000,5.15537890625,0.045937132090330124,0.0452423132956028,-0.12985120713710785
1790587951125458700,5.165458740234375,0.042745597660541534,0.07443588227033615,0.006499977316707373
1790587951135539000,5.1755390625,0.06668129563331604,0.06926216185092926,0.026818830519914627
1790587951145619000,5.185618896484375,0.08096569031476974,0.07869667559862137,0.11711064726114273
1790587951155698700,5.19569873046875,0.07748892903327942,0.06494277715682983,0.056233178824186325
1790587951165779000,5.205779052734375,0.09293793141841888,0.07092636823654175,-0.04272828996181488
1790587951175858700,5.215858642578125,0.06282396614551544,0.09894336014986038,-0.0255756676197052
1790587951185939000,5.22593896484375,0.05155640095472336,0.14462482929229736,0.017890850082039833
1790587951196019000,5.23601904296875,0.05052788928151131,0.16016410291194916,0.0059601543471217155
1790587951206098700,5.2460986328125,0.021048294380307198,0.17285007238388062,-0.07306888699531555
1790587951216179000,5.256178955078125,0.03424479067325592,0.1572924107313156,-0.08353617042303085
1790587951226258700,5.2662587890625,0.046248987317085266,0.13398097455501556,0.03644855320453644
1790587951236339000,5.2763388671875,0.050576090812683105,0.12108461558818817,0.0645022913813591
1790587951246418700,5.286418701171875,0.0969688892364502,0.1173870787024498,0.010062221437692642
1790587951256498700,5.296498779296875,0.07922611385583878,0.12244096398353577,0.0029973878990858793
1790587951266579000,5.306578857421875,0.09088170528411865,0.12861843407154083,0.0198671817779541
1790587951276658700,5.31665869140625,0.06799796223640442,0.12844160199165344,0.0007089334540069103
1790587951286739000,5.326739013671875,0.04789908230304718,0.13385233283042908,-0.029152559116482735
1790587951296818700,5.336818603515625,0.0514482781291008,0.145961195230484,-0.029713153839111328
1790587951306899000,5.34689892578125,0.06095203384757042,0.17272277176380157,-0.01961018703877926
1790587951316979000,5.35697900390625,0.08450795710086823,0.18830865621566772,0.0033214944414794445
1790587951327058700,5.36705859375,0.09489881247282028,0.19173374772071838,0.028434570878744125
1790587951337139000,5.377138916015625,0.10102807730436325,0.18734459578990936,0.021372400224208832
1790587951347218700,5.38721875,0.10200652480125427,0.19139046967029572,0.0023454460315406322
1790587951357299000,5.397298828125,0.09981980174779892,0.1966821700334549,-0.0013989584986120462
1790587951367378700,5.407378662109375,0.08747658878564835,0.21482442319393158,0.01611851528286934
1790587951377458700,5.417458740234375,0.08451781421899796,0.22598519921302795,0.003793140407651663
1790587951387539000,5.4275390625,0.08393511176109314,0.2260211557149887,-0.027174629271030426
1790587951397618700,5.43761865234375,0.08825928717851639,0.21946364641189575,-0.015799203887581825
1790587951407699000,5.447698974609375,0.09775745123624802,0.2194194346666336,0.03148069605231285
1790587951417778700,5.45777880859375,0.09871166199445724,0.22408956289291382,0.028970131650567055
1790587951427859000,5.46785888671875,0.09568178653717041,0.23410756886005402,-0.004193946253508329
1790587951437939000,5.47793896484375,0.09222447127103806,0.2563100755214691,0.0015345134306699038
1790587951448018700,5.488018798828125,0.0846584290266037,0.27835679054260254,0.029399434104561806
1790587951458099000,5.498098876953125,0.0856749564409256,0.2955371141433716,0.016760071739554405
1790587951468178700,5.5081787109375,0.08054464310407639,0.3017257750034332,-0.008373511023819447
1790587951478259000,5.518259033203125,0.07573045045137405,0.3034866452217102,0.015135277062654495
1790587951488338700,5.528338623046875,0.0822266936302185,0.30504247546195984,0.03358672186732292
1790587951498418700,5.538418701171875,0.08177103102207184,0.30221977829933167,0.021264541894197464
1790587951508499000,5.5484990234375,0.07609236985445023,0.29166674613952637,0.032765667885541916
1790587951518578700,5.55857861328125,0.0766867846250534,0.27493757009506226,0.04785487428307533
1790587951528659000,5.568658935546875,0.06199066713452339,0.2565535008907318,0.02147439867258072
1790587951538738700,5.57873876953125,0.04274453595280647,0.24564625322818756,-0.015111841261386871
1790587951548819000,5.58881884765625,0.04601036757230759,0.2384282797574997,-0.0006087986403144896
1790587951558899000,5.59889892578125,0.04406892508268356,0.2330007553100586,0.04568785801529884
1790587951568978700,5.608978759765625,0.0349007248878479,0.2151985913515091,0.05998131260275841
1790587951579059000,5.619058837890625,0.03039652109146118,0.17038318514823914,0.03790557011961937
1790587951589138700,5.629138671875,-0.0005227785441093147,0.11224664747714996,0.032221853733062744
1790587951599219000,5.639218994140625,-0.03500805050134659,0.06597502529621124,0.03573376312851906
1790587951609298700,5.649298583984375,-0.038297854363918304,0.02641749195754528,0.006604905705899
1790587951619378700,5.659378662109375,-0.0532618910074234,0.0041342913173139095,0.013726464472711086
1790587951629459000,5.669458984375,-0.05740417167544365,-0.015895076096057892,0.015663648024201393
1790587951639538700,5.67953857421875,-0.06133020296692848,-0.05897516757249832,-0.013755492866039276
1790587951649619000,5.689618896484375,-0.088734932243824,-0.1077783927321434,-0.003498861100524664
1790587951659698700,5.69969873046875,-0.10765935480594635,-0.17829065024852753,0.057795390486717224
1790587951669779000,5.709779052734375,-0.13457165658473969,-0.22686031460762024,0.07632140070199966
1790587951679859000,5.71985888671875,-0.12982670962810516,-0.2351509928703308,0.0036067189648747444
1790587951689938700,5.729938720703125,-0.09999610483646393,-0.18911373615264893,-0.005739910993725061
1790587951700019000,5.74001904296875,-0.08025675266981125,-0.1210947334766388,0.05106611177325249
1790587951710098700,5.7500986328125,-0.05836956575512886,-0.052868008613586426,0.02689100243151188
1790587951720179000,5.760178955078125,-0.037638455629348755,0.00009480853623244911,-0.040937311947345734
1790587951730259000,5.770259033203125,-0.026690999045968056,0.04387078434228897,0.01525938045233488
1790587951740338700,5.780338623046875,-0.023783093318343163,0.08759962022304535,0.0678461566567421
1790587951750419000,5.7904189453125,-0.025958096608519554,0.12165798991918564,0.014885472133755684
1790587951760498700,5.800498779296875,-0.03603150323033333,0.15604951977729797,0.04903225600719452
1790587951770579000,5.810578857421875,-0.028907814994454384,0.2056008279323578,0.039852339774370193
1790587951780658700,5.82065869140625,0.006690659560263157,0.25675350427627563,0.00968644954264164
1790587951790739000,5.830739013671875,0.03389245271682739,0.3283291459083557,0.036609943956136703
1790587951800819000,5.84081884765625,0.08115184307098389,0.3696800470352173,-0.011521633714437485
1790587951810898700,5.850898681640625,0.11260031163692474,0.4109715521335602,-0.011954396963119507
1790587951820979000,5.86097900390625,0.12303191423416138,0.437247097492218,0.07016231119632721
1790587951831058700,5.87105859375,0.09017863124608994,0.4355781078338623,0.10231944918632507
1790587951841139000,5.881138916015625,0.06113792210817337,0.4478209316730499,0.10808519273996353
1790587951851217700,5.8912177734375,0.05997598543763161,0.4534468352794647,0.04981868714094162
1790587951861298700,5.901298583984375,0.053941529244184494,0.46880078315734863,0.0037143107037991285
1790587951871377700,5.911377685546875,0.09791697561740875,0.4958222806453705,-0.01889832317829132
1790587951881458000,5.9214580078125,0.12280741333961487,0.5205712914466858,0.011217234656214714
1790587951891538000,5.931537841796875,0.14156964421272278,0.5620273947715759,0.059370383620262146
1790587951901615000,5.941614990234375,0.15172667801380157,0.5973174571990967,0.05645555257797241
1790587951911695400,5.9516953125,0.16079340875148773,0.6209753751754761,0.040714673697948456
1790587951921772300,5.961772216796875,0.16066505014896393,0.6298317313194275,0.043960265815258026
1790587951931852300,5.971852294921875,0.15055222809314728,0.6152474880218506,0.08519851416349411
1790587951941932300,5.981932373046875,0.16389918327331543,0.6076989769935608,0.09373261779546738
1790587951952012300,5.99201220703125,0.16501052677631378,0.5751895308494568,0.023120764642953873
1790587951962092300,6.00209228515625,0.1742652803659439,0.5602622628211975,0.016818661242723465
1790587951972172300,6.01217236328125,0.18289898335933685,0.557766318321228,0.015557920560240746
1790587951982252300,6.022252197265625,0.18831105530261993,0.5840490460395813,0.046965379267930984
1790587951992332300,6.032332275390625,0.16291701793670654,0.5986916422843933,0.03599102422595024
1790587952002412300,6.042412353515625,0.15441647171974182,0.599378228187561,0.004172907210886478
1790587952012492300,6.0524921875,0.14516891539096832,0.5860978364944458,0.08565764874219894
1790587952022572300,6.062572265625,0.10748757421970367,0.5272364020347595,0.09307721257209778
1790587952032652000,6.072652099609375,0.10340681672096252,0.4951269030570984,0.07965142279863358
1790587952042732300,6.082732177734375,0.10747718811035156,0.4626366198062897,0.0816061794757843
1790587952052812300,6.092812255859375,0.11375692486763,0.4321436882019043,0.05885559320449829
1790587952062892300,6.102892333984375,0.1745169460773468,0.3751909136772156,0.06371959298849106
1790587952072972300,6.11297216796875,0.2587631046772003,0.2930167019367218,0.1307111382484436
1790587952083052000,6.123052001953125,0.35679247975349426,0.16654211282730103,0.14915992319583893
1790587952093132300,6.13313232421875,0.34269797801971436,0.0267192292958498,0.10539673268795013
1790587952103212300,6.14321240234375,0.16557778418064117,-0.10500764101743698,0.10620366781949997
1790587952113292300,6.153292236328125,-0.09884828329086304,-0.17591270804405212,0.2022407203912735
1790587952123372300,6.163372314453125,-0.3523652255535126,-0.23610015213489532,0.15495309233665466
1790587952133452300,6.173452392578125,-0.38873177766799927,-0.31470733880996704,0.07507690787315369
1790587952143532300,6.1835322265625,-0.33981430530548096,-0.4039109945297241,0.09387695789337158
1790587952153612000,6.193612060546875,-0.39078691601753235,-0.5404437780380249,0.048838112503290176
1790587952163692300,6.2036923828125,-0.4360726475715637,-0.6866660118103027,0.009637979790568352
1790587952173772300,6.213772216796875,-0.4728493094444275,-0.810385525226593,0.03971651941537857
1790587952183852300,6.223852294921875,-0.553424060344696,-0.913940966129303,0.004221110139042139
1790587952193932300,6.233932373046875,-0.5725426077842712,-0.9503652453422546,-0.05644197016954422
1790587952204012000,6.244011962890625,-0.5638369917869568,-0.9769920706748962,-0.00037390782381407917
1790587952214092300,6.25409228515625,-0.5674384236335754,-1.0122499465942383,0.05493781715631485
1790587952224172300,6.26417236328125,-0.5176945328712463,-1.0732669830322266,0.011595402844250202
1790587952234252300,6.274252197265625,-0.5569649934768677,-1.2002805471420288,-0.04418450593948364
1790587952244332300,6.284332275390625,-0.6646389961242676,-1.3396658897399902,-0.10680846869945526
1790587952254412300,6.294412353515625,-0.6833575367927551,-1.371677041053772,-0.057494450360536575
1790587952264492300,6.3044921875,-0.7894538640975952,-1.3496456146240234,-0.028075043112039566
1790587952274572000,6.314572021484375,-0.8205638527870178,-1.2792811393737793,-0.056414805352687836
1790587952284652300,6.32465234375,-0.7109484076499939,-1.1517285108566284,-0.0029049760196357965
1790587952294732300,6.334732177734375,-0.5568115711212158,-1.1855593919754028,-0.04289020970463753
1790587952304812300,6.344812255859375,-0.5165384411811829,-1.2852157354354858,-0.015260712243616581
1790587952314892300,6.354892333984375,-0.5524213910102844,-1.4323278665542603,-0.07056018710136414
1790587952324972000,6.364971923828125,-0.5591615438461304,-1.5506625175476074,-0.016694556921720505
1790587952335052300,6.37505224609375,-0.6156005859375,-1.5208908319473267,0.0122428173199296
1790587952345132300,6.38513232421875,-0.7166670560836792,-1.35927152633667,-0.03696547448635101
1790587952355212300,6.39521240234375,-0.8473965525627136,-1.1203510761260986,-0.11021731793880463
1790587952365292300,6.405292236328125,-0.7154550552368164,-0.9378694295883179,0.04502659663558006
1790587952375372300,6.415372314453125,-0.345567524433136,-0.8914790749549866,0.09263486415147781
1790587952385452300,6.425452392578125,-0.16579268872737885,-0.8977377414703369,0.07534109055995941
1790587952395532000,6.435531982421875,-0.3218885660171509,-0.8914681077003479,0.033126261085271835
1790587952405612300,6.4456123046875,-0.40623724460601807,-0.836384117603302,-0.088558629155159
1790587952415692300,6.4556923828125,-0.26819896697998047,-0.7017490863800049,-0.02936241589486599
1790587952425772300,6.465772216796875,-0.13645051419734955,-0.597065806388855,0.05230368301272392
1790587952435852300,6.475852294921875,-0.08818525075912476,-0.5321224927902222,0.06555317342281342
1790587952445932000,6.48593212890625,-0.05130632966756821,-0.45956864953041077,0.04310059919953346
1790587952456012300,6.49601220703125,-0.029290510341525078,-0.42656970024108887,-0.029833262786269188
1790587952466092300,6.50609228515625,0.014397581107914448,-0.34598538279533386,-0.03122716210782528
1790587952476172300,6.51617236328125,0.0886414498090744,-0.23550653457641602,0.04071813449263573
1790587952486252300,6.526252197265625,0.07634270936250687,-0.16259583830833435,0.04531608149409294
1790587952496332300,6.536332275390625,-0.021216871216893196,-0.14513562619686127,-0.028797026723623276
1790587952506412300,6.546412353515625,0.020861871540546417,-0.08860976248979568,0.006421413738280535
1790587952516492000,6.556491943359375,0.005806223955005407,-0.07309764623641968,0.03274649381637573
1790587952526572300,6.566572265625,0.036971867084503174,-0.014480405487120152,-0.030437001958489418
1790587952536652300,6.57665234375,0.14254915714263916,0.04037432000041008,-0.008644354529678822
1790587952546732300,6.586732177734375,0.24313461780548096,0.1149047464132309,0.029048429802060127
1790587952556812300,6.596812255859375,0.28657370805740356,0.15435175597667694,-0.006112753413617611
1790587952566892000,6.60689208984375,0.34685570001602173,0.20545382797718048,0.061416223645210266
1790587952576972300,6.61697216796875,0.31072431802749634,0.20908105373382568,-0.06871061772108078
1790587952587052300,6.62705224609375,0.23564794659614563,0.2309834212064743,-0.07208245247602463
1790587952597132300,6.63713232421875,0.2573585510253906,0.32233569025993347,0.073316290974617
1790587952607212300,6.64721240234375,0.3558286726474762,0.40031546354293823,0.1361090987920761
1790587952617292300,6.657292236328125,0.3810131251811981,0.49727874994277954,0.03527703136205673
1790587952627372300,6.667372314453125,0.43345555663108826,0.5494085550308228,-0.2118864208459854
1790587952637452000,6.6774521484375,0.47845685482025146,0.5791435241699219,-0.17245033383369446
1790587952647532300,6.6875322265625,0.4377374053001404,0.5975997447967529,-0.08286558836698532
1790587952657612300,6.6976123046875,0.3151092231273651,0.6368337273597717,0.03459392860531807
1790587952667692300,6.7076923828125,0.30610746145248413,0.6704462766647339,0.002098038326948881
1790587952677772300,6.717772216796875,0.38621029257774353,0.6675072312355042,0.006278135813772678
1790587952687852000,6.72785205078125,0.3929422199726105,0.6861352324485779,0.08338437229394913
1790587952697932300,6.737932373046875,0.45013147592544556,0.7170758247375488,-0.13994112610816956
1790587952708012300,6.74801220703125,0.5529580116271973,0.7346910238265991,-0.1340736448764801
1790587952718092300,6.75809228515625,0.4995189905166626,0.8122361898422241,0.021698104217648506
1790587952728172300,6.76817236328125,0.44930216670036316,0.8659042119979858,0.05223098024725914
1790587952738252300,6.778252197265625,0.3905826508998871,0.9058449268341064,0.07642047107219696
1790587952748332300,6.788332275390625,0.35225605964660645,0.9095944166183472,-0.15278075635433197
1790587952758412000,6.798412109375,0.30317479372024536,0.8944527506828308,-0.15642662346363068
1790587952768492300,6.8084921875,0.2844961881637573,0.8541796207427979,-0.00213638786226511
1790587952778572300,6.818572265625,0.3516696095466614,0.8241540789604187,0.19293083250522614
1790587952788652300,6.82865234375,0.44336625933647156,0.8144340515136719,0.1404961347579956
1790587952798732300,6.838732177734375,0.48472487926483154,0.7927926778793335,-0.036259736865758896
1790587952808812000,6.84881201171875,0.4652539789676666,0.8307571411132812,-0.16520093381404877
1790587952818892300,6.858892333984375,0.42262688279151917,0.8350051045417786,-0.1408785581588745
1790587952828972300,6.86897216796875,0.4077097177505493,0.9045189619064331,0.14587464928627014
1790587952839052300,6.87905224609375,0.37644127011299133,0.9358974099159241,0.2993438243865967
1790587952849132300,6.88913232421875,0.3608876168727875,0.9256966710090637,0.08958207815885544
1790587952859212300,6.89921240234375,0.3208903968334198,0.843024730682373,-0.22152893245220184
1790587952869292300,6.909292236328125,0.33217287063598633,0.7869667410850525,-0.18611633777618408
1790587952879372300,6.919372314453125,0.3647499978542328,0.7857837677001953,0.09175388514995575
1790587952889452300,6.929452392578125,0.4144054353237152,0.7789652943611145,0.13483451306819916
1790587952899532300,6.9395322265625,0.38910380005836487,0.781989336013794,0.021206751465797424
1790587952909611800,6.94961181640625,0.30912935733795166,0.7560903429985046,-0.06809356808662415
1790587952919691800,6.95969189453125,0.24557913839817047,0.7535054683685303,0.010778078809380531
1790587952929771800,6.969771728515625,0.2523885667324066,0.7595910429954529,0.1107717901468277
1790587952939851800,6.979851806640625,0.2558610737323761,0.7404615879058838,0.08045143634080887
1790587952949931500,6.989931640625,0.2710767686367035,0.7573153972625732,0.011118963360786438
1790587952960011800,7.00001171875,0.2564549446105957,0.7541337013244629,-0.06373210996389389
1790587952970091500,7.010091552734375,0.2043323665857315,0.7932084202766418,-0.047746218740940094
1790587952980171800,7.020171875,0.19584619998931885,0.8551570177078247,0.032103076577186584
1790587952990251800,7.030251708984375,0.21367473900318146,0.9075539112091064,0.11754394322633743
1790587953000331500,7.04033154296875,0.2353949397802353,0.8997085094451904,0.15252375602722168
1790587953010411800,7.050411865234375,0.1988885998725891,0.9162755012512207,0.14194941520690918
1790587953020491500,7.060491455078125,0.197963148355484,0.8943544626235962,0.006357231643050909
1790587953030571800,7.07057177734375,0.20330198109149933,0.8934098482131958,0.08017100393772125
1790587953040651800,7.08065185546875,0.19269327819347382,0.9067032933235168,0.05987345427274704
1790587953050731800,7.090731689453125,0.22206422686576843,0.8947097063064575,0.11923105269670486
1790587953060811800,7.100811767578125,0.18037456274032593,0.8990046381950378,0.11499796062707901
1790587953070891500,7.1108916015625,0.1646648496389389,0.8773168921470642,-0.04474882781505585
1790587953080970800,7.120970703125,0.13341638445854187,0.881370484828949,0.1237187460064888
1790587953091050800,7.13105078125,0.11087138950824738,0.8696443438529968,0.23001189529895782
1790587953101130800,7.141130859375,0.10014338046312332,0.8102489113807678,0.12265720963478088
1790587953111210500,7.15121044921875,0.06308655440807343,0.7180928587913513,0.012294217012822628
1790587953121290800,7.161290771484375,0.0724443718791008,0.6284791231155396,0.08876315504312515
1790587953131370800,7.171370849609375,0.03539527580142021,0.5494047999382019,0.1534995436668396
1790587953141450800,7.18145068359375,0.043406061828136444,0.4544455409049988,0.021870944648981094
1790587953151530800,7.19153076171875,0.0017773937433958054,0.38231992721557617,0.13370001316070557
1790587953161610500,7.201610595703125,-0.03477821871638298,0.3435259461402893,0.0861162394285202
1790587953171690800,7.211690673828125,0.032882049679756165,0.2726466953754425,-0.022732742130756378
1790587953181770800,7.221770751953125,-0.004566522315144539,0.2502143681049347,0.18733766674995422
1790587953191850800,7.231850830078125,-0.03085964545607567,0.21615147590637207,0.07579036802053452
1790587953201930800,7.2419306640625,-0.024399882182478905,0.17742405831813812,-0.07142224907875061
1790587953212010500,7.252010498046875,-0.08833944797515869,0.19067354500293732,0.13288187980651855
1790587953222090800,7.2620908203125,-0.10290161520242691,0.18416211009025574,0.19207224249839783
1790587953232170500,7.27217041015625,-0.1573115885257721,0.15635046362876892,0.1395277976989746
1790587953242250800,7.282250732421875,-0.16566139459609985,0.17720620334148407,0.07809852808713913
1790587953252330800,7.292330810546875,-0.1505679339170456,0.1427270621061325,-0.09587886184453964
1790587953262410800,7.30241064453125,-0.12830205261707306,0.12390836328268051,0.011334946379065514
1790587953272490800,7.31249072265625,-0.13129223883152008,0.06209452822804451,0.07558450847864151
1790587953282570500,7.322570556640625,-0.19164372980594635,0.08919885009527206,0.2856522500514984
1790587953292650800,7.332650634765625,-0.10614081472158432,0.11810906231403351,0.13524703681468964
1790587953302730800,7.342730712890625,0.02846386469900608,0.03975566849112511,0.04138179495930672
1790587953312810800,7.352810791015625,-0.13229519128799438,0.09005026519298553,0.026800721883773804
1790587953322890800,7.362890869140625,-0.4219911992549896,0.05956559255719185,-0.37894490361213684
1790587953332970500,7.372970458984375,-0.42394620180130005,0.1597667634487152,-0.20311103761196136
1790587953343050800,7.38305078125,-0.1723477989435196,0.22472019493579865,0.3609009385108948
1790587953353130800,7.393130859375,0.05296734347939491,0.14771276712417603,0.55463045835495
1790587953363210800,7.403210693359375,0.012478240765631199,0.09191394597291946,0.17989227175712585
1790587953373290800,7.413290771484375,-0.14316993951797485,0.03840597718954086,-0.49731817841529846
1790587953383370800,7.423370849609375,-0.18294797837734222,0.04148246347904205,-0.6393317580223083
1790587953393450800,7.43345068359375,-0.16115081310272217,0.19353458285331726,-0.13291330635547638
1790587953403530500,7.443530517578125,-0.18077963590621948,0.28196004033088684,0.45264604687690735
1790587953413610800,7.45361083984375,-0.19005994498729706,0.3230763375759125,0.4395161271095276
1790587953423690800,7.463690673828125,-0.11978445947170258,0.3005577027797699,0.021704763174057007
1790587953433770800,7.473770751953125,-0.025500565767288208,0.28943607211112976,-0.1926879584789276
1790587953443850800,7.483850830078125,0.05001762881875038,0.2639901041984558,0.01720188930630684
1790587953453930500,7.493930419921875,0.006786266807466745,0.28697291016578674,0.2309538573026657
1790587953464010800,7.5040107421875,-0.0305805467069149,0.2752329111099243,0.08154146373271942
1790587953474090800,7.5140908203125,-0.06798969954252243,0.2810628414154053,0.1111488938331604
1790587953484170800,7.524170654296875,-0.13828544318675995,0.3240286707878113,0.20546767115592957
1790587953494250800,7.534250732421875,-0.18039187788963318,0.30040884017944336,-0.008194546215236187
1790587953504330800,7.544330810546875,-0.10857867449522018,0.2594992220401764,-0.012984774075448513
1790587953514410800,7.55441064453125,-0.1000797301530838,0.23658457398414612,0.11752210557460785
1790587953524490500,7.564490478515625,-0.08784463256597519,0.19359663128852844,0.049790460616350174
1790587953534570800,7.57457080078125,-0.06263967603445053,0.18012262880802155,0.03370549902319908
1790587953544650800,7.584650634765625,-0.09578990936279297,0.20955215394496918,0.0917205959558487
1790587953554730800,7.594730712890625,-0.08954985439777374,0.2181539088487625,0.13757038116455078
1790587953564810800,7.604810791015625,-0.14599795639514923,0.20887118577957153,0.1137465387582779
1790587953574890500,7.614890380859375,-0.19257983565330505,0.19649441540241241,0.07715257257223129
1790587953584970800,7.624970703125,-0.20336270332336426,0.14591139554977417,0.011747736483812332
1790587953595050800,7.63505078125,-0.21392667293548584,0.08766566962003708,-0.014104367233812809
1790587953605130800,7.645130859375,-0.1880093216896057,0.03807254880666733,0.16158676147460938
1790587953615210800,7.655210693359375,-0.18014207482337952,-0.04410887137055397,0.2720067501068115
1790587953625290800,7.665290771484375,-0.18574802577495575,-0.12100151926279068,0.027902470901608467
1790587953635370800,7.675370849609375,-0.24621562659740448,-0.21842341125011444,-0.06992208957672119
1790587953645450500,7.685450439453125,-0.37330833077430725,-0.24370506405830383,-0.008736765943467617
1790587953655530800,7.69553076171875,-0.46363797783851624,-0.23887090384960175,0.03618143871426582
1790587953665610800,7.70561083984375,-0.3520413935184479,-0.18859867751598358,0.09786024689674377
1790587953675690800,7.715690673828125,-0.21211571991443634,-0.24258680641651154,0.00899722333997488
1790587953685770800,7.725770751953125,-0.1979791224002838,-0.3245575726032257,0.010538927279412746
1790587953695850500,7.7358505859375,-0.22827231884002686,-0.39254727959632874,0.07782688736915588
1790587953705930800,7.7459306640625,-0.2700195014476776,-0.42566820979118347,-0.059956811368465424
1790587953716010800,7.7560107421875,-0.37086620926856995,-0.46402519941329956,-0.05554768070578575
1790587953726090800,7.7660908203125,-0.479501336812973,-0.4250897765159607,0.21584227681159973
1790587953736170800,7.776170654296875,-0.514498233795166,-0.47374865412712097,0.07423508167266846
1790587953746250800,7.786250732421875,-0.48257729411125183,-0.5316593647003174,-0.08121442794799805
1790587953756330800,7.796330810546875,-0.4544207751750946,-0.5670825839042664,-0.06640245765447617
1790587953766410500,7.806410400390625,-0.3684845566749573,-0.582863986492157,0.05721535161137581
1790587953776490800,7.81649072265625,-0.3435954451560974,-0.5915749073028564,0.10388431698083878
1790587953786570800,7.82657080078125,-0.3789379894733429,-0.5908257365226746,-0.024147413671016693
1790587953796650800,7.836650634765625,-0.4173186719417572,-0.5977821946144104,0.007375091779977083
1790587953806730800,7.846730712890625,-0.47745683789253235,-0.5777400135993958,0.04924184828996658
1790587953816810500,7.856810546875,-0.48355627059936523,-0.6056001782417297,0.041544780135154724
1790587953826890800,7.866890869140625,-0.49233806133270264,-0.6191359758377075,0.07844340801239014
1790587953836970800,7.876970703125,-0.5096299648284912,-0.661473274230957,-0.03689596429467201
1790587953847050800,7.88705078125,-0.4346531927585602,-0.7022979259490967,-0.027705397456884384
1790587953857130800,7.897130859375,-0.44461527466773987,-0.7191293835639954,0.09376111626625061
1790587953867210800,7.907210693359375,-0.47123757004737854,-0.7306230664253235,-0.01671905815601349
1790587953877290800,7.917290771484375,-0.38723719120025635,-0.7183821201324463,-0.004345479886978865
1790587953887370500,7.92737060546875,-0.4347136318683624,-0.702483594417572,0.10959333926439285
1790587953897450800,7.93745068359375,-0.452002614736557,-0.7134461998939514,-0.043546412140131
1790587953907531000,7.947531005859375,-0.41161471605300903,-0.7074533104896545,-0.05175960063934326
1790587953917611000,7.957611083984375,-0.4658784866333008,-0.6768852472305298,0.038603849709033966
1790587953927691300,7.967691162109375,-0.40749508142471313,-0.6306725144386292,0.04086247831583023
1790587953937771000,7.97777099609375,-0.405979186296463,-0.618283748626709,0.025049960240721703
1790587953947851300,7.987851318359375,-0.41896477341651917,-0.6019803881645203,-0.004276504274457693
1790587953957931000,7.997930908203125,-0.3691290318965912,-0.6204515695571899,-0.13322968780994415
1790587953968011300,8.00801123046875,-0.3596963882446289,-0.6380904912948608,-0.08768617361783981
1790587953978091000,8.018091064453126,-0.35918399691581726,-0.5936535000801086,0.14132650196552277
1790587953988170200,8.028170166015625,-0.319601446390152,-0.5740699172019958,0.11268393695354462
1790587953998250000,8.03825,-0.32175618410110474,-0.5781536102294922,0.08073373138904572
1790587954008330000,8.048330078125,-0.3332037925720215,-0.5511468052864075,0.03087455965578556
1790587954018410200,8.05841015625,-0.28875163197517395,-0.6120665669441223,-0.07457143813371658
1790587954028490000,8.068489990234376,-0.28155604004859924,-0.5786726474761963,0.03656653314828873
1790587954038570200,8.0785703125,-0.3139432668685913,-0.5657896399497986,-0.012238290160894394
1790587954048650000,8.08864990234375,-0.28092992305755615,-0.5470628142356873,-0.15431207418441772
1790587954058730200,8.098730224609374,-0.2755897641181946,-0.5417402386665344,-0.06630338728427887
1790587954068810200,8.108810302734375,-0.27411916851997375,-0.5232690572738647,0.12531371414661407
1790587954078890000,8.118889892578125,-0.303500771522522,-0.5508434176445007,-0.0013704627053812146
1790587954088970200,8.12897021484375,-0.255571573972702,-0.5539902448654175,-0.0593421533703804
1790587954099050000,8.139050048828125,-0.2720685303211212,-0.5537716150283813,0.056710951030254364
1790587954109130200,8.149130126953125,-0.28929758071899414,-0.5827934145927429,0.0940852165222168
1790587954119210000,8.1592099609375,-0.3007417321205139,-0.5500612854957581,0.07678905129432678
1790587954129290000,8.1692900390625,-0.302531898021698,-0.5737250447273254,-0.14616572856903076
1790587954139370200,8.179370361328125,-0.2608124315738678,-0.5842003226280212,-0.13386432826519012
1790587954149450000,8.189449951171875,-0.2641584277153015,-0.5611770153045654,0.1358688920736313
1790587954159530200,8.1995302734375,-0.2694602310657501,-0.5366085767745972,0.06459736824035645
1790587954169610000,8.20960986328125,-0.21975180506706238,-0.5420792698860168,-0.11934636533260345
1790587954179690200,8.219690185546876,-0.20593665540218353,-0.4994303286075592,0.013703028671443462
1790587954189770200,8.229770263671876,-0.26140204071998596,-0.4864250421524048,0.006704774219542742
1790587954199850000,8.23985009765625,-0.2400842308998108,-0.4814683496952057,-0.03296567127108574
1790587954209930200,8.24993017578125,-0.2602102756500244,-0.4494302570819855,0.06994073837995529
1790587954220010000,8.260010009765624,-0.2865595817565918,-0.4292730689048767,0.19707658886909485
1790587954230090200,8.27009033203125,-0.2636316418647766,-0.4398535490036011,0.09050113707780838
1790587954240170000,8.280169921875,-0.24318602681159973,-0.44995278120040894,-0.08819856494665146
1790587954250250000,8.29025,-0.22667229175567627,-0.49598073959350586,-0.11730451881885529
1790587954260330200,8.300330322265625,-0.22209058701992035,-0.5240336656570435,-0.03376781567931175
1790587954270410000,8.310409912109375,-0.1885632574558258,-0.5237628221511841,0.18344758450984955
1790587954280490200,8.320490234375,-0.20493078231811523,-0.5221207141876221,0.11177580058574677
1790587954290570000,8.330570068359375,-0.19889472424983978,-0.5068426728248596,-0.0982338935136795
1790587954300650200,8.340650146484375,-0.19513992965221405,-0.494516521692276,-0.10029198229312897
1790587954310730200,8.350730224609375,-0.20609430968761444,-0.4520167410373688,0.13954192399978638
1790587954320810000,8.36081005859375,-0.18523244559764862,-0.44668322801589966,0.14859426021575928
1790587954330890200,8.37089013671875,-0.1341860294342041,-0.46591711044311523,-0.028210598975419998
1790587954340970000,8.380969970703125,-0.15411846339702606,-0.5067604184150696,-0.0020639498252421618
1790587954351050200,8.39105029296875,-0.17224286496639252,-0.49614158272743225,-0.03386981785297394
1790587954361130000,8.4011298828125,-0.14989948272705078,-0.48154932260513306,-0.02273833565413952
1790587954371210000,8.4112099609375,-0.16936425864696503,-0.4317767024040222,0.09051524847745895
1790587954381290200,8.421290283203126,-0.13076120615005493,-0.4191887378692627,0.10984740406274796
1790587954391370000,8.431369873046876,-0.1395682841539383,-0.41365814208984375,0.08193827420473099
1790587954401450200,8.4414501953125,-0.15331313014030457,-0.4434988796710968,-0.08938127756118774
1790587954411530000,8.451530029296874,-0.12445191293954849,-0.44007033109664917,-0.03801902011036873
1790587954421610200,8.4616103515625,-0.13494236767292023,-0.4298911988735199,0.047081492841243744
1790587954431690200,8.471690185546874,-0.11352603137493134,-0.4185951352119446,0.04537467285990715
1790587954441770000,8.48177001953125,-0.12072774767875671,-0.40741145610809326,0.050812046974897385
1790587954451850200,8.491850341796875,-0.13228240609169006,-0.4249989688396454,-0.06301464885473251
1790587954461930000,8.501929931640625,-0.10351147502660751,-0.44344720244407654,-0.05114387720823288
1790587954472010200,8.51201025390625,-0.10801994055509567,-0.4197898209095001,0.1098460704088211
1790587954482090200,8.52209033203125,-0.07292720675468445,-0.41095611453056335,0.07425905019044876
1790587954492170000,8.532169921875,-0.04446893185377121,-0.38116440176963806,0.0726102888584137
1790587954502250200,8.542250244140625,-0.0718129351735115,-0.36649224162101746,0.04695046320557594
1790587954512330000,8.552330078125,-0.05374285578727722,-0.3814355134963989,-0.06380161643028259
1790587954522410200,8.56241015625,-0.07706522196531296,-0.37717631459236145,0.04308382049202919
1790587954532490000,8.572489990234375,-0.07756137102842331,-0.3715727627277374,0.14706428349018097
1790587954542570200,8.5825703125,-0.06186709553003311,-0.40265077352523804,0.003571032779291272
1790587954552650200,8.592650146484376,-0.0440492182970047,-0.4313274323940277,-0.07100865989923477
1790587954562730000,8.60272998046875,-0.06221197545528412,-0.44725847244262695,0.04277995601296425
1790587954572809200,8.612809326171876,-0.05366535857319832,-0.44037339091300964,0.07627665996551514
1790587954582889000,8.622888916015626,-0.01991352066397667,-0.41948994994163513,0.019690880551934242
1790587954592969200,8.63296923828125,-0.0312213022261858,-0.3789611756801605,0.09884908050298691
1790587954603049000,8.643049072265624,-0.03670395165681839,-0.394393652677536,0.0409969687461853
1790587954613129200,8.653129150390624,-0.03002714179456234,-0.4167511463165283,-0.07257646322250366
1790587954623209000,8.663208984375,-0.052568934857845306,-0.47320136427879333,0.019095396623015404
1790587954633289200,8.673289306640624,-0.08186663687229156,-0.5107559561729431,0.1600107103586197
1790587954643369200,8.683369140625,-0.07769053429365158,-0.5396014451980591,0.08806061744689941
1790587954653449000,8.693448974609375,-0.0843508318066597,-0.5471757650375366,-0.0160633884370327
1790587954663529200,8.703529296875,-0.08415216207504272,-0.547831118106842,0.011935489252209663
1790587954673609000,8.71360888671875,-0.06957694888114929,-0.533924400806427,0.04902267083525658
1790587954683689200,8.723689208984375,-0.06510443240404129,-0.5311973094940186,0.018068216741085052
1790587954693769200,8.733769287109375,-0.06142847239971161,-0.5023432970046997,0.13531707227230072
1790587954703849000,8.743848876953125,-0.0865548625588417,-0.5077100992202759,0.1149822473526001
1790587954713929200,8.75392919921875,-0.09008808434009552,-0.5137869119644165,-0.02070208266377449
1790587954724009000,8.764009033203125,-0.10503054410219193,-0.5152678489685059,-0.044134702533483505
1790587954734089200,8.774089111328125,-0.1162341982126236,-0.5289567708969116,0.12628737092018127
1790587954744169000,8.7841689453125,-0.08158700168132782,-0.4976966083049774,0.19006207585334778
1790587954754249200,8.794249267578126,-0.07991081476211548,-0.5157989263534546,-0.0005289037944748998
1790587954764329200,8.8043291015625,-0.04861041158437729,-0.501275897026062,-0.004308994393795729
1790587954774409000,8.814408935546876,-0.04096953570842743,-0.48677682876586914,0.09463009983301163
1790587954784489200,8.8244892578125,-0.02388935349881649,-0.47974663972854614,0.12151551246643066
1790587954794569000,8.83456884765625,-0.017914818599820137,-0.4672074019908905,0.13626889884471893
1790587954804649200,8.844649169921874,-0.02473277598619461,-0.48070669174194336,0.035846415907144547
1790587954814729200,8.854729248046874,-0.06468525528907776,-0.48854783177375793,0.00045912896166555583
1790587954824809000,8.86480908203125,-0.06332810968160629,-0.468737930059433,-0.005852296482771635
1790587954834889200,8.87488916015625,-0.03470231965184212,-0.44764888286590576,0.14317765831947327
1790587954844969000,8.884968994140625,-0.01762479916214943,-0.4227381944656372,0.21706733107566833
1790587954855049200,8.89504931640625,-0.0017691379180178046,-0.42480242252349854,0.01954920031130314
1790587954865129200,8.905129150390625,0.000630902883131057,-0.438925176858902,-0.13996456563472748
1790587954875209200,8.915209228515625,0.013070794753730297,-0.4254162907600403,0.05349411815404892
1790587954885289200,8.925289306640625,-0.02538898028433323,-0.4208734631538391,0.2035216987133026
1790587954895369000,8.935368896484375,0.007168697193264961,-0.40909111499786377,0.09818622469902039
1790587954905449200,8.94544921875,-0.030114758759737015,-0.43274715542793274,-0.009220662526786327
1790587954915529000,8.955529052734375,-0.02586488611996174,-0.42249879240989685,0.043414320796728134
1790587954925609000,8.96560888671875,0.010990332812070847,-0.4336710274219513,0.0292953047901392
1790587954935689000,8.97568896484375,0.060020193457603455,-0.3991844058036804,0.183354914188385
1790587954945769000,8.98576904296875,0.03254915401339531,-0.37602102756500244,0.16140460968017578
1790587954955849000,8.995848876953126,0.04933905228972435,-0.3563666343688965,0.03717053681612015
1790587954965929000,9.005928955078126,0.08109698444604874,-0.3092332184314728,-0.039073631167411804
1790587954976009000,9.016009033203124,0.12501117587089539,-0.2934816777706146,0.07476291805505753
1790587954986089000,9.0260888671875,0.07377515733242035,-0.26144278049468994,0.11744646728038788
1790587954996169000,9.0361689453125,0.07817523181438446,-0.23799285292625427,-0.03350229933857918
1790587955006249000,9.0462490234375,0.10284515470266342,-0.19889739155769348,0.009676063433289528
1790587955016329000,9.056328857421875,0.07982851564884186,-0.18527451157569885,0.05326268821954727
1790587955026409000,9.066408935546875,0.12237944453954697,-0.16222140192985535,0.06277497112751007
1790587955036489000,9.076489013671875,0.14135153591632843,-0.1480608433485031,0.02491919882595539
1790587955046569000,9.08656884765625,0.17253448069095612,-0.11457318067550659,0.14724457263946533
1790587955056648000,9.09664794921875,0.17893247306346893,-0.0702507272362709,0.17150969803333282
1790587955066728000,9.10672802734375,0.1748591661453247,-0.05385817214846611,-0.027709659188985825
1790587955076808000,9.116807861328125,0.19742092490196228,-0.049728140234947205,-0.11652794480323792
1790587955086888000,9.126887939453125,0.1954435259103775,-0.02907399646937847,0.03434625640511513
1790587955096968000,9.136968017578125,0.16273778676986694,0.009732255712151527,0.13777518272399902
1790587955107048000,9.1470478515625,0.18887431919574738,0.059907540678977966,0.007864580489695072
1790587955117128000,9.1571279296875,0.2437724471092224,0.05668644979596138,-0.027337880805134773
1790587955127208000,9.1672080078125,0.19371646642684937,0.036501020193099976,0.04844556376338005
1790587955137288000,9.177287841796876,0.22268740832805634,0.0166157279163599,0.11823316663503647
1790587955147368000,9.187367919921876,0.231719508767128,0.021890118718147278,0.1383914351463318
1790587955157448000,9.197447998046876,0.2172127366065979,0.0226840078830719,0.07233411818742752
1790587955167528000,9.20752783203125,0.22573113441467285,0.025123728439211845,0.01570332981646061
1790587955177608000,9.21760791015625,0.202337384223938,0.004549478180706501,-0.16558976471424103
1790587955187688000,9.22768798828125,0.21205845475196838,0.018669025972485542,-0.053954578936100006
1790587955197768000,9.237767822265624,0.22891387343406677,0.05667712911963463,0.17062845826148987
1790587955207848000,9.247847900390624,0.21455970406532288,0.060318998992443085,-0.022313294932246208
1790587955217928000,9.257927978515625,0.22993120551109314,0.015913985669612885,-0.15017591416835785
1790587955228008000,9.268008056640625,0.19940844178199768,0.0020698087755590677,0.041245441883802414
1790587955238088000,9.278087890625,0.1355264037847519,-0.04872839152812958,0.09387855976819992
1790587955248168000,9.28816796875,0.18083636462688446,-0.08104638010263443,0.06124924123287201
1790587955258248000,9.298248046875,0.17542268335819244,-0.1254870891571045,0.014403706416487694
1790587955268328000,9.308327880859375,0.1443454623222351,-0.15069949626922607,0.04342976585030556
1790587955278408000,9.318407958984375,0.1649245023727417,-0.15300047397613525,0.02082778327167034
1790587955288488000,9.328488037109375,0.15910843014717102,-0.16508695483207703,0.07274264842271805
1790587955298568000,9.33856787109375,0.1267712563276291,-0.1768123209476471,0.13432691991329193
1790587955308648000,9.34864794921875,0.11932665854692459,-0.21773871779441833,-0.028295021504163742
1790587955318728000,9.35872802734375,0.1204337328672409,-0.2568163573741913,-0.1292184442281723
1790587955328808000,9.368807861328126,0.08286212384700775,-0.27764439582824707,0.011606056243181229
1790587955338888000,9.378887939453126,0.10970945656299591,-0.29555922746658325,0.11378994584083557
1790587955348968000,9.388968017578126,0.09563890844583511,-0.3019436001777649,0.12390090525150299
1790587955359048000,9.3990478515625,0.09280024468898773,-0.3178546726703644,0.07003128528594971
1790587955369128000,9.4091279296875,0.10944420099258423,-0.30790430307388306,-0.011724300682544708
1790587955379208000,9.4192080078125,0.09007716178894043,-0.3063681721687317,-0.0722488984465599
1790587955389288000,9.429287841796874,0.13182567059993744,-0.28593188524246216,0.1279369294643402
1790587955399368000,9.439367919921875,0.11797323822975159,-0.24991662800312042,0.14463761448860168
1790587955409448000,9.449447998046875,0.08617083728313446,-0.2381441295146942,-0.17396967113018036
1790587955419528000,9.45952783203125,0.10671233385801315,-0.22981961071491241,-0.15167474746704102
1790587955429607000,9.46960693359375,0.08856049180030823,-0.18049174547195435,0.07813981175422668
1790587955439687000,9.47968701171875,0.1466299146413803,-0.1445867419242859,0.19227063655853271
1790587955449767000,9.489766845703125,0.19192203879356384,-0.12572278082370758,0.1480722874403
1790587955459847000,9.499846923828125,0.1776464283466339,-0.129801407456398,-0.019715115427970886
1790587955469927000,9.509927001953125,0.19980712234973907,-0.11185169965028763,-0.0894012525677681
1790587955480007000,9.5200068359375,0.2264176905155182,-0.018311362713575363,0.07071171700954437
1790587955490087000,9.5300869140625,0.23360316455364227,0.04956036061048508,0.11134490370750427
1790587955500167000,9.5401669921875,0.23781442642211914,0.08129192888736725,0.008065382950007915
1790587955510247000,9.550246826171875,0.22438862919807434,0.10685960203409195,-0.1497495472431183
1790587955520327000,9.560326904296875,0.26949113607406616,0.11305944621562958,-0.15622955560684204
1790587955530407000,9.570406982421876,0.3118305802345276,0.18255622684955597,0.13617753982543945
1790587955540487200,9.580487060546876,0.3460215926170349,0.1969338357448578,0.1444421261548996
1790587955550567000,9.59056689453125,0.3995194435119629,0.24241024255752563,0.01607031375169754
1790587955560647000,9.60064697265625,0.40069815516471863,0.2777184247970581,-0.042697131633758545
1790587955570727000,9.610726806640624,0.4108833968639374,0.3277736008167267,-0.02965456433594227
1790587955580807000,9.620806884765624,0.43622711300849915,0.4110804796218872,0.12555579841136932
1790587955590887000,9.630886962890624,0.387368768453598,0.47857990860939026,0.05993150919675827
1790587955600967000,9.640966796875,0.3979201912879944,0.5365068316459656,-0.20062364637851715
1790587955611047000,9.651046875,0.45604076981544495,0.5969632863998413,-0.12343059480190277
1790587955621127000,9.661126953125,0.4774174392223358,0.6759840250015259,0.10404624044895172
1790587955631207000,9.67120703125,0.4957844614982605,0.7355800271034241,-0.029166407883167267
1790587955641287000,9.681286865234375,0.5504261255264282,0.7878741025924683,-0.04211229830980301
1790587955651367000,9.691366943359375,0.509265124797821,0.865141749382019,0.0642375722527504
1790587955661447200,9.701447265625,0.5273492932319641,0.9282035231590271,-0.09194163978099823
1790587955671527000,9.71152685546875,0.5850788950920105,1.0131617784500122,-0.029442843049764633
1790587955681607000,9.72160693359375,0.5640391111373901,1.0400844812393188,0.0616266131401062
1790587955691687000,9.73168701171875,0.5578368902206421,1.0799776315689087,-0.0024895230308175087
1790587955701767000,9.741766845703125,0.5739396810531616,1.0792566537857056,-0.20015546679496765
1790587955711847200,9.75184716796875,0.6244516372680664,1.1041247844696045,-0.012206066399812698
1790587955721927000,9.761927001953126,0.5990831255912781,1.154701590538025,0.09753508120775223
1790587955732007000,9.7720068359375,0.6229373216629028,1.1454639434814453,-0.09899502247571945
1790587955742087000,9.7820869140625,0.6369304060935974,1.149606466293335,-0.029710492119193077
1790587955752167000,9.7921669921875,0.587956428527832,1.1338437795639038,0.06772711873054504
1790587955762247000,9.802246826171874,0.5796636343002319,1.1329699754714966,0.034143853932619095
1790587955772327000,9.812326904296874,0.529141366481781,1.116071105003357,-0.002365952357649803
1790587955782407200,9.8224072265625,0.503591775894165,1.091076374053955,-0.03493987396359444
1790587955792486000,9.83248583984375,0.4640590250492096,1.0341230630874634,-0.06683575361967087
1790587955802566100,9.842566162109375,0.45300236344337463,0.975130558013916,-0.0070552462711930275
1790587955812646000,9.85264599609375,0.4253816604614258,0.9481495022773743,0.05670029670000076
1790587955822726000,9.862725830078125,0.4122741222381592,0.9083698987960815,0.00720624765381217
1790587955832806000,9.872805908203125,0.37383830547332764,0.8899128437042236,-0.029754433780908585
1790587955842886000,9.882885986328125,0.3579152524471283,0.8592734336853027,-0.07694192230701447
1790587955852966000,9.8929658203125,0.36946114897727966,0.8514509201049805,0.08231271803379059
1790587955863046000,9.9030458984375,0.318967342376709,0.8278071284294128,0.19095903635025024
1790587955873126100,9.913126220703125,0.27968543767929077,0.7849225401878357,0.004186489153653383
1790587955883206000,9.923205810546875,0.25076165795326233,0.7323346734046936,-0.07601247727870941
1790587955893286000,9.933285888671875,0.19957488775253296,0.6908239722251892,0.08880496770143509
1790587955903366000,9.943365966796875,0.2199225127696991,0.6685625910758972,0.11475827544927597
1790587955913445400,9.9534453125,0.226112499833107,0.6323652267456055,0.03665202111005783
1790587955923525400,9.963525390625,0.16115480661392212,0.583016574382782,-0.06873512268066406
1790587955933605400,9.97360546875,0.18974490463733673,0.5954724550247192,0.028620459139347076
1790587955943685600,9.983685546875,0.1662193387746811,0.5884512662887573,0.10210239887237549
1790587955953765400,9.993765380859376,0.18046244978904724,0.581680178642273,0.13353142142295837
1790587955963845400,10.003845458984374,0.13110129535198212,0.5590915083885193,-0.020310331135988235
1790587955973925400,10.01392529296875,0.11983798444271088,0.5147815942764282,-0.09423328936100006
1790587955984005400,10.02400537109375,0.08684941381216049,0.4977964758872986,0.125355526804924
1790587955994085600,10.034085693359375,0.05901271849870682,0.5198509097099304,0.18058255314826965
1790587956004165400,10.044165283203125,0.08719881623983383,0.5172820091247559,0.0677444264292717
1790587956014245600,10.05424560546875,0.08024237304925919,0.5254675149917603,0.0011643340112641454
1790587956024325400,10.064325439453125,0.0594598650932312,0.5092464685440063,-0.023919181898236275
1790587956034405400,10.0744052734375,0.11995463073253632,0.5289716720581055,0.2254837155342102
1790587956044485400,10.0844853515625,0.07836990803480148,0.5245396494865417,0.23536032438278198
1790587956054565400,10.0945654296875,0.05131218954920769,0.4932746887207031,-0.06427299231290817
1790587956064645600,10.104645751953125,0.06792818754911423,0.4778725504875183,-0.016096943989396095
1790587956074725400,10.114725341796875,0.021332984790205956,0.44644567370414734,0.1491154432296753
1790587956084805400,10.124805419921875,0.012604475021362305,0.41571250557899475,0.12256240099668503
1790587956094885400,10.134885498046875,-0.004463457968086004,0.38024958968162537,0.003631486324593425
1790587956104965400,10.14496533203125,0.009088569320738316,0.34487617015838623,-0.0430729016661644
1790587956115044400,10.15504443359375,0.003493002150207758,0.310343474149704,0.04747830331325531
1790587956125124400,10.165124267578125,0.027586353942751884,0.30977863073349,0.15619705617427826
1790587956135204600,10.17520458984375,-0.028848160058259964,0.292404443025589,0.04855022579431534
1790587956145284400,10.185284423828126,-0.014784006401896477,0.2787075340747833,0.048656485974788666
1790587956155364600,10.195364501953126,-0.08016940206289291,0.2596299648284912,0.123031385242939
1790587956165444400,10.2054443359375,-0.09543677419424057,0.22974690794944763,0.037025127559900284
1790587956175524400,10.2155244140625,-0.043416980654001236,0.21730941534042358,0.13796772062778473
1790587956185604400,10.225604248046874,-0.08511649072170258,0.19884198904037476,0.15493126213550568
1790587956195684400,10.235684326171874,-0.07591047883033752,0.1448535919189453,-0.0721178725361824
1790587956205764600,10.2457646484375,-0.10981384664773941,0.07252373546361923,-0.03933435678482056
1790587956215844400,10.25584423828125,-0.1626855880022049,0.07783514261245728,0.17877453565597534
1790587956225924600,10.265924560546875,-0.18116658926010132,0.0403871051967144,0.07219962775707245
1790587956236004400,10.27600439453125,-0.16620229184627533,-0.010379403829574585,-0.08180032670497894
1790587956246084400,10.28608447265625,-0.20705971121788025,-0.036138031631708145,0.09321090579032898
1790587956256164600,10.29616455078125,-0.2256339192390442,-0.05656527355313301,0.15043585002422333
1790587956266244400,10.306244384765625,-0.2037198394536972,-0.10214927047491074,0.11404241621494293
1790587956276324600,10.31632470703125,-0.23833613097667694,-0.11072997748851776,0.03163036331534386
1790587956286404400,10.326404296875,-0.22316864132881165,-0.15766659379005432,-0.13164643943309784
1790587956296484400,10.336484375,-0.18959389626979828,-0.20526686310768127,-0.0030133668333292007
1790587956306564400,10.346564453125,-0.22181707620620728,-0.16431118547916412,0.18723247945308685
1790587956316644400,10.356644287109376,-0.23834732174873352,-0.18083316087722778,-0.047090813517570496
1790587956326724600,10.366724609375,-0.21830064058303833,-0.1851421594619751,-0.02166561409831047
1790587956336804400,10.376804443359376,-0.22561821341514587,-0.1422106772661209,0.15880322456359863
1790587956346884600,10.386884521484374,-0.21687984466552734,-0.16213297843933105,0.07064594328403473
1790587956356964400,10.39696435546875,-0.16492237150669098,-0.1784704029560089,-0.037159886211156845
1790587956367044400,10.40704443359375,-0.17380455136299133,-0.17662909626960754,0.02551734447479248
1790587956377124600,10.41712451171875,-0.20211048424243927,-0.20039381086826324,0.010093647055327892
1790587956387203300,10.427203369140624,-0.14858441054821014,-0.16194602847099304,0.12159327417612076
1790587956397283600,10.43728369140625,-0.16527870297431946,-0.1635681539773941,0.013802897185087204
1790587956407363300,10.44736328125,-0.16741056740283966,-0.1538955569267273,-0.08852160722017288
1790587956417443600,10.457443603515625,-0.1384095400571823,-0.14048467576503754,-0.013904363848268986
1790587956427523300,10.4675234375,-0.12050563842058182,-0.11233746260404587,0.01629641465842724
1790587956437603600,10.477603515625,-0.11249538511037827,-0.07134182751178741,0.07189390063285828
1790587956447683300,10.487683349609375,-0.07986260950565338,-0.05337267741560936,0.018762769177556038
1790587956457763300,10.497763427734375,-0.11807870119810104,-0.029979737475514412,-0.07509448379278183
1790587956467843600,10.507843505859375,-0.10960771888494492,-0.01528681069612503,-0.020131899043917656
1790587956477923300,10.51792333984375,-0.1204284131526947,0.020012324675917625,0.13065548241138458
1790587956488003600,10.528003662109375,-0.12686394155025482,0.0182863287627697,-0.02087891660630703
1790587956498083300,10.538083251953125,-0.0893450602889061,0.017765680328011513,-0.12117648869752884
1790587956508163300,10.548163330078125,-0.09467803686857224,0.06797318905591965,0.048350486904382706
1790587956518243600,10.55824365234375,-0.06149505078792572,0.09455712884664536,0.021882662549614906
1790587956528323300,10.5683232421875,-0.003938815090805292,0.12180046737194061,0.04674886167049408
1790587956538403600,10.578403564453126,-0.03852928429841995,0.17441920936107635,0.05853548273444176
1790587956548483300,10.5884833984375,0.004898352082818747,0.19937382638454437,-0.07074660807847977
1790587956558563600,10.5985634765625,0.032101742923259735,0.2331075519323349,0.06853192299604416
1790587956568643300,10.608643310546874,-0.024714667350053787,0.24321478605270386,0.1242833361029625
1790587956578723300,10.618723388671874,0.001356347929686308,0.21209575235843658,0.016332101076841354
1790587956588803600,10.628803466796874,-0.046234872192144394,0.17183008790016174,-0.16176572442054749
1790587956598883300,10.63888330078125,-0.06310200691223145,0.18430858850479126,0.005643504671752453
1790587956608963600,10.648963623046875,-0.018393654376268387,0.1998356133699417,0.15792252123355865
1790587956619043300,10.659043212890625,0.021207284182310104,0.19272124767303467,-0.061352573335170746
1790587956629123300,10.669123291015625,0.01907515712082386,0.14547118544578552,-0.09278719127178192
1790587956639203600,10.67920361328125,0.04464017227292061,0.1532374918460846,0.10773631930351257
1790587956649283300,10.689283447265625,0.03399232029914856,0.16543184220790863,0.17528580129146576
1790587956659363600,10.699363525390625,0.013921674340963364,0.22624272108078003,0.20249079167842865
1790587956669442300,10.7094423828125,-0.009492305107414722,0.2702184319496155,0.0014679343439638615
1790587956679522600,10.7195224609375,0.007632353343069553,0.23695875704288483,-0.22925874590873718
1790587956689602300,10.729602294921875,0.027601268142461777,0.2645437717437744,0.09331929683685303
1790587956699682600,10.7396826171875,0.015037273056805134,0.22914397716522217,0.0539894662797451
1790587956709762300,10.74976220703125,0.017079118639230728,0.17604640126228333,-0.1800914704799652
1790587956719842600,10.759842529296876,0.00039468047907575965,0.20774254202842712,0.022850453853607178
1790587956729922600,10.769922607421876,-0.012860670685768127,0.23512090742588043,0.11377556622028351
1790587956740002300,10.780002197265626,-0.00571833923459053,0.25950586795806885,0.09843575954437256
1790587956750082600,10.79008251953125,0.029859628528356552,0.280265748500824,0.1800757646560669
1790587956760162300,10.800162353515624,-0.012659602798521519,0.2601708769798279,0.025463014841079712
1790587956770242600,10.81024267578125,0.004125769250094891,0.2123143970966339,-0.21345822513103485
1790587956780322600,10.820322509765624,0.030538201332092285,0.22539584338665009,0.017581656575202942
1790587956790402300,10.83040234375,-0.04276690632104874,0.26139938831329346,0.17539632320404053
1790587956800482600,10.840482666015625,-0.037216342985630035,0.24108904600143433,-0.08006873726844788
1790587956810562300,10.850562255859375,-0.030586138367652893,0.24893365800380707,0.013025254011154175
1790587956820642600,10.860642578125,-0.06768077611923218,0.2779615819454193,0.15346679091453552
1790587956830722300,10.870722412109375,-0.011438276618719101,0.23608416318893433,-0.07988444715738297
1790587956840802300,10.88080224609375,0.022405173629522324,0.21583323180675507,-0.15084756910800934
1790587956850882600,10.890882568359375,-0.009183377958834171,0.17930184304714203,-0.015381619334220886
1790587956860962300,10.90096240234375,-0.04981469362974167,0.20682401955127716,0.18829214572906494
1790587956871042600,10.91104248046875,-0.10427207499742508,0.19681239128112793,0.09881658852100372
1790587956881122300,10.921122314453125,-0.11531833559274673,0.18088829517364502,0.008864864706993103
1790587956891202600,10.93120263671875,-0.1779007613658905,0.13114550709724426,0.016508935019373894
1790587956901282600,10.941282470703126,-0.18049681186676025,0.063285231590271,-0.008568720892071724
1790587956911362000,10.951362060546876,-0.16049353778362274,0.020200876519083977,0.06777558475732803
1790587956921442300,10.9614423828125,-0.19193242490291595,-0.020292222499847412,0.031266842037439346
1790587956931522000,10.97152197265625,-0.15925650298595428,-0.054729025810956955,0.0319368951022625
1790587956941602300,10.981602294921874,-0.2153831571340561,-0.13262595236301422,0.0959174707531929
1790587956951682300,10.991682373046874,-0.21241505444049835,-0.2329522967338562,-0.039979640394449234
1790587956961762300,11.00176220703125,-0.215316042304039,-0.34584447741508484,-0.07774033397436142
1790587956971842300,11.01184228515625,-0.2486548274755478,-0.38611868023872375,0.04363163188099861
1790587956981922000,11.021922119140624,-0.24046213924884796,-0.40177059173583984,-0.048336904495954514
1790587956992002300,11.032002197265625,-0.22967340052127838,-0.4086948335170746,0.0026349315885454416
1790587957002082300,11.042082275390625,-0.2796574831008911,-0.41624942421913147,0.05730563402175903
1790587957012162300,11.052162353515625,-0.2816026508808136,-0.45945173501968384,-0.07687614113092422
1790587957022242300,11.0622421875,-0.3102761209011078,-0.5141610503196716,-0.07264117896556854
1790587957032322000,11.072322021484375,-0.3072243928909302,-0.540723443031311,0.13987800478935242
1790587957042402300,11.08240234375,-0.3234387934207916,-0.5524522662162781,0.12617897987365723
1790587957052482000,11.09248193359375,-0.31262820959091187,-0.590417206287384,-0.17083539068698883
1790587957062562300,11.102562255859375,-0.29242974519729614,-0.6167023777961731,-0.1921880841255188
1790587957072642300,11.112642333984375,-0.2757708728313446,-0.5844054222106934,0.00930108968168497
1790587957082722300,11.122722412109376,-0.24435381591320038,-0.5816090703010559,0.110087089240551
1790587957092802300,11.13280224609375,-0.2229398638010025,-0.5359899401664734,0.11792823672294617
1790587957102882000,11.142882080078126,-0.3264252543449402,-0.528997540473938,-0.11712422221899033
1790587957112962300,11.15296240234375,-0.3302013576030731,-0.4917074143886566,-0.07650968432426453
1790587957123042300,11.163042236328126,-0.18329712748527527,-0.3961092531681061,0.21247445046901703
1790587957133122300,11.173122314453124,-0.07690543681383133,-0.44444215297698975,0.12264043092727661
1790587957143201300,11.183201171875,-0.09642960131168365,-0.5089564323425293,-0.25676894187927246
1790587957153281300,11.19328125,-0.1662968248128891,-0.5287530422210693,-0.13931235671043396
1790587957163361300,11.203361328125,-0.17250119149684906,-0.3910636305809021,0.3152402341365814
1790587957173441300,11.213441162109374,-0.1587212085723877,-0.30088821053504944,0.29129788279533386
1790587957183521300,11.223521240234374,-0.1227557435631752,-0.27225789427757263,-0.0920761302113533
1790587957193601000,11.23360107421875,-0.10067787766456604,-0.2622697055339813,-0.17151503264904022
1790587957203681300,11.243681396484375,-0.06877560168504715,-0.23657739162445068,0.024987109005451202
1790587957213761300,11.25376123046875,0.01453153882175684,-0.22911281883716583,0.04542979970574379
1790587957223841300,11.26384130859375,0.06295046955347061,-0.22883372008800507,-0.03719956800341606
1790587957233921300,11.27392138671875,0.028559472411870956,-0.21295994520187378,0.05558043718338013
1790587957244001000,11.2840009765625,-0.07222865521907806,-0.16840898990631104,-0.1053469255566597
1790587957254081300,11.294081298828125,-0.06520936638116837,-0.07087976485490799,-0.012354138307273388
1790587957264161300,11.304161376953125,-0.01943095587193966,0.029023129492998123,0.0953797847032547
1790587957274241300,11.3142412109375,0.05686195194721222,0.045760564506053925,-0.03967177867889404
1790587957284321300,11.3243212890625,0.117839016020298,0.030760042369365692,-0.010377272963523865
1790587957294401300,11.3344013671875,0.08954852819442749,0.016452476382255554,0.020360665395855904
1790587957304481300,11.344481201171876,0.07764792442321777,0.032525718212127686,-0.18867164850234985
1790587957314561000,11.35456103515625,0.08935277909040451,0.07373760640621185,-0.03339151293039322
1790587957324641300,11.364641357421876,0.06078585237264633,0.17297790944576263,0.22989951074123383
1790587957334721300,11.37472119140625,0.06392279267311096,0.15961523354053497,-0.11873889714479446
1790587957344801300,11.38480126953125,0.13815253973007202,0.1267283856868744,-0.21515917778015137
1790587957354881300,11.39488134765625,0.0947083979845047,0.17401094734668732,0.08458705246448517
1790587957364960300,11.404960205078124,0.09913404285907745,0.20428548753261566,0.10295833647251129
1790587957375040300,11.415040283203124,0.16191433370113373,0.24644173681735992,-0.004058124963194132
1790587957385120300,11.425120361328124,0.1290285587310791,0.25491538643836975,-0.11541128158569336
1790587957395200300,11.4352001953125,0.13500016927719116,0.26796379685401917,0.02369707264006138
1790587957405280300,11.4452802734375,0.11856686323881149,0.2672572731971741,0.07391630113124847
1790587957415360300,11.4553603515625,0.08750614523887634,0.26456746459007263,0.018640795722603798
1790587957425440300,11.465440185546875,0.07142224907875061,0.24483957886695862,-0.008255266584455967
1790587957435520300,11.475520263671875,0.062486547976732254,0.2326769232749939,-0.07587265968322754
1790587957445600300,11.485600341796875,0.07175008952617645,0.2245183289051056,-0.03910878673195839
1790587957455680300,11.49568017578125,0.09067850559949875,0.21706333756446838,-0.004239752423018217
1790587957465760300,11.50576025390625,0.06404822319746017,0.20555421710014343,0.059416189789772034
1790587957475840300,11.51584033203125,0.05354871228337288,0.18779759109020233,-0.07289258390665054
1790587957485920300,11.525920166015625,0.08776074647903442,0.1672465205192566,0.006825681775808334
1790587957496000300,11.536000244140626,0.04026832804083824,0.16545474529266357,0.18427662551403046
1790587957506080300,11.546080322265626,-0.0012213257141411304,0.10716533660888672,-0.053220078349113464
1790587957516160300,11.55616015625,-0.03170466795563698,0.06910236924886703,-0.05463102087378502
1790587957526240300,11.566240234375,-0.05759778246283531,0.0686672106385231,0.04525056853890419
1790587957536320300,11.5763203125,-0.0162372924387455,0.03238457068800926,-0.09980728477239609
1790587957546400300,11.586400146484374,-0.03838920220732689,0.0035425368696451187,-0.07846631109714508
1790587957556480300,11.596480224609374,-0.051057856529951096,-0.034205906093120575,0.012461462989449501
1790587957566559200,11.606559326171874,-0.052679188549518585,-0.04929457977414131,0.047443415969610214
1790587957576639200,11.61663916015625,-0.08515803515911102,-0.07186833024024963,0.09592466801404953
1790587957586719200,11.62671923828125,-0.09447457641363144,-0.09493955969810486,0.008304801769554615
1790587957596799200,11.63679931640625,-0.12989169359207153,-0.14287486672401428,-0.12624262273311615
1790587957606879200,11.646879150390625,-0.15179325640201569,-0.15850389003753662,0.00962652824819088
1790587957616959200,11.656959228515625,-0.1359972506761551,-0.17901316285133362,0.09181807190179825
1790587957627039200,11.667039306640625,-0.1383802443742752,-0.19981804490089417,-0.11991628259420395
1790587957637119200,11.677119140625,-0.11741451174020767,-0.2425151765346527,-0.12344817072153091
1790587957647199200,11.68719921875,-0.12478374689817429,-0.23082256317138672,0.1019066572189331
1790587957657279200,11.697279296875,-0.134247824549675,-0.24127520620822906,0.08209673315286636
1790587957667359200,11.707359130859375,-0.12988130748271942,-0.2421460598707199,-0.023481890559196472
1790587957677439200,11.717439208984375,-0.14882010221481323,-0.23821230232715607,-0.04634299874305725
1790587957687519200,11.727519287109375,-0.12200340628623962,-0.22253747284412384,0.06377791613340378
1790587957697599200,11.73759912109375,-0.12923787534236908,-0.21872594952583313,0.016220781952142715
1790587957707679200,11.74767919921875,-0.12806636095046997,-0.2236725091934204,-0.09085560590028763
1790587957717759200,11.75775927734375,-0.12156984210014343,-0.2132459580898285,0.0584808848798275
1790587957727839200,11.767839111328126,-0.12612837553024292,-0.1967354267835617,0.05799592658877373
1790587957737919200,11.777919189453126,-0.07836750894784927,-0.20424580574035645,-0.046613842248916626
1790587957747999200,11.787999267578124,-0.0796322450041771,-0.18566946685314178,0.010913367383182049
1790587957758078500,11.798078369140624,-0.08214467018842697,-0.16902923583984375,0.07364412397146225
1790587957768158200,11.808158203125,-0.06114431470632553,-0.14694790542125702,0.05163523182272911
1790587957778238200,11.81823828125,-0.07346037030220032,-0.12098713964223862,-0.08375135809183121
1790587957788318200,11.828318115234374,-0.06456567347049713,-0.1173601821064949,-0.053640592843294144
1790587957798398200,11.838398193359374,-0.062176287174224854,-0.10657757520675659,0.061892397701740265
1790587957808478500,11.848478515625,-0.09354619681835175,-0.09437337517738342,0.05004772171378136
1790587957818558200,11.85855810546875,-0.036434974521398544,-0.1155681386590004,0.00253426400013268
1790587957828638200,11.86863818359375,-0.04796752706170082,-0.10659115761518478,-0.03303571417927742
1790587957838718200,11.87871826171875,-0.04815847426652908,-0.08075875788927078,0.0012309130979701877
1790587957848798200,11.888798095703125,0.0036016590893268585,-0.05944867804646492,0.02141447737812996
1790587957858878200,11.898878173828125,-0.030337132513523102,-0.020479442551732063,0.02509470097720623
1790587957868958200,11.908958251953125,-0.05721988156437874,-0.01601145789027214,-0.06982888281345367
1790587957879038200,11.9190380859375,-0.031261783093214035,-0.028367459774017334,-0.1546468287706375
1790587957889118200,11.9291181640625,-0.05463075637817383,0.008869658224284649,0.0684773251414299
1790587957899198200,11.9391982421875,-0.034034132957458496,0.0092936335131526,0.08816234767436981
1790587957909278000,11.94927783203125,0.016638364642858505,-0.01685008592903614,-0.10529392957687378
1790587957919357700,11.959357666015626,-0.03488368168473244,-0.009210809133946896,-0.02582493983209133
1790587957929437000,11.96943701171875,-0.006058957893401384,0.006936735473573208,0.07764792442321777
1790587957939516700,11.9795166015625,0.008262723684310913,0.04145956039428711,0.06060715392231941
1790587957949597000,11.989596923828126,-0.03554600849747658,0.04427611827850342,0.006685333326458931
1790587957959677000,11.999677001953126,-0.023385750129818916,0.03612444922327995,-0.06584373116493225
1790587957969757000,12.0097568359375,-0.016030631959438324,0.029920348897576332,-0.014887602999806404
1790587957979837000,12.0198369140625,-0.027750138193368912,0.021820876747369766,0.035060781985521317
1790587957989917000,12.0299169921875,0.022110095247626305,0.020475180819630623,0.02305605076253414
1790587957999997000,12.039996826171874,0.02376658283174038,-0.0024951156228780746,-0.15200018882751465
1790587958010076700,12.05007666015625,0.0032834112644195557,-0.00905394833534956,0.026754382997751236
1790587958020157000,12.060156982421875,0.008428905159235,0.025082184001803398,0.2500942647457123
1790587958030237000,12.07023681640625,0.029273733496665955,0.022131402045488358,-0.012497415766119957
1790587958040317000,12.08031689453125,0.015591209754347801,-0.009653426706790924,-0.1582479625940323
1790587958050397000,12.09039697265625,0.0033904702868312597,0.006956443190574646,0.0000399474156438373
1790587958060476700,12.1004765625,-0.008237689733505249,-0.011900868266820908,0.07044540345668793
1790587958070557000,12.110556884765625,-0.016775785014033318,0.0018548916559666395,0.032944899052381516
1790587958080637000,12.120636962890625,-0.03298777714371681,-0.030544860288500786,-0.1246495172381401
1790587958090717000,12.130717041015625,-0.024057665839791298,-0.030126743018627167,-0.001109739183448255
1790587958100797000,12.140796875,-0.034201644361019135,-0.026206303387880325,0.10796907544136047
1790587958110876000,12.1508759765625,-0.009400958195328712,-0.03615214675664902,0.022274412214756012
1790587958120956000,12.160955810546875,-0.05212658271193504,-0.05876690894365311,-0.05947184935212135
1790587958131036000,12.171035888671875,-0.04284573346376419,-0.08083119988441467,-0.04204465448856354
1790587958141116000,12.181115966796876,-0.056289371103048325,-0.07721089571714401,0.10969560593366623
1790587958151195600,12.191195556640626,-0.09386631101369858,-0.11289113014936447,-0.0496908575296402
1790587958161276000,12.20127587890625,-0.05964948236942291,-0.13038410246372223,-0.03208043798804283
1790587958171356000,12.21135595703125,-0.1188904345035553,-0.13053297996520996,0.10932622104883194
1790587958181436000,12.221435791015624,-0.08988194912672043,-0.14761902391910553,-0.016828248277306557
1790587958191516000,12.231515869140624,-0.053951915353536606,-0.13082459568977356,0.05311781167984009
1790587958201596000,12.241595947265624,-0.09969010949134827,-0.15829242765903473,-0.03987924009561539
1790587958211676000,12.251676025390625,-0.06278029084205627,-0.1815202534198761,-0.066639743745327
1790587958221756000,12.261755859375,-0.11023756116628647,-0.1649513989686966,0.10658849775791168
1790587958231836000,12.2718359375,-0.11451698839664459,-0.19819697737693787,-0.04087366163730621
1790587958241916000,12.281916015625,-0.08920950442552567,-0.2214362472295761,-0.024227308109402657
1790587958251996000,12.291995849609375,-0.13625450432300568,-0.22841373085975647,0.005800365004688501
1790587958262076000,12.302075927734375,-0.09110061824321747,-0.2477024793624878,0.03743818402290344
1790587958272155600,12.31215576171875,-0.0889517068862915,-0.23645249009132385,0.13652588427066803
1790587958282235000,12.32223486328125,-0.13011272251605988,-0.27998077869415283,-0.07869960367679596
1790587958292315000,12.33231494140625,-0.06119890883564949,-0.27279263734817505,-0.08456894755363464
