time,seconds_elapsed,z,y,x
1789063969865317000,0.044317138671875,0.12698445792496205,0.005288754057884216,0.1921620096258819
1789063969875354000,0.05435400390625,-0.04142331275641918,0.02670095992088318,0.17769538511708377
1789063969885391000,0.06439111328125,-0.048589551123976706,0.036062077984213826,0.15265928966850043
1789063969895427800,0.074427734375,0.010980828219652175,0.052422261154651636,0.15343860347792504
1789063969905465000,0.084465087890625,0.0010018705189228057,0.03993804263472557,0.11374269903600215
1789063969915502000,0.094502197265625,0.08339081539213657,0.029489129334688186,0.05965498888716101
1789063969925539000,0.1045390625,0.08370937982201576,0.028251696494221684,0.0638188305683434
1789063969935576800,0.114576904296875,0.03680091365277767,0.07472294028997421,0.07922960405945778
1789063969945614000,0.124614013671875,0.03725917881429195,0.0732850164413452,0.08360986497029661
1789063969955651000,0.134651123046875,-0.1636380720615387,0.17831366314589978,0.06856500218212604
1789063969965688000,0.14468798828125,-0.163050043040514,0.17670505890548227,0.07309577747955918
1789063969975725000,0.15472509765625,-0.11622867063283919,0.13343290341198444,0.10365940417796372
1789063969985762000,0.164761962890625,0.1878887162208557,0.030668109986186024,0.27975378383919597
1789063969995799000,0.174799072265625,-0.27276129460334775,0.07614742013514042,-0.032898060995340345
1789063970005836000,0.1848359375,-0.48535482849180694,0.1253477966338396,-0.3583139642044902
1789063970015873000,0.194873046875,-0.48616263774335383,0.12558043634593485,-0.3549200839824974
1789063970025910000,0.204909912109375,-0.7011866136491298,-0.04246551528573036,-0.4821538404934108
1789063970035947000,0.214947021484375,-0.10556640684306622,-0.1345762282282114,-0.3747320150420069
1789063970045984000,0.22498388671875,-0.4320534464150667,0.10250468118488788,-0.35059345295503735
1789063970056021000,0.23502099609375,0.00046001872718334194,0.10583002621531486,-0.31637247279286385
1789063970066058000,0.24505810546875,-0.003173369339108467,0.10899228963851929,-0.3114097358189523
1789063970076096000,0.255095947265625,0.13321020057201385,0.05804945338666439,-0.18670988169983027
1789063970086133000,0.265133056640625,0.18573358401358125,0.26983342445790764,0.03489931781515479
1789063970096170000,0.275169921875,0.24261224005520343,0.3327770796269178,0.13944880270063875
1789063970106207200,0.285207275390625,0.24284137263596056,0.33189152896404267,0.14259236142337323
1789063970116244000,0.295243896484375,0.2928828761339187,0.25628654514253135,0.18349808004647492
1789063970126281000,0.305281005859375,0.38302959552705285,0.11302373711168766,0.10466828895956277
1789063970136318000,0.31531787109375,0.0013245266020298003,-0.017122399714589117,-0.048518385583907364
1789063970146355000,0.32535498046875,0.00404722956418991,-0.0206131644397974,-0.04658405652046203
1789063970156392200,0.33539208984375,-0.19679975242912767,-0.086827219581604,-0.03148921711072326
1789063970166429000,0.345428955078125,-0.2741243996500969,-0.18505144696831702,0.01796937193274498
1789063970176466000,0.3554658203125,-0.406336236834526,-0.21308979297280312,0.08588044025078416
1789063970186503000,0.3655029296875,-0.38160394663810726,-0.14352642740309238,0.16522504899203777
1789063970196540200,0.3755400390625,-0.06907119813859462,-0.16670038224160671,0.14686565482839942
1789063970206577200,0.3855771484375,-0.07181903554201126,-0.16406769565045834,0.14948577419891954
1789063970216615000,0.395614990234375,0.23762626833617687,-0.02761807476580143,-0.03235898568257689
1789063970226652200,0.405652099609375,0.09372048622667789,0.1292126553684473,-0.14402560909688472
1789063970236689200,0.415689208984375,0.032090251743793485,0.24487375524640081,-0.16423267695382238
1789063970246726100,0.42572607421875,0.02602291452884674,0.2295674650430679,0.22483049964904783
1789063970256763000,0.435762939453125,0.026059154886007307,0.22944413092434404,0.22525398575812577
1789063970266799900,0.4457998046875,-0.20108838953375816,0.28916064074039455,0.6886921659961343
1789063970276837000,0.455837158203125,0.6428010601758957,-0.18885493090450764,0.7736806989084929
1789063970286874000,0.4658740234375,0.6448866342782974,-0.19266192197203635,0.7811366409376264
1789063970296911000,0.4759111328125,-0.2997907558262348,0.26744623706042764,-0.6521314908400178
1789063970306947800,0.48594775390625,-0.2977922754853964,0.265588041973114,-0.654361076522991
1789063970316985000,0.495985107421875,-1.4052864843964576,0.2357417697638273,-0.2766445657774806
1789063970327022000,0.50602197265625,0.0977981109291315,-0.1786865881115198,0.46449061190038915
1789063970337059000,0.51605908203125,-0.6378396383762359,-0.10095043748021125,0.6122546768732369
1789063970347096800,0.526096923828125,-0.5513397510528564,0.3142307845890522,0.21193645821921525
1789063970357134000,0.536134033203125,-0.5534124656736851,0.3158551709204912,0.21587131345011293
1789063970367171000,0.546171142578125,-0.48002691146731374,-0.013469722425937651,0.291959696874395
1789063970377208000,0.5562080078125,0.2804629550218582,0.01998304984271526,0.3499951217357069
1789063970387245000,0.5662451171875,0.11054594882130622,0.4249205257952213,-0.2250456767696887
1789063970397282000,0.576281982421875,-0.1742985822856426,0.6352940455466508,0.35808936166837807
1789063970407319000,0.586319091796875,-0.17551789494752884,0.6353805547863245,0.365059931333363
1789063970417356000,0.59635595703125,-0.5640191998839378,0.16138006400167942,0.8639201380863786
1789063970427393000,0.60639306640625,0.09328618646264075,0.2979039191663265,0.41535942818038163
1789063970437430000,0.616429931640625,-0.7943781075656413,0.34283144065141674,-0.07205218671076
1789063970447467000,0.626467041015625,-0.32784780653119083,0.5940852523237466,-0.933054026197642
1789063970457504000,0.63650390625,-0.32569092075824735,0.5927601411998271,-0.9391058735825121
1789063970467541000,0.646541015625,0.09251695565581321,-0.0255932909399271,-1.2555582797437905
1789063970477578000,0.656577880859375,0.09307575858235359,-0.02658756267428398,-1.2536490851216018
1789063970487616000,0.666615966796875,-1.257583063569665,0.3929793271332979,-1.4510001878231762
1789063970497653000,0.676653076171875,-1.6105337471753358,0.7674678888082503,-1.703082559274137
1789063970507690000,0.68668994140625,-1.6718822421073913,0.8332166645258665,-1.9082776534743606
1789063970517727200,0.696727294921875,-0.9703706342875957,0.8542804953426122,-2.040052122154832
1789063970527764000,0.706763916015625,0.21674714643657206,0.5963549508213997,-1.947521137973666
1789063970537801000,0.716801025390625,0.21128362033367157,0.6049404083371162,-1.9595226875431835
1789063970547838000,0.726837890625,0.21244331176280973,1.1732201882749795,-1.7527623898528515
1789063970557875000,0.736875,-0.0350654681622982,1.2866197729617357,-1.0086134173117578
1789063970567912200,0.746912109375,0.196799167907238,1.298105628094077,-0.2522194418340921
1789063970577949000,0.756948974609375,0.6715361562728881,1.0855337215155363,0.5585032129414379
1789063970587986000,0.76698583984375,0.08788812681138515,0.9136451229810714,1.2114879596099257
1789063970598023000,0.77702294921875,-0.7785591916650533,0.8677110548019409,1.26047381657511
1789063970608060200,0.78706005859375,-1.2433265746802091,0.46964112653136253,0.8263508704096079
1789063970618097200,0.79709716796875,-0.7466296834409236,0.06299509309530257,0.13193433541730046
1789063970628135000,0.807135009765625,-0.673664400473237,-0.20525953773856162,0.029508564687520264
1789063970638172400,0.81717236328125,-1.19196288266778,-0.24528292056918144,0.4119616755008697
1789063970648209400,0.82720947265625,-1.1939239536076784,-0.24044892454147337,0.3998557887740433
1789063970658246400,0.837246337890625,-1.4301584753245113,0.09004735067188739,1.0916511814825236
1789063970668283400,0.847283447265625,-0.6892378171801566,0.004499649506807327,1.0227662996962665
1789063970678320400,0.8573203125,-0.5986871931612491,0.3943172977387905,0.5843681604295968
1789063970688357400,0.867357421875,-1.0215250674635172,0.8766437183201312,0.1495065247260034
1789063970698394400,0.877394287109375,-0.3999117567449808,0.9416080656617879,-0.025267127725481984
1789063970708431400,0.887431396484375,0.4581102632135153,0.8836533048212528,-0.010433131209015846
1789063970718468400,0.89746826171875,0.7979618112713098,0.9884557415544987,0.14991130613461137
1789063970728505300,0.90750537109375,0.6973351989179849,0.9308627997636795,0.47138738567680116
1789063970738542300,0.917542236328125,0.21139292592704295,1.0906991414546965,0.6177256556302309
1789063970748579600,0.92757958984375,0.06923194165825844,0.8994692981123924,0.5532132898397744
1789063970758617300,0.937617431640625,-0.09541326161921024,0.622699352389574,0.15320362567827103
1789063970768654300,0.947654296875,-0.7481494403541088,0.5892997716128826,-0.5765323522374034
1789063970778691300,0.95769140625,-1.5158844556659459,0.504607225972414,-1.1248534861214459
1789063970788728600,0.967728515625,-1.8886346492409705,0.3741735043764114,-1.162231615140289
1789063970798765300,0.977765380859375,-1.6302379800766706,0.19626783750951288,-0.8519885850131511
1789063970808802300,0.98780224609375,-0.9279647402346134,0.059114452269673344,-0.2787402228824794
1789063970818839300,0.99783935546875,-0.30204174962341784,0.025481647258996962,0.24698417152911423
1789063970828876500,1.00787646484375,-0.11685936975181102,0.26791853074729444,0.4464766701735556
1789063970838913500,1.01791357421875,-0.38512452197968955,0.765607355633378,0.4191593319199979
1789063970848950300,1.0279501953125,-0.34979484992325305,1.0507833106517792,0.1136141042202711
1789063970858987300,1.0379873046875,-0.1771528026729822,1.3155185351878405,-0.34980683262199164
1789063970869024500,1.0480244140625,-0.2670534383505583,1.4792588985800743,-0.5332106585137546
1789063970879061500,1.0580615234375,-0.15733400348126889,1.4154887294590472,-0.5622730868689716
1789063970889099300,1.068099365234375,-0.1866296560704708,1.325399877732992,-0.3793452079258859
1789063970899136300,1.07813623046875,-0.2803191626369953,1.0244687196999787,0.014476999772340059
1789063970909173500,1.088173583984375,-0.1641249787956476,0.7016682596862316,0.31182445409968496
1789063970919210500,1.09821044921875,-0.5729957025438547,0.5420043519526719,0.40533451244607566
1789063970929247500,1.10824755859375,-0.9652174893081188,0.4628934058368206,0.31769173869788647
1789063970939284200,1.1182841796875,-1.4622346985429524,0.3078431293785572,0.05937251868396997
1789063970949321500,1.128321533203125,-1.6040098983645439,0.4294295276522636,-0.3818194890849292
1789063970959358500,1.1383583984375,-1.0317834266275168,0.363370370811224,-0.44254327624738216
1789063970969395500,1.1483955078125,-0.19447978504896163,0.034845103409886356,-0.1440780699364841
1789063970979432400,1.158432373046875,-1.2861784589350223,0.7693120553702115,0.05912526592463255
1789063970989469200,1.16846923828125,-1.7484236299961804,1.189472819417715,0.3094775987125933
1789063970999506400,1.17850634765625,-0.8148468950986861,0.9552788636177778,0.5497125882424414
1789063971009543400,1.18854345703125,-0.26852117281556126,1.1989496728152036,0.38950273706391453
1789063971019581400,1.19858154296875,1.0916250241279601,1.1463625764876604,0.1561453782185912
1789063971029618400,1.208618408203125,0.5564449652373791,1.1902788751035929,0.208347274620831
1789063971039655400,1.218655517578125,-1.0213830286443233,1.9543086061567068,0.03593815934360027
1789063971049692400,1.2286923828125,-0.4329752374351024,1.567787076860666,0.09689926239326596
1789063971059729400,1.2387294921875,-0.13311901515722274,1.168517709672451,0.3281248699069023
1789063971069766400,1.248766357421875,0.10058160416781901,1.0475918211340904,0.4303752840697765
1789063971079803400,1.258803466796875,-0.716608054664731,0.7535241191297769,0.7789610504642128
1789063971089840400,1.26884033203125,-1.6880775901049374,0.8478326343774795,0.7853530895888805
1789063971099877400,1.27887744140625,-1.3123428277611733,0.33339901091754437,0.5875720710374415
1789063971109914400,1.288914306640625,-1.1539695443600415,0.2070686329871416,0.37144232584685083
1789063971119951400,1.298951416015625,-1.1026748259305954,0.20455694242715836,0.3580648117490113
1789063971129988400,1.30898828125,-2.2769284489065407,0.6012023908525705,0.5681213745057583
1789063971140025300,1.319025390625,-2.6965555444687603,1.1266636042833327,0.823507317546755
1789063971150062300,1.329062255859375,-2.7073931648254392,1.136706274870038,0.834751472877711
1789063971160100400,1.339100341796875,1.1777981637150048,0.5982692600101233,1.3401901812382042
1789063971170137300,1.349137451171875,-0.5821633438616991,1.4657961904168129,1.4566817405909298
1789063971180174300,1.35917431640625,-2.3733558560043573,2.2437580007106064,1.5733679457329213
1789063971190211300,1.36921142578125,-1.2574345950096846,1.8261995281159877,1.5474677808009087
1789063971200248600,1.37924853515625,0.6470622247517108,1.389819450673461,1.1250672750025987
1789063971210285300,1.389285400390625,0.8957727816820145,1.3314514328569174,0.8492924777969717
1789063971220322300,1.399322265625,-0.7493126389145851,1.5597645139247178,1.052889781411737
1789063971230359300,1.409359375,-2.133065336894989,1.8408026384860277,1.1943877717271447
1789063971240396500,1.419396484375,-1.3257950145304203,1.5341922657728195,1.1945672199472783
1789063971250433500,1.42943359375,0.08350187455117702,1.0792127018004656,1.1721877764873205
1789063971260470300,1.43947021484375,-0.036812019568681714,0.6074748952507972,1.3314552322492004
1789063971270507300,1.44950732421875,-2.058326614513993,1.3932400727719068,0.9847225463755428
1789063971280544500,1.45954443359375,-2.0535890645980834,1.38265964204669,1.0069406617939471
1789063971290581500,1.46958154296875,-0.8416022155553102,0.768951405364275,0.39376550907492636
1789063971300619300,1.479619384765625,0.6517904223173856,0.3191717481225729,0.2647976222477853
1789063971310656300,1.48965625,0.48155076003372665,0.4081956009656191,0.2951578353285789
1789063971320693500,1.499693603515625,-2.581464353433251,1.4734271236866712,0.32832039247900247
1789063971330730500,1.50973046875,-2.3535095842838287,1.3366004861831664,0.2788772932656109
1789063971340767500,1.519767578125,1.3495961613565683,0.11172902112603186,0.1201218786790967
1789063971350804200,1.52980419921875,1.7576310188025235,0.14860650714635848,-0.11290741725564002
1789063971360841500,1.539841552734375,-2.5559844597399235,1.461370190668106,0.06885799377933144
1789063971370878500,1.54987841796875,-3.4156939943939446,1.4358604863584041,-0.03804214588552713
1789063971380915500,1.55991552734375,0.6388035149723291,0.13906184920966624,-1.0098274692766367
1789063971390952400,1.569952392578125,1.4533762693047523,0.05519757108688354,-1.782399257095158
1789063971400989200,1.5799892578125,-0.506388264170289,0.26448037299215793,-2.3156050933033225
1789063971411026400,1.5900263671875,-2.3911212297976014,0.690900781956315,-2.6462901690870524
1789063971421063400,1.6000634765625,-3.623231413936615,0.6734171477138996,-2.751641179613769
1789063971431101400,1.610101318359375,-1.3851795159131288,-0.07812076603472233,-2.6207328262433407
1789063971441138400,1.620138427734375,0.7983937729477882,-0.8738619786471128,-2.509740010437369
1789063971451175400,1.630175537109375,-0.9905091669529675,0.02942658549249172,-2.4835996070086956
1789063971461212400,1.64021240234375,0.05714052184820175,0.11979366963803767,-2.612890880571306
1789063971471249400,1.65024951171875,2.158863795018196,-0.27557284489274025,-3.2873587063819167
1789063971481286400,1.660286376953125,2.130644831749797,0.23385844023525715,-3.545374851796031
1789063971491323400,1.670323486328125,2.0353473054647444,0.06463000082075596,-3.233159498682618
1789063971501360400,1.6803603515625,-0.14879823032617567,0.6702174748897552,-2.7167455150604245
1789063971511397400,1.6903974609375,-1.696592320472002,1.036603978651762,-1.8995010573007165
1789063971521434400,1.700434326171875,0.6701216132998467,-0.40931612942814827,-1.0006235876016318
1789063971531471600,1.7104716796875,1.796554915958643,-0.6739210055828094,-1.0598219918277114
1789063971541508400,1.72050830078125,1.9378800339251756,-0.8379144669532775,-1.0480734671711922
1789063971551545300,1.73054541015625,1.4404834699839353,-1.257843760332465,-0.7117400102369487
1789063971561582300,1.740582275390625,-0.6946890683233737,-0.5320552048683166,-1.297917119784653
1789063971571620400,1.750620361328125,-2.2354349935233593,-0.10788228257000446,-1.272107555745542
1789063971581657300,1.7606572265625,-2.4021213472396132,-0.60209846290946,-0.44439102300591765
1789063971591694300,1.7706943359375,-0.20059037688374518,-0.9219909265220164,0.007870514179393648
1789063971601731300,1.7807314453125,0.21079086838066577,-0.7090297283649444,0.5366242663495242
1789063971611768600,1.7907685546875,-0.3027057664901018,-0.08238894487321376,1.161644170641154
1789063971621805300,1.800805419921875,0.5291653286457062,0.2779495108962059,1.1700349093023688
1789063971631842300,1.81084228515625,2.4815666398763656,0.18503391131162641,0.8353045036505907
1789063971641878500,1.82087841796875,2.412939093852043,0.7696493245005607,0.5109583485648036
1789063971651915500,1.83091552734375,1.6745973462849855,1.2050479896903037,0.47541145356111225
1789063971661952500,1.840952392578125,0.29052082317769523,1.59359196472466,0.5883720623087138
1789063971671989800,1.85098974609375,-0.7397370013177395,1.6420529210329056,1.0924355367932468
1789063971682026800,1.86102685546875,0.44638183149695393,0.8251128530472517,1.3504089390441774
1789063971692063500,1.8710634765625,1.1240607283085584,0.23085224415659902,1.5877568288303912
1789063971702101500,1.8811015625,0.6750707601398229,-0.18923253204524515,2.26628021364212
1789063971712138800,1.891138671875,-0.4955950674772262,-0.27802199161052704,2.6632202610999345
1789063971722175500,1.901175537109375,-1.1293816310703755,-0.3079915979385376,2.988443856607377
1789063971732212500,1.91121240234375,-1.1853431722670793,-0.6137994220972061,3.3459082182452082
1789063971742249500,1.92124951171875,-0.5434866994649171,-0.7106593753933906,2.8577508995532988
1789063971752286700,1.93128662109375,-0.7235474985390901,-0.2816951271653175,2.451074470978975
1789063971762323700,1.94132373046875,-1.7136176895529032,0.07428688696026801,2.29751998603642
1789063971772360400,1.9513603515625,-1.599076533615589,0.10498773017227649,2.0536789348386226
1789063971782397400,1.9613974609375,0.151106507268548,-0.25651041702628136,2.1701143800899385
1789063971792434400,1.971434326171875,0.058960723012685776,0.040438393372297286,2.218599886317551
1789063971802471700,1.9814716796875,0.7632774513810873,-0.18952596203386782,2.2593588899463413
1789063971812508700,1.9915087890625,2.0074334626227617,-0.39920916143357754,2.182008816023171
1789063971822545400,2.00154541015625,0.026020576441287992,0.4933785604715347,1.7078807533361016
1789063971832582400,2.01158251953125,-0.7834744362354278,1.026128177344799,1.1909776710227131
1789063971842620700,2.02162060546875,-0.38195056811869144,0.908485548260808,1.1423075289431959
1789063971852657700,2.03165771484375,-0.7366635852217673,1.0589514195382594,0.9672019411236047
1789063971862694400,2.0416943359375,0.06697334907650947,0.8890630549103021,0.9326756213393061
1789063971872731600,2.051731689453125,-0.3874491655349731,0.699791359898448,0.8850337263289838
1789063971882768600,2.0617685546875,-0.9295172303736209,0.908935045593977,0.04724573529958725
1789063971892805600,2.0718056640625,0.22703999239206313,0.14256138176321984,-0.515815688935481
1789063971902842600,2.081842529296875,-0.3010761194616556,-0.10216215135753154,-1.1408834144242108
1789063971912879400,2.09187939453125,-0.8540402568459511,0.30085166305601596,-1.7239688415668903
1789063971922916600,2.10191650390625,-0.5109416896909476,-0.3834814309477806,-1.6289607997477054
1789063971932953600,2.11195361328125,-0.6744692871153354,-0.26928105127215385,-2.1755939805448055
1789063971942990600,2.121990478515625,-0.27729250829219815,-0.3151443923026323,-2.5218995270475744
1789063971953027600,2.132027587890625,-0.9689514151394366,-0.3028501433968544,-2.1555828736513853
1789063971963064600,2.142064697265625,-1.53614924505949,-0.2828489733755588,-2.1231050838947296
1789063971973101600,2.1521015625,0.5403291122168302,-0.8586369369864463,-2.086836669683456
1789063971983139600,2.1621396484375,0.8943757743656635,-0.9305325448960066,-2.3490089118637143
1789063971993176600,2.172176513671875,1.514772695031762,-1.0573322939038277,-2.5041408752560614
1789063972003213600,2.182213623046875,1.1081681626498698,-0.82616031627357,-2.5548507795348763
1789063972013250600,2.19225048828125,0.4854951137453317,-0.36136779881715775,-2.4511893295302984
1789063972023287600,2.20228759765625,1.2152093182206154,-0.7404699917674065,-1.923416039764881
1789063972033324500,2.212324462890625,0.2858136684000492,-0.3046463791638613,-1.497027925635129
1789063972043361500,2.222361572265625,0.7165723988294601,-0.670018152925372,-0.8109633316636085
1789063972053398500,2.2323984375,0.8732640127539634,-1.156558976331353,-0.06921930137239396
1789063972063435500,2.242435546875,0.6346347048550843,-1.1054004515022038,0.3838536252610385
1789063972073472500,2.252472412109375,1.1146528484940528,-1.8677187024623154,0.8179657577715813
1789063972083509800,2.262509765625,0.4031476699262857,-1.4962597177416086,1.0007795088157057
1789063972093546800,2.272546630859375,1.182121287611127,-1.601415205696225,1.3237358900435268
1789063972103583500,2.28258349609375,1.47171330550611,-1.8162234930247068,1.5873405031144618
1789063972113621500,2.29262158203125,0.020312720188498497,-0.8350082241177559,1.6822569211274385
1789063972123658800,2.30265869140625,-0.7211211481750011,-0.2241957088768482,1.9419886382877825
1789063972133695500,2.312695556640625,0.9724883570939302,-0.6548831276357173,2.1727064424097535
1789063972143732500,2.322732421875,1.1564800658762455,-0.2655547242254019,2.183235727469623
1789063972153769500,2.33276953125,0.4254454264521599,0.2311456741452217,2.258508995118737
1789063972163806700,2.342806640625,1.4235054471760988,-0.005896072301268577,2.141279476880282
1789063972173843700,2.35284375,2.212471466565132,-0.24982991634905335,1.880086308865249
1789063972183880400,2.36288037109375,3.176703451967239,-1.0413386059582233,1.3073093636386095
1789063972193917400,2.37291748046875,-0.7726128504812717,0.26982173402011395,1.0878950438193977
1789063972203954400,2.382954345703125,-4.599211704799533,1.0911959850609303,1.13600068388395
1789063972213991700,2.39299169921875,-1.3781483021020888,-0.7069464923501014,0.6397812008980661
1789063972224028700,2.403028564453125,3.0461604247778653,-1.439954477673769,-0.28235518024293704
1789063972234065400,2.4130654296875,2.130336204192042,-1.1789905883699654,-0.20435488051641731
1789063972244103700,2.423103759765625,-1.2989642907500267,-0.20452596276700497,-0.018903127385210244
1789063972254140700,2.433140625,-2.68607506698668,1.3208768473505974,0.09793812218802049
1789063972264177700,2.443177734375,-3.0162708979487416,1.424295720770955,1.9214913553126156
1789063972274214400,2.45321435546875,-1.1795295175522564,1.0152075548797845,2.858203611756861
1789063972284251400,2.46325146484375,-1.1919295649200676,1.0284405459403991,2.901751953843236
1789063972294288600,2.47328857421875,5.917572185415029,0.5301578468143939,0.5222720254680141
1789063972304325600,2.48332568359375,1.9447604410886763,0.8453940090537071,-1.149400482878834
1789063972314362600,2.493362548828125,-1.764808363085985,1.6995009013950824,-1.743722612698376
1789063972324399400,2.5033994140625,-0.9660568627417087,0.5250853658556938,-0.3244763208040967
1789063972334436600,2.5134365234375,0.9421440722346305,-1.1034563316971062,1.8761311414986848
1789063972344473600,2.5234736328125,1.4272212528288364,-1.7372259441554545,3.645538522812724
1789063972354510600,2.533510498046875,-1.8738801477015017,-0.9751479316920042,4.252958765266835
1789063972364547600,2.543547607421875,-3.5557337487250567,-0.5948129820764064,3.2713428066045043
1789063972374584600,2.55358447265625,-1.889775051447749,-1.8844611629486083,2.0277046817570925
1789063972384622600,2.56362255859375,-1.4101613969564437,-0.9963298359304666,0.6467069085080176
1789063972394659600,2.57365966796875,-1.5587205578297376,-0.2181575977563858,-0.30485532747311517
1789063972404696600,2.583696533203125,0.09620470425784587,-0.9603402386605739,-0.006723572633974254
1789063972414733600,2.593733642578125,-1.0969874279439449,0.1463613585680723,-0.028388931274134666
1789063972424770600,2.6037705078125,-0.5998766952067613,0.8323743684828281,-0.4630050129851326
1789063972434807600,2.6138076171875,1.6566799968004227,0.45769349910616874,-0.668798548002541
1789063972444844500,2.623844482421875,0.7749433392554521,0.9245084623008966,-0.8847099742673337
1789063972454881800,2.6338818359375,0.36693069364130493,1.537093247911334,-1.1041657951407133
1789063972464918500,2.64391845703125,1.27006903565526,1.4608289233982563,-1.1082900354638696
1789063972474955500,2.65395556640625,0.34790041447877884,1.0686100592434407,-0.35293793372195215
1789063972484992500,2.663992431640625,0.21213351516127585,0.8083896817833185,0.13683387096188962
1789063972495029800,2.67402978515625,0.22972177882194517,0.3844745336383581,0.1289372724931687
1789063972505066800,2.684066650390625,-1.048614734441042,0.5163461790829896,0.23239103456381707
1789063972515104500,2.6941044921875,-0.6727496237158775,-0.1510679288238287,0.4274647669179365
1789063972525141500,2.7041416015625,-0.7972843504011631,-0.3603162439376116,0.6995698991674929
1789063972535178800,2.7141787109375,-0.7964923232406377,-0.3605103052049875,0.7089081478118896
1789063972545215500,2.724215576171875,-0.25048808799684047,-0.7654933738648891,1.5552140110135078
1789063972555252500,2.73425244140625,-0.4132265808701515,-0.33479718727767466,1.1838874205008147
1789063972565289500,2.74428955078125,-0.35187808593809605,0.27780747207701206,0.3883515577347949
1789063972575326700,2.75432666015625,0.7723030538797379,-0.1617775388866663,-0.2322940404627472
1789063972585363700,2.76436376953125,-0.20725041929483412,0.7663648960024118,-0.8077046221286058
1789063972595400400,2.774400390625,0.0704097532659769,0.7694096705257892,-0.8437981912296265
1789063972605437400,2.7844375,0.8523919051170349,0.3198608994305134,-0.6198518540039658
1789063972615474400,2.794474365234375,0.8530746266841888,0.3195359052598476,-0.6148652977630495
1789063972625511700,2.80451171875,1.1196534332603216,-0.03844049755334854,-0.4980984286002815
1789063972635548700,2.814548583984375,0.5575508806526661,-0.14530045133829117,-0.7252979224029928
1789063972645585700,2.824585693359375,-0.6025514673739671,0.2470265493661165,-1.2209719003353268
1789063972655623700,2.834623779296875,-0.19113105914294717,-0.34064942043721674,-1.328992787658423
1789063972665660700,2.84466064453125,-0.31351766788363455,-0.30614450876712795,-1.6561071653485298
1789063972675698000,2.854697998046875,-0.4620867656290531,-0.1828168197840452,-2.0603614813424644
1789063972685734700,2.864734619140625,-1.2114940970897674,-0.11190496221482753,-2.038937146650255
1789063972695771600,2.874771728515625,-1.7869956449747084,0.2574000593423843,-2.0261361172661183
1789063972705808600,2.88480859375,0.08318506368696689,-0.09521686226427555,-2.2760332536324857
1789063972715845600,2.894845703125,0.16663316222429275,0.3478507301181555,-1.8531769668906926
1789063972725883000,2.9048828125,1.1494704793751238,0.4000140480756759,-1.3817657619468866
1789063972735919600,2.914919677734375,1.243880701431632,0.3809568809062242,-0.7053251747585833
1789063972745956600,2.92495654296875,-0.7447083599895239,1.3373743931651114,-0.6583278612621128
1789063972755993600,2.93499365234375,0.6130810446947813,0.9846107565641402,-0.9009759032830595
1789063972766030800,2.94503076171875,0.5277051929652691,0.828791833820939,-1.0009979008067398
1789063972776067800,2.95506787109375,-0.12096563602685928,0.9062655341237783,-1.0764650835927576
1789063972786105600,2.965105712890625,-0.11240998912751674,0.8950923982024193,-1.100102783485502
1789063972796142600,2.975142578125,-0.798750331300497,0.08135375660657883,-0.5713727409845217
1789063972806179800,2.985179931640625,-0.45748599383533,-0.16683599132001398,-0.5295681007603183
1789063972816216800,2.995216796875,-0.3575479482680559,-0.7088871050238609,-0.46583873857371505
1789063972826253600,3.005253662109375,-1.9586229622244833,-0.05123626624047756,-0.8453220397960394
1789063972836290600,3.01529052734375,-0.5235369673699141,-0.6067699618518352,-1.096603835453838
1789063972846327800,3.025327880859375,-0.626207652771473,-0.6763456023812293,-1.2737269736409187
1789063972856364800,3.03536474609375,-0.874113323059678,-0.2973094604045152,-1.4063259104467927
1789063972866401800,3.04540185546875,1.0422656576752662,-1.1720470528423785,-1.1696757936663924
1789063972876438500,3.0554384765625,-0.19504560223817824,-0.5355348636776208,-1.3794471097409724
1789063972886475800,3.065475830078125,0.5062544086575508,-0.5618675748080015,-1.4815816424392163
1789063972896512800,3.0755126953125,0.7731172928720712,-0.639562808907032,-1.5949847342573105
1789063972906549800,3.0855498046875,-0.36735739462077616,0.1558598392754793,-1.9496087579026817
1789063972916587500,3.09558740234375,1.834507337734103,-0.7217483401626348,-1.990378136795014
1789063972926624800,3.105624755859375,-0.05772738182544708,0.15206336960196495,-2.159683733098954
1789063972936661800,3.115661865234375,0.59557110696733,0.13563362832665443,-1.762814851181209
1789063972946698800,3.12569873046875,1.3412293150275945,-0.6285393105894327,-0.9500494385316968
1789063972956735500,3.135735595703125,-0.4698381104081869,0.22048691748678684,-0.4305447954177856
1789063972966772700,3.145772705078125,0.6075146427392959,-0.4157476237803697,0.1789094005493447
1789063972976809700,3.155809814453125,-0.5269190110236406,-0.22310616007447243,0.3828860954031348
1789063972986846700,3.1658466796875,-0.2505126379162073,0.004321370330452919,0.5354821105770766
1789063972996883700,3.1758837890625,1.1753133611619473,-0.8032365368038415,0.9327959597833454
1789063973006920700,3.185920654296875,-1.1409095717787743,0.3069353668838739,0.9385448056336492
1789063973016957700,3.195957763671875,-1.1266904922902583,0.6450824491113424,1.1798507853958755
1789063973026994700,3.20599462890625,0.09278934285640716,0.1477735634535551,1.4749676311269402
1789063973037031700,3.21603173828125,0.08870470389127731,0.15294424408972263,1.45574460587129
1789063973047069700,3.226069580078125,0.6519213552206754,0.6874994490802288,1.9477923561304806
1789063973057106700,3.236106689453125,0.48662733264565466,0.45434243511259553,2.3482756291531026
1789063973067143700,3.246143798828125,1.1238105529397726,0.5780448026269674,2.0244681840538976
1789063973077180700,3.2561806640625,0.8691063085526227,0.26515491125285623,1.929926006180793
1789063973087218000,3.266218017578125,0.8389759587049483,0.19681728808581828,1.0290369774635881
1789063973097254700,3.276254638671875,1.2654361151576041,-0.3789548934340477,0.04684453408755362
1789063973107291600,3.286291748046875,-1.0176730682104826,0.21982991488277911,-1.0811750148493795
1789063973117328600,3.29632861328125,-0.22397709769010543,-0.04629939436018467,-1.9761612492635845
1789063973127365600,3.30636572265625,0.22559797689020633,-0.880872149670124,-1.8398861081629991
1789063973137403000,3.31640283203125,-0.9112257868796586,-0.30307810693383214,-1.9709483369208871
1789063973147439600,3.326439697265625,-0.9093681763142347,-0.304286898201704,-1.9869483084768056
1789063973157476600,3.3364765625,-1.7602099293798208,-0.22928747905790806,-2.038907189903408
1789063973167513600,3.346513671875,0.11520809541344643,-0.579724134016037,-2.1563582419380545
1789063973177552000,3.3565517578125,0.8147919500410556,-0.794076494270563,-2.3219738976828754
1789063973187588600,3.366588623046875,-0.22714286824464797,0.11012509306073189,-2.40552209559381
1789063973197625600,3.37662548828125,0.16568389867544173,0.0016138649374246596,-1.8689749861337244
1789063973207662600,3.38666259765625,-1.3846125296801328,0.6660895813047886,-1.5488310319781302
1789063973217699800,3.396699951171875,-0.20812369499802588,0.6465156967848539,-1.1292112429395318
1789063973227736800,3.40673681640625,0.43454117157757277,0.3330067967295646,-0.7797009090460837
1789063973237773600,3.416773681640625,0.14653846870064735,0.6717255413651466,-0.5097380129896104
1789063973247810600,3.426810546875,1.342304250782728,-0.06448503939211368,0.34888971777707334
1789063973257847800,3.436847900390625,0.38976270317435263,0.09798515793383121,0.646034343008697
1789063973267884800,3.446884765625,-0.09389350470602512,0.4187555734246969,0.46086993718519803
1789063973277921800,3.456921875,-0.11377484773993492,-0.12080430798530578,0.6528437307626008
1789063973287958500,3.46695849609375,-0.10921791508793831,-0.12435352489948272,0.6356447586804628
1789063973297995800,3.476995849609375,-0.63967854424119,0.10939736330807208,1.0204103842198848
1789063973308033800,3.48703369140625,-0.5510018974006176,-0.22479835094511508,1.9680928013592958
1789063973318070500,3.497070556640625,0.45374446921944617,-0.2168412544608116,2.321566632056236
1789063973328107500,3.507107421875,0.13568857338428497,-0.0838204389810562,2.4618086309611797
1789063973338144800,3.517144775390625,-0.731459002315998,0.6539291879117488,1.5933090561300516
1789063973348181800,3.527181640625,0.6511117924034595,0.35672961762249467,0.7839398617900908
1789063973358218800,3.53721875,-0.07754851910471916,0.5620025993645191,0.3769132315386087
1789063973368255500,3.54725537109375,0.6657628335684538,0.6770446905612946,0.44866040742080654
1789063973378292700,3.557292724609375,-0.4158697888553142,0.2948532994240522,1.5092583155244588
1789063973388329700,3.567329833984375,-0.4365244543492794,0.49839609637260435,1.9364153682000933
1789063973398366700,3.57736669921875,-0.16224106474518776,0.16628887883126733,2.4509574204705653
1789063973408403700,3.58740380859375,-1.4277408927887678,0.532740849044919,2.3506905813403427
1789063973418440700,3.597440673828125,2.0724942560762165,-0.3029109336733818,2.0915048076249656
1789063973428477700,3.607477783203125,2.1749416541159152,-0.6840086843550205,1.8953429147079586
1789063973438515700,3.617515625,0.7909282593727112,0.32062136240899564,1.5623381638050078
1789063973448552700,3.627552734375,-1.0072118799507617,0.5599427442252636,1.7085533919006586
1789063973458589700,3.637589599609375,-1.9547861605405807,0.6855155817866325,1.8216843887791037
1789063973468626700,3.647626708984375,-0.3190706258356571,0.4302309071630239,2.168349854635447
1789063973478663700,3.65766357421875,0.3685340371847152,0.05589373665750026,2.438648412387073
1789063973488700700,3.66770068359375,0.6171008017301559,0.05060498259961605,3.032733372449875
1789063973498738000,3.677738037109375,-1.5374036290347575,0.32760698351264,3.660807695876062
1789063973508774700,3.687774658203125,-0.7156313185870647,0.002847790646553039,3.7370305193349718
1789063973518811600,3.697811767578125,-1.5126368520468472,0.11529343560934066,3.6369139023303982
1789063973528848600,3.7078486328125,0.038943186378479,-0.439809467369318,3.1731630028814077
1789063973538885600,3.7178857421875,1.609041462790966,-1.1258049416273832,2.982439355495572
1789063973548923000,3.7279228515625,-1.7298434326887129,-0.12921148632466792,2.621723298585415
1789063973558960600,3.737960693359375,-1.1973685411036015,-0.12041034023165702,2.8199270725935697
1789063973568997600,3.74799755859375,-0.7552852835834026,-0.8286392736077308,3.1414275559246536
1789063973579035000,3.758034912109375,0.9557201776444911,-0.6075643270999193,2.6648817645713687
1789063973589072000,3.76807177734375,0.1689624819546938,-0.6101911684721708,2.5351056301012633
1789063973599108600,3.778108642578125,-0.14264789100289343,-0.4099900831669569,2.4063931793399154
1789063973609145600,3.7881455078125,-0.9150281017720698,-0.221890939065814,2.068468215430528
1789063973619182600,3.7981826171875,-0.16779577626287936,-0.4136842615097761,1.864518298985809
1789063973629219800,3.8082197265625,1.4351216506898403,-0.9753156894743442,1.4669120427042246
1789063973639257000,3.818257080078125,0.1305716687619686,-0.43559331097900866,0.8808598747104406
1789063973649294000,3.828294189453125,0.12921557797789573,-0.4316279144793749,0.930431861000508
1789063973659331000,3.8383310546875,-1.5977344713568686,0.029014497560262677,0.6884357070170343
1789063973669368300,3.848368408203125,-0.32874621667563914,-0.09696107558310031,0.838573807644844
1789063973679405300,3.8584052734375,0.6969687036931514,-0.5840951887071132,1.0842191317856311
1789063973689443000,3.868443115234375,0.2831879960715771,-0.3347597778767347,1.2782726542465388
1789063973699480000,3.87847998046875,-0.12527005522251128,-0.1685264286249876,0.8648752468541264
1789063973709517300,3.888517333984375,-0.011433248162269592,0.014104513198137282,0.4995108526814729
1789063973719554300,3.89855419921875,0.6483434967339039,-0.45848494174480436,0.1946861943412572
1789063973729591000,3.908591064453125,-0.140610247695446,0.06455109036564827,-0.09040383595936
1789063973739628000,3.9186279296875,-0.018353987336158752,-0.004849778118729591,0.03211677442453802
1789063973749665300,3.928665283203125,-0.13981705149114132,-0.06124328099191188,0.12431772293373941
1789063973759702300,3.938702392578125,1.400591604578495,-0.3042266924470663,0.07455379426814615
1789063973769739300,3.9487392578125,1.031629697370529,-0.10104571454823016,-0.05817030328735709
1789063973779776000,3.95877587890625,0.2986696428418159,0.42052316761910913,0.32677374755889177
1789063973789813000,3.96881298828125,-0.05220832614302635,0.537115995389223,0.2990701864667237
1789063973799850200,3.978850341796875,0.8011451174825429,0.543099161452055,0.6369180665519089
1789063973809888000,3.988887939453125,0.8044687089473008,0.2173860288619995,0.8514462948299943
1789063973819925000,3.998925048828125,0.6577846942961215,0.506934792137146,0.6791170398559421
1789063973829962200,4.008962158203125,0.9206973795801401,0.01660217523276806,0.8295283314019442
1789063973839999200,4.018999267578125,0.873486715593934,-0.04035772935152054,0.5784788101300596
1789063973850036200,4.0290361328125,-0.17646540493071078,0.08062778041958808,0.8815048215504735
1789063973860073200,4.0390732421875,-0.11530687961280345,-0.1475292333036661,1.1553099991835654
1789063973870110000,4.04910986328125,0.9599620529979467,-0.6934761854022741,1.3220230947762728
1789063973880147200,4.059147216796875,-0.911784589806199,0.001522095000743866,1.3580528779260814
1789063973890184200,4.06918408203125,0.14608254162669182,-0.4375906222760677,1.4780042223438619
1789063973900221200,4.07922119140625,0.16834405779540537,-0.6160889943391085,1.0774455459974706
1789063973910258200,4.089258056640625,-0.7710562686890363,0.05000117148756981,0.8435091451551765
1789063973920295200,4.099295166015625,-0.5271428829073905,-0.5130208340525627,0.5348949583388865
1789063973930332200,4.109332275390625,0.5189455479264259,-0.560816604450345,-0.10632562771253287
1789063973940370200,4.1193701171875,0.5488017570078373,-0.6621177550643682,-0.19086415183506905
1789063973950407200,4.1294072265625,0.5460591803014279,-0.6572288139790297,-0.18149872292280195
1789063973960444200,4.139444091796875,-0.4788648819506168,-0.20535423028469085,-0.12469254759550094
1789063973970481200,4.149481201171875,-0.13951193106472493,-0.32691549411714077,-0.2701860372878611
1789063973980518100,4.15951806640625,0.42787645299136634,-0.06603285335600376,-0.8126599064484238
1789063973990555100,4.16955517578125,0.6020470249831676,0.052876434662938114,-1.2113495740525424
1789063974000592100,4.179592041015625,1.2077800450026988,-0.08221709543764591,-1.284470485973358
1789063974010629000,4.189629150390625,1.0382792183876037,-0.02806464948952198,-1.4948217938929795
1789063974020666000,4.199666015625,0.9399316568821668,0.26028058321475983,-1.6065629438482223
1789063974030703000,4.209703125,1.0207464843064546,-0.0968657985150814,-1.6525786989614366
1789063974040740400,4.219740234375,0.04857610712051391,0.18628478815555571,-1.4860815842069686
1789063974050777000,4.229777099609375,-1.041967551511526,0.388346406635642,-1.3994646463751792
1789063974060815000,4.239815185546875,-0.48263212552964685,-0.08713175548613071,-1.2308733358204365
1789063974070852000,4.24985205078125,-0.22747604572176933,-0.398460388892889,-1.0196173341460526
1789063974080889300,4.259889404296875,-0.3258212691396475,-0.29836861406862736,-0.8774015509501099
1789063974090926000,4.269926025390625,0.10871171913146972,-0.3583586801290512,-1.049514459759742
1789063974100963000,4.279963134765625,0.692417031738162,-0.5154910235583782,-1.3563725236237048
1789063974111000000,4.29,-0.23815759873390197,0.2909247278034687,-1.7206243534445762
1789063974121037300,4.300037353515625,-0.24271160877645015,0.3339852863729,-1.861792527283728
1789063974131074300,4.31007421875,0.4674561837077141,0.4108487458229065,-1.7276155275061726
1789063974141111000,4.320111083984375,-0.2420686346977949,0.5875964748263359,-1.578524451713264
1789063974151148000,4.33014794921875,1.0617840126156806,0.6468816074877977,-1.9970853793486951
1789063974161185300,4.340185302734375,0.4137023816883564,0.8524298990398644,-2.3094340034529566
1789063974171222300,4.35022216796875,0.3284861044347286,0.7857651775211095,-2.821652581211924
1789063974181260000,4.360260009765625,0.5211480264067649,0.5587444743514061,-2.954270661109686
1789063974191297000,4.370297119140625,0.6866974850475788,0.08486322603225707,-2.9223911295071243
1789063974201334300,4.380334228515625,0.03174947548210621,-0.10462357303500175,-2.4619725893512365
1789063974211371300,4.390371337890625,-0.8497107032090425,-0.2624900759577751,-1.8596172290712594
1789063974221408300,4.400408203125,-1.2316969271630047,-0.6272814194828271,-1.487226516458392
1789063974231445000,4.410445068359375,-1.1024152982115745,-0.6087941611558199,-1.3002981697022915
1789063974241482200,4.420482177734375,-0.5962970831543207,-1.1708020212173462,-0.6104591717585921
1789063974251519200,4.430519287109375,-0.7858674688518047,-0.8798644339323043,-0.1388130620803684
1789063974261556200,4.44055615234375,-0.09137246179580688,-1.0861848789006472,0.32479908648505806
1789063974271593200,4.45059326171875,-1.2309025619149208,-0.37683833967149255,0.21567089550718663
1789063974281630000,4.4606298828125,-0.9849141234248876,-0.26010055047273634,0.9076865799028426
1789063974291667200,4.470667236328125,-1.104294536086917,0.02627425894141197,1.2171714120738208
1789063974301705200,4.480705322265625,0.422545028835535,0.08655015620589256,1.5309258113227784
1789063974311742000,4.490741943359375,-0.17384733138680458,0.04028466411530971,1.5223871155582367
1789063974321779200,4.500779296875,0.2032388455659151,0.5228869790285825,1.127177983546257
1789063974331816200,4.510816162109375,-0.11605682119727134,0.3299626067280769,1.2259323722869158
1789063974341853200,4.520853271484375,0.17972995968461036,0.28295710992515083,1.4855410475894808
1789063974351890200,4.53089013671875,0.2244879698216915,-0.022301848179101944,1.8065587158396839
1789063974361927200,4.54092724609375,0.07123100652098656,0.33366496837735177,1.6174194150358439
1789063974371964200,4.550964111328125,0.3872586113989353,0.16652911732792852,1.9343029060907662
1789063974382001200,4.561001220703125,0.7806243075013161,-0.031764088529348374,2.0915702740766107
1789063974392038100,4.5710380859375,0.1165209315776825,0.32670272814929485,1.99301973734498
1789063974402075100,4.5810751953125,-2.0492086575567723,1.1054665024757384,1.5949368034623563
1789063974412112100,4.591112060546875,-0.9708370827555656,0.7195610592514277,1.2964810956321655
1789063974422150100,4.601150146484375,0.9251578661203383,-0.2173679086834192,0.9960201854594051
1789063974432187100,4.611187255859375,1.0897773504346608,-0.17535539786219595,1.0145195726156233
1789063974442224400,4.621224365234375,-0.22943302500844,0.20925182224512098,0.9709753221824765
1789063974452261000,4.63126123046875,-0.7830752077847719,0.35266192979216576,0.9799348006423563
1789063974462298000,4.641298095703125,-1.4695798006087541,0.7325941438257694,0.5396893164759502
1789063974472335000,4.651335205078125,1.1039350551247595,0.30730478471815587,0.30519199381526557
1789063974482372000,4.6613720703125,0.871381267747283,0.02560556589961052,-0.13058956974484026
1789063974492409300,4.671409423828125,0.25776246291399,0.8712351372748612,-0.48021180304754524
1789063974502446000,4.681446044921875,-1.1542360863417387,0.7068272498846053,-0.8679054083302616
1789063974512483000,4.691483154296875,-0.3305944748908281,0.7357792036026716,-1.4370539339266717
1789063974522520000,4.70152001953125,0.467922632175684,0.0471779307603836,-1.70910985673964
1789063974532557300,4.711557373046875,1.4066197788268326,-0.24861060368716714,-1.5923115695253014
1789063974542595000,4.721594970703125,-0.3171095548957586,0.04800853636562824,-1.3698609507501125
1789063974552632000,4.731632080078125,-1.1974877835690974,0.3859568811506033,-1.0025392850298434
1789063974562669000,4.7416689453125,-1.296684655380249,0.027626842594146727,-1.2505841445930301
1789063974572706300,4.751706298828125,-0.44016018050312994,-0.07611351786553859,-1.5783951262451708
1789063974582743000,4.761742919921875,-0.695587478467822,-0.26037118410766125,-1.813894319424778
1789063974592780000,4.771780029296875,0.037647301349043844,-0.5401473259091377,-1.9151782266430555
1789063974602817000,4.781817138671875,-0.7332908939182758,0.024457564908266068,-1.8687886697813867
1789063974612854300,4.791854248046875,0.7126070023298263,-0.5063602071195841,-1.409988232346624
1789063974622891300,4.801891357421875,0.5530453859269618,-0.37553251776993274,-1.3887792939707635
1789063974632928300,4.81192822265625,-0.07783084317743778,0.35865152559578417,-1.2927397171467543
1789063974642964700,4.82196484375,-1.6420353853762149,0.7573813790798187,-0.985224796809256
1789063974653002000,4.832001953125,-0.05273731845319271,0.5933206976920365,-0.6099882297785952
1789063974663040000,4.8420400390625,1.2664449999392031,-0.2743155383080244,-0.32131504376158115
1789063974673077000,4.852076904296875,0.34897535023391246,0.3126134125202894,-0.36930418130699544
1789063974683114000,4.862114013671875,-0.8350520632594823,0.5667278743207455,-0.6003842063374817
1789063974693151000,4.87215087890625,0.3803203365683555,-0.1517301921248436,-0.42057018509861077
1789063974703188000,4.88218798828125,0.27956103774607177,-0.39656712249219417,-0.3276463291423395
1789063974713225000,4.892224853515625,0.6851292128175497,-0.17084581148326397,0.12208793632136657
1789063974723262000,4.902261962890625,0.5840741459190845,-0.922907456845045,0.45465033201798793
1789063974733299000,4.912298828125,-0.3805611595869064,-0.0498141244828701,0.15220896121826955
1789063974743336000,4.9223359375,-0.940524362078309,-0.17656009747684,-0.1425456727374345
1789063974753373000,4.932373046875,-0.1368506029009819,-0.28757132572233673,-0.3597945946836844
1789063974763410000,4.942409912109375,1.2133844408810137,-0.8171358828186989,-0.5417945816595107
1789063974773448000,4.952447998046875,0.9544277997463941,-0.5479296503484249,-0.3217394066534936
1789063974783485000,4.96248486328125,0.04349602737724781,-0.24270342546999454,-0.4330816934842616
1789063974793522000,4.97252197265625,0.06867196968793869,0.0664537091165781,-0.572279809359461
1789063974803559000,4.982558837890625,0.2921919712603092,-0.1430202314466238,-0.665822527866438
1789063974813596000,4.992595947265625,0.5228408017992973,0.35192075603604317,-0.7781713613912463
1789063974823633000,5.0026328125,0.6698983259379864,0.2929787377238273,-0.5430318683695048
1789063974833670000,5.012669921875,0.47822833761274813,0.6273112300992012,-0.2524395143255591
1789063974843707000,5.022706787109375,1.2116904964447022,0.5070008431106805,-0.0676918726094067
1789063974853744000,5.032744140625,0.7824369098812342,0.5897878473907708,-0.22038904660288244
1789063974863780900,5.04278076171875,0.16397651023566723,1.0184838000714778,-0.5577561209011822
1789063974873817900,5.05281787109375,0.25435645386278627,0.6829407628625631,-0.4843842298939824
1789063974883854800,5.062854736328125,1.6973282335311173,0.12475450691580772,-0.12506145397312937
1789063974893893000,5.07289306640625,1.1516963387310504,-0.24945699138343333,0.5431609746418893
1789063974903929900,5.082929931640625,-1.1727040554463863,0.18789046978652477,0.9302729441117494
1789063974913966800,5.092966796875,-1.801004881104827,0.047288405397534365,0.9817528829149901
1789063974924003800,5.10300390625,-1.497023687851429,-0.7552765157550573,0.8732301104843616
1789063974934041000,5.113041015625,-0.3595575345247984,-1.3681132302999495,0.6365064900763332
1789063974944078000,5.123078125,-0.8809615815192461,-1.4788409654289483,0.879118145609647
1789063974954114800,5.13311474609375,-1.9416531227231024,-1.181380698376894,1.0506691827528178
1789063974964151800,5.14315185546875,-1.7114286550760267,-1.317569037976861,0.8854108160130679
1789063974974189000,5.15318896484375,-0.8092997823655604,-1.125057338130474,0.46867461958676576
1789063974984226000,5.16322607421875,-0.5511053577750921,-0.5263526093125342,-0.05797686307448893
1789063974994263000,5.173262939453125,0.6628519145578146,-0.3112082218974829,0.18717048494890332
1789063975004300800,5.18330078125,0.43992695626914496,-0.11419102732539177,0.9635726447105407
1789063975014338000,5.193338134765625,0.3318219708591699,0.894520151272416,1.0785521920651198
1789063975024375000,5.203375,1.517322379514575,0.6959089655071496,1.170737504613772
1789063975034412000,5.213412109375,1.7447902419298886,0.7262205171406269,1.0379085584443062
1789063975044448800,5.22344873046875,1.0153004938602448,1.3877607645779848,0.5836250869773328
1789063975054486000,5.233486083984375,1.5414029278039931,1.0877432142585515,0.624866467295587
1789063975064523000,5.24352294921875,0.7465805836021899,0.9617506899803876,0.9260636558536439
1789063975074560000,5.25356005859375,1.0555857424974442,0.7098848838895558,1.0105004731673746
1789063975084597000,5.263596923828125,-0.43849020146429535,0.6150847857326269,1.310980014975369
1789063975094634000,5.273634033203125,-1.2269190452367067,0.6461924561798572,1.228932723146677
1789063975104671000,5.2836708984375,-0.4037678476512432,0.10727788693606853,1.0814604076620191
1789063975114709000,5.293708984375,-0.04014554790556431,-0.5035527484834194,1.0963588477168231
1789063975124745700,5.303745849609375,-1.1738882967948914,-0.15203589707314968,1.1430365008048713
1789063975134783000,5.313782958984375,-1.1794693117976187,-0.23078619318306445,1.0307045453496277
1789063975144820000,5.323820068359375,-0.8991998335212469,-0.2559557057529688,1.0009233012005687
1789063975154857000,5.33385693359375,-0.37103286826312537,-0.3378594974577427,0.9967531028438359
1789063975164894000,5.34389404296875,-0.45348727958798407,0.03899403978288173,1.012143345003575
1789063975174931000,5.353930908203125,-0.5402005174010992,0.13800444911122323,1.1868519693948327
1789063975184968000,5.363968017578125,-0.662573097616434,0.5394669424295425,1.566129372781515
1789063975195005000,5.3740048828125,0.4468599704027176,0.08939327067732811,1.6955014564953743
1789063975205042000,5.3840419921875,-0.4222819939851761,0.6062251874506474,1.8298742711059748
1789063975215079000,5.394078857421875,0.7630453961908816,0.1974357122451067,1.6358115424253046
1789063975225117000,5.404116943359375,0.8149848422646522,0.03788637080192566,1.3218521221235393
1789063975235154000,5.41415380859375,0.333026670473814,0.13362813372313975,1.035508146239072
1789063975245191000,5.42419091796875,0.5096224237859249,-0.21777532044053077,0.8140707230944186
1789063975255228200,5.434228271484375,-0.926837197509408,-0.20529285548627374,0.8230371427517383
1789063975265265000,5.444264892578125,-2.045210527831316,0.16603987250626087,0.5277691250469535
1789063975275302000,5.454302001953125,-0.6186158824682235,-0.6204547883331776,0.22179149727933106
1789063975285339000,5.4643388671875,-0.61685062636137,-0.6223837105691432,0.2423368754462339
1789063975295376100,5.474376220703125,-0.03060264353454113,-0.7497223887592553,-0.13236469879173673
1789063975305413000,5.4844130859375,-0.8627022867292166,-0.7432230898678303,0.025069520510861185
1789063975315449900,5.494449951171875,-1.000998996785283,0.044003392377495766,-0.2745393919254653
1789063975325486800,5.50448681640625,0.7012807216733694,-0.6411749202787875,-0.3865942292060703
1789063975335525000,5.514525146484375,0.7957996648013591,-0.29225977579951284,-0.5044131281724199
1789063975345561900,5.524561767578125,-0.03978723598718643,0.5312240147411823,-0.7064446803078055
1789063975355598800,5.534598876953125,-0.05154898545145988,0.8570242410928011,-0.9883192556932568
1789063975365635800,5.5446357421875,1.0511147345632315,0.5800789388030767,-1.3903129332788289
1789063975375673000,5.554673095703125,0.7757669305980205,0.9329548036068678,-1.6561213400043546
1789063975385710000,5.5647099609375,0.2766542103886604,1.0217635523945092,-1.5796036252520977
1789063975395747000,5.5747470703125,-0.10792144553661345,1.0342080234259365,-1.5735861185282467
1789063975405783800,5.58478369140625,0.542259788018465,0.7003636068284511,-1.6293442461073397
1789063975415820800,5.59482080078125,0.7311965519875288,0.4115145162552595,-1.8851099822461603
1789063975425858000,5.604858154296875,0.48591304689645765,0.3167617643713951,-2.1144338477917013
1789063975435895000,5.61489501953125,-0.4668950426936149,0.5484270784765481,-1.9938995889194309
1789063975445932800,5.624932861328125,-1.3025573468059302,0.2137082171320915,-1.4363153905190527
1789063975455970000,5.634969970703125,-1.2469827591001987,0.25307985805571076,-1.481684810552746
1789063975466007000,5.645007080078125,1.5262468597263097,-0.6144172617346048,-1.3464791983798146
1789063975476044000,5.6550439453125,1.2536211742013692,-1.2175760473519563,-0.7356842918608337
1789063975486080800,5.665080810546875,-1.816390666285157,0.15839666427671908,-0.6396697033476084
1789063975496117800,5.67511767578125,-2.466684712564945,0.48051323367953297,-0.6639888826984912
1789063975506155000,5.685155029296875,0.7205576690733433,-0.7692822447538376,-0.7453894741214812
1789063975516192000,5.69519189453125,1.261579439729452,-0.8408943595468997,-0.8423165013045072
1789063975526229000,5.70522900390625,-0.22071195841431615,0.17319851208925247,-0.588863900946267
1789063975536265700,5.715265625,-0.22243045276999474,0.1752273875683546,-0.6041092912752181
1789063975546303000,5.725302978515625,0.20656068346500395,-0.06260229438543319,-0.5309020162452012
1789063975556341000,5.735341064453125,1.0209206718295811,-0.40643619007766246,-0.6833335615724325
1789063975566378000,5.7453779296875,0.6262421395629644,-0.3150824329823255,-0.8382506401050835
1789063975576415000,5.7554150390625,0.5166390245497227,-0.26887071690559383,-0.8617793997306377
1789063975586452000,5.765451904296875,0.17080314138531683,-0.16499825449883937,-0.8376130728539078
1789063975596489000,5.775489013671875,0.3035860564559698,-0.10339783063232898,-0.7267064009614288
1789063975606526000,5.78552587890625,0.7097685640335083,-0.5654243905067443,-0.5035919114500284
1789063975616563000,5.79556298828125,-1.0680594396233558,0.1773836888194084,-0.6876283361569047
1789063975626600000,5.805599853515625,-0.49328971314430237,0.18391279832720756,-0.6165151838619262
1789063975636637000,5.815636962890625,0.4366974728286266,-0.7177747603565454,-0.3888653159432113
1789063975646674000,5.825673828125,0.4382914640218019,-0.7191945640265941,-0.40005540299937126
1789063975656711000,5.8357109375,-0.3759527890086174,-0.45701545371413227,-0.33105588185749946
1789063975666748700,5.845748779296875,-0.35754619470238685,-0.28659926581978795,-0.3908664996977895
1789063975676785700,5.85578564453125,0.07264145784080028,-0.7436065362274646,-0.4246662587732076
1789063975686823000,5.865822998046875,0.5524135177642107,-0.625172464504838,-0.21031342359464614
1789063975696860000,5.87585986328125,-0.17198270655870437,-0.24441373651921747,0.13908846322195603
1789063975706897000,5.88589697265625,0.11810147876739502,0.023901100069284437,0.4070839499292895
1789063975716933600,5.89593359375,1.9059534483104943,-0.35880467033088204,0.35443186207413674
1789063975726971000,5.905970947265625,1.1380939298361539,0.00021919570863246916,-0.043849462191108614
1789063975737007900,5.9160078125,-0.1727344017088413,1.1656734261572361,-0.6794622730970382
1789063975747044900,5.926044921875,0.7024538571059703,0.7051274602293968,-0.7391719878461211
1789063975757081900,5.936081787109375,1.7488292881876228,0.5216957234174013,-0.7185934563282876
1789063975767120000,5.946119873046875,1.5182400788813828,0.6247241362154483,-0.4674741212232038
1789063975777156900,5.956156982421875,-0.26330723755955693,1.0956745917797088,-0.48412883036080745
1789063975787193900,5.96619384765625,-0.25752163989543914,1.0894254682570694,-0.48772236134074626
1789063975797230800,5.97623095703125,1.2703402538120745,0.05083645326793194,-0.30770470728855576
1789063975807267800,5.986267822265625,0.6724047558009624,-0.06913958719968795,-0.26991635350100696
1789063975817304800,5.996304931640625,-1.578595471122861,0.4413642955958843,0.20918606353253125
1789063975827341800,6.006341796875,-1.8180542155832051,-0.2642126619666815,0.35860333907250314
1789063975837378800,6.01637890625,-1.6338240218698978,-0.6676414869219064,0.26963077802527696
1789063975847415800,6.026415771484375,-1.3360370070815086,-1.033793597406149,0.29247137272357937
1789063975857452800,6.036452880859375,-1.8149691090494393,-1.1560025114923715,0.28000907377451656
1789063975867490800,6.04649072265625,-1.2577695260524748,-1.2074416068285703,0.6440447766266763
1789063975877527800,6.05652783203125,-1.0226134472221136,-1.146599892374873,0.7514300694599747
1789063975887564800,6.066564697265625,0.2958867341250181,-0.8235042488068341,0.7252630702853202
1789063975897601800,6.076601806640625,0.6747668087571859,-0.4599351405531168,0.5310982694696634
1789063975907638800,6.086638671875,1.0480652838647364,0.18035306001901624,0.8056674902778118
1789063975917675800,6.09667578125,0.24361703318357467,1.0733616376847028,0.8573079534050077
1789063975927713000,6.106713134765625,1.106082588547468,1.1796259636640547,1.234165216972679
1789063975937749800,6.116749755859375,0.7511725875675678,1.2649509619891643,1.1930423484675585
1789063975947786800,6.126786865234375,0.5498474666684866,1.5004519087344408,1.1911553656771778
1789063975957823700,6.13682373046875,2.1483061606466767,0.43836511377990245,1.0989736333251
1789063975967861000,6.146861083984375,1.124744034397602,0.2529226216673851,0.894289338191226
1789063975977898800,6.156898681640625,-0.1862199062258005,0.20455986503660678,1.0236631754707544
1789063975987935700,6.166935791015625,-1.8224778772443533,0.10003682976663113,1.1077601663708687
1789063975997972700,6.17697265625,-0.614189298197627,-0.5383505056202411,1.2371490550890565
1789063976008010000,6.187010009765625,-0.7673416320800781,-1.0061521417647599,1.4631117736384271
1789063976018047000,6.197046875,-2.0030454567968845,-0.42945057044029233,1.5079897568933665
1789063976028083700,6.207083740234375,-1.860104720327258,-0.2796487160295248,1.3978763542704284
1789063976038120700,6.21712060546875,-1.8669629156589507,-0.2725152108877897,1.4197091236330568
1789063976048158000,6.227157958984375,-0.014082885888218879,-0.27162556857168674,1.430863993245363
1789063976058195000,6.23719482421875,0.9483072710394859,-0.04324585200846195,1.1068201821070163
1789063976068232000,6.24723193359375,0.5031780699521303,0.2989671644836664,0.991755586817488
1789063976078269700,6.257269775390625,0.326238033246994,0.8978764759629965,0.324025508296676
1789063976088307000,6.267306884765625,1.4311562541902065,0.9557499882608651,0.2766065170557238
1789063976098344000,6.277343994140625,2.071863556957245,0.5363146158784627,0.7922450410597026
1789063976108380700,6.287380615234375,2.1393045235455035,0.44813364360034463,1.075579752125591
1789063976118417700,6.297417724609375,0.027224691534042358,1.2802508224517106,1.4466820323631167
1789063976128455000,6.307454833984375,0.16354922473430633,0.33940263524651526,1.669034743721783
1789063976138492000,6.317491943359375,-0.7071428917050361,0.3149573452979326,1.5498840481624006
1789063976148529000,6.32752880859375,-0.6940817500799894,0.301136909738183,1.572463982630521
1789063976158565600,6.337565673828125,-1.164554651260376,-0.7642448351085186,1.2288447526022792
1789063976168602600,6.3476025390625,-0.8373866436868905,-1.1859463988572359,0.5257533282451331
1789063976178640000,6.357639892578125,-1.3535615578562021,-1.263285659125447,0.1493395523949526
1789063976188678000,6.367677978515625,-1.8826795402288437,-1.03586163585186,0.02153480932936072
1789063976198714600,6.377714599609375,-1.508823431238532,-0.9871581029593944,0.3129300041887909
1789063976208751900,6.387751953125,0.8287234447598457,-1.170748245203495,0.6312165669746697
1789063976218788900,6.397788818359375,1.2591536738872526,-0.8572451903671026,0.8887506279602646
1789063976228825900,6.407825927734375,0.46082945904433725,0.1538116745740175,1.1830735468346625
1789063976238862800,6.41786279296875,-0.44959202571511264,0.8685936828553676,1.052443060557544
1789063976248899800,6.42789990234375,0.9746721308737992,0.8460948507994412,0.4575379432182759
1789063976258936800,6.437936767578125,3.078873192334175,0.28374562995433805,-0.014779014926217495
1789063976268973800,6.447973876953125,3.009571692571044,0.2457815177410841,-0.1541147857064381
1789063976279010800,6.4580107421875,1.3557657899022102,0.8342460075736046,0.11259780331719665
1789063976289048800,6.468048828125,1.3618056545883417,0.8287485792011022,0.12962591234445572
1789063976299085800,6.4780859375,-0.012305354821681975,0.5238356580555439,0.3034187005324289
1789063976309122800,6.488122802734375,0.38740065021812914,0.009632920742034912,0.19139456891734152
1789063976319159800,6.498159912109375,0.5261328290820122,-0.5754921955347061,0.27495105973258616
1789063976329197000,6.508197021484375,-1.1365618979632854,-0.1163549273610115,0.07346972535848617
1789063976339233800,6.51823388671875,-1.4092688320308924,-0.5695078604280949,0.18870412425696848
1789063976349270800,6.528270751953125,-0.6417348922491073,-1.0787275486320256,0.07951959998197854
1789063976359307800,6.538307861328125,-0.4214309301137924,-1.2358604765832424,0.01294361619260162
1789063976369344800,6.5483447265625,-0.8381564590156078,-1.0863754330366848,-0.38547223943881687
1789063976379382000,6.558382080078125,-1.222927345252037,-0.8003139273554086,-0.9693588268965482
1789063976389419800,6.568419677734375,-0.825494545841217,-0.4804243863523006,-1.2359478626057505
1789063976399456800,6.578456787109375,0.44777065550684925,-0.6844301246374845,-1.0550506857726722
1789063976409494000,6.588493896484375,1.1353308948636054,-0.35377193686068054,-0.6385593309529125
1789063976419530800,6.59853076171875,1.5271008462071418,-0.17269757682979106,-0.22869729461241511
1789063976429567700,6.608567626953125,0.7704360909640788,0.46992637321352954,-0.15932894015815108
1789063976439604700,6.618604736328125,0.847044698870182,0.672547379142046,-0.28376835324279964
1789063976449641700,6.628641845703125,0.9849690684825181,0.5464128160446882,-0.5153389748018234
1789063976459679000,6.638678955078125,1.2905693873703479,0.6198679283559322,-0.7748373215977102
1789063976469715700,6.6487158203125,1.1667279036462306,0.3174152598440647,-0.570431551144272
1789063976479752700,6.658752685546875,0.25756314094960686,0.26069267114698885,-0.3276233135929331
1789063976489791000,6.668791015625,-1.060705569729209,0.6242600258350371,-0.5420447935609146
1789063976499828000,6.678827880859375,-1.456269652658701,0.21842004808485507,-0.5237990158395841
1789063976509864700,6.68886474609375,-1.4131085563242434,-0.26988193977475167,-0.42868853655923156
1789063976519901700,6.698901611328125,-1.3342542153179644,-0.5277829343765974,-0.07989478996992111
1789063976529939000,6.70893896484375,-2.3183692973196504,-0.5711603038102389,-0.022593159275874495
1789063976539976000,6.718975830078125,-0.5667126767516136,-1.1761971582591533,-0.13901315122973174
1789063976550013000,6.729012939453125,-0.4527987128019333,-1.3856979868292807,-0.22696060701292006
1789063976560049700,6.739049560546875,-0.9996890832304954,-0.5888263088822364,-0.1902487964157015
1789063976570086700,6.749086669921875,-0.2241091996371746,-0.568064091360569,0.2709801102750003
1789063976580124000,6.7591240234375,0.7582949867933988,-0.32747429704368114,0.13342676593214273
1789063976590162000,6.769161865234375,1.404763337305188,0.5704489406704902,-0.00429046373553574
1789063976600198700,6.77919873046875,0.9020598991274833,0.6341594885587691,-0.17455383568834512
1789063976610236000,6.78923583984375,0.7877519674241542,1.6730986321598291,-0.9704607237238436
1789063976620273000,6.79927294921875,0.7840437605559826,1.6764064415335653,-0.9826173907898366
1789063976630310000,6.809309814453125,0.3873509658575058,1.464028011700511,-0.9167826903544366
1789063976640347000,6.819346923828125,1.2731401136636733,1.1051029298603534,-0.5635111042313278
1789063976650384000,6.8293837890625,1.6250363197803497,0.2688894216060638,-0.21993933007400482
1789063976660420900,6.8394208984375,0.7140928569734096,0.3370072645425796,0.2900516712959856
1789063976670457900,6.849457763671875,-0.10267653062045573,-0.04517477424442768,0.7813543022762983
1789063976680495000,6.8594951171875,-0.8689245222449302,-0.17178396911621094,1.0698074523344636
1789063976690532900,6.869532958984375,-1.2616624418377875,-0.2086328135639429,1.2842276171281932
1789063976700569900,6.87956982421875,-1.2537070989191532,-0.6584709229946136,1.157392796806991
1789063976710607000,6.889607177734375,-2.5802725133001805,-0.12190905435681343,0.9489959839560091
1789063976720644000,6.89964404296875,-1.89098559628129,-0.6748346132963895,0.6752580994054674
1789063976730680800,6.909680908203125,-1.557841436907649,-0.5842530096173286,0.49300965409390624
1789063976740717800,6.9197177734375,-1.3225468263894318,-0.49086628538966176,0.580365975583531
1789063976750754800,6.9297548828125,0.12064473350942134,-0.9976520244449376,1.0941226130973547
1789063976760792000,6.9397919921875,0.30103871006071564,-0.7218401100993156,1.3594085303187369
1789063976770829000,6.9498291015625,-0.11348843201398849,-0.07500467984080314,1.7997946285322308
1789063976780865800,6.95986572265625,0.7636065372049808,-0.17754209425151346,2.1568787586808202
1789063976790904000,6.969904052734375,2.381110707914829,-0.19249241062402725,1.8106370711944997
1789063976800941000,6.979941162109375,1.4328998829871415,0.5001812262237072,1.423310070734471
1789063976810978000,6.98997802734375,-0.37488311395049095,1.2791022369384766,0.9301523134067654
1789063976821014800,7.000014892578125,-0.02455927171707153,1.126784600314498,0.8070485693726688
1789063976831051800,7.0100517578125,0.9088754243612289,0.27402503092885017,1.0263216540902853
1789063976841089000,7.020089111328125,1.206830781453848,0.1088087497651577,1.2405226231753825
1789063976851126000,7.0301259765625,0.431329223793745,-0.3177507754087448,1.5679245856352149
1789063976861163000,7.0401630859375,-1.4627251124083995,-0.24619360567331314,1.3660411002010107
1789063976871199700,7.05019970703125,-2.441701662477851,0.04355681765377521,1.1367802168890833
1789063976881237000,7.060237060546875,-0.5402332506269216,-1.2858727539867163,0.8308698091387748
1789063976891275000,7.07027490234375,-0.697081516417861,-1.0360773244291543,0.40802163263820107
1789063976901312000,7.08031201171875,0.4447667975157499,-0.7150625787883996,-0.07330123692378401
1789063976911349000,7.090348876953125,1.1661702697634697,-0.968521791550517,-0.3469263452822342
1789063976921386000,7.100385986328125,-1.300422088342905,0.5103390476226807,-0.6222693634744734
1789063976931423000,7.110423095703125,-0.8813263231784105,1.7472019792467355,-1.1194663862556218
1789063976941460000,7.1204599609375,3.709606213575601,0.4829337388247251,-1.0630569551609457
1789063976951497000,7.1304970703125,2.6986627458810806,1.0451625481605529,-0.8400852351211011
1789063976961534000,7.140533935546875,0.7984042943418026,2.442285015323758,-0.8125443172447383
1789063976971571000,7.150571044921875,0.9716133278250694,1.869524875101447,-0.9065602792866527
1789063976981608000,7.16060791015625,0.9961965649396181,1.1711533188730479,-0.9552372894983738
1789063976991646000,7.17064599609375,1.887074560317397,0.235703191319108,-0.8088574454255402
1789063977001683000,7.180682861328125,-0.4772188683092594,-0.4531804055958986,-0.4803225699456408
1789063977011720000,7.190719970703125,-2.9286159953713415,-0.002187280911207199,-0.0009615750411525368
1789063977021757000,7.2007568359375,-1.8838895005404948,-1.5401450366973877,0.4739905173799023
1789063977031794000,7.2107939453125,-1.08360538380146,-2.4111066177278757,0.3919033319322392
1789063977041831000,7.220830810546875,-0.9138263247668743,-2.4244202728092668,0.3122075716657564
1789063977051868000,7.230867919921875,-2.3113515275120733,-1.9145009119033813,0.028046090919524428
1789063977061905000,7.24090478515625,-3.2888311170220375,-1.0438128871172665,-0.118511813133955
1789063977071942000,7.25094189453125,-1.0723673659503459,-0.9034311874806881,-0.1762035756567493
1789063977081979100,7.260979248046875,1.7892974921762943,-1.0683435172617435,-0.07462667684126645
1789063977092017000,7.271016845703125,1.2779402074217796,0.10948737967908381,-0.021796419407613576
1789063977102054000,7.281053955078125,1.136573588401079,1.2363789474993943,0.026882746228575706
1789063977112091000,7.2910908203125,1.7768103510469198,1.3144827623993158,-0.2829419488886371
1789063977122128100,7.301128173828125,2.9298019902855157,1.2719856829315423,-0.5956065070742741
1789063977132164900,7.311164794921875,3.4185236648619175,1.1205518434047699,-0.6508157320663333
1789063977142201900,7.321201904296875,2.710644275575876,0.7978098355799913,-0.816064673390612
1789063977152238800,7.33123876953125,1.0034387911528349,0.7281500238984823,-0.7460172506310045
1789063977162276000,7.341276123046875,0.3484381746172905,0.143486095392704,-0.8301488013878464
1789063977172313000,7.35131298828125,-1.2472984009206294,-0.01135842936038971,-0.32464915662035343
1789063977182349800,7.361349853515625,-1.4546505270242691,-0.6340320627868176,0.630331162442267
1789063977192388000,7.37138818359375,-0.8041279326856136,-1.318622346422076,1.1003913911685348
1789063977202425000,7.381425048828125,-1.3281681734025477,-1.2870149097591639,1.522074980869144
1789063977212461800,7.3914619140625,-1.1694558673053979,-1.4602823954313993,1.6700545882888138
1789063977222498800,7.401498779296875,-1.7493109342247246,-1.0848217738538979,1.3412035960644482
1789063977232535800,7.411535888671875,-1.3908458711117506,-0.5672837546378374,0.7377521111108363
1789063977242573000,7.421572998046875,0.383171049824357,-0.5321311927139759,0.23899777588509022
1789063977252610000,7.431610107421875,0.17362988924384115,0.02929331450164318,0.48010596805289385
1789063977262647000,7.44164697265625,0.5873772791177034,0.5377069470196962,0.9545289220333099
1789063977272683800,7.451683837890625,1.37271926279068,0.6808879219859838,1.4488760352760552
1789063977282721000,7.461720947265625,2.053264654949307,0.5250391886264085,1.7300927312746643
1789063977292759000,7.471759033203125,1.2539537671566008,0.8259954811006784,1.3119973753243683
1789063977302795800,7.481795654296875,0.2821013698786497,0.9008896863043308,0.6089748149523511
1789063977312832800,7.491832763671875,0.44958793406188485,0.4973649997591972,-0.2238852181555703
1789063977322870000,7.5018701171875,0.5075462020337581,0.05449380673170089,-0.3821176317812875
1789063977332907000,7.511906982421875,-0.6716115595966577,-0.26321196049153806,-0.1890675507418811
1789063977342944000,7.521944091796875,-1.8908739526003597,0.11829904716610908,-0.10486728213038295
1789063977352980700,7.531980712890625,-1.1249439408838748,-0.5739473041802644,0.04874675097968429
1789063977363018000,7.54201806640625,-0.7608417486667632,-0.7523258492559194,-0.0075546531632542605
1789063977373055000,7.552054931640625,0.45191725379228587,-0.8638210616260766,-0.29592841784227636
1789063977383093000,7.562093017578125,-0.8886088814020157,-0.5320996285319328,-0.4474313040172681
1789063977393129700,7.572129638671875,-2.8942496153891084,0.7000140627384185,-0.6947917980454862
1789063977403167000,7.5821669921875,-0.15463292782902716,-0.08298340363502502,-0.7678923978306352
1789063977413204000,7.592203857421875,1.581088456982374,-0.5093897840738296,-0.6247119343210011
1789063977423241000,7.602240966796875,0.3164209881097078,0.7129121227562427,-0.7592724535234272
1789063977433278000,7.61227783203125,0.9904092137098311,0.8299941953480243,-0.7158200460921973
1789063977443315000,7.62231494140625,1.6777566870987415,0.40759938863813877,-0.9421093662474304
1789063977453352000,7.63235205078125,0.174447050845623,1.587853128811717,-1.2388926838859915
1789063977463389000,7.642388916015625,1.0823925008803605,0.9133312347263097,-0.8858210042491554
1789063977473426000,7.652426025390625,1.921743138116598,0.20875264055132864,-0.6553226880967616
1789063977483464000,7.6624638671875,0.4005599915206432,0.8890572096914052,-0.26369369786018504
1789063977493501000,7.6725009765625,0.6880471460908651,-0.059545244902372355,0.0683881660441868
1789063977503538000,7.682537841796875,0.07302724228799343,0.29960663143098354,-0.7348185418769717
1789063977513575000,7.692574951171875,0.6156161161303519,-0.04543722457289696,-1.180660859669745
1789063977523612000,7.70261181640625,0.1728086359888315,-0.44518706875443453,-1.0393238320697098
1789063977533649000,7.71264892578125,-1.1225129143446684,-0.05608545983731746,-0.6933110579684376
1789063977543686000,7.722685791015625,-2.2815806586265563,-0.10770692600309849,0.16974146697055548
1789063977553723000,7.732722900390625,-2.452610009983182,-0.3990793975740671,0.42321226057261224
1789063977563760000,7.742760009765625,-1.1854945634365082,-0.7245756725430488,0.5815728306226432
1789063977573796900,7.752796875,-0.5603390500664711,-1.1209960800409315,0.734736854942888
1789063977583835000,7.7628349609375,-0.360828285112977,-0.8019289613366126,0.7064113625600934
1789063977593872000,7.772871826171875,-0.6106997025161981,-0.5682382788836956,0.5202039504896849
1789063977603909000,7.7829091796875,-0.5010393043577671,-0.17726853800714015,0.06141834529787302
1789063977613945900,7.79294580078125,0.7722153755962848,-0.11990180618762969,-0.19431907806191592
1789063977623982800,7.80298291015625,0.7640753237605095,-0.11110592079162597,-0.20399046765081583
1789063977634019800,7.813019775390625,1.1514654525846242,0.43744390728175636,0.21113272235458716
1789063977644057600,7.8230576171875,0.6331400823831558,0.43948914937376976,0.43459787020087237
1789063977654094300,7.83309423828125,-0.5564297676682471,0.9722831899106502,0.1702769255541265
1789063977664131600,7.843131591796875,0.745066087386012,0.4397773186653852,0.08527832790547982
1789063977674168600,7.85316845703125,1.5595061552494764,-0.4579150329023599,0.1363513755414169
1789063977684206600,7.86320654296875,1.3560422687560318,-0.44928281363546846,0.02745437210407108
1789063977694243300,7.873243408203125,-0.38505964004993437,-0.2220914300739765,0.09726904555372894
1789063977704280600,7.883280517578125,-0.7905541653633117,-0.405924148902297,-0.18107596746608615
1789063977714317600,7.893317626953125,-0.26265374208688735,-0.5152735814154148,-0.29029826646819706
1789063977724354600,7.9033544921875,0.3926858971446752,-0.7148071427226066,-0.36551173022147265
1789063977734391600,7.9133916015625,-0.323498379150033,-0.48665363613069057,-0.04504392353952862
1789063977744428500,7.923428466796875,-1.5929624346494673,0.5288222142964601,-0.04481699204901233
1789063977754465500,7.933465576171875,0.4399737180203199,-0.21484686577320097,0.0464020601502154
1789063977764502500,7.94350244140625,0.47637189609110353,0.2048462807625532,-0.20784053067509084
1789063977774539500,7.95353955078125,1.42566642460227,0.5070563726902008,-0.5320373769506812
1789063977784577500,7.96357763671875,2.43733879109323,-0.1337654963672161,-0.29447200848888605
1789063977794614500,7.973614501953125,0.6454419300734996,0.4250017743378877,-0.21626345457285642
1789063977804651500,7.983651611328125,-1.8790479057282208,1.4388918168783187,0.10766672185687348
1789063977814688500,7.9936884765625,-0.4764771100312471,0.29517887811660765,0.4551111544627696
1789063977824725500,8.0037255859375,1.9402116917431353,-0.7436620658069849,0.3845948355497792
1789063977834762500,8.013762451171875,1.6483645883977411,-0.8219190254420041,0.49638588906135406
1789063977844799500,8.023799560546875,-0.15403203932642937,-0.9003747225195169,0.5738444648602977
1789063977854836500,8.03383642578125,-1.3950830702900885,-0.5800877066314221,0.5955383737415075
1789063977864873500,8.04387353515625,-0.789173524659872,-1.1333405978292226,0.5856296682653949
1789063977874910700,8.05391064453125,-0.30221184549331664,-1.6267098059505223,0.35611853651944547
1789063977884948500,8.063948486328124,-1.415121649712324,-0.9354758465170859,-0.030885364899481644
1789063977894985500,8.0739853515625,-1.5270762962877749,-0.7296715343773365,-0.4436489359343424
1789063977905022700,8.084022705078125,-0.6029460196495056,-0.5892962644815445,-0.7533104033138602
1789063977915059500,8.0940595703125,0.8088958777397871,-0.6532791995704174,-0.6177843270149082
1789063977925096400,8.104096435546875,0.6177051973640918,-0.07325228321552277,-0.07109470332283527
1789063977935133400,8.114133544921875,0.30332711325883865,0.7419727975457906,0.25687987139318136
1789063977945170700,8.124170654296876,0.4806979425966739,0.7898048083007335,0.4446040447020903
1789063977955207700,8.134207763671874,0.47337797497212886,0.7980050658911466,0.4413319276962429
1789063977965244400,8.144244384765624,2.0858909132659433,1.0433248113393783,0.15782348576495422
1789063977975281400,8.154281494140625,1.9436521875858306,0.8961416149944067,0.5354540169937536
1789063977985319700,8.164319580078125,1.0846458327651023,1.2501724950522184,0.46732097648810594
1789063977995356700,8.174356689453125,0.1168605387955904,1.1489169371455907,0.4952181969888508
1789063978005393400,8.184393310546875,-1.0825976680636404,1.0086188241392373,0.6335637146227061
1789063978015430400,8.194430419921876,-0.23485037388205526,0.22397943577766416,0.7194173399318009
1789063978025467600,8.204467529296876,0.14355389993190765,-0.532007858595252,1.0613225325837732
1789063978035504600,8.214504638671874,0.15526888764500618,-0.5449468351453542,1.0602449664801359
1789063978045541600,8.224541748046875,-1.348656834679842,-0.5015969382405281,1.0610752067591995
1789063978055578400,8.234578369140625,-1.246045770511031,-0.9755804778903722,0.8689822437815368
1789063978065615400,8.244615478515625,-0.6830541601091623,-0.9116904817819594,0.34715262831877913
1789063978075653600,8.254653564453125,-0.8328279574692249,-0.4357505473673343,-0.04121035499232821
1789063978085690600,8.264690673828126,-1.0071469980210066,-0.3123234896630049,0.0280659304144443
1789063978095727400,8.274727294921876,-0.19273557173013686,-0.15626257485747336,0.545312015195936
1789063978105764600,8.2847646484375,0.6495768379211425,-0.2789239088863134,0.547444497179985
1789063978115801600,8.294801513671874,0.5860679500848055,0.3684323303759098,0.2201059188125655
1789063978125838600,8.304838623046875,-0.1277577803850174,0.575227407118678,-0.04626440981177147
1789063978135875600,8.31487548828125,0.1820586948931217,0.7182920622289181,-0.32572248494029044
1789063978145912300,8.324912353515625,1.1062684665083884,0.5185837288767099,0.04704686999293044
1789063978155949600,8.334949462890625,1.4814181224405765,0.036062662506103516,0.5960703617263585
1789063978165986600,8.344986572265626,0.37668110328316684,0.334720030388236,0.7880660018093884
1789063978176024300,8.3550244140625,-0.7677835306286811,0.47110184673368927,0.5215397291380912
1789063978186061600,8.3650615234375,-0.9144985249400138,-0.12246259658634662,0.15145090025942773
1789063978196098600,8.3750986328125,-1.297999245110154,0.04484861102998256,-0.2917660191995092
1789063978206135600,8.385135498046875,-0.26565467746853827,-0.7886503775686026,-0.341554406452924
1789063978216172500,8.395172607421875,-1.051167926055193,-1.0465355900794266,-0.15518747470555827
1789063978226209500,8.40520947265625,-2.0788895100712774,-0.23615268865227698,-0.18086650770017876
1789063978236246500,8.41524658203125,-0.8394751403987407,-0.5244353775143623,-0.01596398806872894
1789063978246283500,8.425283447265626,1.7035177358210085,-1.063021445456147,0.3182287316514179
1789063978256320500,8.435320556640624,0.5648398686170578,-0.06589256810247898,0.13973832369912415
1789063978266357500,8.445357421875,-0.8656605520129204,1.46057933255136,-0.3571767768681049
1789063978276395500,8.4553955078125,0.056417468270659445,1.3431424551725386,-0.6699891460265964
1789063978286432500,8.4654326171875,0.04719371285140514,1.3535136270612478,-0.6723794752292335
1789063978296469500,8.475469482421875,3.3449463874757286,0.915501564502716,-1.3192498306706546
1789063978306506800,8.4855068359375,1.9657213960528372,1.3115285887688397,-1.5089803753659128
1789063978316543500,8.49554345703125,-0.22968436942100523,1.6186410657852888,-1.6487456966698169
1789063978326580500,8.50558056640625,-0.23653262788057325,1.266920800757408,-2.0530391756303605
1789063978336617500,8.515617431640624,1.8905600643455982,0.032335166415572165,-2.086163154336065
1789063978346654500,8.525654541015625,1.5176397749006747,-0.6885679550945758,-1.9680489622175692
1789063978356691700,8.535691650390625,-2.119431948339939,0.46717327511310575,-1.9426751592472193
1789063978366728400,8.545728515625,-3.322422420978546,0.4279939418911934,-1.9209541796959935
1789063978376766500,8.555766357421875,-1.4802408953547477,-0.8060802357971668,-1.8936193057857453
1789063978386803700,8.5658037109375,-0.4993091195642948,-1.2295675139188766,-1.8445527847997842
1789063978396840400,8.57584033203125,-1.1326374179959295,-1.0014344655930996,-1.4787448115780948
1789063978406877400,8.58587744140625,-1.1749322528898716,-0.8643798645526171,-1.1621554080989211
1789063978416914400,8.59591455078125,-0.6216355225503444,-1.1976549568295478,-1.1758747944369912
1789063978426951700,8.60595166015625,-0.2016746649891138,-0.5347480972141028,-1.5597934477582573
1789063978436988700,8.61598876953125,1.6373229699015617,-0.9377829544156789,-1.5180461637444793
1789063978447025700,8.626025634765625,0.5854635544508695,-0.29845453878641126,-1.0246976330850273
1789063978457062400,8.6360625,0.783119631448388,0.22784429451227187,-0.562247587101534
1789063978467099400,8.646099365234376,0.9121429017245769,-0.27445523903965946,-0.058618339315801855
1789063978477137700,8.6561376953125,0.5305857168376445,0.15618834057748318,-0.12424823789410293
1789063978487174400,8.66617431640625,1.003347021216154,-0.33002047439515586,-0.06853789497949182
1789063978497211400,8.67621142578125,1.6565864732980726,-0.8452326810121535,0.10534596902541815
1789063978507248600,8.68624853515625,1.5057657972335814,-0.9575748656004667,0.3446423990635201
1789063978517285600,8.69628564453125,0.6434674151301384,-0.7973843036442995,0.3894781140793115
1789063978527322600,8.706322509765625,0.39514322716891764,-0.7089262679904699,0.38894481092020866
1789063978537359400,8.716359375,0.39483810674250125,-0.7078963404208422,0.3775358569489792
1789063978547396400,8.726396240234376,-1.6144693330585955,0.09368307682573795,0.7708549008980393
1789063978557433600,8.73643359375,-0.48715340234637255,-0.2756809814423323,0.9385275622379035
1789063978567470600,8.746470703125,-0.2890466589719057,-0.19939912127256393,0.7978656574204563
1789063978577508400,8.75650830078125,0.27211598243713375,0.1399398010879755,0.685348335460946
1789063978587545600,8.766545654296875,0.9823001415342092,-0.19741233136951922,0.9092034142065792
1789063978597582600,8.77658251953125,-0.4477157104492187,0.43300621709525583,0.9243623318284749
1789063978607619600,8.78661962890625,-0.6648012950599194,1.106119997948408,0.6612720980204642
1789063978617656600,8.796656494140626,1.3423738088876007,0.2732394335091114,0.8182578725859523
1789063978627693300,8.806693359375,1.9823130498915909,0.21230302650928495,0.7965088359840213
1789063978637730600,8.81673046875,1.5385399395883081,0.7748650133222341,0.7767547725915909
1789063978647767300,8.826767333984375,1.543188057655096,0.7693664159059524,0.7812002076931297
1789063978657804300,8.83680419921875,-1.2571405804991722,0.9860761529415846,1.1818317300800234
1789063978667842300,8.84684228515625,-1.302643271523714,0.8716793739110231,1.0063242834612727
1789063978677879300,8.85687939453125,0.4748083000361919,-0.3764356040894985,0.6558635169751942
1789063978687916300,8.866916259765626,0.7372866855561733,-0.8447644789785146,0.3116881874341518
1789063978697953300,8.876953369140624,-1.2162053435206412,-0.5569686968505382,0.1810292057149112
1789063978707990500,8.886990478515624,-2.8235896867543455,-0.34528877067565916,0.10910755004864185
1789063978718027300,8.89702734375,-1.7446353436291218,-0.962917395672202,-0.04794398322943598
1789063978728064300,8.907064208984375,0.8508873457729816,-1.7128952204972505,-0.16672354392148553
1789063978738101200,8.917101318359375,1.0000041405290365,-1.162704639479518,-0.165373809812963
1789063978748138500,8.927138427734375,-0.47290217415392394,-0.4422089297264814,-0.07207171339513734
1789063978758175500,8.937175537109376,-1.0017705656796694,0.24131167885065077,-0.30858203811235724
1789063978768213200,8.947213134765626,-1.0211901364207268,0.7766787847459315,-0.7008264750998466
1789063978778250200,8.957250244140624,0.510146155399084,0.5901853222757577,-0.7257963003791869
1789063978788287500,8.96728759765625,0.5031026666283607,0.5977092880398035,-0.7164267067484558
1789063978798324200,8.97732421875,1.3263503103256225,0.7687427310496568,-0.8145266501683741
1789063978808361200,8.987361328125,-0.2878688473641872,1.3522346931666136,-0.7909104314550757
1789063978818398200,8.997398193359375,-0.17593991975188256,1.2274527137219906,-0.8143605728864669
1789063978828435500,9.007435546875,1.7375690585047006,0.17237901239991188,-0.6458296872820705
1789063978838472400,9.017472412109376,1.5031173285514114,-0.07678980969190598,-0.4137058888196945
1789063978848509200,9.02750927734375,0.13250292908549308,0.1256312897503376,-0.3370948697607964
1789063978858546200,9.037546142578124,-0.7120955456763506,-0.0931581761687994,-0.22542948845550417
1789063978868584400,9.04758447265625,-1.2839005771309138,-0.0022778818041086194,-0.5714786490444094
1789063978878621400,9.057621337890625,-0.8311392737299204,-0.345341377645731,-0.7909308897212147
1789063978888658200,9.067658203125,-0.5381745645314455,-0.4944190094351768,-0.8797466527715325
1789063978898695200,9.077695068359375,-0.36727146990299225,-0.2702846753567457,-0.3287217398215085
1789063978908732400,9.087732421875,-0.5263005868643522,-0.5465227061599492,0.7035397526465356
1789063978918769400,9.097769287109376,-1.109201012828946,-0.0620224486708641,0.8372953852068632
1789063978928806400,9.107806396484374,-1.232015491592884,0.0735118109345436,0.3855343448895961
1789063978938843100,9.117843017578124,-0.42502749330103395,0.10286182405948638,-0.23968197702327743
1789063978948880400,9.12788037109375,1.2505869210720062,-0.20202654716670512,-0.7164522795811296
1789063978958917400,9.13791748046875,1.2458213141053913,-0.1967424692839384,-0.714974681309238
1789063978968955400,9.147955322265625,0.3259948721408844,0.24920213983953,-0.0652396023527719
1789063978978992000,9.1579921875,-1.599289299583435,0.8877928888440132,0.03887541837189346
1789063978989029400,9.168029296875,-0.2982002717643976,0.5677496185839176,-0.06752113741869106
1789063978999066400,9.17806640625,1.7133727748811245,-0.5146785381317138,-0.059670113391056656
1789063979009103400,9.188103271484374,1.178957855144143,-0.33762042800486086,-0.37185076051726934
1789063979019140400,9.198140380859375,-0.5322936897993088,0.03090191874206066,-0.28222896004738285
1789063979029177300,9.20817724609375,-1.6932050161212682,-0.012534487402439117,-0.25578383805109184
1789063979039214300,9.21821435546875,-1.693804151058197,-0.011949965512752533,-0.2528972497641109
1789063979049251300,9.228251220703125,0.0379021528929472,-0.6144067403405904,0.04089243901642039
1789063979059288300,9.238288330078126,0.8765630542993545,-0.5627963800907134,-0.04958957674568519
1789063979069326300,9.248326416015624,0.416411056125164,-0.32988428079485893,-0.00988086762111634
1789063979079363300,9.25836328125,-1.0879489659637211,0.4121282642394304,0.0408101310278289
1789063979089400300,9.268400390625,-0.5528618460536002,0.6630448067814111,0.1944132043524645
1789063979099437300,9.278437255859375,2.0729823318541047,-0.05554302352368831,0.39701523158587515
1789063979109474300,9.288474365234375,2.3061183030337093,0.10076865117251872,0.5816788482803851
1789063979119511300,9.29851123046875,0.7402502115368843,1.0637708025187254,0.37090383505597707
1789063979129548300,9.30854833984375,0.5319137505710124,1.060142090627551,0.27073548786416646
1789063979139585300,9.318585205078126,1.7920868306338786,0.6625567310035229,0.2934239242080599
1789063979149622300,9.328622314453124,1.7987755146175621,0.6549737285286188,0.29650139542464166
1789063979159659300,9.3386591796875,0.3567810555487871,0.43322658184766766,1.0886680740185082
1789063979169697300,9.348697265625,-0.5503671066284179,0.0246434428691864,1.042434365305677
1789063979179734300,9.358734375,-1.4804711969792843,-0.2404296353191137,0.7155296117782592
1789063979189771500,9.368771484375,-1.0075105706363916,-1.2148948454439639,0.5425259646739811
1789063979199808300,9.378808349609375,-1.4772364528417588,-1.5457108541309832,0.5506489923097193
1789063979209845200,9.38884521484375,-2.3170482778489587,-1.4396622167289257,0.8183323260616511
1789063979219882200,9.39888232421875,-0.8435907590240239,-2.2721377074986693,0.6393788306422531
1789063979229919500,9.40891943359375,0.15087445207834244,-2.082313054779172,0.3491661966308951
1789063979239956500,9.41895654296875,-0.6536077008724213,-1.3288286831378937,0.4126797241097316
1789063979249993200,9.4289931640625,0.22203356240689753,-0.7491746917486191,0.7168486584875732
1789063979260030200,9.4390302734375,0.8311094631135463,-0.43574119501709935,0.808869501189515
1789063979270068500,9.449068359375,0.7899678899079561,0.3728495622962713,0.8252065226800739
1789063979280105500,9.45910546875,0.33779052387475966,1.0191063158839941,0.29270293472344056
1789063979290142200,9.46914208984375,0.33266602046787735,1.024845151796937,0.30449796540280805
1789063979300179200,9.47917919921875,1.8550234715402125,0.6498667607784271,-0.41187122073844074
1789063979310216400,9.489216552734375,0.8919733893990516,0.8339356264501809,-0.2889469979897141
1789063979320253400,9.49925341796875,0.8437573477625846,0.37940906694233417,-0.001253348503872985
1789063979330290400,9.50929052734375,1.6819903791457413,-0.19957213975191115,0.15440143889440222
1789063979340327200,9.5193271484375,-0.27478432486355303,0.1499076528728008,0.3221653039153665
1789063979350364200,9.5293642578125,-0.8904735062301158,0.10381634830534457,0.41296449586786327
1789063979360401400,9.5394013671875,-0.9261690889894961,0.10199965427219868,0.08197417179355397
1789063979370439200,9.549439208984374,-0.40807402041256424,0.21486849308311937,-0.005045355489756912
1789063979380476200,9.55947607421875,-0.5891448733121156,-0.0014747487276792525,-0.08032293398780747
1789063979390513400,9.569513427734375,-0.5225508789420128,0.4639513904571533,-0.5651731922246516
1789063979400550400,9.57955029296875,0.6096446405053139,0.04246726885139942,-0.5365612475832924
1789063979410587400,9.58958740234375,-0.38065994378626344,0.28502865550220013,-0.3634671822492033
1789063979420624400,9.599624267578125,-0.30463819585740565,0.28120237521231173,-0.16373846369609235
1789063979430661000,9.6096611328125,0.02711129428744316,0.06552841096520423,0.1853733723990619
1789063979440698400,9.619698486328126,1.3857196141391992,-0.4261965370804071,0.2555071217352524
1789063979450735400,9.6297353515625,0.575656446185708,-0.48814884312450885,0.7451360108170658
1789063979460772400,9.6397724609375,-0.7671212673276663,0.07646715360879898,0.9215362415570765
1789063979470810400,9.649810302734375,-0.7315770757377147,-0.36383331214785575,0.836481219279766
1789063979480847400,9.659847412109375,-1.7916110298156738,-0.018513561812043187,0.31554836999364194
1789063979490884400,9.66988427734375,-1.4755752416312693,-0.07989186736047267,-0.002009248330025002
1789063979500921300,9.67992138671875,-0.3727086925208568,-0.804393890145421,-0.05701478570983745
1789063979510958300,9.689958251953126,0.934800723734498,-0.626190701636672,-0.20927461859881877
1789063979520995300,9.699995361328124,0.7857628394335507,-0.7177209843426943,0.3517545691562816
1789063979531032300,9.7100322265625,-0.07844108403027057,-0.22009879495203494,1.1797520011965186
1789063979541069300,9.7200693359375,-0.20363281331956384,0.35568098535239695,1.4496226158596575
1789063979551106300,9.730106201171875,1.1799158865213393,0.25807225951552387,1.0647845826711504
1789063979561143300,9.740143310546875,1.5379536641329525,0.5709913769841194,0.5452402651339769
1789063979571181300,9.750181396484376,0.7854764237076044,0.9576794950187205,0.2541137859470211
1789063979581218300,9.76021826171875,-0.1185983223736286,1.2350380542844532,0.22962535097645595
1789063979591255600,9.770255615234374,-0.26026129399240017,1.332850778260827,0.14915526360291986
1789063979601292300,9.780292236328124,0.8985697189241647,0.40738194649517534,0.34615097699556496
1789063979611329300,9.790329345703125,1.484188756197691,-0.046074937954545016,0.518246204018034
1789063979621366300,9.8003662109375,0.7573784564703703,-0.044880759733915324,0.34733810442090035
1789063979631403300,9.8104033203125,-1.9127379938840865,0.3740209441632032,0.3638071547932923
1789063979641440500,9.8204404296875,-1.940255530884862,0.19011223748922346,0.35457642164397984
1789063979651476700,9.830476806640625,-0.11101648894250392,-0.8007499806851148,0.20688100146055222
1789063979661513700,9.840513671875,0.32964345777630805,-0.7237433133721352,-0.12615757864676416
1789063979671551000,9.850551025390626,-0.8514671914875507,-0.2747422392874956,-0.427350237160176
1789063979681589000,9.860589111328125,-0.22828502401709555,-0.2720323958069086,-0.7398531750433146
1789063979691625700,9.870625732421875,-0.4008686190783977,-0.07715747396051884,-0.3447947035484016
1789063979701663000,9.8806630859375,0.005645312410593032,0.3813502641379833,-0.03482701976392418
1789063979711700000,9.890699951171875,1.1325222671836614,-0.07777706716358661,0.1343068732349202
1789063979721737000,9.900737060546875,-0.04772971942424774,0.6195154616564512,-0.03282611000398174
1789063979731774000,9.91077392578125,-0.41046354589760303,1.1066326236456632,-0.5432626083854586
1789063979741810700,9.920810791015626,0.46203065152764317,0.556131661504507,-0.42342064262628554
1789063979751848000,9.930847900390624,0.893874839106202,0.0793289727807045,-0.26113520901640874
1789063979761885000,9.940885009765625,-0.055445408368110655,0.20391572191417215,-0.06946911141499877
1789063979771923000,9.9509228515625,-0.9183762431561946,0.010150807136297225,0.11253807248659431
1789063979781960000,9.9609599609375,0.1743599570840597,-0.8732990840673446,0.3592173427850008
1789063979791997000,9.970996826171875,0.4196259265184402,-1.2744254772990942,0.4795458499521017
1789063979802034000,9.981033935546876,-0.5599556037068366,-0.896631444337964,0.4053759769676253
1789063979812071000,9.99107080078125,-1.112936692225933,-0.9281360051482915,0.3575311432637274
1789063979822108000,10.00110791015625,-0.3605418693870306,-0.9352420377612113,0.4296874479360878
1789063979832145000,10.011144775390624,0.9951666373699903,-1.025829486659169,0.6549534163929521
1789063979842182000,10.021181884765625,0.8645312557220458,-0.6322118616223334,0.6282423004042357
1789063979852219000,10.031218994140625,-0.09752864633798598,0.4427595493465662,0.4575771792501211
1789063979862255900,10.041255859375,0.9126572809875011,0.3149690357357263,0.24128073572311548
1789063979872294000,10.0512939453125,0.8992904344141482,0.6299129370301961,-0.11333846561666577
1789063979882331000,10.061330810546876,1.9182085342496633,0.7004337494552135,-0.08179185576289892
1789063979892368000,10.071367919921874,1.8242688523143529,0.32692718455493447,0.2674052474629134
1789063979902404900,10.08140478515625,0.9355798914134502,0.645638913950324,0.25980226164590564
1789063979912441900,10.09144189453125,0.6294646087408066,0.5401023177236318,0.3688058398634195
1789063979922478800,10.101478759765625,0.7004863564252853,0.11262684674859046,0.3311114845022559
1789063979932515800,10.111515869140625,0.22582886303663252,0.054825230643153186,0.3469638642810285
1789063979942552800,10.121552734375,-0.5377765051245689,-0.08497720780074595,0.5177754812337458
1789063979952590000,10.131590087890626,-1.8206044845879077,-0.03639642450511455,0.42591874305233357
1789063979962626800,10.141626708984376,-1.833895927837491,-0.2596756030589342,0.1612606023404747
1789063979972663800,10.151663818359374,-1.3562263931512832,-0.7827385231763124,-0.01914289095783606
1789063979982702000,10.1617021484375,-1.0931412739098072,-0.9569137713432312,0.01536130832619965
1789063979992739000,10.171739013671875,-1.4203069433957338,-0.8370511281222105,0.24248709757188333
1789063980002775800,10.18177587890625,-0.9156231450557708,-0.7427899591475725,0.0370411338831298
1789063980012812800,10.191812744140625,0.41846974222064015,-0.8256850999772548,0.12215738482838495
1789063980022849800,10.201849853515625,0.40885260356962677,-0.8150047160089016,0.1223015060068108
1789063980032887000,10.211886962890626,0.3582791851520538,0.1741600505977869,0.3063862633674405
1789063980042924000,10.221924072265624,0.16140402939915657,0.3872936827123165,0.3525799505971372
1789063980052960800,10.231960693359374,0.13707856643795965,0.7104279047250748,-0.11240971513288095
1789063980062997800,10.241997802734375,1.2149942141652106,0.6026075814753771,-0.5036911340408027
1789063980073035000,10.252034912109375,0.3806804020524025,0.5589432117938995,-0.4296723599648103
1789063980083073000,10.262072998046875,0.6362836411058902,0.5523837071478367,-0.5887994208753109
1789063980093109800,10.27210986328125,0.7666127332836389,-0.04900397714376449,-0.3467014870177954
1789063980103146800,10.282146728515626,0.05529869337379932,0.0069505497902631755,-0.41632330477647483
1789063980113184000,10.29218408203125,0.7848714435517787,-0.3988192853331566,-0.5719416634462774
1789063980123221000,10.302220947265624,-0.5360854832977057,-0.37197687111496924,-0.5581697066707536
1789063980133258000,10.312258056640625,-0.5747428384721279,-0.1012052890241146,-0.6943108095955103
1789063980143294700,10.322294677734375,-0.5665829128921032,-0.17536825734376907,-0.7354017485924065
1789063980153332000,10.33233203125,-1.089159510797262,0.19940145936012266,-0.7284861239850521
1789063980163369000,10.342368896484375,-0.6295043562293052,0.34115444734990596,-0.8721320861145854
1789063980173406000,10.352406005859375,-0.03202069363892078,0.3852385037481785,-0.9404805229365825
1789063980183443700,10.362443603515626,0.03945055137872696,0.30999650802016254,-0.6470622247517108
1789063980193481000,10.37248095703125,-0.3066086191475391,0.7153221065074205,-0.5065930294947698
1789063980203518000,10.38251806640625,0.7677461212277412,0.2622416541546583,-0.4346180362060666
1789063980213555000,10.392554931640625,1.3252297818630934,0.17515198424458503,-0.43789676561579105
1789063980223591700,10.402591796875,0.23475977298915385,0.4212748627692461,-0.35345834086686373
1789063980233629000,10.41262890625,-0.6235439865201712,0.5791057098567486,-0.041332602265663446
1789063980243666000,10.422666015625,-0.6581991203159093,0.15756138249635696,0.2487612824705429
1789063980253703000,10.432702880859376,-0.7189712766647338,0.13889935212433338,0.15818559707561508
1789063980263740000,10.442739990234376,-0.14386252748966216,-0.8248258527994156,0.14251428208532743
1789063980273777000,10.45277685546875,-1.807612316545844,-0.18867080650925636,-0.11148050799136981
1789063980283815000,10.46281494140625,-0.9121399791151285,-0.47064533513784407,-0.27082532157208766
1789063980293852000,10.472851806640625,0.9783628020852804,-1.424127962988615,-0.252765257414896
1789063980303889000,10.482888916015625,1.5237445215165615,-0.957693523544073,-0.07440567276803776
1789063980313926000,10.49292578125,-0.09484744442999363,-0.3709036889255047,0.18791085498742757
1789063980323963000,10.502962890625,-0.40465456735789773,0.38554771582782266,-0.016796355231152846
1789063980333999900,10.512999755859376,0.82858491307199,0.08353402325510978,-0.440669664395228
1789063980344036900,10.523036865234374,0.3471218313217163,0.7996586783170699,-0.45734695069082076
1789063980354074000,10.53307421875,1.2737024237215517,0.5919575926452875,-0.0878681800018996
1789063980364110800,10.54311083984375,1.3931021256059408,0.18985270977020263,0.11839821495795622
1789063980374147800,10.55314794921875,-0.3038005759894848,1.5202181009560822,-0.05517381118538323
1789063980384184800,10.563184814453125,0.7676695488601922,0.354753933635354,0.11044159339768811
1789063980394222800,10.573222900390626,0.2378898877084255,0.5388298135697841,-0.017358153832377866
1789063980404259800,10.583259765625,0.4175426905035972,0.297927300041914,-0.08264036235101521
1789063980414296800,10.593296875,-0.5918459489643574,0.20849019022285936,0.4999460292283445
1789063980424333800,10.603333740234374,0.4948234985828399,-0.35012978096604347,0.9247025966335087
1789063980434371000,10.61337109375,-0.13722820404171943,-0.5359826074451208,1.0772926935233176
1789063980444408000,10.623407958984375,-0.9103297148227691,0.08593816178739071,0.5935476748483255
1789063980454444800,10.63344482421875,-0.756733728826046,-0.23121581677198408,0.45315782843790947
1789063980464481800,10.643481689453125,-0.3483522498995065,-0.4026788833707571,0.6386962552055716
1789063980474519000,10.65351904296875,0.3543494444876909,-0.36788404884338377,0.7644132504779845
1789063980484556000,10.66355615234375,0.6649988634586333,-0.6796183404415845,0.8660155029304325
1789063980494593800,10.67359375,-0.36964053712189193,-0.3022305501937866,0.23493975093225017
1789063980504630800,10.683630859375,-0.6571148322105407,0.11459785456061362,-0.31765948039609937
1789063980514668000,10.69366796875,0.5808779802262782,-0.772502375844121,-0.24062431764099745
1789063980524705000,10.703705078125,0.7148574116051196,-0.9871171864271163,0.016323184761451556
1789063980534741800,10.71374169921875,-0.49566813271343707,-0.5905062247931957,0.31244419343322516
1789063980544778800,10.72377880859375,-0.33014848468899727,-0.986549031150341,0.5048694571051746
1789063980554816000,10.73381591796875,0.5750561422049999,-1.2105196990996598,0.5767477485537529
1789063980564853000,10.74385302734375,0.6046931555777788,-1.160565289363265,0.41604098070375617
1789063980574890000,10.753889892578124,0.015295768809318542,-0.7288485275566577,0.21945850602081043
1789063980584926700,10.7639267578125,-1.4171429264068602,-0.00523848517537117,0.25278606274090704
1789063980594965000,10.773965087890625,-0.7037754610985517,0.10576105263233185,0.47662269251439715
1789063980605002000,10.784001953125,1.105420909768343,-0.19554361488819122,0.8247876396808773
1789063980615039000,10.7940390625,1.4773223775595425,0.040976153510808945,0.758790661355853
1789063980625075700,10.80407568359375,1.4716051689565182,0.04749532614648342,0.7658778431378305
1789063980635113000,10.814113037109376,0.14655541983544826,1.1922276710838078,-0.22059242368787527
1789063980645149400,10.8241494140625,0.7748200051367282,1.1703723976284264,-0.33297662078700957
1789063980655186400,10.8341865234375,0.7406359959840774,1.2370961558580398,0.0887199471261818
1789063980665223700,10.8442236328125,2.3764929849863052,0.3689408644199371,0.7723807222258299
1789063980675260400,10.854260498046875,1.4924369445830583,0.2944131544411182,0.9754203919578343
1789063980685297400,10.86429736328125,-0.7829623950600624,1.0796657062649726,0.7965535519085823
1789063980695334400,10.87433447265625,-0.3960416373133659,0.2854553564816713,0.6094057171829045
1789063980705372700,10.88437255859375,0.08393442074954509,-0.2181821476757526,0.39407731497045606
1789063980715409400,10.894409423828124,-1.2734125008642674,-0.021812018835544584,0.4136809735741466
1789063980725446400,10.9044462890625,-1.7882149576365947,-0.36633506583571435,0.49321694016903633
1789063980735483600,10.914483642578125,-2.034700824254751,-0.6515320636421441,0.20607100025191902
1789063980745520600,10.924520751953125,-0.9852999078720808,-0.8741314432382583,0.05352632253956981
1789063980755557600,10.9345576171875,0.43923137522041794,-1.5814835937798022,0.3354779360834509
1789063980765594400,10.944594482421875,-0.232857154238224,-1.4466361473947762,0.4616834820577875
1789063980775631400,10.95463134765625,-1.5885609848201274,-0.23232465479671954,-0.02094299004920758
1789063980785668600,10.964668701171876,-1.4263187510311603,0.12040917118787765,-0.1578613152910024
1789063980795705600,10.97470556640625,0.5913210483074188,-0.2700420987725258,0.24046768404087052
1789063980805742600,10.98474267578125,2.4895173066198826,-0.49402387263774866,0.10452497149873524
1789063980815780600,10.994780517578125,-0.747794635567069,0.9386316801995038,0.1298971670338884
1789063980825817600,11.004817626953125,-1.7675620457082986,1.4518331315159796,0.08800831912495195
1789063980835854600,11.0148544921875,1.3426654853105544,0.07472469385564327,0.04761462341090664
1789063980845891600,11.0248916015625,2.7028403238266705,-0.47029286843836304,0.384623513654992
1789063980855928300,11.03492822265625,1.7050129428148268,-0.3190741329669952,0.7068383558005095
1789063980865965600,11.044965576171874,-1.3480886794030666,0.5672083513140678,0.3563668121920898
1789063980876002600,11.05500244140625,-1.0168465542584657,0.4880056352615356,0.3284368949981406
1789063980886039600,11.06503955078125,0.17781155884265898,-0.365190571975708,0.2867101423157379
1789063980896076500,11.07507666015625,0.5877461124300957,-0.1336439158141613,0.29936480376543473
1789063980906113500,11.085113525390625,-0.7985726366460323,0.26567279764711854,0.6071187022242694
1789063980916151600,11.095151611328125,-0.749092858684063,0.31619302457273,0.49787565269507467
1789063980926188500,11.1051884765625,0.24145605575740337,0.23155250138044356,0.1493980776491575
1789063980936225500,11.1152255859375,1.0692857665479183,0.12907821533381938,-0.0983736275284551
1789063980946262500,11.125262451171874,0.4061410065233707,0.23711948785781858,0.08876226103110238
1789063980956299500,11.135299560546875,-0.3943196358263492,0.6741676738202571,0.4837989042866975
1789063980966336500,11.14533642578125,-0.7301648708522319,0.5312000493437051,0.7917813690707087
1789063980976373500,11.15537353515625,1.1338573151797056,0.023203180932998654,0.8913163137298077
1789063980986410500,11.165410400390625,0.8631617209345102,-0.2976081510901451,0.7928413264524191
1789063980996447500,11.175447509765625,-1.4665490546107292,0.5460995123118162,0.7699716883227229
1789063981006484500,11.185484375,-1.725628445342183,0.36626843034029005,0.8027810481213032
1789063981016521500,11.195521484375,-0.9147118754297494,-0.20446575701236724,0.6337959159433841
1789063981026559500,11.2055595703125,0.4488812470972538,-0.6175368550598621,0.3566500495802611
1789063981036596500,11.215596435546875,0.44866029782295225,-0.6171101540803909,0.36091895907111465
1789063981046633500,11.225633544921875,-0.9927157370865345,-0.1224111586600542,0.20399549088580532
1789063981056670500,11.23567041015625,0.08621522516310215,-0.23469430653750895,0.27752889259764923
1789063981066707700,11.245707763671875,1.4684335531830788,-0.6930833866924047,0.8145143752086907
1789063981076744400,11.255744384765626,1.1843974158495665,-0.06876023249328136,0.9530925325546413
1789063981086781400,11.265781494140626,0.18492051406502721,0.3848112182468176,0.6077634664012119
1789063981096818400,11.275818359375,-0.30049802731275554,0.9247522079288959,0.03456036818437278
1789063981106855700,11.285855712890625,1.1867062773138284,0.2028074684113264,-0.023190686777606606
1789063981116892700,11.295892578125,2.0745155327707527,-0.3821738554805517,0.19173640462495387
1789063981126930400,11.305930419921875,0.768600692230463,0.03969955770373344,0.280803219826892
1789063981136967400,11.315967529296875,-0.0422808063685894,-0.27018589115738867,0.3675716584259644
1789063981147004700,11.326004638671876,-0.03572013267874718,-0.27718378722071646,0.3748742365242913
1789063981157041700,11.336041748046876,0.12458674913346766,-0.579451746815443,-0.030206556889042255
1789063981167078400,11.346078369140624,-0.0852630390048027,-1.0181564678132533,0.11796784245036541
1789063981177115400,11.356115478515624,-0.04529635479748249,-0.7981938664615154,0.15285346053373067
1789063981187152600,11.366152587890625,-1.0058400070756672,-0.7897522013306617,0.4448148013759404
1789063981197189600,11.376189697265625,-2.113337138596177,-0.09018354427218436,0.11405571050792931
1789063981207226600,11.3862265625,-0.2528700146973133,-0.23465163643956183,-0.308553871463798
1789063981217263400,11.396263427734375,0.9532909046709537,-0.7123416293919086,-0.33001634620931
1789063981227300600,11.406300537109376,0.8516571611016989,-0.21901275328099726,-0.08169595764037221
1789063981237338600,11.416338623046874,-1.1575918265104292,0.6337889016807079,0.32515224730428305
1789063981247375600,11.426375732421874,0.18275427594184873,0.5289695138126611,0.2464973013276234
1789063981257412400,11.436412353515625,3.042154696267843,-0.5161351666808128,-0.16291874481104313
1789063981267449600,11.44644970703125,2.0538836636304856,0.05724164413511753,-0.84978055357486
1789063981277486600,11.456486572265625,-0.9339023135900497,1.1788485495507717,-1.2179399122282861
1789063981287523600,11.466523681640625,-0.9309785350978373,1.1753168682932853,-1.222112521737814
1789063981297560600,11.476560546875,-0.25747254005670545,0.37835049780011176,-1.1260795207850633
1789063981307597600,11.48659765625,0.49103755030333995,-0.3121872960627079,-0.7189708382733165
1789063981317634600,11.496634521484374,-0.27115152131915093,-0.35456688663065433,-0.25885453246701506
1789063981327671600,11.506671630859374,-0.9285954393535852,-0.3373538860231638,0.04543945306260139
1789063981337709300,11.516709228515625,-1.1027788708269595,-0.7177391045212745,-0.047283473494090136
1789063981347746600,11.52674658203125,-0.627197832852602,-0.8170306688785552,-0.11661295724269002
1789063981357783600,11.536783447265625,-0.34565526590049267,-0.9957949984014034,-0.0028895474290475246
1789063981367820500,11.546820556640625,-0.4824830724477768,-0.49503626455068583,-0.043696043461374935
1789063981377857500,11.556857421875,-0.0015209259569644927,-0.2772825714200735,-0.19479160921080038
1789063981387894500,11.56689453125,0.10475275237262248,0.03602583762705326,-0.6088016138099134
1789063981397931500,11.576931640625,0.6318506270945072,0.6859381911128759,-1.2081622492533177
1789063981407968500,11.586968505859375,1.0410177034407853,0.8098907339960336,-1.1360885082978756
1789063981418005500,11.597005615234375,1.6228917089670896,1.0187141016960144,-0.3635429143665358
1789063981428042500,11.60704248046875,2.6386229954600333,0.41056291461884975,0.4448844325460493
1789063981438079500,11.61707958984375,0.30500878273546694,1.6007278079539538,0.5668980067232623
1789063981448117500,11.627117431640626,0.5946060613274574,1.2786831347435712,0.38437812405917793
1789063981458154500,11.637154541015626,1.3390987327396868,0.4119616755008697,0.003763681648764759
1789063981468191700,11.647191650390624,0.41554187207520005,0.5561901136934757,-0.31228410750068725
1789063981478228500,11.657228515625,-1.3230290569484233,0.2678004573255777,-0.1976963359426707
1789063981488265500,11.667265380859375,-2.9015660758823154,0.18673779262006282,0.032944219958316534
1789063981498302500,11.677302490234375,-1.7392413756310938,-1.2371855877071618,0.21445328161204233
1789063981508339700,11.687339599609375,-1.8746020322352646,-1.1810066043674945,0.26870286779170854
1789063981518376700,11.697376708984375,-2.4279648135483263,-1.22928109819293,0.532937686791271
1789063981528413400,11.707413330078126,-1.2750310419768094,-1.8158529061466455,0.5702754837997257
1789063981538450400,11.717450439453126,-1.2845984962671995,-1.8052052554041147,0.5695603212676942
1789063981548487400,11.7274873046875,-0.010298106652498244,-0.9871014043360948,0.344262861694023
1789063981558525400,11.737525390625,-0.24361001892089842,-0.3980716818362474,0.39567916067652403
1789063981568562400,11.7475625,0.9307061478972435,0.22779227206408975,0.0062522653277963395
1789063981578599400,11.757599365234375,0.9637707976311445,0.7746101617783308,-0.15326249799234792
1789063981588636700,11.76763671875,2.4178712895572185,0.921174933964014,-0.43312783418092876
1789063981598673700,11.777673583984376,2.534240829965472,0.9896469971656798,-0.08017053817138076
1789063981608710400,11.78771044921875,1.5279980873078107,1.4068494959294795,0.3105279845483601
1789063981618747400,11.797747314453124,0.8779530473530291,1.3389911807119845,0.6271051130678504
1789063981628784400,11.807784423828124,1.3610522058725356,0.6200707574516534,0.4511128055416047
1789063981638821600,11.817821533203125,0.7594710448354483,0.3351595908492803,0.09851735598123632
1789063981648858600,11.827858642578125,0.7719149313449859,0.32101182303130626,0.09620345301567576
1789063981658896000,11.837895751953125,-2.1202795050799845,0.1721335132062435,-0.49064792993124573
1789063981668934000,11.847933837890626,-1.723500201141834,-0.17955226503014562,-0.47269565526377405
1789063981678971100,11.85797119140625,-0.19380466226637363,-1.102277935567498,-0.40418073930107057
1789063981689007900,11.8680078125,-0.6575695902407169,-0.7555161697298288,-0.22648955543506888
1789063981699044900,11.878044921875,-1.5128648155838251,-0.1802601210385561,0.14257214061925186
1789063981709081900,11.888081787109375,-0.875743554610014,-0.29480069245398044,0.43059897329043595
1789063981719118800,11.898118896484375,0.1705512124508619,-0.0278676656126976,0.3066127108007669
1789063981729156000,11.908156005859375,1.758264056009054,0.024040216279029844,0.1067282171640545
1789063981739193000,11.918193115234375,1.3129150746911764,0.20648703370690344,0.25398027749415486
1789063981749229800,11.928229736328126,-0.7233598670125008,1.2526362548172474,0.3719694184608757
1789063981759266800,11.938266845703126,-0.2059323224335909,0.7742530189037322,0.6372391882650554
1789063981769305000,11.94830517578125,1.5699755268156528,-0.20449615215063094,0.15579280192125589
1789063981779341800,11.958341796875,1.6117483836621045,-0.5976029050558805,-0.2163774728739634
1789063981789378800,11.96837890625,0.15497721122205257,-0.887642082196474,-0.2825922952007502
1789063981799415800,11.978415771484375,-0.8937409835934639,-0.8821265336453914,-0.20200999789070337
1789063981809453000,11.988453125,0.07816285161077975,-1.8759668908476828,0.2392501797435805
1789063981819490000,11.998489990234376,0.2092564984202385,-2.2133044102579356,0.9449431283686309
1789063981829526800,12.00852685546875,-1.302726858153939,-1.5242548091262578,1.112988714674115
1789063981839563800,12.018563720703124,-0.9972019425898789,-1.2156366037219761,0.5714845307959243
1789063981849601000,12.02860107421875,-0.14677812267541884,-1.0506465325295924,0.19978691501375287
1789063981859638000,12.038637939453125,-0.04898761053085327,-0.29314708002805706,0.17290891802553088
1789063981869675000,12.048675048828125,0.9276654650270938,0.07408931856155396,0.6069173344332724
1789063981879713000,12.058713134765625,0.6965887644648552,0.6116214935362339,0.7207996611356735
1789063981889750000,12.06875,0.22438100231587885,1.6641957792580127,0.48065534556396305
1789063981899787000,12.078787109375,1.743047782176733,1.1868816338807344,0.26907975654639305
1789063981909824000,12.088823974609374,1.5974650067657232,1.3942629860788582,0.42310036116335537
1789063981919860700,12.09886083984375,1.8254256211340427,1.1881424475967883,0.7113873974069953
1789063981929898000,12.10889794921875,0.4628057275533676,1.09651162712574,1.0722794684711843
1789063981939935000,12.11893505859375,0.0951665933817625,0.9678203652828932,0.7298909492816775
1789063981949972000,12.128971923828125,0.9466028052091598,-0.07413666483461856,0.14671629121927543
1789063981960009000,12.139009033203125,0.9602250878483056,-0.08949030131101608,0.14734263382353818
1789063981970046000,12.1490458984375,-1.8778636643797157,-0.0036947628647089003,0.3711597095131874
1789063981980083000,12.1590830078125,-1.5973130310744046,-0.8258499351501465,1.2561220511063933
1789063981990121000,12.169120849609374,0.05350830282568931,-1.2927479004532099,1.3100647998265922
1789063982000158000,12.179157958984375,0.06761807672083378,-1.2685586310923098,0.7638656995978206
1789063982010195000,12.18919482421875,-0.4990601132392883,-0.9574094459056853,-0.214567537375167
1789063982020232000,12.19923193359375,-1.020238534784317,-0.13196516894698143,-0.9844980899699032
1789063982030269000,12.20926904296875,0.29477672705650326,-0.16728081247806548,-1.1884086242523044
1789063982040306000,12.219305908203125,0.9900596696197986,-0.23381577013731,-0.7537797743912786
1789063982050343000,12.229343017578126,-0.11522446202635764,0.8026292185604572,-0.8383163988176733
1789063982060380000,12.2393798828125,-0.06236731658577919,1.113209079426527,-0.8809040061131119
1789063982070417000,12.2494169921875,-0.5591758515059948,1.1904179913133381,-0.7496849062930793
1789063982080454000,12.259453857421875,0.10046586883366107,0.9311404476612806,-0.6858901141874492
1789063982090491100,12.2694912109375,-0.04659808504581451,0.17396423576474188,-0.25876946626575664
1789063982100529000,12.27952880859375,-0.7514841377347707,-0.06916939781606198,0.15343228333499281
1789063982110566000,12.28956591796875,-0.49455578755736346,-0.7609533923476934,0.45675603559296574
1789063982120603000,12.299602783203126,-0.33168694630265233,-1.5967606578886508,0.4863192896097898
1789063982130640100,12.30964013671875,-1.019417866051197,-1.1577256820231676,-0.04245755117498338
1789063982140676900,12.3196767578125,-1.4913181696861981,-0.7674298948854208,-0.44504042682535944
1789063982150713900,12.3297138671875,-0.09249532834589481,-0.9164812231898307,0.028746886999486014
1789063982160750800,12.339750732421875,1.6252292120039462,-0.6981120285093784,0.8766657109562307
1789063982170788000,12.3497880859375,0.9072592213362455,0.4166033638268709,1.5583783202633261
1789063982180825000,12.3598251953125,-0.1362754333615303,1.5606231765806675,1.6402216139525174
1789063982190861800,12.36986181640625,1.609326709473133,1.7486568542301655,0.9534713758043944
1789063982200898800,12.37989892578125,3.0803742445468902,1.7301222496300934,0.40982930311467497
1789063982210937000,12.38993701171875,2.9289965191215277,1.8095219495594501,0.4531461014674976
1789063982220974000,12.39997412109375,0.2008370451211929,1.9507839391618966,1.037238184902072
1789063982231010800,12.4100107421875,-1.5017150605380534,1.5070692810475825,1.1393546704869717
1789063982241047800,12.4200478515625,-1.7779507532536982,0.44563247443437576,1.025415645161271
1789063982251085000,12.4300849609375,-1.3376409351468086,-0.7807634237110614,0.9094530050534755
1789063982261122000,12.4401220703125,0.08824936133921146,-1.938077017802,0.691138536234945
1789063982271159000,12.450158935546876,-1.0517787514299153,-2.119540084889531,0.5924481161085888
1789063982281195800,12.46019580078125,-2.7874481137931344,-1.504403276708722,0.31485067005306483
1789063982291233000,12.47023291015625,-2.997949059316516,-1.6137410187840462,0.5649737606624141
1789063982301270000,12.48027001953125,-1.8124656017959118,-1.3161772913575172,0.5081632014209404
1789063982311307000,12.49030712890625,-0.24025369423031806,-0.5686503668159246,-0.2360251898150891
1789063982321344800,12.5003447265625,-0.17152444139719009,0.16665946570932863,-0.7227708150781691
1789063982331382000,12.510382080078125,1.663479155421257,0.46488194930553434,-0.8832750460933894
1789063982341419000,12.5204189453125,2.5637574318289755,0.6123644208580256,-0.4864009034786373
1789063982351456000,12.5304560546875,1.559230845439434,1.3884417325794696,-0.018938235231209546
1789063982361493000,12.540492919921874,2.91727919332087,1.1273580162882804,0.1934400667376816
1789063982371530000,12.550530029296874,3.9736628081977363,0.4960726218611002,-0.07758671395694837
