time,seconds_elapsed,z,y,x
1789063969854025200,0.033025146484375,7.334487148284912,6.316053617095947,1.622221262359619
1789063969864062000,0.04306201171875,7.395988203430175,6.259191327667236,1.5955857688903807
1789063969874099000,0.053098876953125,7.410353413391113,6.4448915939331055,1.5403694931030272
1789063969884136000,0.063135986328125,7.228992637634277,6.396409010314941,1.5331868881225585
1789063969894173200,0.073173095703125,7.296329559326171,6.449979272460937,1.5023615417480467
1789063969904210200,0.083210205078125,7.311143682098388,6.425588343048095,1.5013140785217285
1789063969914247000,0.093246826171875,7.346757431793212,6.438606814575195,1.438316647338867
1789063969924284000,0.103283935546875,7.383867557525634,6.427084719085693,1.3961188430786131
1789063969934322200,0.113322265625,7.348702720642089,6.461950280761719,1.4000094207763671
1789063969944359200,0.123359130859375,7.299172673797607,6.472424913024902,1.426196001434326
1789063969954396000,0.13339599609375,7.14399847869873,6.5306339408874505,1.427542739868164
1789063969964433000,0.143432861328125,7.153724922943115,6.579266162109374,1.395071379852295
1789063969974470100,0.15347021484375,7.251288640594482,6.5105825019836425,1.4363713584899902
1789063969984507100,0.163507080078125,7.464821501159667,6.510732139587402,1.5429133323669433
1789063969994544000,0.173544189453125,7.375338214111328,6.410175669860839,1.5358803649902344
1789063970004580900,0.183580810546875,6.881234846496581,6.565200227355956,1.089212117767334
1789063970014617900,0.193617919921875,6.758083098602294,6.439055727386474,0.9249100288391112
1789063970024655000,0.203655029296875,6.724115362548828,6.368426778411865,0.7601590270996094
1789063970034692000,0.213692138671875,7.298125210571289,6.238391700744629,1.0739490821838378
1789063970044729000,0.22372900390625,6.83783994140625,6.2870239219665525,1.1629834564208983
1789063970054765800,0.233765869140625,7.086088726043701,6.568791529846191,0.8741828811645508
1789063970064803000,0.243802978515625,7.35483786239624,6.455665501403808,1.061678798675537
1789063970074841000,0.253841064453125,7.572111663055419,6.5409589355468745,1.055992569732666
1789063970084878000,0.263878173828125,7.598896794128417,6.7274073898315425,1.152957736968994
1789063970094914800,0.273914794921875,7.521384515380859,6.667851623535156,1.375169578552246
1789063970104952000,0.2839521484375,7.592163101959228,6.741323686981201,1.4185644836425781
1789063970114989000,0.293989013671875,7.650372129821777,6.576123772430419,1.434575707244873
1789063970125026000,0.304026123046875,7.681945664215087,6.507140837097167,1.3037924415588378
1789063970135063000,0.31406298828125,7.416937467956543,6.46135173034668,1.2261305252075194
1789063970145100000,0.32410009765625,7.2623618232727045,6.355109031677245,1.2074258247375487
1789063970155137000,0.334136962890625,7.056011567687988,6.283133344268799,1.2384008087158203
1789063970165174000,0.344174072265625,7.027730060577392,6.203825414276123,1.2901754196166992
1789063970175211000,0.3542109375,6.9588967628479,6.169109490203857,1.3109750465393066
1789063970185248300,0.364248291015625,6.886172887420654,6.22477467880249,1.3617021942138672
1789063970195285000,0.374284912109375,7.029675349426269,6.260837341308593,1.4100351402282714
1789063970205322000,0.384322021484375,7.377283502960204,6.244526842498779,1.3646949462890625
1789063970215360000,0.394360107421875,7.594258028411865,6.301987682342529,1.2678794166564942
1789063970225397000,0.40439697265625,7.504774741363525,6.438906089782715,1.1641805572509765
1789063970235434000,0.41443408203125,7.384765383148193,6.581211450958252,1.0564414825439452
1789063970245471000,0.424470947265625,7.387159584808349,6.658125179290771,1.1692682357788085
1789063970255508000,0.434508056640625,7.287949853515625,6.6018614402771,1.6524480583190917
1789063970265545200,0.444545166015625,7.110778930664062,6.746860278320312,2.0403087272644043
1789063970275582000,0.45458203125,7.499986338043213,6.4478843460083,2.2020669769287107
1789063970285619000,0.464618896484375,8.290521798706054,6.152499716186523,1.6717513092041014
1789063970295656000,0.474656005859375,8.10751500930786,6.366780764770508,0.6057330200195312
1789063970305693000,0.48469287109375,6.376956121826171,6.732943981170654,0.7245452774047851
1789063970315730200,0.494730224609375,6.159083770751953,6.5677440666198725,0.972943699645996
1789063970325767200,0.50476708984375,7.496993585968017,6.370222429656982,1.1707646118164061
1789063970335804000,0.514803955078125,7.0826470611572265,6.169109490203857,1.9062334342956542
1789063970345842200,0.52484228515625,6.687903062438965,6.505195548248291,1.6121955429077148
1789063970355879200,0.534879150390625,6.747458828735351,6.6629135826110835,1.5064017570495605
1789063970365916000,0.544916015625,7.1422028274536125,6.367080039978027,1.300500414276123
1789063970375953000,0.554952880859375,7.893084323120116,6.5375172706604,1.3980641319274902
1789063970385990100,0.564990234375,7.41184978942871,6.4640452072143555,1.412279704284668
1789063970396027100,0.575027099609375,7.498639599609374,7.070676052856445,0.9558850128173828
1789063970406064000,0.585064208984375,6.8113540855407715,6.7751417854309075,1.9952678085327147
1789063970416100900,0.595100830078125,7.191283961486816,6.745663177490234,1.6575357368469237
1789063970426137900,0.605137939453125,8.157643606567383,7.129483631134033,1.2123638656616211
1789063970436175000,0.615175048828125,6.853252614593505,6.5397618347167965,1.6400281372070311
1789063970446212000,0.625212158203125,6.707355950927734,7.002291667938232,0.6887818901062012
1789063970456249000,0.6352490234375,7.019499992370605,6.742969700622559,0.29403789138793945
1789063970466285800,0.645285888671875,7.190835048675536,6.16716420135498,0.37140053253173827
1789063970476323000,0.655322998046875,7.368305246734619,6.580612900543213,-0.2654571090698242
1789063970486361000,0.665361083984375,6.616525925445556,6.675932054138183,-0.24600422058105467
1789063970496398000,0.675398193359375,5.82913285446167,6.978798564147949,-0.34491467666625975
1789063970506434800,0.685434814453125,5.692064809417724,7.211933950805664,-0.5765536872863769
1789063970516472000,0.69547216796875,5.736656815338135,7.287800215911865,-0.7607575775146483
1789063970526509000,0.705509033203125,6.892607304382324,7.165995206451416,-0.8153753028869628
1789063970536546000,0.715546142578125,7.685836241912841,6.945579016113281,-0.6524199523925781
1789063970546583000,0.7255830078125,7.6199956962585444,7.25248574142456,-0.6192004043579101
1789063970556620000,0.7356201171875,7.4868182289123535,7.645733364105224,-0.2784755805969238
1789063970566657000,0.745656982421875,7.276876670837402,7.658153285217285,0.5571007987976074
1789063970576694000,0.755694091796875,7.80779088897705,7.628375402069091,1.304390991973877
1789063970586731000,0.76573095703125,7.90999337234497,7.345111418151855,2.1499930908203124
1789063970596768300,0.775768310546875,7.088931840515136,7.292887894439697,2.595164962005615
1789063970606805000,0.785804931640625,6.304830796813964,7.12499450302124,2.4940099418640136
1789063970616842000,0.795842041015625,6.170306591033935,6.696133130645752,1.8748095375061034
1789063970626880000,0.8058798828125,6.740425861358642,6.321290933227539,1.34703770904541
1789063970636917200,0.815917236328125,6.438606814575195,6.149955876922607,1.5040075553894041
1789063970646954200,0.825954345703125,5.98849690246582,6.165518187713623,1.9322703773498533
1789063970656991500,0.835991455078125,5.7900774398803705,6.422894866180419,2.3226748855590817
1789063970667028500,0.846028564453125,6.121824007415771,6.408828931427002,2.501342184448242
1789063970677065500,0.8560654296875,6.83769030380249,6.449679997253417,2.2821230949401854
1789063970687102200,0.866102294921875,6.527192276000976,6.958298212432861,1.808071166229248
1789063970697139500,0.876139404296875,6.426186893463134,7.291990068817138,1.4740800346374512
1789063970707176400,0.886176513671875,7.330147657775878,7.231686114501953,1.3895347885131835
1789063970717213400,0.89621337890625,7.989002027130127,7.256077043914795,1.4534300453186035
1789063970727250400,0.90625048828125,8.189217140960693,7.288997316741943,1.7073650588989258
1789063970737287400,0.916287353515625,7.868394118499755,7.29109224319458,2.0049942527770996
1789063970747324400,0.926324462890625,7.4782888854980465,7.4114008766174315,2.062604730224609
1789063970757362400,0.936362548828125,7.4034700836181635,7.078307570648193,1.920449006652832
1789063970767399400,0.9463994140625,7.050175701141357,6.936451122283935,1.359158354949951
1789063970777436400,0.9564365234375,6.310217750549316,6.876895355987548,0.6503250259399413
1789063970787473400,0.966473388671875,5.593453628540039,6.817189952087402,0.29179332733154295
1789063970797510400,0.976510498046875,5.503820703887939,6.63298606185913,0.42287586822509765
1789063970807547400,0.98654736328125,5.937769754791259,6.467935784912109,0.838269856262207
1789063970817584600,0.996584716796875,6.692691465759277,6.337751069641113,1.44924019241333
1789063970827621400,1.006621337890625,7.186495558166503,6.383689813995361,1.874959175109863
1789063970837658400,1.016658447265625,7.175272737884521,6.747309191131591,1.9773112960815429
1789063970847695400,1.0266953125,6.943484089660644,7.183802081298828,1.8781015647888182
1789063970857732400,1.036732421875,7.131877832794189,7.415890004730224,1.4673463424682616
1789063970867769600,1.04676953125,7.173626724243164,7.675511247253418,1.077690022277832
1789063970877806300,1.056806396484375,7.156268762207031,7.712621372985839,0.9938929641723632
1789063970887844400,1.06684423828125,7.239317632293701,7.646032639312744,1.017685343170166
1789063970897881600,1.076881591796875,7.142951015472412,7.495048297119141,1.3316250358581543
1789063970907918300,1.08691845703125,7.169137596130371,7.139210075378418,1.701978105163574
1789063970917955300,1.096955322265625,7.11227530670166,6.88841745147705,1.9587562332153319
1789063970927992300,1.106992431640625,6.663961045837402,6.7745432350158685,1.9630957237243651
1789063970938029300,1.117029296875,6.211456932067871,6.668001261138915,1.8435352783203125
1789063970948066600,1.127066650390625,5.842899514007568,6.560262186431884,1.484405029296875
1789063970958103300,1.137103271484375,5.8363154594421385,6.749553755187988,1.1369465133666992
1789063970968140300,1.147140380859375,6.823474731445312,6.413617334747314,1.2562076835632323
1789063970978177300,1.15717724609375,6.976853275299072,6.436511888122558,1.5593734687805174
1789063970988214500,1.167214599609375,5.661987651062011,7.304409989929199,1.7576432937622068
1789063970998251500,1.17725146484375,6.003161387634277,7.297975572967529,2.0316297462463377
1789063971008288300,1.187288330078125,6.790853733825683,7.229291912841797,2.1815666252136228
1789063971018326500,1.197326416015625,7.594557303619385,7.452850492858886,1.8698714965820311
1789063971028363500,1.207363525390625,8.719233533477782,7.24590168685913,1.7896657409667969
1789063971038400500,1.217400390625,7.208941198730468,7.688828993988037,1.7890671905517577
1789063971048437200,1.227437255859375,6.4558151390075675,8.154351579284668,1.6359879219055176
1789063971058474200,1.23747412109375,7.228244449615478,7.490708806610107,1.8216881881713867
1789063971068511500,1.247511474609375,7.334337510681152,7.403619721221923,1.9725228927612304
1789063971078548500,1.257548583984375,7.4494088279724116,7.061847434234619,2.171391268157959
1789063971088585500,1.26758544921875,6.097881990814209,7.05466482925415,2.448969023132324
1789063971098622200,1.277622314453125,5.869535007476807,6.86941347579956,2.3249194496154786
1789063971108659500,1.287659423828125,6.110301911926269,6.479008967590332,2.122310134124756
1789063971118696400,1.297696533203125,6.368426778411865,6.418106462860107,1.9315221893310546
1789063971128733400,1.3077333984375,5.969492926788329,6.500407144927978,2.04285256652832
1789063971138770400,1.3177705078125,4.732588494110107,7.077858657836914,2.251896298980713
1789063971148807200,1.32780712890625,5.236418305969238,7.311742232513427,2.5718214958190915
1789063971158845400,1.337845458984375,7.7221981796264645,6.800729815673828,2.8217162940979
1789063971168882400,1.34788232421875,8.354117780303955,7.019350354766845,2.944419129180908
1789063971178919400,1.35791943359375,5.889436808776855,8.069357420349121,3.098246585845947
1789063971188956400,1.367956298828125,5.168931746673584,8.418761225128174,3.1444846054077145
1789063971198993400,1.377993408203125,6.962338427734375,7.783250321960449,2.9789854156494138
1789063971209030400,1.388030517578125,8.436568099975586,7.551611311340332,2.4857798736572265
1789063971219067400,1.3980673828125,7.848043404388427,7.586027960205078,2.4109610717773435
1789063971229104600,1.408104736328125,5.973533142089844,7.946804222869873,2.64948341217041
1789063971239141400,1.418141357421875,5.335328762054443,8.043170839691161,2.7162217834472653
1789063971249178400,1.428178466796875,6.664559596252441,7.586177597808837,2.564638890838623
1789063971259215400,1.43821533203125,7.733869912719726,7.09312169342041,2.6249428451538086
1789063971269252400,1.44825244140625,6.513425616455078,7.132626020812988,2.718316709899902
1789063971279289600,1.45828955078125,5.244947649383545,7.760355768585205,2.144456499481201
1789063971289326300,1.468326416015625,6.189460204315186,7.320720488739013,1.7326538139343262
1789063971299364400,1.4783642578125,6.966528280639648,6.8876692634582515,1.7227777320861815
1789063971309401600,1.488401611328125,8.438363751220702,6.562656388092041,1.609502066040039
1789063971319438300,1.498438232421875,6.757933460998535,7.076212644195556,1.6784850013732908
1789063971329475300,1.508475341796875,4.224868104553223,7.987206375885009,1.6071078643798826
1789063971339512300,1.51851220703125,6.357203958129882,7.211185762786865,1.5867571502685547
1789063971349549300,1.52854931640625,9.566332008361815,6.22432576599121,1.2565069587707518
1789063971359586600,1.538586669921875,7.727285858154296,6.9333087326049805,1.1764508407592773
1789063971369623300,1.548623291015625,3.6487633300781246,8.137592167663573,1.419761584472656
1789063971379660300,1.558660400390625,5.342960279846191,7.256226681518554,0.8631096984863281
1789063971389697300,1.568697265625,8.930372192382812,6.364685838317871,-0.1701379554748535
1789063971399734500,1.578734619140625,8.106168270874022,6.504896273040771,-0.7945756759643554
1789063971409771500,1.588771484375,6.1361892173767085,6.803273654937744,-1.318307289123535
1789063971419808500,1.59880859375,4.261828592681884,7.208342648315429,-1.5128361740112304
1789063971429846300,1.60884619140625,4.054430873870849,6.882880860137939,-1.5752350547790526
1789063971439883500,1.618883544921875,7.247996613311767,5.93088642501831,-1.356614515686035
1789063971449920500,1.62892041015625,7.632714892578124,5.721842692565918,-1.393724641418457
1789063971459957200,1.638957275390625,6.1571384819030754,6.725162825775146,-1.2972083869934081
1789063971469994200,1.648994140625,8.480411917877197,6.223427940368652,-1.7313070755004882
1789063971480031500,1.659031494140625,9.55705447692871,6.351667366790771,-2.351704580688476
1789063971490068500,1.669068359375,9.539247602081298,6.591835720825195,-2.351854218292236
1789063971500105500,1.67910546875,8.847024047088622,6.546794802093506,-1.9240403091430662
1789063971510142200,1.68914208984375,6.18676672744751,7.42471862335205,-1.3283330085754395
1789063971520179500,1.699179443359375,6.263530818176269,6.96533117980957,-0.3128922294616699
1789063971530216400,1.709216552734375,8.800935665130615,5.634603969573974,0.22655133209228515
1789063971540253400,1.71925341796875,9.130437668609618,5.8451440780639645,0.061949967956542965
1789063971550290400,1.72929052734375,9.374496600341796,5.256469744873047,0.2572270408630371
1789063971560327200,1.7393271484375,7.998728471374511,5.3381718765258785,0.30750527572631836
1789063971570365400,1.749365478515625,6.003161387634277,6.13544102935791,-0.32561142578124996
1789063971580402400,1.75940234375,4.752789570617676,6.198588098144531,0.2472013214111328
1789063971590439400,1.769439453125,5.636698896026611,5.561580818939209,0.9392752388000488
1789063971600476400,1.779476318359375,7.718008326721191,5.4884080307006835,1.3724761016845701
1789063971610513400,1.789513427734375,7.243357847595214,5.885246955871581,2.029684457397461
1789063971620550400,1.79955029296875,7.220014381408691,6.4463879699707025,2.417545126342773
1789063971630587400,1.80958740234375,8.662071968841552,6.560262186431884,2.2685060729980466
1789063971640623600,1.81962353515625,10.18927335281372,6.664110683441161,1.873163523864746
1789063971650660600,1.82966064453125,9.458293658447266,7.29722738494873,1.656039360809326
1789063971660697300,1.839697265625,8.779986400604248,7.596652230072021,1.6558897232055663
1789063971670734600,1.849734619140625,7.045237660217285,8.066364668273925,1.9336171157836912
1789063971680771600,1.859771484375,6.941987713623046,7.68015001296997,2.43879366607666
1789063971690808600,1.86980859375,8.309825049591064,6.861931595611572,2.5602994003295896
1789063971700846600,1.8798466796875,8.443900342559814,6.418106462860107,2.958036151123047
1789063971710883600,1.889883544921875,7.645883001708984,6.067505557250977,3.6311060928344725
1789063971720920600,1.899920654296875,6.5206082214355465,6.141426533508301,3.8488288063049314
1789063971730957600,1.90995751953125,6.170905141448975,5.9376201171875,4.310161538696288
1789063971740994600,1.91999462890625,6.3441854866027825,5.724236894226074,4.333205729675293
1789063971751031600,1.930031494140625,6.938994961547851,5.804143374633789,3.7304654617309567
1789063971761068500,1.940068603515625,6.262483354949951,6.254552561950684,3.45378553237915
1789063971771105500,1.95010546875,5.454440294647217,6.575225946807861,3.2351649932861326
1789063971781142500,1.960142578125,6.4083800186157225,6.340594184112549,3.0768484085083005
1789063971791179800,1.9701796875,7.691971383666992,6.233752935028075,3.1239842536926266
1789063971801216500,1.980216552734375,7.388955236053467,6.462249555969238,3.2076316741943356
1789063971811253500,1.99025341796875,8.811709572601318,6.095038876342773,3.1426889541625975
1789063971821290500,2.00029052734375,8.897003006744384,6.228515618896484,2.9064111778259276
1789063971831327700,2.01032763671875,6.707505588531494,7.283760000610351,2.295590479278564
1789063971841365500,2.020365478515625,6.81180299835205,7.42441934814453,1.9460370368957518
1789063971851402500,2.030402587890625,6.782623665618896,7.409156312561035,1.8944120635986328
1789063971861439500,2.040439453125,6.8302084236145015,7.4697595420837395,1.6341922706604004
1789063971871476700,2.050476806640625,7.536946826171874,7.209689386749267,1.6627730529785156
1789063971881513500,2.060513427734375,6.481852082061767,7.326257080078125,1.3326724990844725
1789063971891550500,2.070550537109375,6.807762783050537,7.180510054016112,0.3429693878173828
1789063971901587500,2.08058740234375,7.637503295898437,6.398204661560058,-0.026785131072998045
1789063971911624700,2.090624755859375,6.581361088562011,6.611587884521484,-0.9594763153076171
1789063971921661700,2.10066162109375,6.600813977050781,6.643909606933593,-1.1502642601013182
1789063971931698700,2.11069873046875,6.743717888641357,6.063764617156982,-1.224484511566162
1789063971941735400,2.1207353515625,6.694487117004394,6.347926426696777,-1.9629460861206054
1789063971951772400,2.1307724609375,7.001244204711914,6.131550451660156,-1.956810944366455
1789063971961809700,2.1408095703125,5.791723453521728,6.366331851959228,-1.643320164489746
1789063971971846700,2.1508466796875,6.437708988952636,6.073640699005127,-1.6903063720703124
1789063971981884400,2.160884521484375,8.194454457092284,5.578639505767822,-1.7337012771606444
1789063971991921700,2.170921630859375,8.275857313537598,5.640589473724365,-2.041655465698242
1789063972001958700,2.180958740234375,8.933364944458008,5.45219573059082,-2.1344307800292968
1789063972011995600,2.19099560546875,7.897872726440429,6.01378565750122,-2.1574749710083005
1789063972022032400,2.201032470703125,8.12083275604248,6.063315704345703,-1.9093758239746093
1789063972032069600,2.211069580078125,8.266430144500731,5.847388642120361,-1.3536217636108399
1789063972042106600,2.221106689453125,7.484274389648437,6.3347583175659175,-0.9304466201782225
1789063972052143600,2.2311435546875,8.29905114212036,5.532850399017334,-0.09232640151977539
1789063972062180600,2.2411806640625,7.889941933441162,5.5270145324707025,0.4885667762756347
1789063972072217300,2.25121728515625,8.232612046051026,5.116408947753906,0.9350853858947753
1789063972082254600,2.261254638671875,8.097638927459716,4.7758337615966795,1.301248602294922
1789063972092291600,2.27129150390625,7.795670243072509,5.159803852844238,1.463306127166748
1789063972102328600,2.28132861328125,8.794052335357666,4.761917464447021,1.81944362411499
1789063972112366600,2.29136669921875,8.328080837249756,5.0008887176513666,1.9768623832702636
1789063972122403600,2.301403564453125,6.769006643676757,6.12257219543457,2.1154268043518063
1789063972132440600,2.311440673828125,7.040598894500732,6.1845221633911125,2.4293664970397946
1789063972142477600,2.3214775390625,8.719083895874023,5.859060375213622,2.5055320373535155
1789063972152514600,2.3315146484375,8.03194801940918,6.570287905883789,2.571073307800293
1789063972162551600,2.341551513671875,8.001870861053467,6.694636754608154,2.5570073730468748
1789063972172588500,2.351588623046875,9.086593850708008,6.420799939727782,2.331054591369629
1789063972182625500,2.36162548828125,9.935936889648437,6.103119306945801,1.9238906715393065
1789063972192662500,2.37166259765625,9.772532626342773,5.607070650482178,1.4315829551696777
1789063972202699800,2.38169970703125,4.302230745697021,7.521234877777099,1.313967798614502
1789063972212736500,2.391736572265625,3.235613906097412,7.102848137664795,1.2910732452392577
1789063972222773500,2.4017734375,7.8523828948974606,5.346102669525147,0.49634793167114255
1789063972232810500,2.411810546875,10.749067628479004,5.173121599578857,-0.23986907882690428
1789063972242848500,2.4218486328125,8.039579537200927,5.647323165893554,0.1632546257019043
1789063972252885500,2.431885498046875,5.207089335632324,7.012467024993896,-0.0900818374633789
1789063972262922500,2.441922607421875,4.352359342956543,8.149263900756836,0.9274538681030273
1789063972272959500,2.45195947265625,4.7195700225830075,7.730128972625732,2.6108769104003904
1789063972282996700,2.461996826171875,7.340771927642822,7.501183438873291,2.8330887519836425
1789063972293033500,2.472033447265625,11.794884841156005,7.359177352905273,1.615936483001709
1789063972303070500,2.482070556640625,12.536638442993164,6.969371395111083,-0.13976152191162108
1789063972313107500,2.492107421875,7.222707858276367,7.838316960144042,-1.601271997833252
1789063972323144700,2.502144775390625,5.50292287826538,8.05080235748291,-1.4600140998840332
1789063972333181700,2.512181640625,6.99091921005249,6.448931809234619,0.5086182151794433
1789063972343218700,2.52221875,8.793902697753905,5.054758255004883,2.4808418327331543
1789063972353255400,2.53225537109375,7.696161236572265,5.039944132232666,4.067748620605468
1789063972363292400,2.54229248046875,4.26452206954956,6.022315000915527,3.8943186378479
1789063972373329700,2.55232958984375,4.090493536376953,5.558438429260254,2.709488091278076
1789063972383367400,2.562367431640625,5.895721588134765,4.7089457527160645,1.3476362594604492
1789063972393404400,2.572404296875,5.501276864624023,6.223427940368652,-0.03486556167602539
1789063972403441700,2.582441650390625,6.376507209014892,6.041468614196777,-0.4734533782958984
1789063972413478700,2.592478759765625,7.236923430633545,5.810577791595459,-0.1605611488342285
1789063972423515600,2.602515625,5.80354482421875,7.200561492919921,-0.4472667976379394
1789063972433552400,2.612552490234375,7.782651771545409,7.2529346542358395,-0.8363245674133301
1789063972443589600,2.622589599609375,8.872612077331542,7.01007282333374,-1.0992378372192382
1789063972453626600,2.632626708984375,7.700051814270019,7.785045973205566,-1.2605471740722656
1789063972463663600,2.64266357421875,8.014739694976805,8.108861747741699,-1.565957523345947
1789063972473700600,2.65270068359375,8.48475140838623,7.83367819442749,-1.266682315826416
1789063972483737300,2.6627373046875,7.295731008911132,7.521833428192139,-0.47554830474853516
1789063972493774600,2.672774658203125,7.781005757904052,7.1592615142822265,-0.25303718795776364
1789063972503811600,2.6828115234375,6.956352923583984,6.980594215393066,-0.3058592620849609
1789063972513849600,2.692849609375,6.177788471221923,6.927921778869629,-0.14903905334472656
1789063972523886600,2.702886474609375,6.81210227355957,6.155193193054199,0.04713584518432617
1789063972533923600,2.712923583984375,6.03937368774414,6.429927833557128,0.37978023834228514
1789063972543960600,2.722960693359375,6.251410172271728,6.299743118286132,0.870142665863037
1789063972553997600,2.73299755859375,7.18859048461914,5.735459714508056,1.0173860679626465
1789063972564034600,2.74303466796875,6.645106707763672,6.615029549407959,0.3730465461730957
1789063972574071600,2.753071533203125,7.445069337463378,6.649296560668945,-0.3769371238708496
1789063972584108500,2.763108642578125,7.907748808288574,6.551433567810058,-1.0580874961853026
1789063972594145500,2.7731455078125,6.843226895141601,7.558494641113281,-1.4324807807922362
1789063972604182500,2.7831826171875,7.8652517288208,7.0010945671081535,-1.3159130874633789
1789063972614219800,2.7932197265625,8.016535346221923,6.934954746246338,-1.1613374427795409
1789063972624256500,2.803256591796875,8.021623024749756,6.90098701019287,-1.1278186195373534
1789063972634293500,2.81329345703125,8.469189097595214,6.295553265380859,-1.0755950958251952
1789063972644330800,2.823330810546875,7.276427758026123,6.5628060256958,-1.5454571716308594
1789063972654368500,2.833368408203125,6.693439653778076,6.703166098022461,-1.868075845336914
1789063972664405500,2.843405517578125,7.213579964447021,6.019621524047851,-1.9768623832702636
1789063972674442800,2.85344287109375,6.804470755767822,6.392518432617187,-2.431012510681152
1789063972684479700,2.863479736328125,6.762721864318848,6.273706175231934,-2.6574142051696774
1789063972694516700,2.873516845703125,5.548861622619628,6.666654522705078,-2.571073307800293
1789063972704553700,2.8835537109375,6.125864222717285,6.64630380859375,-2.708739903259277
1789063972714590700,2.8935908203125,7.713519198608398,6.491129613494873,-2.762459803009033
1789063972724627700,2.903627685546875,7.466168239593506,7.0467340362548825,-2.2423194923400875
1789063972734664700,2.913664794921875,9.049483724975586,6.7471595535278315,-1.6418237884521483
1789063972744701700,2.92370166015625,7.564330507659911,7.285705289459228,-1.1369465133666992
1789063972754738700,2.93373876953125,6.804171480560302,7.888894470214844,-1.2469301521301268
1789063972764775700,2.943775634765625,8.265083406066895,7.280767248535156,-1.473481484222412
1789063972774812700,2.953812744140625,7.454346868896484,7.448361364746093,-1.5168763893127442
1789063972784850700,2.9638505859375,6.9521630706787105,7.409455587768554,-1.4637550399780273
1789063972794887700,2.9738876953125,6.337601432037353,6.921487361907959,-1.0972925483703613
1789063972804924700,2.983924560546875,6.5960255737304685,6.559364360809326,-0.9867103591918944
1789063972814961700,2.993961669921875,7.053168453216553,6.162525435638427,-0.8447042732238769
1789063972824998700,3.00399853515625,6.287472834777832,6.02665449142456,-0.9469067565917968
1789063972835036000,3.014035888671875,5.476137747192382,6.525995175170898,-1.3479355346679687
1789063972845072600,3.02407275390625,7.190835048675536,5.695356836700439,-1.474229672241211
1789063972855109600,3.034109619140625,6.147412037658691,6.202927588653564,-1.6457143661499023
1789063972865146600,3.044146728515625,7.210587212371825,5.972485678863525,-1.5951368560791015
1789063972875183600,3.05418359375,8.194454457092284,5.40760372467041,-1.4260463638305663
1789063972885220900,3.064220947265625,6.80521894378662,6.332214478302002,-1.6748936988830565
1789063972895257600,3.074257568359375,8.482357206726073,5.6766521362304685,-1.6754922492980957
1789063972905294600,3.084294677734375,7.177068389129638,6.386233653259277,-1.9265841484069823
1789063972915332900,3.094332763671875,7.827991965484618,6.433519136047363,-2.1211130332946775
1789063972925369900,3.104369873046875,8.804676605224609,5.906196220397949,-2.167500690460205
1789063972935406600,3.114406494140625,6.835894652557372,7.0649898239135736,-2.204610816192627
1789063972945443600,3.124443603515625,8.737040408325194,6.142922909545898,-1.4944307487487791
1789063972955480600,3.13448046875,7.811232553863525,6.277746390533447,-0.7240963645935058
1789063972965517800,3.144517822265625,7.021744556427001,6.706308487701415,-0.20874445724487303
1789063972975554800,3.154554931640625,7.888595195007324,5.954678804016113,0.37708676147460934
1789063972985591600,3.164591552734375,6.275202551269531,6.641665042877197,0.44891281127929683
1789063972995628500,3.174628662109375,8.029404180145264,6.142174721527099,0.8387187690734863
1789063973005665800,3.184665771484375,7.710975359344482,5.997924071502685,1.0736498069763183
1789063973015702800,3.194702880859375,5.793519104766846,7.226149523162841,1.1263222434997557
1789063973025739800,3.20473974609375,6.677278792572021,6.898143895721435,1.518821678161621
1789063973035776500,3.214776611328125,7.653215244293213,6.804470755767822,1.6852186935424804
1789063973045814800,3.224814697265625,7.855974197387694,7.239616907501221,1.734599102783203
1789063973055851800,3.234851806640625,7.933336838531494,7.111527118682861,2.4703672004699704
1789063973065888800,3.244888671875,7.918223440551757,7.010671373748779,2.4537574264526367
1789063973075925500,3.254925537109375,8.61179373397827,7.0175547035217285,2.261173830413818
1789063973085962800,3.264962646484375,7.850287968444824,6.779780551147461,1.99182614364624
1789063973095999700,3.274999755859375,8.634837924957274,6.527042638397217,0.8879495407104492
1789063973106036700,3.28503662109375,7.737161940002441,6.233154384613036,-0.011372457885742187
1789063973116073700,3.29507373046875,6.094589963531494,6.934356195831298,-1.2527660186767577
1789063973126110700,3.30511083984375,7.669525743103027,6.033837096405029,-1.633144807434082
1789063973136147700,3.315147705078125,6.897545345306396,5.857414361572265,-1.550095937347412
1789063973146184700,3.325184814453125,6.546196251678467,6.252158360290527,-1.6098013412475585
1789063973156221700,3.3352216796875,6.18616817703247,6.041019701385498,-1.535431452178955
1789063973166258700,3.3452587890625,5.840355674743652,6.382043800354004,-1.7217302688598632
1789063973176296700,3.355296630859375,8.13968709411621,5.6866778556823725,-1.8038813133239746
1789063973186333700,3.365333740234375,7.562235581207275,6.1188312553405755,-1.9882348411560058
1789063973196370700,3.37537060546875,7.242460021972656,6.706757400512695,-1.8442834663391112
1789063973206407700,3.38540771484375,7.0004960166931145,6.6519900375366205,-1.2352584190368652
1789063973216444700,3.395444580078125,5.878213988494872,7.389404148864745,-0.9811737678527831
1789063973226481700,3.405481689453125,7.788188362884521,6.941838076019287,-0.44532150878906246
1789063973236518700,3.4155185546875,7.3934443641662595,6.992415586090088,-0.20260931549072264
1789063973246556000,3.425555908203125,7.950545162963866,7.078606845855712,0.29403789138793945
1789063973256592600,3.435592529296875,8.55448253173828,6.245275030517578,1.1480196960449218
1789063973266629600,3.445629638671875,7.240963645935058,6.959944226074218,1.074547632598877
1789063973276666600,3.45566650390625,7.40526573486328,6.675932054138183,1.1125555839538575
1789063973286703600,3.46570361328125,6.623109980010986,6.529885752868652,1.1538555625915528
1789063973296740900,3.475740966796875,5.9783215454101555,6.873004778289794,1.105073703765869
1789063973306778600,3.485778564453125,6.8116533607482905,6.440851378631591,2.0407576400756833
1789063973316815600,3.495815673828125,6.912509105682372,6.329371363830566,2.7486931434631345
1789063973326852900,3.505852783203125,8.037334973144532,6.28253479385376,3.0916625312805173
1789063973336889900,3.515889892578125,6.779032363128661,6.725462100982666,2.8482021499633787
1789063973346926600,3.525926513671875,7.081300322723388,7.203703882598877,1.8031331253051757
1789063973356963600,3.535963623046875,7.880365126800537,6.790404821014404,1.2403460975646972
1789063973367000600,3.54600048828125,7.220463294219971,7.293187169647217,0.8681973770141601
1789063973377037800,3.556037841796875,8.00531252593994,6.968922482299805,1.4333786064147949
1789063973387074800,3.56607470703125,6.353911930847167,6.903680487060546,2.362927400970459
1789063973397111600,3.576111572265625,7.436390356445312,6.9360022094726554,2.6789620201110838
1789063973407148500,3.5861484375,6.2864253715515135,6.779182000732422,3.1227871528625486
1789063973417185800,3.596185791015625,6.848613848876953,6.988824283599853,2.733130832672119
1789063973427222800,3.606222900390625,10.11325745010376,5.804592287445068,2.5981577140808105
1789063973437260500,3.616260498046875,8.738686421966552,6.273257262420654,2.2514473861694335
1789063973447297800,3.6262978515625,7.671620669555663,6.976554000091553,2.060809078979492
1789063973457334800,3.636334716796875,5.42705661315918,7.25862088317871,2.235286524963379
1789063973467371800,3.646371826171875,5.964704523468018,7.126490879058838,2.386719779968262
1789063973477408800,3.65640869140625,7.212532501220703,6.856245366668701,2.6719290527343746
1789063973487445500,3.666445556640625,8.005611801147461,6.571933919525146,2.986168020629883
1789063973497482800,3.676482666015625,7.065438736724853,6.702717185211181,3.7038299682617186
1789063973507519700,3.686519775390625,5.727080008697509,6.886771437835693,4.04769718170166
1789063973517556700,3.696556640625,6.613084260559082,6.515221267700195,4.045901530456542
1789063973527593700,3.70659375,5.62457825012207,6.717830583190918,3.7306150993347167
1789063973537630700,3.716630615234375,8.60565859222412,5.712116248321533,3.273172944641113
1789063973547667700,3.726667724609375,7.628674677276611,5.721693054962158,3.0665234138488766
1789063973557705700,3.736705810546875,5.270984592437744,6.7543421585083,2.726546778106689
1789063973567742500,3.746742431640625,6.354061568450927,6.084414606475829,3.131915046691894
1789063973577779700,3.75677978515625,6.934954746246338,5.906944408416748,3.01983648147583
1789063973587816700,3.766816650390625,8.419659050750733,5.94390489654541,2.513462830352783
1789063973597853700,3.776853759765625,6.86986238861084,6.158185945129394,2.4768016174316405
1789063973607890700,3.786890625,7.191732874298095,6.182127961730957,2.131138752746582
1789063973617927700,3.796927734375,5.967846913146972,6.508337937927246,1.81944362411499
1789063973627964700,3.806964599609375,8.154650854492187,5.840804587554931,1.5198691413879393
1789063973638002200,3.817002197265625,8.125770796966552,5.8096799659729,0.960823053741455
1789063973648039200,3.8270390625,7.343465404510497,6.255151112365723,0.4248211570739746
1789063973658076200,3.837076171875,6.595875936126709,6.347776789093017,0.28431144714355466
1789063973668113200,3.847113037109375,5.664381852722167,6.739528035736083,0.31977555923461914
1789063973678150100,3.857150146484375,7.735067013549804,6.193201144409179,0.43993455505371093
1789063973688188200,3.867188232421875,7.681496751403808,6.099228729248047,0.7365162857055664
1789063973698225200,3.87722509765625,7.536049000549316,6.266822845458984,0.591816722869873
1789063973708262100,3.88726220703125,6.910563816833496,6.527042638397217,0.10295067138671875
1789063973718299100,3.897299072265625,7.697657612609863,6.404489440917969,-0.25258827514648435
1789063973728336100,3.907336181640625,7.6108678024291985,6.153397541809082,-0.643591333770752
1789063973738373000,3.917373046875,7.146991230773925,6.742670425415039,-0.7998129920959473
1789063973748410000,3.92741015625,7.098807922363281,6.380846699523925,-0.6830956611633301
1789063973758447000,3.937447021484375,7.663240963745117,6.472574550628662,-0.6308721374511719
1789063973768484000,3.947484130859375,8.867973311614989,6.100425830078125,-0.8364742050170898
1789063973778521000,3.95752099609375,7.937975604248046,6.705261024475098,-0.7887398094177246
1789063973788558300,3.967558349609375,7.470058817291259,6.886921075439453,-0.5072714767456055
1789063973798595000,3.977594970703125,7.359476628112793,7.160308977508545,-0.5765536872863769
1789063973808633000,3.987633056640625,8.436717737579345,6.749553755187988,-0.1144727668762207
1789063973818670000,3.997670166015625,7.817966246032714,6.864774710083007,-0.2223614791870117
1789063973828707300,4.007707275390625,8.208670029449463,6.823923644256592,-0.24361001892089842
1789063973838744000,4.017744140625,8.154201941680908,6.3706713424682615,-0.2694973243713379
1789063973848781000,4.027781005859375,8.00635998916626,6.489633237457275,-0.41584290084838865
1789063973858818000,4.037818115234375,6.696282768249511,6.5200096710205075,-0.05731120223999023
1789063973868855300,4.047855224609375,7.929745536041259,6.051045420837402,0.18420389022827147
1789063973878892300,4.057892333984375,7.60323628463745,5.904400569152831,0.20979192047119138
1789063973888929000,4.067928955078125,6.4083800186157225,6.519261483001708,0.3054103492736816
1789063973898966000,4.077966064453125,7.848043404388427,5.69505756149292,0.24779987182617186
1789063973909003300,4.088003173828125,6.99091921005249,6.19948592376709,-0.239420166015625
1789063973919040300,4.098040283203125,6.496217292022704,6.304830796813964,-0.35613749694824215
1789063973929077200,4.1080771484375,7.183951718902588,5.850680669403076,-0.9011176498413085
1789063973939115000,4.118114990234375,7.990797678375244,5.84155277557373,-1.408987677001953
1789063973949152300,4.12815234375,7.626130838012695,5.748328548431396,-1.3373112648010252
1789063973959189200,4.138189208984375,6.984933705902099,6.090100835418701,-1.3250409812927246
1789063973969226200,4.148226318359375,6.893954042816162,6.158934133148193,-1.3476362594604492
1789063973979263000,4.158262939453125,7.452401580047607,6.121524732208251,-1.6846201431274412
1789063973989300200,4.16830029296875,7.820210810089111,6.425887618255615,-2.2493524597167966
1789063973999337200,4.178337158203125,8.147617887115478,6.394912634277343,-2.490568276977539
1789063974009374200,4.188374267578125,8.613439747619628,6.257994226837158,-2.595613874816894
1789063974019411200,4.1984111328125,8.230966032409668,6.515670180511474,-2.7802666778564453
1789063974029448200,4.2084482421875,8.422352527618408,6.543053861999511,-2.886210101318359
1789063974039485200,4.218485107421875,8.068309957122802,6.273556537628173,-2.8458079483032224
1789063974049522200,4.228522216796875,6.959644950866699,6.736984196472168,-2.6541221778869626
1789063974059560000,4.238559814453125,6.22432576599121,6.676081691741943,-2.5763106239318847
1789063974069597200,4.24859716796875,7.20116004333496,6.105513508605957,-2.354547695159912
1789063974079634200,4.25863427734375,6.92088881149292,6.037129123687744,-2.130390564727783
1789063974089671200,4.268671142578125,7.190236498260497,6.123619658660888,-2.0777181282043458
1789063974099708200,4.278708251953125,7.662941688537598,5.92475128326416,-2.3222259727478027
1789063974109745200,4.2887451171875,7.919121266174316,6.1176341545104975,-2.6309283493041993
1789063974119782100,4.2987822265625,6.763021139526367,6.845621096801757,-2.929754644012451
1789063974129819100,4.308819091796875,7.563582319641113,6.693140378570556,-2.940229276275635
1789063974139856100,4.318856201171875,7.493252645874023,6.9241808387756345,-2.703652224731445
1789063974149893000,4.32889306640625,7.44417151184082,6.991218485260009,-2.7670985687255856
1789063974159930000,4.33893017578125,8.512135089874267,7.151031446075439,-3.191470812988281
1789063974169967000,4.348967041015625,7.409904500579834,7.268347327423095,-3.51154564743042
1789063974180005000,4.359005126953125,7.948749511718749,7.157765138244629,-3.9625533851623533
1789063974190042400,4.36904248046875,7.730128972625732,6.834099001312255,-3.9342718780517574
1789063974200079000,4.3790791015625,8.084770093536376,6.399701037597656,-3.782688985443115
1789063974210116000,4.3891162109375,6.722319711303711,6.424391242218017,-3.1663316955566403
1789063974220153000,4.399153076171875,6.5020531585693355,5.9576715560913085,-2.5321675308227536
1789063974230190000,4.409190185546875,5.768828900146484,6.009745442199707,-2.327762564086914
1789063974240227300,4.419227294921875,6.679822631835937,5.618742383575439,-1.8626888916015625
1789063974250264000,4.42926416015625,6.319196006774902,5.467758041381836,-1.186775835418701
1789063974260301000,4.439301025390625,7.087435464477538,5.517886638641357,-0.6446387969970703
1789063974270338000,4.449338134765625,6.605901655578613,5.67590394821167,-0.4382885414123535
1789063974280375300,4.459375244140625,6.181080498504638,6.286874284362793,-0.29239187774658204
1789063974290412300,4.469412353515625,6.1088055358886715,6.291064137268066,0.493504817199707
1789063974300450000,4.479449951171875,6.748655929565429,6.70975015258789,0.6772597946166992
1789063974310487300,4.4894873046875,7.758410479736328,6.4460886947631835,1.047762501525879
1789063974320524300,4.499524169921875,6.988076095581055,6.849810949707031,0.7971195152282714
1789063974330561300,4.509561279296875,7.6844895034790035,6.93929423675537,0.5591957252502441
1789063974340598000,4.519597900390625,6.9816416786193845,6.922385187530518,0.8152256652832031
1789063974350635000,4.529635009765625,7.81422530593872,6.619668315124511,1.146672957611084
1789063974360672300,4.53967236328125,7.203254969787597,6.638223377990722,1.2930185340881346
1789063974370709200,4.549709228515625,7.66787972946167,6.883030497741699,1.2183493698120116
1789063974380746200,4.559746337890625,7.6276272140502925,6.571335369110107,1.6051625755310057
1789063974390783000,4.569782958984375,8.291868537139893,6.565798777770996,1.6213234367370604
1789063974400820200,4.5798203125,6.3341597671508785,7.159411151885986,1.4411597618103027
1789063974410857200,4.589857177734375,5.3868040977478024,7.69960290145874,1.0395324333190918
1789063974420895000,4.59989501953125,6.995258700561523,6.828712047576904,0.7429507026672363
1789063974430932000,4.609931884765625,8.70845962600708,6.210259831237793,0.5571007987976074
1789063974440969200,4.61996923828125,7.74404526977539,6.509235763549804,0.6112696113586426
1789063974451006200,4.630006103515625,6.99061993484497,6.847716023254394,0.5978022270202636
1789063974461043200,4.640043212890625,5.94390489654541,6.960991689300537,0.45444940261840816
1789063974471080200,4.650080078125,6.675932054138183,7.31682991104126,0.02424129180908203
1789063974481117200,4.6601171875,8.749161054229736,6.453570574951171,-0.20649989318847656
1789063974491154200,4.670154296875,7.849539780426025,7.006631158447266,-0.7074865905761718
1789063974501191200,4.680191162109375,7.119158636474609,7.300818687438964,-0.9484031326293945
1789063974511228200,4.690228271484375,6.153397541809082,7.350498371887206,-1.4845546669006346
1789063974521265200,4.70026513671875,7.343465404510497,6.990021384429931,-1.9524714538574217
1789063974531302100,4.71030224609375,8.230217844390868,6.431723484802245,-2.0630536430358886
1789063974541340200,4.720340087890625,8.306533022308349,6.330119551849365,-1.876305913543701
1789063974551377200,4.730377197265625,6.418854650878906,6.801777278900146,-1.569848101043701
1789063974561414100,4.7404140625,6.000318273162842,6.8308069740295405,-1.3455413330078123
1789063974571451100,4.750451171875,6.280290229797363,6.513575254058837,-1.7323545387268064
1789063974581488000,4.760488037109375,6.861183407592773,6.386532928466797,-1.9936217948913573
1789063974591525000,4.770525146484375,6.7803791015625,6.228814894104003,-2.146850701141357
1789063974601562400,4.780562255859375,7.12529377822876,6.1085062606811515,-2.217928562927246
1789063974611599000,4.79059912109375,6.8673185493469235,6.5874962303161615,-1.9743185440063475
1789063974621636000,4.800635986328125,8.236801898956298,5.842749876403809,-1.5843629486083983
1789063974631673000,4.810673095703125,7.66099639968872,6.533776330566406,-1.6283564041137695
1789063974641710000,4.8207099609375,6.590937895202637,7.01665687789917,-1.3825018211364746
1789063974651747000,4.8307470703125,5.826140102386474,7.430255214691162,-1.0479121391296387
1789063974661784800,4.840784912109375,8.112153775024414,6.687903062438965,-0.6311714126586914
1789063974671821800,4.85082177734375,8.380753273773193,6.405985816955566,-0.4263175331115722
1789063974681859000,4.860859130859375,7.05466482925415,7.008576447296142,-0.6018424423217773
1789063974691896000,4.87089599609375,6.755239984130859,7.007229708862305,-0.6423942329406738
1789063974701932800,4.880932861328125,7.883657154083251,6.063166066741943,-0.4791396072387695
1789063974711969800,4.8909697265625,7.509114231872558,6.433369498443603,-0.26126725616455077
1789063974722007000,4.901007080078125,8.222735964202881,6.002862112426757,0.24794950942993163
1789063974732044000,4.9110439453125,7.381622993469238,5.901258179473877,0.371550170135498
1789063974742081000,4.9210810546875,6.7639189651489255,6.556221971130371,-0.020201076507568357
1789063974752117800,4.93111767578125,6.279841316986084,6.395211909484863,-0.1701379554748535
1789063974762155000,4.941155029296875,7.925705320739746,6.0012160987854,-0.4695628005981445
1789063974772193000,4.951193115234375,8.473528588104248,5.81626402053833,-0.41090485992431636
1789063974782230000,4.96122998046875,7.960421244812011,6.066158818817138,-0.2771288421630859
1789063974792266800,4.971266845703125,7.165396656036377,6.535571981811523,-0.39444472351074217
1789063974802304000,4.981303955078125,7.522880891418456,6.4448915939331055,-0.5494692810058593
1789063974812341000,4.991341064453125,7.669076830291748,6.5948284729003905,-0.5602431884765625
1789063974822378000,5.0013779296875,7.917325614929199,6.923133375549316,-0.6416460449218749
1789063974832415000,5.0114150390625,7.90370859298706,6.890961290740966,-0.23074118499755858
1789063974842452000,5.021451904296875,8.00007520980835,7.1984665664672844,-0.04773439559936523
1789063974852489000,5.031489013671875,8.551789054870605,6.9898717468261715,0.14559738845825196
1789063974862526000,5.04152587890625,7.79552060546875,7.297975572967529,-0.2480991470336914
1789063974872563000,5.05156298828125,7.325658529663086,7.549965297698974,-0.3365349708557129
1789063974882600000,5.061599853515625,8.053645471954345,6.979097839355468,-0.2015618522644043
1789063974892638000,5.071637939453125,9.202413356018067,6.504746635437011,0.36975451889038086
1789063974902675000,5.081675048828125,7.518391763305663,6.375908658599853,0.9973346290588379
1789063974912712000,5.0917119140625,5.660491275024413,6.891110928344726,1.2322656669616698
1789063974922749000,5.1017490234375,5.468506229400634,6.316502529907226,1.2517185554504393
1789063974932786000,5.111785888671875,6.177788471221923,5.6109612281799315,1.0404302589416503
1789063974942823000,5.121822998046875,6.959644950866699,5.087977803039551,0.9632172554016113
1789063974952860000,5.13185986328125,5.84185205078125,5.287295091247558,1.2808978881835937
1789063974962897200,5.141897216796875,5.250633878326416,5.380968231201171,1.3207014907836914
1789063974972934000,5.151933837890625,5.838111110687255,5.349245059204101,1.0836755264282225
1789063974982971000,5.161970947265625,6.642862143707275,5.601384421539306,0.5443816024780274
1789063974993007900,5.1720078125,6.978948201751709,6.337152519226074,0.22026655273437498
1789063975003046100,5.182046142578125,8.232163133239746,6.121225457000732,0.8119336380004882
1789063975013083000,5.192082763671875,7.366659233093261,6.9436337272644035,1.3925275405883788
1789063975023120000,5.202119873046875,8.082226254272461,7.44402187423706,1.374571028137207
1789063975033156900,5.212156982421875,9.12280615081787,7.151181083679199,1.5049053810119628
1789063975043194000,5.222194091796875,8.664466170501708,7.522132703399658,1.1662754837036131
1789063975053231000,5.232231201171875,8.543708624267577,7.940220168304443,0.8105868995666503
1789063975063267800,5.242267822265625,8.587851717376708,7.472602656555176,1.0570400329589844
1789063975073304800,5.252304931640625,8.097190014648437,7.529016033172607,1.2331634925842285
1789063975083341800,5.262341796875,8.032696207427978,7.1029977752685545,1.3958195678710936
1789063975093379000,5.272379150390625,6.255450387573242,7.287500940704345,1.6090531532287597
1789063975103416000,5.282416015625,6.265476107025146,7.053467728424072,1.4125789794921875
1789063975113453800,5.292453857421875,7.173925999450683,6.412719509124756,1.3287819213867187
1789063975123491000,5.302490966796875,6.85684391708374,6.1267620483398435,1.373822840118408
1789063975133528000,5.312528076171875,5.8654947921752925,6.522254235076904,1.3335703247070312
1789063975143565000,5.32256494140625,6.204723239898681,6.296900003814697,1.2229881355285643
1789063975153601800,5.332601806640625,6.572682107543945,6.330269189453125,1.205330898284912
1789063975163638800,5.342638671875,6.825270382690429,6.369923154449462,1.2132616912841796
1789063975173676000,5.352676025390625,6.927173590850829,6.6337342498779295,1.2005424949645995
1789063975183713000,5.362713134765625,6.42304450378418,6.9235822883605955,1.54500825881958
1789063975193750000,5.37275,7.210138299560547,6.969221757507324,1.7675193756103516
1789063975203786800,5.382786865234375,7.324611066436767,6.813748287200927,1.9137153144836425
1789063975213824000,5.392823974609375,7.193378887939453,7.141155364227295,1.8915689491271972
1789063975223862000,5.402862060546875,8.187571127319336,6.655581340026855,1.6320973442077635
1789063975233898800,5.412898681640625,7.972541890716553,6.612036797332763,1.2770073104858397
1789063975243936000,5.42293603515625,7.458985634613037,6.757783823394775,1.0199299072265624
1789063975253973000,5.432972900390625,7.682095301818848,6.114491764831542,0.8167220413208007
1789063975264010000,5.443010009765625,5.359420416259765,6.763619689941406,0.7956231391906737
1789063975274047000,5.453046875,5.80997924118042,6.452223836517334,0.452653751373291
1789063975284084000,5.463083984375,6.842329069519042,5.849184293365478,0.01705868682861328
1789063975294121000,5.473120849609375,7.424269710540771,5.794267292785644,-0.3678092300415039
1789063975304158000,5.483157958984375,6.887968538665771,5.848735380554199,0.004938040924072265
1789063975314195000,5.49319482421875,6.142473996734619,6.136338854980468,-0.12000935821533203
1789063975324232000,5.50323193359375,6.808062058258057,6.5482911781311035,-0.4070142822265625
1789063975334270000,5.51327001953125,8.252513847351073,5.836165821838379,-0.4607341819763183
1789063975344307000,5.523306884765625,7.806294512939453,6.669198361968994,-0.6793547210693359
1789063975354344000,5.533343994140625,6.921038449096679,7.324311791229247,-0.8387187690734863
1789063975364381000,5.543380859375,7.813028205108642,7.273435005950927,-1.2644377517700194
1789063975374418000,5.55341796875,8.23575443572998,7.2815154365539545,-1.585260774230957
1789063975384455000,5.563454833984375,8.008903828430176,7.538592839813232,-1.7944541442871094
1789063975394492000,5.573491943359375,7.168239770507812,7.635258731842041,-1.6306009681701659
1789063975404529000,5.58352880859375,7.54607472000122,7.477391059875488,-1.7066168708801268
1789063975414566100,5.593566162109375,7.737311577606201,7.1872437461853025,-1.8025345748901367
1789063975424603000,5.603602783203125,8.220491400146484,6.8511576881408685,-2.0497358963012693
1789063975434640000,5.613639892578125,7.248295888519286,7.033416289520264,-2.2438158683776854
1789063975444678000,5.623677978515625,6.673238577270507,6.993612686920166,-1.8240823898315428
1789063975454715100,5.633715087890625,5.508908382415771,6.815992851257324,-1.4487912796020508
1789063975464751900,5.643751953125,7.065438736724853,6.6908958145141595,-1.5502455749511719
1789063975474788900,5.653788818359375,9.209446323394776,5.46536383972168,-1.1553519386291504
1789063975484825900,5.663825927734375,7.469310629272461,5.810278516387939,-0.6202478675842285
1789063975494863000,5.673863037109375,4.630984561157226,7.123947039794921,-0.6669347999572753
1789063975504900000,5.683900146484375,5.792621279144287,6.6802715446472165,-0.675464143371582
1789063975514936800,5.693936767578125,8.80332986679077,5.50337179107666,-0.7627028663635254
1789063975524973800,5.703973876953125,7.798662995147705,6.238541338348388,-0.8023568313598632
1789063975535011000,5.714010986328125,6.983736605072021,6.6647092338562,-0.33848025970458984
1789063975545048000,5.724048095703125,6.839485955047607,6.42244595336914,-0.2941875289916992
1789063975555085800,5.7340859375,8.040926275634765,6.437110438537597,-0.5123591552734374
1789063975565122800,5.744122802734375,8.067412131500244,6.14172580871582,-0.6488286499023437
1789063975575160000,5.75416015625,7.940369805908203,6.338349620056152,-0.7633014167785644
1789063975585197000,5.764197021484375,7.6114663528442374,6.272957987213134,-0.7234978141784667
1789063975595233800,5.77423388671875,7.400178056335449,6.521655684661865,-0.6953659446716308
1789063975605270800,5.784270751953125,7.876324911499023,6.279392404174804,-0.4553472282409668
1789063975615308000,5.79430810546875,7.4299559394836425,6.1550435554504395,-0.3678092300415039
1789063975625345000,5.804344970703125,6.011391455841064,7.02234310684204,-0.5716156463623047
1789063975635382000,5.814382080078125,7.221361119842529,6.331615927886962,-0.35179800643920894
1789063975645419000,5.8244189453125,8.15255592803955,5.795464393615722,-0.1140238540649414
1789063975655455700,5.834455810546875,8.123376595306397,5.768828900146484,-0.04115034103393554
1789063975665493800,5.84449365234375,6.629694034576415,6.315455066680908,-0.15726912155151365
1789063975675531000,5.854531005859375,7.035062303161621,6.092345399475097,-0.1541267318725586
1789063975685567700,5.864567626953125,7.708281882476806,5.830030680084228,-0.12689268798828124
1789063975695604700,5.874604736328125,7.468712078857421,6.090100835418701,0.15203180541992187
1789063975705641700,5.884641845703125,7.1489365196228025,6.477213316345215,0.5587468124389648
1789063975715679000,5.894678955078125,7.851485069274902,6.533925968170165,0.6341641647338867
1789063975725716000,5.904716064453125,9.523386016082764,6.110451549530029,0.5442319648742675
1789063975735752700,5.914752685546875,7.47619395904541,7.108684004211425,-0.036062662506103516
1789063975745789700,5.924789794921875,7.421127320861816,7.708431520080566,-0.47270519027709956
1789063975755826700,5.93482666015625,8.390180442810058,7.0184525291442865,-0.4424783943176269
1789063975765865000,5.944864990234375,9.181913004302977,7.1960723648071285,-0.3206733848571777
1789063975775901700,5.954901611328125,8.285284482574463,7.206546997070312,-0.1092354507446289
1789063975785938700,5.964938720703125,6.459556079101562,7.943063282775879,-0.2458545829772949
1789063975795976000,5.974975830078125,7.643788075256348,7.27822340927124,-0.16460136413574217
1789063975806013000,5.985012939453125,8.595034322357177,6.424840155029297,0.02124853973388672
1789063975816050000,5.9950498046875,7.099556110382079,6.779331638336181,0.20844518203735352
1789063975826086700,6.005086669921875,5.268291115570068,6.861931595611572,0.6175543907165527
1789063975836123600,6.01512353515625,5.548562347412109,6.144868198394775,0.6977601463317871
1789063975846161000,6.025160888671875,5.769128175354004,5.800252796936035,0.5499181938171387
1789063975856198000,6.035197998046875,5.647921716308593,5.525218881225586,0.6578069061279297
1789063975866235600,6.045235595703125,5.651662656402587,5.455637395477295,0.6610989334106445
1789063975876273000,6.05527294921875,5.863848778533935,5.413439591217041,1.1082160934448242
1789063975886310000,6.065309814453125,6.872855140686035,5.571456900787354,1.0398317085266113
1789063975896347000,6.075346923828125,7.502530177307128,5.904400569152831,0.9611223289489745
1789063975906384000,6.0853837890625,8.474127138519286,6.322488034057617,0.9202712631225586
1789063975916420900,6.0954208984375,7.698256163024902,7.085789450836181,1.0990881996154784
1789063975926457900,6.105457763671875,7.973738991546631,7.823353199768066,1.2928688964843749
1789063975936494800,6.115494873046875,8.324190259552001,7.6354083694458,1.511190160369873
1789063975946531800,6.12553173828125,7.785195610809326,8.036437147521973,1.4692916313171387
1789063975956568800,6.13556884765625,8.447940557861328,7.748534397888183,1.409137314605713
1789063975966605800,6.145605712890625,9.288454978179931,6.756137809753418,1.2633902885437012
1789063975976643800,6.155643798828125,7.963114721679687,6.882731222534179,1.117942537689209
1789063975986680800,6.165680908203125,6.232705471801758,6.7657146163940425,1.304241354370117
1789063975996717800,6.1757177734375,5.705083280944824,6.569988630676269,1.335515613555908
1789063976006754800,6.1857548828125,6.844723271179199,5.73994884262085,1.491288359069824
1789063976016791800,6.195791748046875,5.989095452880859,5.825092639160156,1.7139491134643554
1789063976026828800,6.205828857421875,5.041141233062744,6.291064137268066,1.5312415992736816
1789063976036865800,6.21586572265625,5.757606079864502,6.255300749969482,1.6563386360168455
1789063976046902800,6.22590283203125,6.396259372711182,6.0139352951049805,1.7788918334960937
1789063976056939800,6.235939697265625,7.8362220336914055,6.482600270080566,1.329230834197998
1789063976066976800,6.245976806640625,8.053495834350585,6.620117227935791,1.141585279083252
1789063976077015000,6.25601513671875,7.669675380706787,7.06065033340454,0.7897872726440429
1789063976087051800,6.2660517578125,7.844901014709472,7.656058358764648,0.2027589530944824
1789063976097088800,6.2760888671875,9.112481156158447,7.281665074157714,0.3987842140197754
1789063976107125800,6.286125732421875,9.541492166137695,7.0449383850097655,0.9002198242187499
1789063976117162800,6.296162841796875,8.629002058410643,7.302913613891601,1.0567407577514647
1789063976127200000,6.306199951171875,7.212382863616943,7.702894928741455,1.507299582672119
1789063976137236700,6.31623681640625,7.161206803131103,6.753145057678222,1.5140332748413086
1789063976147273700,6.326273681640625,6.419453201293945,6.847566385650635,1.294065997314453
1789063976157310700,6.336310791015625,6.201281575012207,6.194996795654297,1.1709142494201659
1789063976167348000,6.346347900390625,6.152798991394042,5.657648160552978,0.802506468963623
1789063976177385000,6.356385009765625,6.3229369468688965,5.41388850402832,0.11522095489501953
1789063976187422700,6.366422607421875,5.558438429260254,5.406855536651611,-0.21039047088623045
1789063976197460000,6.3764599609375,5.313631309509277,5.6955064743041985,-0.1497872413635254
1789063976207497000,6.3864970703125,6.420500664520263,5.556942053222656,0.1092354507446289
1789063976217534000,6.396533935546875,8.647557121276854,5.425111324310302,0.43948564224243164
1789063976227570700,6.40657080078125,8.196699021148682,6.1167363288879395,0.6549637916564941
1789063976237607700,6.416607666015625,7.3292498321533195,7.03581049118042,0.8430582595825195
1789063976247645000,6.42664501953125,7.0278796981811515,7.567323259735107,0.4746504791259765
1789063976257682000,6.436681884765625,9.133879333496093,7.190535773468017,-0.19991583862304688
1789063976267719000,6.446718994140625,10.745925238800048,6.689549076080322,-0.5307645805358886
1789063976277755600,6.456755615234375,9.517101236724853,7.09925683517456,-0.5538087715148925
1789063976287794000,6.4667939453125,8.639177415466309,7.223456046295166,-0.20814590682983397
1789063976297831000,6.476830810546875,8.292766362762451,6.636427726745605,-0.14320318679809568
1789063976307867600,6.48686767578125,7.063792723083496,7.184699906921386,-0.24660277099609373
1789063976317904600,6.496904541015625,8.010549842071534,6.18033231048584,-0.27563246612548825
1789063976327942000,6.50694189453125,7.169137596130371,6.166116738128662,-0.3311480171203613
1789063976337979000,6.516978759765625,5.7885810638427735,6.468833610534667,-0.414346524810791
1789063976348015900,6.527015869140625,6.036680210876464,5.73994884262085,-0.3929483474731445
1789063976358052600,6.537052490234375,6.830058786010742,5.473144995117187,-0.47270519027709956
1789063976368089900,6.54708984375,6.609642595672607,5.384559533691406,-0.6720224784851074
1789063976378126800,6.557126953125,6.284480082702636,5.587168849182128,-1.1679214973449705
1789063976388164900,6.567164794921875,5.904699844360351,6.021716450500488,-1.7133505630493162
1789063976398201600,6.57720166015625,6.964582991790771,5.965153436279296,-1.813757395172119
1789063976408238800,6.58723876953125,7.953687552642822,6.038326224517822,-1.467047067260742
1789063976418275800,6.59727587890625,8.700079920196533,6.228216343688964,-1.0794856735229492
1789063976428312800,6.607312744140625,8.516025667572022,6.670994013214111,-0.6982090591430664
1789063976438349800,6.617349853515625,7.975833917999267,7.116614797210693,-0.8417115211486816
1789063976448386800,6.62738671875,8.189965328979492,7.211933950805664,-0.9168295982360839
1789063976458423800,6.637423828125,8.36444277496338,7.08055213470459,-1.2261305252075194
1789063976468460800,6.647460693359375,8.577825997924805,7.16330172958374,-1.3284826461791992
1789063976478497800,6.657497802734375,8.21690009765625,6.720823335266113,-0.9910498497009277
1789063976488535800,6.667535888671875,6.941987713623046,7.021594918823242,-0.9464578437805176
1789063976498572800,6.67757275390625,5.983558861541748,7.150881808471679,-1.1347019493103028
1789063976508609800,6.68760986328125,5.696703575134277,6.558765810394287,-1.0313023651123046
1789063976518646800,6.697646728515625,6.037877311706542,6.2666732078552245,-0.849791951751709
1789063976528683800,6.707683837890625,5.407753362274169,5.981763210296631,-0.5476736297607422
1789063976538720800,6.717720703125,5.309291819000244,5.999270809936523,-0.5847837554931641
1789063976548757800,6.7277578125,7.093420968627929,5.116408947753906,-0.6976105087280273
1789063976558794800,6.737794677734375,6.38398908920288,5.550058723449706,-0.776319888305664
1789063976568832000,6.74783203125,6.405985816955566,6.126313135528564,-0.5220855995178222
1789063976578869000,6.757868896484375,7.443273686218261,5.957222643280029,-0.17387889556884764
1789063976588906800,6.76790673828125,8.259995727539062,6.645705258178711,-0.48557402420043944
1789063976598943700,6.77794384765625,8.732252005004883,7.1112278434753415,-0.4375403533935547
1789063976608981000,6.78798095703125,7.876025636291503,7.589619262695312,-0.8840589630126953
1789063976619017700,6.798017822265625,8.426243105316162,8.31865366821289,-1.65992993850708
1789063976629054700,6.8080546875,8.334814529418944,8.067561769104003,-1.6237176383972167
1789063976639091700,6.818091796875,7.659948936462402,8.05125127029419,-1.1468225952148436
1789063976649129000,6.82812890625,9.067140962219238,7.197419103240966,-0.9096469932556152
1789063976659166000,6.838166015625,8.47128402404785,6.915202582550048,-0.3708019821166992
1789063976669203000,6.848202880859375,7.729231147003174,6.764816790771484,0.0713771369934082
1789063976679240000,6.858239990234375,6.83769030380249,6.494720915985107,0.5904699844360352
1789063976689278000,6.86827783203125,6.078578739929199,6.452223836517334,0.7549217109680175
1789063976699315000,6.87831494140625,6.129754800415038,6.202029763031005,0.948702407836914
1789063976709352000,6.88835205078125,5.4230163978576655,6.139481244659423,0.7294833183288574
1789063976719389000,6.898388916015625,4.697722932434082,6.386084015655517,0.5042787246704101
1789063976729426000,6.908426025390625,5.592256527709961,5.890783547210693,0.2741360900878906
1789063976739463000,6.918462890625,5.685929667663574,6.070348671722412,0.11177929000854492
1789063976749500200,6.928500244140625,6.325929698944091,6.061819328308105,0.48347909774780273
1789063976759537000,6.938536865234375,7.76948366241455,5.400870032501221,0.8475473876953125
1789063976769574000,6.948573974609375,7.242609659576416,6.32652824935913,1.2189479202270508
1789063976779611000,6.95861083984375,7.338677001190185,6.424690517425537,1.6353893714904784
1789063976789649000,6.96864892578125,8.708609263610839,6.372167718505859,1.7741034301757812
1789063976799686000,6.978685791015625,9.672724344635009,6.537068357849121,1.3066355560302734
1789063976809723000,6.988722900390625,7.951592626190185,7.343615042114258,0.9262567672729491
1789063976819759900,6.998759765625,6.6820671958923334,8.021174111938477,0.469263525390625
1789063976829797000,7.008797119140625,7.855974197387694,7.179612228393554,0.5529109458923339
1789063976839833900,7.018833740234375,8.225728716278075,6.872256590270996,0.7748235122680663
1789063976849870800,7.028870849609375,8.490886550140381,6.412420233917236,0.98955347366333
1789063976859907800,7.038907958984375,7.039850706481933,6.212504395294189,1.2108674896240235
1789063976869945000,7.048945068359375,5.033659352874755,6.5966241241455075,0.8653542625427245
1789063976879982000,7.058982177734375,5.548711985015869,6.111199737548827,0.672920304107666
1789063976890019800,7.069019775390625,6.789955908203124,5.232976641082764,0.30735563812255856
1789063976900056800,7.079056884765625,6.796988875579833,5.70747748260498,-0.2109890213012695
1789063976910094000,7.089093994140625,8.270919272613526,5.773018753051757,-0.5967547637939453
1789063976920131000,7.099131103515625,7.832331455993652,5.830030680084228,-0.8412626083374023
1789063976930167800,7.109167724609375,5.3296425331115715,7.812429654693603,-1.230918928527832
1789063976940204800,7.119204833984375,8.276605501556396,7.920617642211914,-1.5893009895324706
1789063976950242000,7.129241943359375,11.488875941467285,6.715735656738281,-1.418714121246338
1789063976960279000,7.139279052734375,8.847622597503662,8.301295706176758,-1.2056301734924315
1789063976970316000,7.14931591796875,8.390479718017577,8.812308123016356,-1.2997522262573242
1789063976980352800,7.159352783203125,8.034192583465575,8.085667919158935,-1.3555670524597168
1789063976990391000,7.16939111328125,8.850316074371337,7.39942986831665,-1.383399646759033
1789063977000428000,7.179427978515625,8.75335090713501,6.271910523986816,-1.1257236930847168
1789063977010465000,7.189465087890625,5.451148267364502,6.430526383972167,-0.7353191848754882
1789063977020501800,7.199501708984375,4.613028048706054,6.066308456420898,-0.2102408332824707
1789063977030539000,7.2095390625,5.639990923309326,4.594772261047363,0.08888473663330078
1789063977040576000,7.219575927734375,6.494571278381347,4.125808010864257,-0.058957215881347655
1789063977050613000,7.229613037109375,5.827486840820312,4.271555036926269,-0.17208324432373046
1789063977060650000,7.23964990234375,4.454561826324463,5.013458276367187,-0.4652233100891113
1789063977070687000,7.24968701171875,4.289062636566162,5.730072760772705,-0.5003881469726562
1789063977080724000,7.259723876953125,7.637054383087158,5.484667090606689,-0.5702689079284667
1789063977090762000,7.269761962890625,9.177124600982665,5.747879635620117,-0.4171896392822265
1789063977100798700,7.279798828125,8.310872512817383,7.217171266937256,-0.3607762626647949
1789063977110836000,7.2898359375,8.76592046585083,7.778312281036376,-0.462829108428955
1789063977120873000,7.299873046875,9.408613973999023,7.821557548522949,-0.8144774772644042
1789063977130910000,7.309909912109375,10.703128884124755,7.697059062194824,-0.9796773918151855
1789063977140947000,7.319947021484375,10.588356842041016,7.4821794631958,-1.1140519599914551
1789063977150984000,7.32998388671875,9.413252739715576,7.274931381988525,-1.1546037506103515
1789063977161021000,7.34002099609375,7.989450939941406,7.069179676818847,-1.1201871017456053
1789063977171058000,7.350057861328125,7.14369920349121,6.599616876220702,-1.0935516082763672
1789063977181095000,7.360094970703125,5.683086553192139,6.379649598693847,-0.31708208236694335
1789063977191133000,7.3701328125,6.091297936248779,5.649118817138672,0.5565022483825683
1789063977201170000,7.380169921875,6.393565895843506,5.209034624481201,0.9196727127075195
1789063977211207000,7.39020703125,5.8479871925354,5.275772995758056,1.2922703460693359
1789063977221244000,7.400243896484375,6.018873336029053,5.185691158294677,1.2798504249572753
1789063977231281200,7.41028125,5.393687427520752,5.680093801116943,0.7873930709838867
1789063977241318000,7.42031787109375,6.5023524337768555,6.139780519866943,0.18076222534179687
1789063977251355000,7.43035498046875,7.914931413269042,6.04550882949829,-0.09681552963256836
1789063977261392000,7.440391845703125,7.3475056198120114,6.883180135345459,0.3284545402526855
1789063977271429000,7.45042919921875,8.26074391555786,7.135618772888183,0.8466495620727539
1789063977281466000,7.460466064453125,9.024943157958983,7.1410057266235345,1.2662334030151365
1789063977291503900,7.47050390625,9.203011906433105,7.101351761627197,1.3398551040649413
1789063977301540900,7.480540771484375,8.221987776184081,7.4232222473144525,0.6923731925964355
1789063977311578000,7.490578125,7.357232064056396,7.344363230133056,-0.02633621826171875
1789063977321615000,7.500614990234375,8.1203838432312,6.816142488861083,-0.7188590484619141
1789063977331651800,7.51065185546875,7.303212889099121,6.456563327026367,-0.6513724891662598
1789063977341688800,7.520688720703125,6.151452252960205,6.3892264053344725,-0.4670189613342285
1789063977351726000,7.53072607421875,5.445312400817871,6.565649140167236,-0.3950432739257812
1789063977361763000,7.54076318359375,6.337302156829834,5.792471641540527,-0.2567781280517578
1789063977371800000,7.550800048828125,6.974309436035155,5.804293012237548,-0.48452656097412106
1789063977381837800,7.560837890625,7.590068175506591,5.7317187744140625,-0.716315209197998
1789063977391875000,7.570875,5.420771833801269,6.459256803894043,-0.8740332435607909
1789063977401912000,7.580912109375,4.797980126953124,7.319972300720214,-1.1176432624816894
1789063977411948800,7.59094873046875,8.435221361541748,5.970989302825927,-1.0537480056762694
1789063977421985800,7.60098583984375,8.410531156921387,6.463895569610595,-0.9956886154174804
1789063977432023000,7.61102294921875,7.556100439453124,7.527669294738769,-1.0986392868041992
1789063977442060000,7.62106005859375,8.929474366760253,7.008875722503662,-1.0850222648620604
1789063977452097000,7.631096923828125,8.393771745300292,7.3469070693969725,-1.4544775085449217
1789063977462133800,7.6411337890625,7.495497209930419,8.160037808227539,-1.4513351188659667
1789063977472170800,7.651170654296875,9.049483724975586,6.871658039855957,-1.123030216217041
1789063977482209000,7.661208984375,8.645611832427978,7.145794129943847,-0.8123825508117676
1789063977492246000,7.67124609375,7.705588405609131,7.095665532684325,-0.3520972816467285
1789063977502282800,7.68128271484375,7.784746697998046,6.4834980957031245,-0.4417302062988281
1789063977512320000,7.691320068359375,7.482029825592041,6.903680487060546,-1.2879308555603026
1789063977522357000,7.70135693359375,7.875127810668944,6.255600025177001,-1.4260463638305663
1789063977532394000,7.71139404296875,7.015459777069092,6.260089153289795,-1.2024877838134764
1789063977542431000,7.721430908203125,5.635352157592773,6.562656388092041,-0.6453869850158691
1789063977552468000,7.731468017578125,4.720018935394287,6.371120255279541,0.15292963104248045
1789063977562505000,7.7415048828125,5.251232428741455,6.111798287963867,0.21951836471557615
1789063977572542000,7.7515419921875,6.342539472961425,5.653607945251465,0.47165772705078124
1789063977582580000,7.761580078125,6.933757645416259,5.508758744812011,0.5267243652343749
1789063977592617000,7.771616943359375,6.704961749267578,5.931634613037109,0.4556465034484863
1789063977602654000,7.781654052734375,6.672490389251709,6.089801560211181,0.20964228286743164
1789063977612691000,7.79169091796875,7.161805353546142,6.538115821075439,-0.2846107223510742
1789063977622728000,7.80172802734375,8.277503327178955,6.368726053619384,-0.3688566932678222
1789063977632765000,7.811764892578125,8.220940312957763,6.8858736122131345,-0.06823474731445311
1789063977642802400,7.821802490234375,8.44000976486206,6.934505833435058,0.11791443176269531
1789063977652839400,7.83183935546875,7.392546538543701,7.16315209197998,0.26051906814575193
1789063977662876700,7.841876708984375,6.944381915283203,7.543830155944824,-0.0704793113708496
1789063977672913700,7.85191357421875,8.585158240509033,6.493673452758789,-0.05581482620239257
1789063977682951400,7.861951416015625,8.85495484008789,6.110601187133788,-0.007781155395507812
1789063977692988700,7.87198876953125,8.154950129699706,6.14172580871582,-0.13347674255371092
1789063977703025700,7.882025634765625,6.366182214355469,6.397606111145019,-0.05357026214599609
1789063977713062400,7.8920625,6.842777982330322,5.999121172332764,-0.41150341033935545
1789063977723099400,7.902099365234375,7.08653763885498,6.096535252380371,-0.4444236831665039
1789063977733136400,7.912136474609375,7.8715365081787105,5.768080712127685,-0.3660135787963867
1789063977743173600,7.922173583984375,6.030245793914794,6.507140837097167,-0.16684592819213867
1789063977753210600,7.932210693359375,6.424840155029297,7.0263833221435545,-0.05985504150390625
1789063977763247600,7.94224755859375,7.9396216178894035,6.192153681182861,-0.10459668502807616
1789063977773284400,7.952284423828125,7.899518740081787,7.116315522003173,-0.46312838363647457
1789063977783322600,7.962322509765625,9.304166926574707,6.730699417114257,-0.5708674583435058
1789063977793359600,7.972359619140625,9.447220475769042,6.458658253479004,-0.3363853332519531
1789063977803396400,7.982396240234375,6.754042883300781,7.493252645874023,-0.21218612213134763
1789063977813433300,7.992433349609375,5.429450814819336,7.775169891357422,0.21398177337646482
1789063977823470600,8.002470703125,7.959224143981933,6.3132105026245116,0.3899555953979492
1789063977833507600,8.012507568359375,9.417592230224608,5.76508796005249,0.3489548919677734
1789063977843544600,8.022544677734375,8.315810553741455,5.678747062683105,0.45938744354248046
1789063977853581300,8.032581298828125,6.4739212890625,5.8159647453308105,0.5527613082885742
1789063977863618600,8.04261865234375,5.878213988494872,5.957372280883789,0.5445312400817871
1789063977873655600,8.052655517578126,6.86956311340332,5.120598800659179,0.4906617027282715
1789063977883693600,8.062693603515624,6.579565437316894,5.170428122711181,0.177470198059082
1789063977893730600,8.07273046875,5.6480713539123535,5.831676693725585,-0.19617489852905273
1789063977903767600,8.082767578125,5.932682076263427,5.8834513046264645,-0.6093243225097655
1789063977913804500,8.092804443359375,7.297975572967529,5.973233866882324,-0.8304887008666991
1789063977923841500,8.102841552734375,8.217648285675049,6.010643267822266,-0.4112041351318359
1789063977933878500,8.11287841796875,7.651569230651855,6.873902603912353,0.05776011505126953
1789063977943915500,8.12291552734375,7.760056493377685,7.316231360626221,0.3419219245910644
1789063977953952500,8.132952392578124,7.7218989044189446,7.449558465576171,0.4225765930175781
1789063977963989500,8.142989501953124,8.685864347839354,7.849240505218505,0.08649053497314453
1789063977974026500,8.153026611328125,9.472359593200682,7.384466107940673,0.34237083740234375
1789063977984064500,8.163064453125,9.073425741577148,7.557896090698241,0.5587468124389648
1789063977994101500,8.1731015625,7.952340814208984,7.831732905578613,0.44801498565673825
1789063978004138500,8.183138427734375,7.008576447296142,7.558644278717041,0.5786486137390137
1789063978014175500,8.193175537109376,6.207715991973877,7.4491095527648925,0.6815992851257324
1789063978024212500,8.20321240234375,7.514650823211669,6.376507209014892,0.8279448616027831
1789063978034249500,8.21324951171875,6.894552593231201,5.973233866882324,1.180341418457031
1789063978044286500,8.223286376953125,5.653907220458984,6.213402220916747,1.1647791076660157
1789063978054323500,8.233323486328125,6.045658467102051,5.793369467163085,1.0046668716430665
1789063978064360700,8.243360595703125,6.171653329467773,5.654356133270263,0.7769184387207031
1789063978074398500,8.2533984375,6.6048541923522945,5.8159647453308105,0.14769231491088866
1789063978084435500,8.263435546875,6.370521704864502,6.197091722106933,-0.06793547210693358
1789063978094472700,8.27347265625,6.331167015075684,6.42274522857666,0.25094226150512694
1789063978104509700,8.283509765625,7.649923217010498,6.22462504119873,0.6253355461120605
1789063978114546400,8.29354638671875,7.897124538421631,6.594229922485352,0.4885667762756347
1789063978124583400,8.30358349609375,7.69960290145874,6.97790073852539,0.10773907470703124
1789063978134620400,8.313620361328125,7.097311546325683,7.236025605010986,-0.15607202072143553
1789063978144657700,8.32365771484375,7.809736177825927,7.243657122802734,-0.2781763053894043
1789063978154694700,8.333694580078125,8.71444513015747,6.833500450897216,0.28640637359619137
1789063978164731400,8.3437314453125,8.525752111816406,6.645405982971191,0.7791630027770996
1789063978174769700,8.353769775390624,7.068581126403808,6.987477545166016,0.7068880401611328
1789063978184806700,8.363806640625,6.539462559509277,6.8402341430664055,0.4346972389221191
1789063978194843600,8.37384375,6.060622227478027,6.4609028175354,-0.012419921112060545
1789063978204880400,8.38388037109375,6.400149950408935,6.4275336318969725,-0.40147769088745117
1789063978214917400,8.39391748046875,6.905775413513183,5.528361270904541,-0.2027589530944824
1789063978224954600,8.40395458984375,5.736656815338135,5.812523080444335,-0.1806125877380371
1789063978234991600,8.41399169921875,5.246593663024902,6.41631081161499,-0.13422493057250975
1789063978245028600,8.424028564453126,7.602188821411132,5.744737245941161,0.16684592819213867
1789063978255065300,8.4340654296875,9.07776523208618,5.638494547271728,0.36840778045654293
1789063978265102600,8.4441025390625,6.956801836395263,7.211335400390625,-0.04144961624145507
1789063978275140600,8.454140625,6.732644705963135,8.035988234710693,-0.46148236999511716
1789063978285177300,8.46417724609375,7.958027043151855,7.805097412109374,-0.7477391059875488
1789063978295214300,8.47421435546875,10.047117629241942,7.563582319641113,-1.1031284149169922
1789063978305251600,8.48425146484375,10.55917750930786,7.427262462615967,-1.3964181182861328
1789063978315288600,8.49428857421875,8.247276531219482,8.131457025909423,-1.479317350769043
1789063978325325600,8.50432568359375,6.803722567749023,8.00007520980835,-1.7717092285156248
1789063978335362600,8.514362548828124,7.741202155303955,7.522880891418456,-2.0419547409057617
1789063978345399600,8.524399658203125,9.612719665527344,6.048202306365966,-1.9563620315551757
1789063978355436500,8.5344365234375,7.567921810150146,6.194697520446777,-1.8472762184143066
1789063978365473500,8.5444736328125,4.094683389282227,7.396287478637695,-1.8493711448669432
1789063978375511600,8.554511474609376,4.597765013122558,6.432920585632324,-1.770362490081787
1789063978385548500,8.564548583984376,6.315155791473388,5.578040955352783,-1.7504606887817382
1789063978395585500,8.57458544921875,6.654533876800537,5.371241786956787,-1.5548843406677244
1789063978405622500,8.58462255859375,5.941510694885253,5.686228942871093,-1.1448773063659667
1789063978415659500,8.594659423828125,6.376207933807373,5.607818838500976,-0.8837596878051758
1789063978425696500,8.604696533203125,6.612036797332763,5.546317783355713,-1.0857704528808594
1789063978435733500,8.6147333984375,7.908347358703613,6.021566812896729,-1.3989619575500487
1789063978445770500,8.6247705078125,8.736142582702636,5.639691648101806,-1.0622773490905761
1789063978455807500,8.634807373046876,7.707533694458007,6.638522653198242,-0.6049848320007324
1789063978465844700,8.6448447265625,8.309226499176026,6.54365241241455,-0.03441664886474609
1789063978475882500,8.654882568359374,7.963413996887207,6.376806484222412,0.28865093765258787
1789063978485919500,8.66491943359375,8.059481338500976,6.611737522125244,0.16639701538085935
1789063978495956500,8.67495654296875,8.373421031188965,6.030245793914794,0.3799298759460449
1789063978505993700,8.68499365234375,9.265710062408447,5.508908382415771,0.5458779785156249
1789063978516030500,8.695030517578125,8.32553699798584,5.716605376434326,0.7942764007568359
1789063978526067500,8.7050673828125,7.803900311279296,5.796511856842041,0.7191583236694336
1789063978536104400,8.7151044921875,7.548020008850097,5.784540848541259,0.8916904808044434
1789063978546141700,8.7251416015625,5.804442649841309,6.410474945068359,1.148468608856201
1789063978556178700,8.7351787109375,6.206818166351318,6.477512591552734,1.2107178520202635
1789063978566215400,8.74521533203125,6.852504426574707,6.234201847839355,1.3688847991943358
1789063978576253400,8.75525341796875,7.208193010711669,6.510432864379882,1.1563994018554686
1789063978586290700,8.765290771484375,7.89742381362915,6.533477055358886,1.154304475402832
1789063978596327400,8.775327392578125,8.048108880615233,6.402244876861572,1.4363713584899902
1789063978606364400,8.785364501953126,6.392219157409667,7.353341486358642,1.2029366966247559
1789063978616401400,8.7954013671875,7.274781744384765,7.453598680877685,1.1026795021057127
1789063978626438700,8.805438720703124,9.271845204162597,6.486939760589599,1.2829928146362304
1789063978636475600,8.8154755859375,9.054122490692139,7.058555406951904,1.1296142707824706
1789063978646512400,8.825512451171875,8.820837466430664,7.154922023773193,1.3328221366882322
1789063978656549000,8.835549072265625,7.612364178466796,6.894402955627441,1.6385317611694334
1789063978666587400,8.84558740234375,5.543773944091797,7.784896335601807,1.5152303756713865
1789063978676624400,8.855624267578126,6.693439653778076,6.912509105682372,1.3021464279174804
1789063978686661000,8.8656611328125,8.194005544281005,5.843049151611328,0.8366238426208495
1789063978696698400,8.875698486328124,7.370250535583495,5.82868394165039,0.6428431457519531
1789063978706735400,8.8857353515625,5.398625468444824,6.073491061401366,0.4860229370117187
1789063978716772400,8.8957724609375,4.290708650207519,6.205022515106201,0.39549218673706055
1789063978726809300,8.905809326171875,6.744017163848876,5.176263989257812,0.244507844543457
1789063978736846300,8.915846435546875,8.418013037109375,4.942230776977539,0.09172785110473632
1789063978746883300,8.92588330078125,7.756614828491211,5.728875659942626,0.17357962036132812
1789063978756920300,8.93592041015625,6.550835017395019,6.310217750549316,0.20949264526367187
1789063978766958300,8.945958251953124,6.132897190093994,7.072920616912842,-0.22266075439453123
1789063978776995300,8.955995361328124,6.74192223739624,7.282562899780273,-0.3898059577941894
1789063978787032300,8.9660322265625,8.648604584503174,6.986130806732177,-0.5086182151794433
1789063978797069300,8.9760693359375,9.64638812637329,6.934056920623779,-0.5517138450622558
1789063978807106300,8.986106201171875,7.969100225830077,7.544428706359863,-0.5180453842163085
1789063978817143300,8.996143310546875,6.714239280700683,7.941866181945801,-0.6117185241699218
1789063978827180300,9.00618017578125,7.898620914459228,7.427112825012206,-0.500537784576416
1789063978837217300,9.01621728515625,9.31509047164917,6.401347051239013,-0.3302501914978027
1789063978847254300,9.026254150390624,8.207472928619385,6.638522653198242,-0.15786767196655271
1789063978857291300,9.036291259765624,7.125742691040038,6.559663636016845,0.0010474632263183592
1789063978867329300,9.046329345703125,6.266972483062744,6.4926259895324705,-0.11806406936645507
1789063978877366300,9.0563662109375,6.037278761291503,6.497863305664062,-0.4376899909973144
1789063978887403300,9.0664033203125,6.752995420074463,6.025158115386962,-0.6040870063781738
1789063978897440500,9.0764404296875,6.637475189971924,6.260687703704834,-0.5731120223999023
1789063978907477500,9.0864775390625,7.1018006744384765,6.1070098846435545,0.3172317199707031
1789063978917514200,9.09651416015625,6.432322035217285,6.150704064941406,1.1061211669921875
1789063978927551200,9.10655126953125,6.09683452758789,6.636278089141845,0.9572317512512206
1789063978937588200,9.116588134765625,6.2475195945739745,6.579565437316894,0.361973363494873
1789063978947625500,9.12662548828125,7.425466811370849,6.595726298522949,-0.2597708801269531
1789063978957662500,9.136662353515625,9.12265651321411,6.2216322891235345,-0.4574421546936035
1789063978967700200,9.1467001953125,8.77849002456665,6.379649598693847,-0.1632546257019043
1789063978977737500,9.156737548828126,6.757334910583496,7.052420265197753,0.25737667846679685
1789063978987774500,9.1667744140625,5.83526799621582,7.453897956085204,0.18555062866210936
1789063978997811200,9.176811279296874,7.836820584106444,6.705410662078857,0.1236006607055664
1789063979007848200,9.18684814453125,9.293692294311523,5.811325979614257,0.05162497329711914
1789063979017885200,9.19688525390625,7.729231147003174,6.567295153808593,-0.19692308654785154
1789063979027922400,9.20692236328125,6.2018801254272455,6.436511888122558,-0.08559270935058594
1789063979037959400,9.21695947265625,5.828235028839111,6.575375584411621,-0.027234043884277342
1789063979047996200,9.22699609375,6.873752966308594,6.1373863182067865,0.05491700057983398
1789063979058033200,9.237033203125,7.711723547363281,5.896469776153564,0.22864625854492185
1789063979068071400,9.247071533203124,8.262389929199218,6.034136371612549,0.1222539222717285
1789063979078108400,9.2571083984375,7.061248883819579,6.449979272460937,0.16909049224853515
1789063979088145200,9.267145263671875,6.143072547149658,7.157316225433349,0.2768295669555664
1789063979098182100,9.27718212890625,7.617751132202148,6.981192765808105,0.42063130416870115
1789063979108219400,9.287219482421875,10.031106405639648,6.312013401794434,0.680551821899414
1789063979118256400,9.29725634765625,8.93725552215576,7.013364850616455,0.66394204788208
1789063979128293400,9.30729345703125,7.836970221710205,7.679551462554931,0.47120881423950195
1789063979138330000,9.317330078125,8.227374729919433,7.453897956085204,0.40491935577392574
1789063979148367400,9.327367431640624,9.284714038085937,6.99091921005249,0.601992079925537
1789063979158404400,9.337404296875,7.803152123260498,7.030273899841308,1.0953472595214844
1789063979168442400,9.3474423828125,7.635109094238281,6.779032363128661,1.2586018852233887
1789063979178479400,9.357479248046875,6.1188312553405755,6.519111845397949,1.0480617767333984
1789063979188516400,9.367516357421875,5.979069733428955,6.054935998535156,0.7773673515319823
1789063979198553300,9.37755322265625,6.272658712005615,5.054907892608642,0.5934627365112304
1789063979208590300,9.38759033203125,5.297021535491943,5.193621951293945,0.7739256866455078
1789063979218627300,9.39762744140625,5.257666845703125,4.8903065284729,0.9012672874450683
1789063979228664300,9.407664306640624,7.059303594970703,4.216488398742675,0.5856815811157227
1789063979238701300,9.417701416015625,7.153126372528075,4.751891744995117,0.3924994346618652
1789063979248738300,9.42773828125,6.737582746887207,5.572803639221191,0.6003460662841796
1789063979258775300,9.437775390625,7.8821607780456535,5.829432129669189,0.8011597305297851
1789063979268813300,9.447813232421876,8.245031967163085,6.408230381011962,0.9208698135375976
1789063979278850300,9.457850341796876,7.813028205108642,7.199514029693603,0.6871358764648438
1789063979288887300,9.46788720703125,7.892785047912597,7.550414210510254,0.08170213165283202
1789063979298924300,9.47792431640625,8.746916490173339,7.447014626312256,-0.28221652069091796
1789063979308961300,9.487961181640625,9.019406566619873,7.084293074798584,-0.46836569976806636
1789063979318998300,9.497998291015625,7.924358582305908,7.377433140563965,-0.15652093353271485
1789063979329035300,9.50803515625,8.61224264678955,6.571335369110107,0.04414309310913086
1789063979339072300,9.518072265625,8.570643392944335,6.36498511352539,0.1662473777770996
1789063979349109500,9.528109619140626,6.3989528495788575,6.824522194671631,0.3871124809265136
1789063979359146200,9.538146240234376,6.5774705108642575,6.468983248138428,0.27084406280517576
1789063979369184300,9.548184326171874,6.372167718505859,6.850858412933349,-0.039055414581298825
1789063979379221200,9.55822119140625,7.059602870178222,6.555473783111572,-0.06329670639038086
1789063979389258500,9.568258544921875,6.495319466400146,6.686406686401367,-0.31543606872558594
1789063979399295200,9.578295166015625,7.372944012451171,6.993014136505127,-0.6578069061279297
1789063979409332200,9.588332275390625,7.620743884277343,6.455066950988769,-0.5361515342712402
1789063979419369200,9.598369140625,6.924629751586914,6.970418858337402,-0.3871124809265136
1789063979429406500,9.608406494140626,6.941688438415527,6.709001964569091,-0.05282207412719726
1789063979439443500,9.618443359375,7.9563810295104975,6.428281819915771,0.06539163284301758
1789063979449480200,9.628480224609374,8.646958570861816,5.993135668182373,0.37708676147460934
1789063979459517200,9.63851708984375,7.255927406311034,6.262333717346191,0.7425017898559569
1789063979469555500,9.648555419921875,6.4935238151550285,6.5689411674499505,0.8430582595825195
1789063979479592400,9.658592529296875,6.276399652099609,6.151601890563964,0.5807435401916503
1789063979489629200,9.668629150390625,5.332934560394286,6.687603787231445,0.01631049880981445
1789063979499666200,9.678666259765626,6.279841316986084,6.14157617111206,-0.09636661682128905
1789063979509703400,9.688703369140624,7.363666481018066,5.782296284484863,-0.2389712532043457
1789063979519740400,9.698740478515624,8.532785079193115,5.829581767272949,-0.2537853759765625
1789063979529777400,9.70877734375,7.624185549163818,6.029796881103516,0.6139630882263183
1789063979539814100,9.718814208984375,7.079504671478271,6.507889025115967,1.1954548164367675
1789063979549851400,9.728851318359375,7.5519105865478515,6.92014062347412,1.240495735168457
1789063979559888400,9.738888427734375,8.812008847808837,6.8140475624084464,0.7068880401611328
1789063979569926100,9.748926025390626,8.716390419006347,7.2052002586364745,0.22640169448852537
1789063979579963100,9.758963134765626,7.701248915100098,7.6300214157104485,0.09636661682128905
1789063979590000400,9.76900048828125,7.015609414672851,7.764395983886718,0.027234043884277342
1789063979600037400,9.779037353515625,7.501033801269531,7.6282257644653315,0.027832594299316404
1789063979610074400,9.789074462890625,8.427589843749999,6.649745473480224,0.28535891036987304
1789063979620111000,9.799111083984375,8.913463143157959,6.385186190032958,0.2380734275817871
1789063979630148400,9.8091484375,7.0367083168029785,6.668300536346435,0.17073650588989256
1789063979640185300,9.819185302734375,4.892551092529296,7.0196496299743645,0.17612345962524412
1789063979650221800,9.829221923828126,6.142473996734619,6.261884804534912,0.11118073959350586
1789063979660259000,9.839259033203126,7.510909883117676,5.747430722808837,-0.09741408004760742
1789063979670296000,9.849296142578124,7.259518708801269,5.925948384094238,-0.4691138877868652
1789063979680333800,9.859333740234375,6.43546442489624,6.36513475112915,-0.8084919731140137
1789063979690370800,9.869370849609375,7.215674890899658,6.282834069061279,-0.8349778289794921
1789063979700408000,9.879407958984375,6.809408796691894,6.638821928405761,-0.4599859939575195
1789063979710444800,9.88944482421875,7.896077075195312,6.8113540855407715,-0.17088614349365233
1789063979720481800,9.899481689453125,8.186673301696777,6.522104597473144,-0.08110358123779296
1789063979730518800,9.909518798828126,6.92702395324707,7.466168239593506,-0.4964975692749023
1789063979740556000,9.91955615234375,7.141454639434814,7.511807708740234,-0.7809586540222168
1789063979750593000,9.929593017578124,8.12173058166504,6.790853733825683,-0.5707178207397461
1789063979760630000,9.939630126953125,7.991246591186523,6.651241849517822,-0.43499651412963863
1789063979770667800,9.949667724609375,6.728305215454101,6.7374331092834465,-0.2570774032592773
1789063979780705000,9.959705078125,6.653336775970459,6.268917771911621,-0.007781155395507812
1789063979790742000,9.969741943359375,7.814075668334961,5.409997926330566,0.18884265594482422
1789063979800778800,9.97977880859375,7.289146954345703,5.419574732971191,0.23133973541259764
1789063979810815700,9.989815673828126,6.555324145507812,5.6477720787048336,0.14036007232666015
1789063979820853000,9.99985302734375,6.132747552490234,5.7137622619628905,0.14125789794921875
1789063979830890000,10.009889892578125,7.5351511749267575,5.532850399017334,0.23508067550659179
1789063979840927000,10.019927001953125,8.543409349060058,5.534496412658691,0.4370914405822754
1789063979850963700,10.029963623046875,7.530213134002685,6.432022760009765,0.3666121292114258
1789063979861001000,10.0400009765625,7.658003647613525,6.92073917388916,0.06539163284301758
1789063979871039000,10.0500390625,8.190114966583252,6.911910555267333,-0.08080430603027343
1789063979881076000,10.060075927734376,8.539818046569824,7.3094976684570305,-0.43080666122436523
1789063979891112700,10.07011279296875,9.43539910507202,6.966229005432129,-0.21338322296142576
1789063979901150000,10.08014990234375,8.754697645568847,6.992565223693847,0.0626981559753418
1789063979911187000,10.09018701171875,8.040477362823486,7.22106184463501,-0.017956512451171875
1789063979921224000,10.100223876953125,7.978976307678222,6.874052241516113,0.11088146438598633
1789063979931261000,10.110260986328125,7.849240505218505,6.654833152008056,0.07766191635131836
1789063979941298000,10.1202978515625,7.308749480438232,6.507889025115967,0.11207856521606445
1789063979951335000,10.1303349609375,6.261286254119873,6.508936488342285,0.2784755805969238
1789063979961372000,10.140371826171876,5.161599504089355,6.5485904533386226,0.04608838195800781
1789063979971409000,10.150408935546874,5.816413658142089,6.033537821197509,-0.16699556579589842
1789063979981447000,10.160447021484375,5.8743234107971185,5.7897781646728514,-0.3311480171203613
1789063979991484000,10.17048388671875,6.177040283203125,5.589563050842285,-0.14769231491088866
1789063980001521000,10.18052099609375,5.877914713287353,5.792022728729248,-0.08304887008666992
1789063980011558000,10.190557861328125,6.739079122924804,5.89916325302124,-0.2685994987487793
1789063980021595000,10.200594970703126,8.198345034790039,5.574898565673828,-0.03277063522338867
1789063980031632000,10.2106318359375,7.638850034332275,6.319794557189941,0.06823474731445311
1789063980041668900,10.2206689453125,7.724442743682861,6.789806270599365,0.04189852905273437
1789063980051705900,10.230705810546874,7.311891870117187,6.998251452636718,-0.014814122772216796
1789063980061743000,10.2407431640625,7.860164050292968,7.353341486358642,-0.6322188758850097
1789063980071779800,10.25077978515625,8.417564124298096,6.979546752166748,-0.7398083129882812
1789063980081817900,10.26081787109375,7.584980496978759,7.136965511322021,-0.7992144416809082
1789063980091854800,10.270854736328126,8.104073344421387,6.961141326904296,-0.7826046676635742
1789063980101892000,10.28089208984375,7.813776393127441,6.316801805114745,-0.5973533142089843
1789063980111928800,10.2909287109375,7.544727981567382,6.581211450958252,-0.7939771255493163
1789063980121965800,10.3009658203125,7.7979148071289055,5.982960311126709,-0.8047510330200195
1789063980132002800,10.3110029296875,6.550685379791259,6.3341597671508785,-0.867598826599121
1789063980142040000,10.3210400390625,6.72890376586914,6.460753179931641,-1.0194809944152832
1789063980152077000,10.3310771484375,6.613233898162841,6.390273868560791,-0.9575310264587402
1789063980162113800,10.34111376953125,6.244676480102538,6.89530078125,-0.9891045608520507
1789063980172150800,10.35115087890625,6.866271086120605,6.90173519821167,-1.2062287239074707
1789063980182189000,10.36118896484375,7.555052976226806,6.809259159088135,-1.0633248123168946
1789063980192226000,10.37122607421875,6.977751100921631,7.081599597930908,-0.8125321884155273
1789063980202262800,10.3812626953125,7.394791102600097,7.092373505401611,-0.6818985603332519
1789063980212299800,10.3912998046875,8.460360478973389,6.655581340026855,-0.6343138023376464
1789063980222337000,10.4013369140625,8.35067611541748,6.842329069519042,-0.623090982055664
1789063980232374000,10.4113740234375,7.099855385589599,6.979995664978027,-0.44861353607177734
1789063980242411000,10.421410888671875,6.69718059387207,7.033416289520264,-0.05087678527832031
1789063980252447700,10.43144775390625,6.451026735687256,6.663661770629883,0.0378583137512207
1789063980262484700,10.441484619140626,7.004536231994629,6.4092778442382805,0.019303250885009764
1789063980272522000,10.45152197265625,6.565948415374756,5.7137622619628905,-0.05416881256103515
1789063980282559700,10.461559814453125,5.417928719329834,6.5668462409973145,-0.37888241271972656
1789063980292596700,10.4715966796875,7.2060980842590325,5.562927557373047,-0.34102409896850583
1789063980302634000,10.481634033203125,8.699780644989014,5.215319403839111,-0.37843349990844727
1789063980312671000,10.4916708984375,8.364592412567138,5.797858595275879,-0.017357962036132813
1789063980322708000,10.5017080078125,6.836343565368652,6.438457176971435,0.04219780426025391
1789063980332745000,10.511744873046876,7.276876670837402,6.994510512542724,-0.2576759536743164
1789063980342782000,10.521781982421874,8.31835439300537,6.517465831756591,-0.6347627151489258
1789063980352819000,10.53181884765625,7.526172918701171,7.666981903839111,-0.43978491744995113
1789063980362856000,10.54185595703125,9.249249925994873,6.565948415374756,-0.031872809600830075
1789063980372893000,10.551892822265625,7.794473142242431,7.3377791755676265,0.011073182678222656
1789063980382930000,10.561929931640625,7.388057410430908,7.757811929321289,-0.14335282440185546
1789063980392968000,10.571968017578126,7.983914348602294,6.682516108703613,0.0674865592956543
1789063980403005000,10.5820048828125,7.663989151763915,7.159860064697265,-0.17791911087036133
1789063980413042000,10.5920419921875,7.3663599578857415,6.655581340026855,0.012569558715820313
1789063980423079000,10.602078857421875,6.8791399200439445,6.7179802207946775,0.64478843460083
1789063980433116000,10.612115966796875,7.989002027130127,5.833472344970703,0.9843161575317382
1789063980443153000,10.62215283203125,6.595277385711669,6.386532928466797,0.8833107749938964
1789063980453190000,10.63218994140625,6.469282523345947,6.522852785491943,0.42706572113037106
1789063980463227000,10.642226806640625,6.711246528625488,6.196942084503173,0.4767454055786133
1789063980473263900,10.652263916015626,7.068132213592529,6.216694248199462,0.6328174263000488
1789063980483300900,10.66230078125,8.071901259613037,6.010194355010986,0.792929662322998
1789063980493339000,10.6723388671875,7.573907314300537,5.893327386474609,0.6839934867858887
1789063980503376100,10.682376220703125,6.649895111083984,6.546196251678467,-0.11941080780029296
1789063980513412900,10.692412841796875,7.031471000671386,6.373065544128417,-0.3817255271911621
1789063980523449900,10.702449951171875,8.204629814147948,5.5545478515625,-0.21054010848999022
1789063980533486800,10.71248681640625,7.532008785247802,5.743689782714843,0.050128597259521485
1789063980543523800,10.72252392578125,6.694936029815674,5.870881745910644,0.361374813079834
1789063980553561000,10.73256103515625,7.2641574745178215,5.474192458343506,0.45235447616577146
1789063980563597800,10.742597900390624,8.042422651672362,5.295225884246826,0.5099649536132812
1789063980573634800,10.752634765625,7.766939823150635,5.54167901763916,0.22834698333740233
1789063980583671800,10.762671875,6.707355950927734,6.08456424407959,0.13257891693115234
1789063980593709800,10.772709716796875,5.910984623718261,6.638223377990722,0.24660277099609373
1789063980603746800,10.782746826171875,7.2994719490051265,6.587346592712402,0.5301660301208496
1789063980613783800,10.79278369140625,8.705616511535643,6.29495471496582,0.8162731285095214
1789063980623821000,10.802821044921876,8.888174388122557,6.761973676300048,0.4435258575439453
1789063980633858000,10.812858154296874,8.125172246551513,7.4880153297424314,-0.14948796615600585
1789063980643894500,10.82289453125,7.643189524841308,7.688529718780517,-0.388159944152832
1789063980653931500,10.832931640625,8.076988938140868,7.753322801208496,-0.3081038261413574
1789063980663968500,10.842968505859375,8.604760766601562,7.491307357025146,0.20171148986816406
1789063980674005500,10.853005615234375,9.821763397979735,6.66530778427124,0.8940846824645996
1789063980684042500,10.86304248046875,7.856273472595214,7.1395093505859375,0.7665934440612793
1789063980694079700,10.873079833984375,6.28223551864624,7.5433812431335445,0.6602011077880859
1789063980704117500,10.883117431640626,7.440879484558105,6.414215885162353,0.3886088569641113
1789063980714154500,10.893154541015624,6.834547914123535,6.469432160949706,0.2563292152404785
1789063980724191500,10.90319140625,5.747580360412598,6.456413689422607,0.33578678283691404
1789063980734228700,10.913228759765625,5.366154108428955,6.035932022857666,0.2998737579345703
1789063980744265500,10.923265380859375,5.352088173675536,5.901557454681396,-0.04967968444824218
1789063980754302500,10.933302490234375,7.078606845855712,5.433790305328369,0.006434416961669922
1789063980764339500,10.94333935546875,7.605480848693847,4.899584059906005,0.337732071685791
1789063980774376700,10.953376708984376,6.564003126525878,5.4613236244201655,0.13123217849731444
1789063980784413700,10.96341357421875,5.4810757881164545,6.72890376586914,-0.27578210372924805
1789063980794450400,10.973450439453124,6.4004492256164545,6.469432160949706,-0.18480244064331053
1789063980804487400,10.9834873046875,9.032873950958251,6.094889238739014,0.09741408004760742
1789063980814525700,10.993525634765625,9.016114539337158,6.427982544708252,-0.09367313995361327
1789063980824562400,11.0035625,5.481225425720215,7.893383598327636,-0.04085106582641601
1789063980834599400,11.013599365234375,6.663811408233642,7.560589567565917,-0.09142857589721679
1789063980844636400,11.023636474609376,9.418639693450928,6.238391700744629,-0.040402153015136714
1789063980854673700,11.033673583984376,10.039336473846435,5.9962780578613275,0.3434183006286621
1789063980864710700,11.043710693359374,7.835773120880127,6.535721619415283,0.4955997436523437
1789063980874747400,11.053747314453124,5.558887342071533,7.2803183357238765,0.05192424850463867
1789063980884784400,11.063784423828125,6.968623207092285,6.565649140167236,0.14933832855224607
1789063980894821600,11.073821533203125,7.663540238952637,6.251410172271728,0.07032967376708985
1789063980904858600,11.083858642578125,7.643189524841308,6.427084719085693,0.15771803436279297
1789063980914896400,11.093896484375,6.151452252960205,6.964433354187011,0.45714287948608395
1789063980924933400,11.103933349609376,6.997952177429199,6.758831286621094,0.17268179473876952
1789063980934970600,11.113970703125,7.932738288116455,6.717082395172119,-0.23687632675170897
1789063980945007600,11.124007568359374,8.339004382324218,6.616825200653076,-0.2780266677856445
1789063980955044600,11.134044677734375,7.3271549057006835,6.967126831054687,-0.008080430603027343
1789063980965081300,11.144081298828125,6.762123313903809,7.109581829833984,0.3850175544738769
1789063980975118600,11.15411865234375,7.015459777069092,7.013963401031494,0.6419453201293945
1789063980985155600,11.164155517578125,8.878298306274413,6.229114169311523,0.6123170745849609
1789063980995192600,11.174192626953126,7.296628834533691,6.468833610534667,0.5002385093688965
1789063981005229600,11.1842294921875,5.388899024200439,7.250839727783203,0.5599439132690429
1789063981015266300,11.194266357421874,5.914127013397216,6.558167259979248,0.5360018966674804
1789063981025304600,11.2043046875,6.861033769989013,6.2128036705017085,0.2467524085998535
1789063981035341600,11.214341552734375,8.0820766166687,5.746532897186279,0.006434416961669922
1789063981045378600,11.224378662109375,7.368305246734619,5.797559320068359,-0.06479308242797852
1789063981055415600,11.23441552734375,6.306776085662841,6.58839405593872,-0.0896329246520996
1789063981065452500,11.24445263671875,8.169764252471923,5.989544365692138,0.17702128524780272
1789063981075489500,11.254489501953126,8.812757035827635,5.949591125488281,0.6434416961669921
1789063981085526500,11.264526611328124,8.277204051971434,6.638971566009521,0.5702689079284667
1789063981095563500,11.2745634765625,7.0184525291442865,7.153276010131836,0.07541735229492187
1789063981105600500,11.2846005859375,7.572710213470459,7.247697338104247,-0.3920505218505859
1789063981115637500,11.294637451171875,9.00833338394165,6.39715719833374,-0.256628490447998
1789063981125675500,11.304675537109375,9.088090226745605,6.197540634918212,-0.09591770401000976
1789063981135712500,11.31471240234375,7.73147571105957,6.533776330566406,-0.004189852905273437
1789063981145749500,11.32474951171875,6.941987713623046,6.160580146789551,0.0008978256225585938
1789063981155786500,11.334786376953126,6.902483386230468,6.2675710334777825,-0.3808277015686035
1789063981165823500,11.344823486328124,7.548319284057617,5.625326438140869,-0.2838625343322754
1789063981175860700,11.35486083984375,7.11227530670166,5.668272430419922,-0.23687632675170897
1789063981185897500,11.3648974609375,7.16360100479126,5.66303511428833,-0.08649053497314453
1789063981195934500,11.3749345703125,5.666027866363525,5.96275923461914,0.06584054565429687
1789063981205971500,11.384971435546875,5.581781895446777,6.589142243957519,-0.4510077377319336
1789063981216008400,11.395008544921875,7.850437606048583,5.9023056427001945,-0.7130231819152831
1789063981226045700,11.405045654296876,8.337059093475341,6.024858840179443,-0.5978022270202636
1789063981236083500,11.41508349609375,7.515847924041748,6.508637213134765,-0.26650457229614255
1789063981246120400,11.425120361328124,6.126911685943603,7.286603115081786,-0.007481880187988281
1789063981256157700,11.43515771484375,8.753500544738769,6.656778440856933,-0.18659809188842771
1789063981266194700,11.445194580078125,10.629507183074951,5.871480296325683,-0.8090905235290526
1789063981276231400,11.4552314453125,8.088211758422851,7.123498126983642,-1.3750199409484862
1789063981286268400,11.465268310546875,6.057928750610351,7.662792050933837,-1.661127039337158
1789063981296305400,11.475305419921876,6.429478920745849,7.182604980468749,-1.6505027694702148
1789063981306342700,11.4853427734375,7.538143927001952,6.617423751068115,-1.3705308128356932
1789063981316379600,11.495379638671874,7.595455129241943,6.113444301605225,-0.8457517364501953
1789063981326416400,11.50541650390625,6.76721099243164,6.216394972991943,-0.4703109886169433
1789063981336454700,11.51545458984375,6.3049804344177245,6.021267537689209,-0.25258827514648435
1789063981346491600,11.52549169921875,6.208613817596436,5.834370170593261,-0.4080617454528808
1789063981356528600,11.535528564453125,7.039551431274414,5.497685562133789,-0.4203320289611816
1789063981366565400,11.5455654296875,6.727557027435302,5.763591584014892,-0.2846107223510742
1789063981376602400,11.555602294921876,7.043292371368408,6.11598814086914,-0.4025251541137695
1789063981386639600,11.5656396484375,7.440729846954345,6.256048937988281,-0.570119270324707
1789063981396676600,11.575676513671874,7.480683087158202,6.866271086120605,-1.1531073745727538
1789063981406713600,11.585713623046875,8.323442071533202,7.170484334564208,-1.557128904724121
1789063981416750300,11.595750244140625,8.372373567962645,7.476343596649169,-1.186177285003662
1789063981426787600,11.60578759765625,9.651326167297363,7.2258502479553215,-0.24705168380737302
1789063981436824600,11.615824462890625,9.293991569519042,7.147290505981445,0.3233668617248535
1789063981446862300,11.6258623046875,7.3359835243225096,8.2736127494812,0.2558803024291992
1789063981456899600,11.635899658203124,8.41352390899658,7.3463085189819335,0.10699088668823241
1789063981466936600,11.6459365234375,8.485349958801269,6.866271086120605,-0.4487631736755371
1789063981476973600,11.6559736328125,7.218966918182373,7.001244204711914,-0.4800374328613281
1789063981487010600,11.666010498046875,5.102642288208007,6.885125424194335,-0.32022447204589843
1789063981497047600,11.676047607421875,4.744110589599609,6.170605866241455,-0.08215104446411133
1789063981507084500,11.68608447265625,5.697152487945556,5.189581735992431,0.07242460021972656
1789063981517121500,11.69612158203125,5.101894100189209,5.499331575775146,0.155772745513916
1789063981527158500,11.706158447265626,5.138256037902832,5.0200423309326165,0.4730044654846191
1789063981537195500,11.716195556640624,6.553079581451415,4.820874680328369,0.12689268798828124
1789063981547232500,11.726232421875,7.454945419311523,5.3856069969177245,-0.11327566604614257
1789063981557270500,11.7362705078125,7.131877832794189,5.602731159973144,0.30526071166992186
1789063981567307500,11.7463076171875,7.456741070556641,6.484994471740722,0.06434416961669921
1789063981577344500,11.756344482421875,8.406640579223632,6.802375829315185,-0.19737199935913086
1789063981587381500,11.766381591796875,8.726266500854491,7.4114008766174315,-0.4474164352416992
1789063981597418500,11.77641845703125,10.075548773956298,7.401075881958008,-0.5009866973876953
1789063981607455500,11.78645556640625,9.616460605621338,7.509413507080078,-0.09112930068969725
1789063981617492500,11.796492431640624,8.556278182983398,7.974636817169189,0.35030163040161133
1789063981627529700,11.80652978515625,8.323741346740722,7.5804913688659665,0.469263525390625
1789063981637566500,11.81656640625,8.764873002624512,6.846967835235596,0.19378069686889648
1789063981647603500,11.826603515625,7.64199242401123,6.845321821594238,-0.18091186294555664
1789063981657641000,11.836640869140625,6.195744983673095,6.639270841217041,-0.4451718711853027
1789063981667678700,11.8466787109375,5.053561154174805,6.6145806365966795,-0.6431424209594726
1789063981677716000,11.856716064453124,6.281487330627441,5.990142916107177,-0.5494692810058593
1789063981687753000,11.8667529296875,7.151629996490478,5.378424391937256,-0.4842272857666015
1789063981697790000,11.8767900390625,6.329072088623047,6.049549044799805,-0.19422960968017577
1789063981707827000,11.886826904296875,5.812672718048096,6.362890187072754,0.18555062866210936
1789063981717864000,11.896864013671875,6.87614716796875,6.216544610595703,0.29658173065185545
1789063981727901000,11.90690087890625,8.10123022994995,6.5671455162048336,0.12300211029052734
1789063981737938000,11.91693798828125,9.318831411743163,6.498611493682861,0.03172317199707031
1789063981747975000,11.926974853515626,7.8058456001281735,7.0382046928405755,0.14918869094848633
1789063981758012200,11.93701220703125,6.49935968170166,7.809436902618407,0.4230255058288574
1789063981768050000,11.9470498046875,7.803152123260498,6.843077257537842,0.41838674011230464
1789063981778087000,11.9570869140625,9.258377819824219,6.0778305519104,-0.13347674255371092
1789063981788124000,11.9671240234375,8.456170626068115,5.796062944030761,-0.3532943824768066
1789063981798161200,11.9771611328125,6.892457666778564,5.642385124969482,-0.42003275375366206
1789063981808198000,11.987197998046875,6.613084260559082,5.416282705688476,-0.14963760375976562
1789063981818235000,11.99723486328125,7.737161940002441,4.35385571899414,0.39489363632202146
1789063981828271900,12.00727197265625,6.932261269378662,4.53297193069458,0.9886556480407714
1789063981838309000,12.01730908203125,5.832574519348144,5.236867218780517,0.9026140258789062
1789063981848346000,12.02734619140625,6.825719295501709,5.297171173095703,0.2485480598449707
1789063981858382800,12.0373828125,7.066336562347412,5.7502738372802735,0.05626373901367187
1789063981868419800,12.047419921875,7.738359040832519,6.391620606994628,0.21338322296142576
1789063981878458000,12.0574580078125,8.360701834869385,6.675932054138183,0.6142623634338379
1789063981888494800,12.067494873046876,7.676259435272216,7.555202613830566,0.565031591796875
1789063981898531800,12.07753173828125,8.179490696716307,8.038681711578368,0.2510918991088867
1789063981908568800,12.08756884765625,9.185803582000732,7.623586998748779,0.1867477294921875
1789063981918606000,12.097606201171875,9.035118515014648,7.882609690856933,0.37918168792724605
1789063981928643000,12.10764306640625,8.950273993682861,7.528417482757568,0.7815572044372558
1789063981938679800,12.1176796875,7.264007836914062,7.634510543823242,0.8631096984863281
1789063981948716800,12.127716796875,7.973738991546631,7.108384729003906,0.4248211570739746
1789063981958754000,12.137754150390625,7.855824559783935,6.257246038818359,-0.2362777763366699
1789063981968791000,12.147791015625,5.936572653961181,6.713341455078124,-0.24301146850585936
1789063981978828000,12.157828125,5.419425095367432,6.178835934448242,0.6417956825256347
1789063981988865800,12.16786572265625,6.262782630157471,5.487061292266845,1.258452247619629
1789063981998903000,12.177903076171875,7.602937009429931,5.23522120513916,1.0043675964355467
1789063982008940000,12.18793994140625,7.198017653656006,5.29926609954834,0.2995744827270508
1789063982018977000,12.19797705078125,6.509385401153564,5.915024839019775,-0.7220014381408691
1789063982029013800,12.208013671875,6.572083557128906,6.487687948608398,-1.3210007659912109
1789063982039051000,12.218051025390626,8.215254084014893,6.221931564331054,-1.1698667861938477
1789063982049088000,12.228087890625,7.907449533081055,6.554875232696533,-0.9163806854248047
1789063982059125000,12.238125,7.133673484039306,7.599794619750976,-1.0254664985656738
1789063982069162000,12.248161865234374,7.21447779006958,7.554903338623046,-0.9696516723632812
1789063982079198700,12.25819873046875,6.809857709503174,7.699902176666259,-0.92565821685791
1789063982089236000,12.268236083984375,7.681047838592529,7.132626020812988,-0.6874351516723632
1789063982099274000,12.27827392578125,6.914604032135009,6.574328121185302,-0.2258031440734863
1789063982109311000,12.28831103515625,6.5756748596191406,6.2584431396484375,0.10220248336791991
1789063982119348000,12.298347900390626,7.012467024993896,5.405957711029052,0.4355950645446777
1789063982129385000,12.308385009765624,6.749853030395507,5.027973123931885,0.19812018737792966
1789063982139422000,12.318421875,5.991938567352294,5.536292063903808,-0.49949032135009763
1789063982149459000,12.328458984375,6.09040011062622,5.808183589935302,-0.41973347854614257
1789063982159496000,12.338495849609375,8.054393659973144,5.581781895446777,0.17657237243652343
1789063982169533000,12.348532958984375,8.992471797943114,6.073341423797607,0.9967360786437988
1789063982179570000,12.35856982421875,7.642740612030029,7.4697595420837395,1.6319477066040038
1789063982189607000,12.36860693359375,7.626130838012695,8.198045759582518,1.2632406509399414
1789063982199644000,12.378643798828126,9.758616329193115,8.106467546081543,0.5632359405517577
1789063982209682000,12.388681884765624,10.63609123764038,8.276605501556396,0.2072480812072754
1789063982219719000,12.398718994140625,9.52563058013916,8.287529046630858,0.5244798011779784
1789063982229756000,12.408755859375,6.552331393432617,8.38254892501831,0.9501987838745116
1789063982239793200,12.418793212890625,5.764040496826172,7.69316848449707,1.0057143348693847
1789063982249830000,12.428829833984375,5.450848992156982,6.494122365570068,0.8077437850952148
1789063982259867000,12.438866943359375,6.596175211334228,5.3016603012084955,0.6868366012573242
1789063982269904000,12.44890380859375,7.306953829193115,4.40473250427246,0.5460276161193848
1789063982279940900,12.45894091796875,5.351938536071777,4.7010149597167965,0.2700958747863769
1789063982289978000,12.46897802734375,4.361786511993408,5.047575650024414,0.2328361114501953
1789063982300014800,12.479014892578125,4.467879573059082,5.016451028442383,0.5162497329711914
1789063982310051800,12.4890517578125,6.2310594581604,5.468206954193115,0.03920505218505859
1789063982320090000,12.499090087890625,7.192331424713134,6.188861653900146,-0.6432920585632323
1789063982330127000,12.509127197265625,7.567772172546387,6.9427359016418455,-0.9701005851745604
1789063982340163800,12.519163818359376,9.746346045684813,6.865073985290527,-1.0063128852844239
1789063982350200800,12.529200927734376,9.568426934814452,7.345859606170654,-0.4445733207702636
1789063982360237800,12.53923779296875,9.112481156158447,7.944410021209716,-0.04803367080688476
1789063982370275000,12.549275146484375,11.014225462341308,7.284957101440429,-0.03426701126098632
1789063982380312000,12.55931201171875,10.778845511627196,6.877493906402587,-0.41359833679199215
1789063982390348800,12.569348876953125,7.4214265960693355,7.640944960784911,-0.6793547210693359
1789063982400385800,12.5793857421875,6.30752427368164,7.247846975708008,-0.9928455009460448
1789063982410423000,12.589423095703125,7.423671160125732,5.862801315307617,-0.9762357269287109
1789063982420460000,12.5994599609375,7.851784344482422,5.182399131011962,-1.1161468864440918
1789063982430497000,12.6094970703125,6.07798018951416,5.243451273345947,-1.312621060180664
1789063982440534800,12.61953466796875,5.767631799316406,5.172822324371338,-1.2922703460693359
1789063982450572000,12.629572021484375,5.838709661102294,4.813093524932861,-1.0148422286987304
1789063982460609000,12.639609130859375,5.46506456451416,5.315127685546875,-0.7336731712341308
1789063982470646000,12.64964599609375,6.4852937469482415,5.463867463684082,-0.48542438659667964
1789063982480682800,12.659682861328125,7.019200717163086,5.943455983734131,-0.5309142181396485
1789063982490720000,12.669719970703126,7.124395952606201,6.44144992904663,-0.5702689079284667
1789063982500757000,12.679757080078126,6.819733791351318,7.281365798950195,-0.3633201019287109
1789063982510794000,12.6897939453125,8.150012088775634,7.2726868179321285,-0.39653964996337887
1789063982520831000,12.6998310546875,10.288483084106444,6.6723407516479485,-0.40611645660400386
1789063982530868000,12.709867919921875,9.744700032043456,7.091326042175292,-0.5846341178894042
1789063982540906000,12.719906005859375,7.912387574005127,7.74449418258667,-0.9675567459106444
1789063982550943000,12.72994287109375,8.47128402404785,7.174374912261962,-1.0950479843139649
1789063982560980000,12.73997998046875,8.454973525238037,6.832752262878418,-1.0851719024658202
1789063982571017000,12.750016845703126,6.554725595092773,7.245452774047851,-0.6917746421813964
1789063982581054000,12.760053955078124,7.118260810852051,6.362590911865234,-0.5232827003479004
1789063982591091000,12.770091064453124,7.376385677337646,6.092046124267577,-0.8894459167480468
1789063982601128000,12.7801279296875,6.348076064300537,6.097881990814209,-0.6958148574829102
1789063982611165000,12.7901650390625,6.036680210876464,5.750423474884033,0.033518823242187495
1789063982621202000,12.800201904296875,6.942286988830566,5.514744248962402,0.3872621185302734
1789063982631239000,12.810239013671875,6.715885294342041,5.792621279144287,0.3838204536437988
1789063982641276000,12.82027587890625,7.401973707580566,5.703886180114746,0.22744915771484372
1789063982651313400,12.8303134765625,7.217470542144775,6.339397083282471,-0.5128080680847168
1789063982661351200,12.84035107421875,7.248894438934326,6.919990985870361,-0.8183680549621581
1789063982671388400,12.850388427734375,8.467842359161377,6.71633420715332,-0.23418284988403318
1789063982681425400,12.86042529296875,8.585158240509033,6.9731123352050774,0.29134441452026366
1789063982691462400,12.87046240234375,7.8529814453124995,7.4703580924987785,0.26126725616455077
1789063982701499100,12.8804990234375,7.66743081665039,7.490858444213867,-0.1680430290222168
1789063982711536000,12.8905361328125,7.253682842254638,7.757363016510009,-0.21877017669677734
1789063982721573400,12.900573486328126,8.50435393447876,6.656479165649413,0.5219359619140624
1789063982731610400,12.9106103515625,8.175749756622315,6.4086792938232415,0.891241567993164
1789063982741647400,12.9206474609375,6.833201175689696,6.606799481201172,0.8798691101074219
1789063982751684000,12.93068408203125,5.991340016937255,6.150404789733886,0.1975216369628906
1789063982761721300,12.940721435546875,6.4543187629699705,5.961113220977783,-0.600794979095459
1789063982771759400,12.95075927734375,6.606200930786132,5.591657977294922,-0.6364087287902832
1789063982781796000,12.960796142578126,5.756408979034424,5.702689079284668,-0.5186439346313476
1789063982791833000,12.9708330078125,5.960215395355224,5.847239004516601,-0.3779845870971679
1789063982801870300,12.980870361328124,6.306027897644043,6.01378565750122,-0.09053075027465819
1789063982811907300,12.9909072265625,7.383119369506836,5.896170500946044,-0.0752677146911621
