time,seconds_elapsed,z,y,x
1789063969865317000,0.044317138671875,7.314792852255701,6.387378731641173,1.3658645745903253
1789063969875354000,0.05435400390625,7.314110130688547,6.389160354360937,1.361177439687401
1789063969885391000,0.06439111328125,7.313495213660597,6.3908730034977195,1.356435944248736
1789063969895427800,0.074427734375,7.312882050198316,6.392469332778454,1.3522149655528366
1789063969905465000,0.084465087890625,7.312386375635862,6.393880368620157,1.3482166896969079
1789063969915502000,0.094502197265625,7.312147890704869,6.395051165965199,1.3439455882489681
1789063969925539000,0.1045390625,7.31182991079688,6.396289183327555,1.339781892698258
1789063969935576800,0.114576904296875,7.311752169385552,6.397253059923648,1.3355937933586537
1789063969945614000,0.124614013671875,7.311293319702148,6.398690399250388,1.3312133863173425
1789063969955651000,0.134651123046875,7.310927993521094,6.400054673340916,1.3266560152739286
1789063969965688000,0.14468798828125,7.310340549021959,6.401663277581334,1.3221252399764953
1789063969975725000,0.15472509765625,7.309457920968532,6.403635454437136,1.3174489187285303
1789063969985762000,0.164761962890625,7.307907768917083,6.406442328551411,1.3123901740342379
1789063969995799000,0.174799072265625,7.306177584123611,6.40959523962438,1.306613198067993
1789063970005836000,0.1848359375,7.305387895050645,6.411570339089631,1.3013299969680607
1789063970015873000,0.194873046875,7.306195119780302,6.411337699377537,1.2979359706155955
1789063970025910000,0.204909912109375,7.3081351479321714,6.409844830471277,1.2943867537014186
1789063970035947000,0.214947021484375,7.3103177526682614,6.407683853045105,1.292758714108169
1789063970045984000,0.22498388671875,7.313736621201038,6.404785793516039,1.2877734730415045
1789063970056021000,0.23502099609375,7.317716630747914,6.401160588756203,1.283180884554237
1789063970066058000,0.24505810546875,7.321349434292316,6.397998325332999,1.2782180014498532
1789063970076096000,0.255095947265625,7.324279058003425,6.395521121564507,1.273827219145
1789063970086133000,0.265133056640625,7.326223762330413,6.393828346171975,1.2711375416696071
1789063970096170000,0.275169921875,7.32710463681817,6.3934326248526565,1.2680423521332442
1789063970106207200,0.285207275390625,7.326875504237413,6.394318175515532,1.2648986472800374
1789063970116244000,0.295243896484375,7.325617028608918,6.396451680412889,1.2614026218578218
1789063970126281000,0.305281005859375,7.323157360497117,6.399802744406461,1.2586796266347169
1789063970136318000,0.31531787109375,7.320442840841412,6.403356052973866,1.256392977002263
1789063970146355000,0.32535498046875,7.317720137879252,6.4068468176990745,1.2544587940692902
1789063970156392200,0.33539208984375,7.3158087512999765,6.409464891242981,1.2522327885828912
1789063970166429000,0.345428955078125,7.315022569358349,6.410873588997125,1.2496107695162295
1789063970176466000,0.3554658203125,7.315403677630424,6.410929703098535,1.2470916263021528
1789063970186503000,0.3655029296875,7.317007605695724,6.409601084843278,1.2445109621591866
1789063970196540200,0.3755400390625,7.319611650714278,6.407187009438872,1.2416215243279933
1789063970206577200,0.3855771484375,7.322358903595805,6.404553738325834,1.2390015510879455
1789063970216615000,0.395614990234375,7.324758950474858,6.402179410409927,1.237091041291505
1789063970226652200,0.405652099609375,7.326658646616339,6.400373822292685,1.2351828695826232
1789063970236689200,0.415689208984375,7.328284201991558,6.398886214083433,1.2332435720831154
1789063970246726100,0.42572607421875,7.329413498282432,6.397882005476951,1.231742081478983
1789063970256763000,0.435762939453125,7.329377257925271,6.3980053395956755,1.231318595369905
1789063970266799900,0.4457998046875,7.328177234485745,6.399640247321129,1.2299610432811081
1789063970276837000,0.455837158203125,7.32809423237741,6.400909828865528,1.223831527550146
1789063970286874000,0.4658740234375,7.326008658275008,6.404717404454946,1.216375731651485
1789063970296911000,0.4759111328125,7.321984225064516,6.409084367492794,1.2176119954481721
1789063970306947800,0.48594775390625,7.319985744723677,6.410942562580108,1.2198417272616178
1789063970316985000,0.495985107421875,7.320909873831272,6.410262763622403,1.2178651664916424
1789063970327022000,0.50602197265625,7.320635733065009,6.410344596686959,1.2190820680007337
1789063970337059000,0.51605908203125,7.319906834268569,6.411616516318917,1.2167658269476145
1789063970347096800,0.526096923828125,7.320196757125854,6.412129142016172,1.2123141813009977
1789063970357134000,0.536134033203125,7.322269471746683,6.410504755684733,1.2083793991353362
1789063970367171000,0.546171142578125,7.324599960520863,6.408531409785151,1.2047156159307808
1789063970377208000,0.5562080078125,7.326215579023957,6.406652756431699,1.2048892189320175
1789063970387245000,0.5662451171875,7.327191146057844,6.405736810630559,1.2038251698970794
1789063970397282000,0.576281982421875,7.3271256796061985,6.405304848954081,1.2065216424394398
1789063970407319000,0.586319091796875,7.328344992268085,6.405218339714407,1.1995509997092186
1789063970417356000,0.59635595703125,7.328536715447902,6.407112190636992,1.1882100329402834
1789063970427393000,0.60639306640625,7.325446932739019,6.410349857383966,1.189803147350624
1789063970437430000,0.616429931640625,7.320971833151578,6.414952382743358,1.1925384175334126
1789063970447467000,0.626467041015625,7.317121002942323,6.41823213506639,1.19851106220223
1789063970457504000,0.63650390625,7.31496411716938,6.419557246190309,1.2045631287828087
1789063970467541000,0.646541015625,7.314095517641306,6.42080520042479,1.203185264558345
1789063970477578000,0.656577880859375,7.313536714714765,6.4217994721591465,1.2012758507404475
1789063970487616000,0.666615966796875,7.314164491224289,6.421366925960779,1.1997585049800574
1789063970497653000,0.676653076171875,7.316514853742718,6.418728394150733,1.1995520226225256
1789063970507690000,0.68668994140625,7.319953596019745,6.413732485559582,1.2052801179457455
1789063970517727200,0.696727294921875,7.324881115549802,6.406136039081216,1.2156984899770469
1789063970527764000,0.706763916015625,7.330375036790967,6.397257736098766,1.2292607860572635
1789063970537801000,0.716801025390625,7.335838562893867,6.38867227858305,1.2412621894963085
1789063970547838000,0.726837890625,7.341562201237678,6.380186774310469,1.2510275044463575
1789063970557875000,0.736875,7.3466574785500764,6.3724313378781074,1.2606031420432031
1789063970567912200,0.746912109375,7.350472068402171,6.366331851959228,1.2691563047245145
1789063970577949000,0.756948974609375,7.350235921558737,6.364173797142505,1.2812909791544078
1789063970587986000,0.76698583984375,7.344761289539933,6.367121541032195,1.2979345093108712
1789063970598023000,0.77702294921875,7.336127316707373,6.373551281818747,1.3150884732075034
1789063970608060200,0.78706005859375,7.327890234237909,6.3803188762575385,1.3281312023930252
1789063970618097200,0.79709716796875,7.321556355041265,6.385787078535556,1.3367588916152715
1789063970628135000,0.807135009765625,7.316974872469902,6.388883290985226,1.3470076061680911
1789063970638172400,0.81717236328125,7.315432319203019,6.38820583011508,1.358550452184677
1789063970648209400,0.82720947265625,7.317393974664807,6.383371834087371,1.3706563389115034
1789063970658246400,0.837246337890625,7.322737673780321,6.374595822435617,1.382905725762248
1789063970668283400,0.847283447265625,7.329555537101626,6.364525094798207,1.3931326668746769
1789063970678320400,0.8573203125,7.335521167507768,6.355386095052957,1.4034177679151296
1789063970688357400,0.867357421875,7.341618899860977,6.346213193038105,1.4130091876029967
1789063970698394400,0.877394287109375,7.3493813505560155,6.335717517986893,1.4197399571627378
1789063970708431400,0.887431396484375,7.356264095807075,6.326484410217404,1.4252565286271273
1789063970718468400,0.89746826171875,7.360579036396741,6.319993879154324,1.4317580194756387
1789063970728505300,0.90750537109375,7.361697226771712,6.316833953818678,1.4399335810162126
1789063970738542300,0.917542236328125,7.360269239795207,6.3165112977355715,1.4486198685579001
1789063970748579600,0.92757958984375,7.3574319705426685,6.317851606428623,1.4571679166726768
1789063970758617300,0.937617431640625,7.352687406364083,6.321532925289869,1.465127058983594
1789063970768654300,0.947654296875,7.346419578140973,6.326950274163484,1.473160873965919
1789063970778691300,0.95769140625,7.340827457222342,6.331435895144939,1.4817391710884869
1789063970788728600,0.967728515625,7.3384361781716345,6.332284620928764,1.4899379673741757
1789063970798765300,0.977765380859375,7.340259301945567,6.328380014705657,1.4975250615023075
1789063970808802300,0.98780224609375,7.345771927887201,6.320235871216655,1.5048707480899988
1789063970818839300,0.99783935546875,7.353564189198613,6.30942630791068,1.5121554982706904
1789063970828876500,1.00787646484375,7.362012868592142,6.297880247023701,1.5191628928147256
1789063970838913500,1.01791357421875,7.370507140693068,6.286213774627447,1.5262791545607148
1789063970848950300,1.0279501953125,7.379021286538243,6.274725581407546,1.532399683267623
1789063970858987300,1.0379873046875,7.386094001403451,6.264823196074366,1.5388272320970893
1789063970869024500,1.0480244140625,7.39085084054172,6.257454128611087,1.5459579607598484
1789063970879061500,1.0580615234375,7.393209970888495,6.252989550417661,1.5527245322853327
1789063970889099300,1.068099365234375,7.392877377933264,6.251649826246499,1.559686626382917
1789063970899136300,1.07813623046875,7.3906491804897785,6.252557588741183,1.5665939215533435
1789063970909173500,1.088173583984375,7.387581025090813,6.254684663897752,1.5725618900470435
1789063970919210500,1.09821044921875,7.384050512877106,6.257229087683558,1.579009751012176
1789063970929247500,1.10824755859375,7.381229025715589,6.2588277550518505,1.585848218730092
1789063970939284200,1.1182841796875,7.379653739222884,6.259003111618757,1.5924766969591377
1789063970949321500,1.128321533203125,7.380320678699016,6.256827521145343,1.5979244409710167
1789063970959358500,1.1383583984375,7.385096807059645,6.250162802559137,1.6019352840475738
1789063970969395500,1.1483955078125,7.39085142506361,6.242302736708521,1.6060374586693942
1789063970979432400,1.158432373046875,7.3949839948236935,6.235822727039456,1.6121771304681896
1789063970989469200,1.16846923828125,7.401582662436366,6.226866098123788,1.6165078531488775
1789063970999506400,1.17850634765625,7.409525730395317,6.217001122191548,1.618087377425283
1789063971009543400,1.18854345703125,7.417308054834604,6.2079620756894345,1.6171375293545425
1789063971019581400,1.19858154296875,7.42469991865158,6.199646667286753,1.6151149374857543
1789063971029618400,1.208618408203125,7.426721195346117,6.1962821592897175,1.6187278672859071
1789063971039655400,1.218655517578125,7.42691993278861,6.195254569807648,1.6217472151070833
1789063971049692400,1.2286923828125,7.427485165455937,6.1945133960515255,1.6219877458646892
1789063971059729400,1.2387294921875,7.42555799678564,6.196794784986972,1.6221021660245953
1789063971069766400,1.248766357421875,7.422000012043118,6.201302617800235,1.6211562634766101
1789063971079803400,1.258803466796875,7.415434662178158,6.208664086478948,1.6230219112180173
1789063971089840400,1.26884033203125,7.409321732255816,6.216259363913536,1.621867042094469
1789063971099877400,1.27887744140625,7.4049869179219,6.222523100483417,1.617637149439752
1789063971109914400,1.288914306640625,7.4025366021603345,6.2268994158715,1.6120041119888424
1789063971119951400,1.298951416015625,7.402267722091079,6.2283636432051654,1.6075746051087973
1789063971129988400,1.30898828125,7.40381144440174,6.227060159391164,1.6055143115781247
1789063971140025300,1.319025390625,7.409840787693858,6.2209916531324385,1.6012205599069593
1789063971150062300,1.329062255859375,7.420678408050537,6.210948982545733,1.589976258445531
1789063971160100400,1.339100341796875,7.4295064421504735,6.203358381286263,1.5783416424922645
1789063971170137300,1.349137451171875,7.431225521028042,6.202382229730486,1.574077993698418
1789063971180174300,1.35917431640625,7.431855051103234,6.2029854563206435,1.568722458014637
1789063971190211300,1.36921142578125,7.4346245158165685,6.203055014425516,1.5552679331578314
1789063971200248600,1.37924853515625,7.436211492747068,6.205486040964722,1.5378835215061901
1789063971210285300,1.389285400390625,7.4326073307752605,6.212977273502945,1.5250073810592293
1789063971220322300,1.399322265625,7.424945417845248,6.22438363365829,1.5157893247283993
1789063971230359300,1.409359375,7.418115279564261,6.235587164717912,1.50312931125015
1789063971240396500,1.419396484375,7.415297299534082,6.243671686974167,1.4833474830679594
1789063971250433500,1.42943359375,7.412892576479911,6.251233646661043,1.4633791924029589
1789063971260470300,1.43947021484375,7.4057152321964494,6.26388328487575,1.4455192721940575
1789063971270507300,1.44950732421875,7.396648128643632,6.278828925073147,1.4269867134205996
1789063971280544500,1.45954443359375,7.391910578727722,6.289409940320253,1.4047687441326677
1789063971290581500,1.46958154296875,7.389294843271374,6.2966369689643376,1.3860240039132534
1789063971300619300,1.479619384765625,7.387639477279782,6.3031900438696145,1.364905520299822
1789063971310656300,1.48965625,7.382653505560755,6.312627734300494,1.3481624752916395
1789063971320693500,1.499693603515625,7.3760022309780116,6.322990722882747,1.3359488904066383
1789063971330730500,1.50973046875,7.374749016046524,6.328735404014587,1.3155115209251642
1789063971340767500,1.519767578125,7.376071204560994,6.333161988285184,1.2864714505322277
1789063971350804200,1.52980419921875,7.370562085750699,6.343869260260463,1.2651169662058352
1789063971360841500,1.539841552734375,7.359800453239679,6.358242069005966,1.2555845832288264
1789063971370878500,1.54987841796875,7.3565493424892425,6.365944313946366,1.2354421050406992
1789063971380915500,1.55991552734375,7.357381117138266,6.371221377566457,1.2028599781267344
1789063971390952400,1.569952392578125,7.3515996111273765,6.381613592243194,1.1829511625640095
1789063971400989200,1.5799892578125,7.340487265482545,6.39603900795877,1.1740198142200708
1789063971411026400,1.5900263671875,7.328264912769198,6.410151704463362,1.1734073083449155
1789063971421063400,1.6000634765625,7.321075878047942,6.418058532065153,1.1750593133356422
1789063971431101400,1.610101318359375,7.32205086055994,6.418415090417861,1.167003505717218
1789063971441138400,1.620138427734375,7.324533909547329,6.41733664753139,1.15731549378708
1789063971451175400,1.630175537109375,7.326165310141444,6.416811162352562,1.1498796446979045
1789063971461212400,1.64021240234375,7.333760003054142,6.4111395464569325,1.1329748332567513
1789063971471249400,1.65024951171875,7.342974406123161,6.403232718855143,1.1179128001380711
1789063971481286400,1.660286376953125,7.349645554450154,6.395985231944918,1.115559515010193
1789063971491323400,1.670323486328125,7.351269356259703,6.39253187662065,1.124616170234233
1789063971501360400,1.6803603515625,7.347264796793461,6.39387452340126,1.143006909384206
1789063971511397400,1.6903974609375,7.345411862403154,6.393052685624361,1.159393542170152
1789063971521434400,1.700434326171875,7.347461196148395,6.3904807893097395,1.1605861860208213
1789063971531471600,1.7104716796875,7.3479486874043936,6.390825657224655,1.1555900582339613
1789063971541508400,1.72050830078125,7.346684366557001,6.393210506534576,1.1504255881428718
1789063971551545300,1.73054541015625,7.342345460569858,6.398343777769804,1.1495794196423141
1789063971561582300,1.740582275390625,7.338449037653207,6.401889487552642,1.1547139329865574
1789063971571620400,1.750620361328125,7.337778006523847,6.3995449702531095,1.171850288161263
1789063971581657300,1.7606572265625,7.3427061105757945,6.390529304626583,1.1900350564103572
1789063971591694300,1.7706943359375,7.3529685613930225,6.377329046791791,1.1974603841055185
1789063971601731300,1.7807314453125,7.362517895504832,6.365331150484085,1.2026136021502316
1789063971611768600,1.7907685546875,7.374578335654735,6.351605407470465,1.2012831572640688
1789063971621805300,1.800805419921875,7.390404850339889,6.334685836851596,1.1933414044793695
1789063971631842300,1.81084228515625,7.406186941361427,6.318365985691547,1.1819601057000457
1789063971641878500,1.82087841796875,7.415557996296882,6.307910058128833,1.1790487482979892
1789063971651915500,1.83091552734375,7.4191791094034905,6.303467107245326,1.1800293568331748
1789063971661952500,1.840952392578125,7.415965408053994,6.306375103646516,1.1846839046407491
1789063971671989800,1.85098974609375,7.410731014531851,6.3126820948362345,1.1838516916003077
1789063971682026800,1.86102685546875,7.405103237777948,6.321429464915394,1.172331349676475
1789063971692063500,1.8710634765625,7.395705879357457,6.335095586696267,1.1577938518885522
1789063971702101500,1.8811015625,7.383662390342354,6.351608330079912,1.1441103405814617
1789063971712138800,1.891138671875,7.371592597842216,6.367823551821708,1.1317390078514813
1789063971722175500,1.901175537109375,7.362236740475892,6.380734471321105,1.1198564815517513
1789063971732212500,1.91121240234375,7.357445414546132,6.3889131016016005,1.1046132466472685
1789063971742249500,1.92124951171875,7.356186938917636,6.394194256874918,1.0822069882456213
1789063971752286700,1.93128662109375,7.354886962234973,6.399478334757685,1.0595732046984137
1789063971762323700,1.94132373046875,7.354056941151619,6.404272583296895,1.0361064043931663
1789063971772360400,1.9513603515625,7.3538394990086555,6.4091860743016005,1.0068589748598635
1789063971782397400,1.9613974609375,7.3535185964912175,6.414845999759435,0.9725744279421865
1789063971792434400,1.971434326171875,7.352738844290375,6.420314786559343,0.9418958696272224
1789063971802471700,1.9814716796875,7.353515089359879,6.424326360288262,0.9078706312328576
1789063971812508700,1.9915087890625,7.353595753380656,6.429006042537093,0.8734413420822471
1789063971822545400,2.00154541015625,7.350814013707637,6.436189232039451,0.8434404638331383
1789063971832582400,2.01158251953125,7.350170455107093,6.441087525475025,0.8110238296791911
1789063971842620700,2.02162060546875,7.350573775210976,6.444556662890315,0.7791889409359544
1789063971852657700,2.03165771484375,7.348251469743252,6.451060637956857,0.7465975347369909
1789063971862694400,2.0416943359375,7.343679339522123,6.460238800668716,0.7113928042344748
1789063971872731600,2.051731689453125,7.336469262012839,6.472189350703358,0.6762850313004106
1789063971882768600,2.0617685546875,7.328769355159998,6.484808593779802,0.6377952147126198
1789063971892805600,2.0718056640625,7.321279291665554,6.49685909705758,0.6000616233196109
1789063971902842600,2.081842529296875,7.311897130814194,6.510392532369494,0.566873602934368
1789063971912879400,2.09187939453125,7.303720254099368,6.522174155578017,0.5359959418507293
1789063971922916600,2.10191650390625,7.298204121026396,6.530594193398952,0.507875762781687
1789063971932953600,2.11195361328125,7.2941376022398465,6.537151359957456,0.4812473931729793
1789063971942990600,2.121990478515625,7.2903580837011335,6.542911823180318,0.45974378269948063
1789063971953027600,2.132027587890625,7.2869503210842606,6.547526623499393,0.44791853954494
1789063971963064600,2.142064697265625,7.284628015616535,6.550868335142732,0.43668907032646237
1789063971973101600,2.1521015625,7.283921913173795,6.552647035253048,0.42151974090840666
1789063971983139600,2.1621396484375,7.2837681839168065,6.553614418980479,0.4089574521835893
1789063971993176600,2.172176513671875,7.284067459124326,6.554119445893168,0.39529819853492076
1789063972003213600,2.182213623046875,7.284256259694695,6.5544368412792675,0.38645215385425835
1789063972013250600,2.19225048828125,7.286382165807485,6.55247343225181,0.37960623348224903
1789063972023287600,2.20228759765625,7.2882467906355854,6.550598870551585,0.3761633264867589
1789063972033324500,2.212324462890625,7.287943423774838,6.550819235303997,0.3781875623233616
1789063972043361500,2.222361572265625,7.286196287846565,6.552571631929278,0.3815034454056993
1789063972053398500,2.2323984375,7.282284667360782,6.556681405335665,0.3855532322531566
1789063972063435500,2.242435546875,7.278501057168841,6.560888209375738,0.3854332956679165
1789063972073472500,2.252472412109375,7.274480131089687,6.565591272500157,0.3812300352917984
1789063972083509800,2.262509765625,7.271765026912092,6.568975069719553,0.3746893814766779
1789063972093546800,2.272546630859375,7.274797526475787,6.566091038715839,0.36627120681926606
1789063972103583500,2.28258349609375,7.279093762364983,6.561680821058154,0.3598937442092225
1789063972113621500,2.29262158203125,7.283797994533181,6.556551641476154,0.3582014802733436
1789063972123658800,2.30265869140625,7.2926055703669785,6.546832796016335,0.3567441941371187
1789063972133695500,2.312695556640625,7.303069681236147,6.5356409553945065,0.34778935531973837
1789063972143732500,2.322732421875,7.308967507103085,6.52953445521295,0.33845709802471097
1789063972153769500,2.33276953125,7.3121654263615605,6.526638149249553,0.3249841972609982
1789063972163806700,2.342806640625,7.3148816995829335,6.524559004887938,0.3049960511180572
1789063972173843700,2.35284375,7.314656074133515,6.525780655637383,0.283523803897202
1789063972183880400,2.36288037109375,7.306009241819381,6.536330691224336,0.2626884115414694
1789063972193917400,2.37291748046875,7.290078682237863,6.554251547840237,0.258693697615806
1789063972203954400,2.382954345703125,7.2817650274008505,6.563814910477399,0.25024211387913675
1789063972213991700,2.39299169921875,7.2815014080286025,6.565258679544925,0.21794156211921945
1789063972224028700,2.403028564453125,7.28033002616167,6.567735298791527,0.17895550471339375
1789063972234065400,2.4130654296875,7.276331896436214,6.572677431368827,0.15901470484351737
1789063972244103700,2.423103759765625,7.275789460122585,6.573551291593909,0.1472922188105527
1789063972254140700,2.433140625,7.2836904425054785,6.564875233185291,0.1437266170171555
1789063972264177700,2.443177734375,7.298898533031344,6.547946894738078,0.144405374795245
1789063972274214400,2.45321435546875,7.316017425614595,6.529220566958188,0.12467238159030675
1789063972284251400,2.46325146484375,7.328417472982406,6.515987575897574,0.08112406690339558
1789063972294288600,2.47328857421875,7.3253557473242275,6.519868216723204,0.029591516563505865
1789063972304325600,2.48332568359375,7.308679337811469,6.538623186075687,-0.002659425898901827
1789063972314362600,2.493362548828125,7.289278471770882,6.560194966414571,-0.025293138949573038
1789063972324399400,2.5033994140625,7.275525840750336,6.575368570148944,-0.040489717134158124
1789063972334436600,2.5134365234375,7.264580668365955,6.5873752342849965,-0.05234798577546607
1789063972344473600,2.5234736328125,7.250712302011251,6.6025429928004735,-0.06306465576675255
1789063972354510600,2.533510498046875,7.238687517696619,6.61558776781261,-0.07612434978680685
1789063972364547600,2.543547607421875,7.235023149970173,6.61922290944457,-0.10351478980919346
1789063972374584600,2.55358447265625,7.2363266337841745,6.617049072536826,-0.1436175762852654
1789063972384622600,2.56362255859375,7.2404907677263015,6.611629970097542,-0.1789397956876084
1789063972394659600,2.57365966796875,7.250486092039942,6.599902122902869,-0.20525920894499866
1789063972404696600,2.583696533203125,7.262374098232388,6.586115589612722,-0.2267110161660239
1789063972414733600,2.593733642578125,7.2734291607320305,6.573264875867962,-0.24455020411415024
1789063972424770600,2.6037705078125,7.286881932023167,6.557179417985678,-0.2741097135376185
1789063972434807600,2.6138076171875,7.2994298634290695,6.541755054360627,-0.30683855544589456
1789063972444844500,2.623844482421875,7.304589438149333,6.5346268099159,-0.33468693183623255
1789063972454881800,2.6338818359375,7.307533090385794,6.5300190238595,-0.3594397168314084
1789063972464918500,2.64391845703125,7.307457102540135,6.528921291750669,-0.38030488327089695
1789063972474955500,2.65395556640625,7.302471130821108,6.5337283997714515,-0.3933048327606171
1789063972484992500,2.663992431640625,7.295483756151795,6.540462676462531,-0.4106706858422607
1789063972495029800,2.67402978515625,7.287023970842361,6.548684561362863,-0.4294095808427781
1789063972505066800,2.684066650390625,7.278626729375124,6.556873713037371,-0.4465224820766598
1789063972515104500,2.6941044921875,7.2716183119177815,6.563488162741065,-0.4632281176839024
1789063972525141500,2.7041416015625,7.265519410520792,6.569378974345326,-0.47526302153375
1789063972535178800,2.7141787109375,7.264726798838376,6.569572451090813,-0.484601416308619
1789063972545215500,2.724215576171875,7.268191844600438,6.564847760656476,-0.4965278913479298
1789063972555252500,2.73425244140625,7.272763974821567,6.558674040457606,-0.5109670798605308
1789063972565289500,2.74428955078125,7.280548052826523,6.548659426921605,-0.5282626807175577
1789063972575326700,2.75432666015625,7.288225747847557,6.538733660712838,-0.5450734571997076
1789063972585363700,2.76436376953125,7.292740594923496,6.532807777795195,-0.5556434395961463
1789063972595400400,2.774400390625,7.297446580657362,6.526770251196623,-0.5647406460262835
1789063972605437400,2.7844375,7.2997151101112365,6.523665270918607,-0.5712634719237685
1789063972615474400,2.794474365234375,7.299032973065972,6.523990265089273,-0.5762498820342123
1789063972625511700,2.80451171875,7.295666126981377,6.5273255469918245,-0.5810880793130025
1789063972635548700,2.814548583984375,7.290492523735761,6.532880843031406,-0.583582197683677
1789063972645585700,2.824585693359375,7.286563367593288,6.537242545372247,-0.5838072386112064
1789063972655623700,2.834623779296875,7.284551443248986,6.539536209267378,-0.5832262238528579
1789063972665660700,2.84466064453125,7.283786888617277,6.540495994210243,-0.5820223279558122
1789063972675698000,2.854697998046875,7.283765845829248,6.540619328328967,-0.580891753023304
1789063972685734700,2.864734619140625,7.284386608076095,6.540336419734358,-0.5762793638570234
1789063972695771600,2.874771728515625,7.286776133561134,6.537942802596092,-0.5732188803078606
1789063972705808600,2.88480859375,7.291853290694951,6.532476353883743,-0.5709717589681967
1789063972715845600,2.894845703125,7.298038701331615,6.526500786605477,-0.560178196948953
1789063972725883000,2.9048828125,7.304605220240354,6.520126575398445,-0.5487089276252314
1789063972735919600,2.914919677734375,7.3077581313133235,6.51808425591588,-0.5306813226992264
1789063972745956600,2.92495654296875,7.31035691563487,6.516653930851817,-0.5121374753467738
1789063972755993600,2.93499365234375,7.312474053919315,6.515374996957182,-0.4979860907996073
1789063972766030800,2.94503076171875,7.309264444223046,6.52035979963243,-0.47951669692285354
1789063972776067800,2.95506787109375,7.302522568747401,6.529376634302735,-0.45911607925519343
1789063972786105600,2.965105712890625,7.293967506369948,6.540549770224094,-0.4354781601667404
1789063972796142600,2.975142578125,7.285241179078817,6.551631720730662,-0.41443997524790466
1789063972806179800,2.985179931640625,7.277369422790407,6.561598987993597,-0.39459384965784844
1789063972816216800,2.995216796875,7.272002342799306,6.568695083734393,-0.3749748108219355
1789063972826253600,3.005253662109375,7.268214056432247,6.574089051732421,-0.3532752393849194
1789063972836290600,3.01529052734375,7.269050507256388,6.574167377665638,-0.3340813306258991
1789063972846327800,3.025327880859375,7.269668346893787,6.574760082861781,-0.307942534632422
1789063972856364800,3.03536474609375,7.271569796600938,6.573858750107884,-0.28113732888577503
1789063972866401800,3.04540185546875,7.274293084084987,6.571869622117281,-0.25607120362510905
1789063972876438500,3.0554384765625,7.275597152420878,6.571466886535286,-0.227810373976361
1789063972886475800,3.065475830078125,7.2790908397555345,6.568320405203104,-0.20588150556180626
1789063972896512800,3.0755126953125,7.28337070903182,6.564313507649302,-0.18076470955982804
1789063972906549800,3.0855498046875,7.288246206113696,6.559576542255282,-0.1542960422911681
1789063972916587500,3.09558740234375,7.29308663188219,6.554771187800169,-0.12744290574956685
1789063972926624800,3.105624755859375,7.2943515372514725,6.553945842891931,-0.09281129895988852
1789063972936661800,3.115661865234375,7.297662269234657,6.550623420470953,-0.062015795167791654
1789063972946698800,3.12569873046875,7.298696288457513,6.549699291363358,-0.029328641543351113
1789063972956735500,3.135735595703125,7.2964552315324545,6.552260666283964,0.0028805595487603566
1789063972966772700,3.145772705078125,7.295745037436485,6.552984304383397,0.02983507496183738
1789063972976809700,3.155809814453125,7.2941300034552805,6.554572450357675,0.06034059196456801
1789063972986846700,3.1658466796875,7.295451022925972,6.552797841900587,0.08730954147214069
1789063972996883700,3.1758837890625,7.2979159517347805,6.549619796386361,0.11526573475166223
1789063973006920700,3.185920654296875,7.299394792115688,6.54736471093595,0.14572917074491268
1789063973016957700,3.195957763671875,7.305226567009091,6.540216008225083,0.172125019372534
1789063973026994700,3.20599462890625,7.311877841591834,6.532198705986142,0.19289304558048023
1789063973037031700,3.21603173828125,7.315962480556965,6.527028025349974,0.21211619870029388
1789063973047069700,3.226069580078125,7.319572487747669,6.522338990750908,0.2309312094106339
1789063973057106700,3.236106689453125,7.3199664555013175,6.5213137393563985,0.2468894424503669
1789063973067143700,3.246143798828125,7.318443191456795,6.522558186459541,0.25885199345005677
1789063973077180700,3.2561806640625,7.3138260530501595,6.527195198610425,0.27214104381315407
1789063973087218000,3.266218017578125,7.30849229080677,6.53283466580212,0.27999278022684154
1789063973097254700,3.276254638671875,7.300418289944529,6.541480329072475,0.28864299180814995
1789063973107291600,3.286291748046875,7.290780693027377,6.5517205680578945,0.29976744801588356
1789063973117328600,3.29632861328125,7.286123807132244,6.556432983532548,0.3097969668600708
1789063973127365600,3.30636572265625,7.282318569630384,6.559917903038859,0.3251045357050374
1789063973137403000,3.31640283203125,7.277856329524517,6.564064501324296,0.34094584610052403
1789063973147439600,3.326439697265625,7.275998718959093,6.565273292592168,0.3569459272542968
1789063973157476600,3.3364765625,7.276001641568541,6.564344487309455,0.3735902976609766
1789063973167513600,3.346513671875,7.27988228239417,6.559392417860031,0.3847985048957169
1789063973177552000,3.3565517578125,7.283595165437459,6.55437605100274,0.3997293128501624
1789063973187588600,3.366588623046875,7.287493926441669,6.548897911852598,0.4180354059239849
1789063973197625600,3.37662548828125,7.293152098333835,6.541290359458327,0.43799061791170385
1789063973207662600,3.38666259765625,7.296793669706583,6.535668427923321,0.4606663043718785
1789063973217699800,3.396699951171875,7.301245388418436,6.529505229118466,0.4772401302929967
1789063973227736800,3.40673681640625,7.304116559940576,6.524883999058604,0.4961376499213278
1789063973237773600,3.416773681640625,7.304815648120641,6.522700809800624,0.5142272141676396
1789063973247810600,3.426810546875,7.303756494456529,6.522544742456078,0.5309793557977304
1789063973257847800,3.436847900390625,7.299664841228723,6.525873010095953,0.5461284826779738
1789063973267884800,3.446884765625,7.295950789141655,6.528917784619331,0.5592094980472698
1789063973277921800,3.456921875,7.292638303592801,6.531279253053665,0.5746335694113746
1789063973287958500,3.46695849609375,7.288082539984583,6.534828469967842,0.5918325049608946
1789063973297995800,3.476995849609375,7.287479313394427,6.534063330814242,0.6074970705499873
1789063973308033800,3.48703369140625,7.288883919495344,6.531275161400437,0.6204881060808897
1789063973318070500,3.497070556640625,7.291347679260372,6.528256105840206,0.6233014099359512
1789063973328107500,3.507107421875,7.29292004314363,6.526617106461525,0.6220726718585938
1789063973338144800,3.517144775390625,7.295013216030597,6.525083905544877,0.6135462510537356
1789063973348181800,3.527181640625,7.298385907334088,6.52211102721393,0.6049963397754355
1789063973358218800,3.53721875,7.298311088532209,6.5222904754340645,0.6039612976392731
1789063973368255500,3.54725537109375,7.298399351337552,6.522170648446679,0.6041899187633767
1789063973378292700,3.557292724609375,7.294860071295499,6.5257783175498245,0.6079641400724649
1789063973388329700,3.567329833984375,7.291722357791662,6.530231789827346,0.5976974514715373
1789063973398366700,3.57736669921875,7.288132808867097,6.535530480757355,0.5833939451025798
1789063973408403700,3.58740380859375,7.286501408272981,6.539131720119714,0.5630527660045772
1789063973418440700,3.597440673828125,7.289581838631629,6.538010022613406,0.5355327813183889
1789063973428477700,3.607477783203125,7.288140407651662,6.541123770719766,0.5168152578994631
1789063973438515700,3.617515625,7.285013215541839,6.545948998919129,0.499518524531275
1789063973448552700,3.627552734375,7.282114571490883,6.55008799842,0.4873784432739019
1789063973458589700,3.637589599609375,7.2794906527280805,6.554550238525867,0.46612497163657096
1789063973468626700,3.647626708984375,7.277817751079797,6.55844373883307,0.4365414785493165
1789063973478663700,3.65766357421875,7.274804540738463,6.563923631548882,0.4031191379515454
1789063973488700700,3.66770068359375,7.2695491044282905,6.571607171788811,0.3715221861500293
1789063973498738000,3.677738037109375,7.263136314776539,6.58026335645318,0.3425967551127076
1789063973508774700,3.687774658203125,7.258086045649647,6.587641191744804,0.3058781859811395
1789063973518811600,3.697811767578125,7.252436057063937,6.595354542601108,0.27176981761427593
1789063973528848600,3.7078486328125,7.249905077281594,6.5997910637438295,0.22809985844222827
1789063973538885600,3.7178857421875,7.245314826881885,6.606132541725039,0.18658583519505337
1789063973548923000,3.7279228515625,7.238452539896965,6.614654870876669,0.14672206337293608
1789063973558960600,3.737960693359375,7.237191141659021,6.616926907461881,0.09860477853636257
1789063973568997600,3.74799755859375,7.23758569393456,6.617070115324855,0.04600297326345462
1789063973579035000,3.758034912109375,7.238734863969683,6.615963030865788,-0.012106366217439062
1789063973589072000,3.76807177734375,7.238697454568744,6.615746757766604,-0.059501181998359964
1789063973599108600,3.778108642578125,7.239211249309778,6.614563685461879,-0.10840848926804028
1789063973609145600,3.7881455078125,7.238564183577894,6.614409371683001,-0.1522089886177331
1789063973619182600,3.7981826171875,7.239668929949403,6.611823446843028,-0.20339127791495992
1789063973629219800,3.8082197265625,7.241165890508889,6.608423283010721,-0.25424893836770207
1789063973639257000,3.818257080078125,7.241773208752274,6.605600626805424,-0.305203921715077
1789063973649294000,3.828294189453125,7.243129884058237,6.60163523030579,-0.3547759262714535
1789063973659331000,3.8383310546875,7.244308864709734,6.597686784940958,-0.4011314712656662
1789063973669368300,3.848368408203125,7.24873661802411,6.589586480593681,-0.4511619419129565
1789063973679405300,3.8584052734375,7.252828271251916,6.581869622606039,-0.4958440372696146
1789063973689443000,3.868443115234375,7.255854341074824,6.5750967674702405,-0.5395117679519579
1789063973699480000,3.87847998046875,7.259093176865577,6.567928191015124,-0.5816111168064176
1789063973709517300,3.888517333984375,7.26421826479435,6.558278319138288,-0.6249070915669203
1789063973719554300,3.89855419921875,7.269131755799054,6.548885052371025,-0.6649970368277281
1789063973729591000,3.908591064453125,7.271889530074596,6.541949115628004,-0.7020767674218863
1789063973739628000,3.9186279296875,7.27652595770359,6.532939879742265,-0.7370594526715576
1789063973749665300,3.928665283203125,7.281720603737234,6.523043924149871,-0.772547822421044
1789063973759702300,3.938702392578125,7.287966220128536,6.511493771609664,-0.8101721812859177
1789063973769739300,3.9487392578125,7.293458387804031,6.501195664957165,-0.8427977820154279
1789063973779776000,3.95877587890625,7.299329325664043,6.490639199629426,-0.8728013636782765
1789063973789813000,3.96881298828125,7.304993342775106,6.480438708132505,-0.9007630642499774
1789063973799850200,3.978850341796875,7.3099611943155525,6.471013292661309,-0.9278134221304207
1789063973809888000,3.988887939453125,7.312772744604945,6.464232254219055,-0.9526013880368321
1789063973819925000,3.998925048828125,7.312512632364034,6.46049131412506,-0.9795894943360238
1789063973829962200,4.008962158203125,7.3110168408483265,6.45836599253416,-1.0044545440666377
1789063973839999200,4.018999267578125,7.30854782038629,6.45726650685966,-1.029187053458765
1789063973850036200,4.0290361328125,7.305799398460984,6.457488040655851,-1.0471535758472978
1789063973860073200,4.0390732421875,7.304944242936372,6.455052922463417,-1.0679217116530983
1789063973870110000,4.04910986328125,7.304522802653908,6.452279366096854,-1.087391185950488
1789063973880147200,4.059147216796875,7.304003747215867,6.450103191101551,-1.103669024599716
1789063973890184200,4.06918408203125,7.306468676024675,6.443595124381781,-1.125158825743571
1789063973900221200,4.07922119140625,7.3075506260424845,6.438937069442868,-1.1446326839551328
1789063973910258200,4.089258056640625,7.309321142846345,6.434094890108704,-1.1604416629835963
1789063973920295200,4.099295166015625,7.312010528060793,6.428195310676098,-1.176092017384246
1789063973930332200,4.109332275390625,7.313984458482265,6.423169006946683,-1.1911819614231587
1789063973940370200,4.1193701171875,7.3160010590016835,6.418975646910071,-1.2013640404805541
1789063973950407200,4.1294072265625,7.318743635708093,6.414086705824732,-1.2107294693928212
1789063973960444200,4.139444091796875,7.322540689903497,6.407832906126975,-1.2208487123470753
1789063973970481200,4.149481201171875,7.326905314853787,6.400556193122267,-1.2327739087447522
1789063973980518100,4.15951806640625,7.33188018065691,6.393009431004524,-1.2423133059844373
1789063973990555100,4.16955517578125,7.337723645988106,6.385729795390367,-1.2452508207410573
1789063974000592100,4.179592041015625,7.342811324515939,6.380014924874901,-1.2445545090399681
1789063974010629000,4.189629150390625,7.344568397316336,6.378684553053975,-1.2410025156468152
1789063974020666000,4.199666015625,7.3461010137110945,6.377493881964683,-1.238047903624922
1789063974030703000,4.209703125,7.345192082172632,6.379250954765081,-1.2343795903757213
1789063974040740400,4.219740234375,7.340827457222342,6.385349856162071,-1.2287936069369316
1789063974050777000,4.229777099609375,7.336772628873586,6.391733419719338,-1.219791896770522
1789063974060815000,4.239815185546875,7.333789813670515,6.396900593224167,-1.2106138071238994
1789063974070852000,4.24985205078125,7.330323598864674,6.4037167029798026,-1.1954680412445218
1789063974080889300,4.259889404296875,7.329160400304198,6.407922337976098,-1.1799657900776714
1789063974090926000,4.269926025390625,7.331868490219116,6.407758671846985,-1.1639248289242385
1789063974100963000,4.279963134765625,7.334742584350705,6.4073214494735,-1.1481120505034923
1789063974111000000,4.29,7.338312259531021,6.4068544164836405,-1.1277273610573262
1789063974121037300,4.300037353515625,7.342866269573569,6.405093836551904,-1.1079151377368717
1789063974131074300,4.31007421875,7.347217450520396,6.403497507271171,-1.0881151893761007
1789063974141111000,4.320111083984375,7.348956403142213,6.404519836056232,-1.070210699373111
1789063974151148000,4.33014794921875,7.3476990965574975,6.407633584162593,-1.06016043000184
1789063974161185300,4.340185302734375,7.343510997217893,6.4150196027606725,-1.0443934634841978
1789063974171222300,4.35022216796875,7.337896664467453,6.424073846831917,-1.0280739045850933
1789063974181260000,4.360260009765625,7.330935593283176,6.435616400587558,-1.0052899719774722
1789063974191297000,4.370297119140625,7.321907068175077,6.449960567760467,-0.9788106919832527
1789063974201334300,4.380334228515625,7.311566291424632,6.467064262774587,-0.9425822444561869
1789063974211371300,4.390371337890625,7.301185767185688,6.48427141816318,-0.9040397478330879
1789063974221408300,4.400408203125,7.2917206042259926,6.500258091846108,-0.8647774125028401
1789063974231445000,4.410445068359375,7.284692897546291,6.512895455101132,-0.8281471061766147
1789063974241482200,4.420482177734375,7.28090811831057,6.521842731666564,-0.790148799432814
1789063974251519200,4.430519287109375,7.278493458384275,6.528683975863457,-0.755121836649999
1789063974261556200,4.44055615234375,7.279813308811187,6.531048366907239,-0.7211890988446772
1789063974271593200,4.45059326171875,7.281648123022913,6.532779136222601,-0.6861315947931259
1789063974281630000,4.4606298828125,7.285704120415449,6.5320104899376625,-0.649412002748251
1789063974291667200,4.470667236328125,7.291061263534426,6.5290498865664,-0.6183217218272388
1789063974301705200,4.480705322265625,7.298006552627682,6.523690989881754,-0.5923988336067646
1789063974311742000,4.490741943359375,7.300637485653161,6.52297027439177,-0.5673999648960307
1789063974321779200,4.500779296875,7.30138625819385,6.5238464727044105,-0.5473321228466927
1789063974331816200,4.510816162109375,7.301355278533697,6.525833847129345,-0.5235334602385759
1789063974341853200,4.520853271484375,7.301102765077352,6.527798425200581,-0.5021225330172107
1789063974351890200,4.53089013671875,7.299141109615564,6.531687249332666,-0.4795723361002281
1789063974361927200,4.54092724609375,7.29827134104371,6.533952856177091,-0.46161867319326844
1789063974371964200,4.550964111328125,7.300223644155263,6.532896040600538,-0.44540856601800766
1789063974382001200,4.561001220703125,7.301601362249254,6.531871373727918,-0.437775440791063
1789063974392038100,4.5710380859375,7.29996762356758,6.534181404235959,-0.43050395195074376
1789063974402075100,4.5810751953125,7.297897831556201,6.536974834346771,-0.4231248014848679
1789063974412112100,4.591112060546875,7.299311205485463,6.535767796644568,-0.4173602466087788
1789063974422150100,4.601150146484375,7.299673024535179,6.535666089835763,-0.4125831318674609
1789063974432187100,4.611187255859375,7.2977096155077215,6.538394638016819,-0.4039982223410159
1789063974442224400,4.621224365234375,7.296068862563371,6.540601208150386,-0.39786348244566466
1789063974452261000,4.63126123046875,7.297547702944279,6.539196602049469,-0.3938043797805905
1789063974462298000,4.641298095703125,7.300657359397411,6.535752599075436,-0.3933438130641356
1789063974472335000,4.651335205078125,7.307194652211666,6.528290592631698,-0.39587234516106545
1789063974482372000,4.6613720703125,7.3088570324659345,6.5265756054073565,-0.39344124555662274
1789063974492409300,4.671409423828125,7.308214058387279,6.52759618062675,-0.38843441371265797
1789063974502446000,4.681446044921875,7.305987614509463,6.530545093560218,-0.38067068437598645
1789063974512483000,4.691483154296875,7.305203186133504,6.531670298197865,-0.3764040764400735
1789063974522520000,4.70152001953125,7.302607908943295,6.534930761298537,-0.37010475710015744
1789063974532557300,4.711557373046875,7.29974492072761,6.538477055603265,-0.36390086095873264
1789063974542595000,4.721594970703125,7.295010293421149,6.544425150352716,-0.3517198631690815
1789063974552632000,4.731632080078125,7.2928259351193905,6.547501489058137,-0.339560236961022
1789063974562669000,4.7416689453125,7.29116647747457,6.549993305873871,-0.32689536464456465
1789063974572706300,4.751706298828125,7.28997113021016,6.551980095776915,-0.31347313462216403
1789063974582743000,4.761742919921875,7.288470662519336,6.554428073450922,-0.29674413640564307
1789063974592780000,4.771780029296875,7.2880112283140415,6.5555789970517155,-0.2822498384386301
1789063974602817000,4.781817138671875,7.289662502652407,6.554509321993589,-0.26384653206802905
1789063974612854300,4.791854248046875,7.2952493628740305,6.548876284542679,-0.24889409680366514
1789063974622891300,4.801891357421875,7.297990770536661,6.546437659218907,-0.23209504729192704
1789063974632928300,4.81192822265625,7.300389063850044,6.544430411049723,-0.2124649208064191
1789063974642964700,4.82196484375,7.302077747589349,6.543287670755386,-0.18823329187482593
1789063974653002000,4.832001953125,7.306420160707831,6.539006047913432,-0.16737904868815093
1789063974663040000,4.8420400390625,7.307490420287847,6.538295269295573,-0.1472003027433995
1789063974673077000,4.852076904296875,7.304539169266819,6.541985355985164,-0.12854001680389046
1789063974683114000,4.862114013671875,7.300444008907675,6.546893586292862,-0.10994562657428905
1789063974693151000,4.87215087890625,7.298482937967777,6.549336303269863,-0.09343495641672052
1789063974703188000,4.88218798828125,7.294645551761985,6.55385524199903,-0.07428019692457746
1789063974713225000,4.892224853515625,7.293397597527504,6.555432866579294,-0.05505024873779621
1789063974723262000,4.902261962890625,7.291652215164899,6.557511426419019,-0.035215975699026604
1789063974733299000,4.912298828125,7.289927875590324,6.559498800843953,-0.01768471776397782
1789063974743336000,4.9223359375,7.289947164812683,6.5595011389315125,0.0005395624381224479
1789063974753373000,4.932373046875,7.292371761611103,6.556788372841477,0.01532878173799836
1789063974763410000,4.942409912109375,7.293662970465421,6.555289074194431,0.03242815562838223
1789063974773448000,4.952447998046875,7.294644382718205,6.554083790057897,0.05029673406777437
1789063974783485000,4.96248486328125,7.2960782149136065,6.552322041082382,0.06856451812493615
1789063974793522000,4.97252197265625,7.30008160533607,6.5476774301469325,0.08431150130047463
1789063974803559000,4.982558837890625,7.303113520377874,6.544068007478118,0.10049162432942539
1789063974813596000,4.992595947265625,7.30589935170412,6.54068654834628,0.11677310710730962
1789063974823633000,5.0026328125,7.309078566262126,6.5367807730793945,0.13511975138722918
1789063974833670000,5.012669921875,7.311157126101851,6.534045210635662,0.15367882370827718
1789063974843707000,5.022706787109375,7.312415601730346,6.532251312956213,0.16929595169276
1789063974853744000,5.032744140625,7.309964701446891,6.53460810521543,0.18357812301274387
1789063974863780900,5.04278076171875,7.3050342593073845,6.5397109813123935,0.19757848171666265
1789063974873817900,5.05281787109375,7.299648474615812,6.545303102231025,0.21099618169441817
1789063974883854800,5.062854736328125,7.293197691041231,6.552074788323044,0.22352288764920084
1789063974893893000,5.07289306640625,7.282926472395658,6.562966769215464,0.2383961932627484
1789063974903929900,5.082929931640625,7.269837858241796,6.576926320984959,0.25276195121295747
1789063974913966800,5.092966796875,7.258886840638518,6.588540770933031,0.2647284112027846
1789063974924003800,5.10300390625,7.24894295425117,6.599073855385184,0.2746400027557276
1789063974934041000,5.113041015625,7.240343468210101,6.608122838759422,0.28376479131253435
1789063974944078000,5.123078125,7.232928223517536,6.615750264897942,0.29493847522316496
1789063974954114800,5.13311474609375,7.230145314800739,6.618463030987978,0.3022044293718412
1789063974964151800,5.14315185546875,7.233654784226417,6.614590573468804,0.3030110695796087
1789063974974189000,5.15318896484375,7.241770870664715,6.60583326651752,0.30016322413412855
1789063974984226000,5.16322607421875,7.253223992571234,6.593259616148472,0.30009048769148067
1789063974994263000,5.173262939453125,7.267192896690965,6.577731207627058,0.30289274042956527
1789063975004300800,5.18330078125,7.278380061137676,6.565067540886997,0.30894546459726985
1789063975014338000,5.193338134765625,7.288622053688764,6.553690991348028,0.30903712493609636
1789063975024375000,5.203375,7.298128133180737,6.543258444660902,0.30573665861859917
1789063975034412000,5.213412109375,7.302597972071171,6.538534923270344,0.30000118370652196
1789063975044448800,5.22344873046875,7.303353758874535,6.537944556161761,0.2944483170860447
1789063975054486000,5.233486083984375,7.301880179190635,6.539734362187981,0.2912149794543162
1789063975064523000,5.24352294921875,7.29763771931529,6.544520427420735,0.29004102203780785
1789063975074560000,5.25356005859375,7.2909005200147625,6.5521776641756295,0.2865583310212009
1789063975084597000,5.263596923828125,7.280968908587098,6.5633303418308495,0.2838576937603764
1789063975094634000,5.273634033203125,7.271829324319958,6.573821925228834,0.2752245977106504
1789063975104671000,5.2836708984375,7.265848496344685,6.580924450710415,0.26318322758739815
1789063975114709000,5.293708984375,7.260010291710495,6.587817717355489,0.2515765408206731
1789063975124745700,5.303745849609375,7.2544117410510776,6.594383651742339,0.24081198570020496
1789063975134783000,5.313782958984375,7.252361822783946,6.597118045142293,0.22729882599133996
1789063975144820000,5.323820068359375,7.253411039575934,6.596400252261757,0.21428367893248795
1789063975154857000,5.33385693359375,7.25645756766498,6.5934595226347446,0.20124569898732006
1789063975164894000,5.34389404296875,7.260651512223482,6.589203618755937,0.18899762731082737
1789063975174931000,5.353930908203125,7.2638669671386475,6.585960691311955,0.17814227036805821
1789063975184968000,5.363968017578125,7.267576927572488,6.582235533308983,0.1639804922910407
1789063975195005000,5.3740048828125,7.270549805903435,6.579356178480387,0.14683675752747802
1789063975205042000,5.3840419921875,7.270746205258369,6.579522182697057,0.12858281476600095
1789063975215079000,5.394078857421875,7.270698274463415,6.579950637242198,0.10761615158026105
1789063975225117000,5.404116943359375,7.267390465089679,6.583876286253333,0.08938007326903752
1789063975235154000,5.41415380859375,7.263326284390687,6.588541939976811,0.0748028051597299
1789063975245191000,5.42419091796875,7.258663553276658,6.593833616644144,0.059513712686370124
1789063975255228200,5.434228271484375,7.25186907083094,6.601402590593695,0.0475544450557325
1789063975265265000,5.444264892578125,7.246314943835139,6.607605536887049,0.029331539036624596
1789063975275302000,5.454302001953125,7.244868252158165,6.609250966006517,0.00850071211651084
1789063975285339000,5.4643388671875,7.243103580573201,6.611179888242483,-0.012044577002135338
1789063975295376100,5.474376220703125,7.242386956736445,6.611925153651833,-0.025802355696901213
1789063975305413000,5.4844130859375,7.242800798234343,6.611411358910798,-0.038237645624740975
1789063975315449900,5.494449951171875,7.247769818818568,6.605891134184598,-0.04912687743764836
1789063975325486800,5.50448681640625,7.256147186541557,6.596601327791809,-0.059625251336023206
1789063975335525000,5.514525146484375,7.263233345410227,6.588710866802931,-0.06869881202909164
1789063975345561900,5.524561767578125,7.2696776992440215,6.581500204771757,-0.07765647299122065
1789063975355598800,5.534598876953125,7.277847561696172,6.572333147975802,-0.08802401901758275
1789063975365635800,5.5446357421875,7.283999070063233,6.565415915933251,-0.09513943138020113
1789063975375673000,5.554673095703125,7.286558106896281,6.562542406323551,-0.09748188458681106
1789063975385710000,5.5647099609375,7.286928109252452,6.562169481357932,-0.09484121561860664
1789063975395747000,5.5747470703125,7.2860372978925705,6.563192394664883,-0.09247881560251116
1789063975405783800,5.58478369140625,7.285133042529225,6.56424278050065,-0.0890939041382633
1789063975415820800,5.59482080078125,7.283094230177998,6.56653585987389,-0.08681424136902205
1789063975425858000,5.604858154296875,7.2790814874053,6.571057136690616,-0.08104900150634348
1789063975435895000,5.61489501953125,7.274058690807223,6.576716477626562,-0.07244618643044959
1789063975445932800,5.624932861328125,7.268907883915305,6.582532470428943,-0.06021021161712706
1789063975455970000,5.634969970703125,7.266005148211121,6.5858075465768575,-0.05180136191048659
1789063975466007000,5.645007080078125,7.266159461989998,6.5857058397680515,-0.042307310783024875
1789063975476044000,5.6550439453125,7.263002459263801,6.589266162598133,-0.027317931908601892
1789063975486080800,5.665080810546875,7.257662267279625,6.595196721690892,-0.009907098040916025
1789063975496117800,5.67511767578125,7.258978610575198,6.593754121667146,0.004386322471333551
1789063975506155000,5.685155029296875,7.26410486754775,6.588090104556083,0.015307790323963854
1789063975516192000,5.69519189453125,7.26641723614335,6.585481967884302,0.031430214649194384
1789063975526229000,5.70522900390625,7.2669970818579195,6.584734948909282,0.04912118748237844
1789063975536265700,5.715265625,7.268715576213598,6.58270607343018,0.06436648647978435
1789063975546303000,5.725302978515625,7.269782913184166,6.581414864575862,0.07495617365711368
1789063975556341000,5.735341064453125,7.2703487303733825,6.580632774287462,0.0876261696732603
1789063975566378000,5.7453779296875,7.269834935632348,6.581007452818751,0.10113595011495054
1789063975576415000,5.7554150390625,7.267807813718915,6.582979045152664,0.11718267428888939
1789063975586452000,5.765451904296875,7.2679814167201515,6.582506166943907,0.13207165239560417
1789063975596489000,5.775489013671875,7.269423432222008,6.580610562455654,0.14641194711099378
1789063975606526000,5.78552587890625,7.269207743644714,6.580556786441803,0.1589766195891425
1789063975616563000,5.79556298828125,7.264851886522769,6.585038900291919,0.17197709880182518
1789063975626600000,5.805599853515625,7.264690558481216,6.5849442077457905,0.1821172201473266
1789063975636637000,5.815636962890625,7.264551442271471,6.5847659285694355,0.19373782584154978
1789063975646674000,5.825673828125,7.262957451078296,6.586185732239485,0.2049279311640188
1789063975656711000,5.8357109375,7.259731474769115,6.589314093393087,0.2182292382204905
1789063975666748700,5.845748779296875,7.260628131347894,6.587988397747278,0.2282103878783062
1789063975676785700,5.85578564453125,7.263192428877949,6.584860621115565,0.2367216293803416
1789063975686823000,5.865822998046875,7.265552728268504,6.581946194973588,0.24517896700436248
1789063975696860000,5.87585986328125,7.268845340073108,6.577974953255057,0.2540096862517297
1789063975706897000,5.88589697265625,7.275043025669455,6.570777735227346,0.26269401929834857
1789063975716933600,5.89593359375,7.283142160972952,6.561582621380686,0.2680605147675611
1789063975726971000,5.905970947265625,7.285754973819851,6.558247339478135,0.27848120662011205
1789063975737007900,5.9160078125,7.288451373296976,6.5548787398278705,0.28711243950631465
1789063975747044900,5.926044921875,7.291635848551988,6.550949583685398,0.29579582270486277
1789063975757081900,5.936081787109375,7.293322194203734,6.548830107313394,0.30110452357223255
1789063975767120000,5.946119873046875,7.29032651951909,6.551894755581021,0.3069129723889753
1789063975777156900,5.956156982421875,7.2844532435715195,6.558139202928543,0.3129433385943994
1789063975787193900,5.96619384765625,7.278667645907402,6.564388326451182,0.3165369791721925
1789063975797230800,5.97623095703125,7.272769235518575,6.570777150705457,0.31952607798557725
1789063975807267800,5.986267822265625,7.262428458768129,6.581966653239727,0.3243844778021797
1789063975817304800,5.996304931640625,7.250308981907367,6.594894523873925,0.3328012642201036
1789063975827341800,6.006341796875,7.240621700629592,6.605404811972379,0.3352660834310576
1789063975837378800,6.01637890625,7.23146691879332,6.6154363766431805,0.3350547422353178
1789063975847415800,6.026415771484375,7.224575990235805,6.623057373040914,0.33316341206338257
1789063975857452800,6.036452880859375,7.220477907267212,6.627650546050071,0.3306619871690869
1789063975867490800,6.04649072265625,7.222025136709213,6.626118514177203,0.32755218458548185
1789063975877527800,6.05652783203125,7.2289827007621525,6.618847646391392,0.32102270975150166
1789063975887564800,6.066564697265625,7.241209729650616,6.605800533291697,0.31411983502786606
1789063975897601800,6.076601806640625,7.255127780365943,6.590887041798234,0.306124068767298
1789063975907638800,6.086638671875,7.268643095499277,6.576233662545681,0.30060335085075346
1789063975917675800,6.09667578125,7.2803113214612,6.563692745402455,0.2922081552101299
1789063975927713000,6.106713134765625,7.289035895186662,6.554393586659431,0.2833097592877224
1789063975937749800,6.116749755859375,7.290950788897275,6.552716008836031,0.2726580534245819
1789063975947786800,6.126786865234375,7.287721305456757,6.556784865710139,0.26092795947389674
1789063975957823700,6.13682373046875,7.281705406168102,6.564075607240199,0.2450712871124968
1789063975967861000,6.146861083984375,7.268728435695171,6.578931815588474,0.23158404729617757
1789063975977898800,6.156898681640625,7.255249945440888,6.594224661788344,0.21892752268295734
1789063975987935700,6.166935791015625,7.244446811875701,6.606570933142304,0.20396312298616392
1789063975997972700,6.17697265625,7.238646016642451,6.613487580662966,0.18485720303785055
1789063976008010000,6.187010009765625,7.23333212814331,6.619806846812367,0.16569367115078493
1789063976018047000,6.197046875,7.2304855065405365,6.623399902868271,0.14505677877552806
1789063976028083700,6.207083740234375,7.23433925935924,6.619644349727034,0.12259124620100482
1789063976038120700,6.21712060546875,7.241196870169043,6.612510260063409,0.10075863210200331
1789063976048158000,6.227157958984375,7.251455229333042,6.601594898295402,0.0756873603087617
1789063976058195000,6.23719482421875,7.262158409655093,6.590040654101967,0.053020912034390494
1789063976068232000,6.24723193359375,7.271093995782732,6.580321808642148,0.03071810259077465
1789063976078269700,6.257269775390625,7.277298111119866,6.573529079762101,0.00637442126958631
1789063976088307000,6.267306884765625,7.283587566652893,6.566532352742552,-0.01982834333819337
1789063976098344000,6.277343994140625,7.286172906970977,6.563540769711136,-0.04480525594544597
1789063976108380700,6.287380615234375,7.28187842464745,6.568074321487545,-0.07091288048252463
1789063976118417700,6.297417724609375,7.274193130841851,6.5763219253510234,-0.0921624796623364
1789063976128455000,6.307454833984375,7.265658526730537,6.585376753944158,-0.11579635276333428
1789063976138492000,6.317491943359375,7.253937109276652,6.5978504510700695,-0.13835255929599516
1789063976148529000,6.32752880859375,7.240875967651605,6.6116708866298195,-0.16093252116357906
1789063976158565600,6.337565673828125,7.2295163692474365,6.623454847925901,-0.1852720674490556
1789063976168602600,6.3476025390625,7.220627544870972,6.632306262901425,-0.21316041052360085
1789063976178640000,6.357639892578125,7.215016134729981,6.637520198157429,-0.2392717705208808
1789063976188678000,6.367677978515625,7.214716859522461,6.636946782183647,-0.26304986526500435
1789063976198714600,6.377714599609375,7.221089317163824,6.629093730595708,-0.28524693789537997
1789063976208751900,6.387751953125,7.234049921023845,6.613816081964969,-0.3103935810463503
1789063976218788900,6.397788818359375,7.246846858754753,6.59869040902555,-0.332996531063877
1789063976228825900,6.407825927734375,7.258525606110692,6.584668897935748,-0.3554280335046351
1789063976238862800,6.41786279296875,7.268727266651392,6.5721361640989775,-0.3781760180160403
1789063976248899800,6.42789990234375,7.278140991684794,6.560218347290158,-0.4032195295860991
1789063976258936800,6.437936767578125,7.283081955218314,6.553346123433113,-0.4251555035948753
1789063976268973800,6.447973876953125,7.282053781214356,6.553451921895146,-0.44084429030977185
1789063976279010800,6.4580107421875,7.278473584640025,6.556504879724979,-0.45437023643497376
1789063976289048800,6.468048828125,7.272433719953894,6.562002308097481,-0.4713982723969966
1789063976299085800,6.4780859375,7.264192545831203,6.569884585779905,-0.48837092490997164
1789063976309122800,6.488122802734375,7.256537062641978,6.576815846347809,-0.5084766512842849
1789063976319159800,6.498159912109375,7.247989599049091,6.584938362526893,-0.5249954225499183
1789063976329197000,6.508197021484375,7.239082654494046,6.593867518913745,-0.535700210307166
1789063976339233800,6.51823388671875,7.232714873027801,6.600201982632279,-0.5436444107772782
1789063976349270800,6.528270751953125,7.227734746527672,6.60499389308393,-0.5516261302461848
1789063976359307800,6.538307861328125,7.225004444780946,6.607401538747549,-0.5585223560333251
1789063976369344800,6.5483447265625,7.225587213104963,6.606057722923159,-0.5668214708883315
1789063976379382000,6.558382080078125,7.2289318473577495,6.601763825121521,-0.5741530558854341
1789063976389419800,6.568419677734375,7.2367176789283745,6.592671587127446,-0.5805030094340443
1789063976399456800,6.578456787109375,7.246445876738429,6.581648088809848,-0.5842291538177058
1789063976409494000,6.588493896484375,7.255747373569012,6.571214373078942,-0.5862244192881509
1789063976419530800,6.59853076171875,7.2636594618678085,6.562372894975542,-0.587276631754823
1789063976429567700,6.608567626953125,7.268993224111199,6.556456948930025,-0.5873625564726069
1789063976439604700,6.618604736328125,7.27259095634222,6.5525546807944774,-0.5863743491528556
1789063976449641700,6.628641845703125,7.273081370207667,6.552244884192943,-0.5837490786831826
1789063976459679000,6.638678955078125,7.2718439373672,6.554058071094751,-0.5787844785457477
1789063976469715700,6.6487158203125,7.2674465791910885,6.559629733747244,-0.5708544892640784
1789063976479752700,6.658752685546875,7.259481883922219,6.569066839656234,-0.5636183274654671
1789063976489791000,6.668791015625,7.250913962063193,6.57899494395256,-0.5580908692808821
1789063976499828000,6.678827880859375,7.243354340463877,6.587846358928084,-0.5517959703877567
1789063976509864700,6.68886474609375,7.235207858887314,6.5973080147564405,-0.5456019380532204
1789063976519901700,6.698901611328125,7.227581017270684,6.606361674305796,-0.537061196462065
1789063976529939000,6.70893896484375,7.2221432101309295,6.613077830818295,-0.5274746356124058
1789063976539976000,6.718975830078125,7.221246553552151,6.614626229304075,-0.5202902040010318
1789063976550013000,6.729012939453125,7.2225529599756,6.614035277673602,-0.5095556786926463
1789063976560049700,6.739049560546875,7.2280556490451096,6.608896745741367,-0.49808418087922035
1789063976570086700,6.749086669921875,7.240915715140104,6.595616408407688,-0.48720652077309784
1789063976580124000,6.7591240234375,7.255247607353329,6.580530482956767,-0.4778926028523594
1789063976590162000,6.769161865234375,7.2697285526484245,6.5653194698214525,-0.4669182409061119
1789063976600198700,6.77919873046875,7.279824999248981,6.5548799088716505,-0.4561687006916851
1789063976610236000,6.78923583984375,7.2872916818678375,6.547093492779135,-0.4487023833990097
1789063976620273000,6.79927294921875,7.291000473257899,6.543785683405399,-0.4365455702025443
1789063976630310000,6.809309814453125,7.287711368584633,6.548467119219898,-0.42097756032310424
1789063976640347000,6.819346923828125,7.281791330885887,6.555743832224607,-0.41003118236232544
1789063976650384000,6.8293837890625,7.271068861341476,6.568351969385147,-0.3983632486613467
1789063976660420900,6.8394208984375,7.259795772176981,6.581487345290183,-0.3870167289344594
1789063976670457900,6.849457763671875,7.2498173989981405,6.5931666771680115,-0.3750882080685347
1789063976680495000,6.8594951171875,7.241391515958309,6.603058541107178,-0.363667746322602
1789063976690532900,6.869532958984375,7.23564449673891,6.609979864802956,-0.35213498330861326
1789063976700569900,6.87956982421875,7.231879006725549,6.614645518526435,-0.3417182917777449
1789063976710607000,6.889607177734375,7.230110828009248,6.61707829863131,-0.3318905791159719
1789063976720644000,6.89964404296875,7.230653848844766,6.616643998867273,-0.32869748216308653
1789063976730680800,6.909680908203125,7.232547699767351,6.614647856613994,-0.3272112987259403
1789063976740717800,6.9197177734375,7.237421443283558,6.609398265522718,-0.3255330267827958
1789063976750754800,6.9297548828125,7.244817398753762,6.601280425518751,-0.32573362738881256
1789063976760792000,6.9397919921875,7.251619479984044,6.593918372318148,-0.3234673629572615
1789063976770829000,6.9498291015625,7.260928575599193,6.583791530579328,-0.32092619057446714
1789063976780865800,6.95986572265625,7.2734291607320305,6.569910889264941,-0.32232177311871196
1789063976790904000,6.969904052734375,7.284580084821582,6.557178248941898,-0.3296736337188631
1789063976800941000,6.979941162109375,7.291122053810954,6.54969519971013,-0.3337987508248538
1789063976810978000,6.98997802734375,7.293975689676404,6.546345304760337,-0.33713841664157806
1789063976821014800,7.000014892578125,7.294702250385284,6.545284982052445,-0.3419749699525535
1789063976831051800,7.0100517578125,7.291265261673927,6.548851150101423,-0.34696685995571314
1789063976841089000,7.020089111328125,7.284803956705331,6.555601208883523,-0.3551169582614675
1789063976851126000,7.0301259765625,7.2769526586830615,6.563923631548882,-0.3622945582732558
1789063976861163000,7.0401630859375,7.267765728142857,6.573620265176892,-0.3708013610621914
1789063976871199700,7.05019970703125,7.263174893221259,6.578206423923373,-0.3793147031897679
1789063976881237000,7.060237060546875,7.263749478238821,6.576908200806379,-0.3906360884753987
1789063976891275000,7.07027490234375,7.266022683867812,6.573865179848671,-0.39949239882174875
1789063976901312000,7.08031201171875,7.276084643676876,6.562151945701241,-0.4088310127923265
1789063976911349000,7.090348876953125,7.290149993908405,6.54611383409202,-0.4153276082700118
1789063976921386000,7.100385986328125,7.303583475977182,6.53100803489685,-0.41711357837133106
1789063976931423000,7.110423095703125,7.322626030099392,6.509201861280203,-0.4240455330589786
1789063976941460000,7.1204599609375,7.342178287309408,6.486587293890119,-0.4324213298793882
1789063976951497000,7.1304970703125,7.349801037272811,6.478017618465423,-0.43138563015609976
1789063976961534000,7.140533935546875,7.351757432037592,6.475816893550753,-0.43109384413529184
1789063976971571000,7.150571044921875,7.347189393469691,6.481001602712273,-0.43105022418927397
1789063976981608000,7.16060791015625,7.335774265486002,6.493882711595297,-0.4316038760166615
1789063976991646000,7.17064599609375,7.320425305184721,6.511306724604964,-0.42969303742665793
1789063977001683000,7.180682861328125,7.298000122886895,6.53684682405293,-0.4233389191595837
1789063977011720000,7.190719970703125,7.276037297403812,6.561701279324293,-0.41682646852564065
1789063977021757000,7.2007568359375,7.260218966025113,6.579340980911255,-0.4145843521546572
1789063977031794000,7.2107939453125,7.250619363030791,6.59003597792685,-0.4127028857896104
1789063977041831000,7.220830810546875,7.246339493754506,6.5951189802795644,-0.4066289727034047
1789063977051868000,7.230867919921875,7.247147303006052,6.594716244697571,-0.3986982893019914
1789063977061905000,7.24090478515625,7.2578183346241705,6.583546615907549,-0.3890589022865519
1789063977071942000,7.25094189453125,7.278886257094144,6.560331160014868,-0.38763095184266566
1789063977081979100,7.260979248046875,7.29954033806622,6.537298659473657,-0.3883521422566846
1789063977092017000,7.271016845703125,7.31529846369028,6.519757742086052,-0.38671427538916464
1789063977102054000,7.281053955078125,7.3300710854083295,6.503177194163203,-0.38616266938839106
1789063977112091000,7.2910908203125,7.342105222073197,6.4897168240875,-0.3839929241338745
1789063977122128100,7.301128173828125,7.346261172708869,6.485227695974707,-0.38033009077738966
1789063977132164900,7.311164794921875,7.3431135223329065,6.48926849579811,-0.37210703683327884
1789063977142201900,7.321201904296875,7.332432553842663,6.501811751028895,-0.36367808505352583
1789063977152238800,7.33123876953125,7.316411977890134,6.520295502224564,-0.35531558610610664
1789063977162276000,7.341276123046875,7.30013771943748,6.538730738103389,-0.3512401898933574
1789063977172313000,7.35131298828125,7.282631873363256,6.5586021442651745,-0.34408125804942097
1789063977182349800,7.361349853515625,7.269716862210631,6.5731485560119145,-0.3395854079348966
1789063977192388000,7.37138818359375,7.2597934340894215,6.584219985124468,-0.33738935919534413
1789063977202425000,7.381425048828125,7.253966335371136,6.590919775024056,-0.3318574074987322
1789063977212461800,7.3914619140625,7.253720836177468,6.5913558283537625,-0.328553470582515
1789063977222498800,7.401498779296875,7.258368954244256,6.586397913685441,-0.32531394067201763
1789063977232535800,7.411535888671875,7.269957685229182,6.57358753195107,-0.3256502964869141
1789063977242573000,7.421572998046875,7.285456867656111,6.5563914824783796,-0.32593726020213215
1789063977252610000,7.431610107421875,7.2992720425188535,6.541293866589665,-0.3201432600358501
1789063977262647000,7.44164697265625,7.310944360134005,6.528329755598306,-0.3184193223200738
1789063977272683800,7.451683837890625,7.320626965236664,6.517429006877541,-0.3192615818304941
1789063977282721000,7.461720947265625,7.325272160694003,6.511968403384089,-0.3240977698152885
1789063977292759000,7.471759033203125,7.323273095831275,6.513878620919585,-0.3308233882758766
1789063977302795800,7.481795654296875,7.316645786646008,6.5209852380543945,-0.33738252759575843
1789063977312832800,7.491832763671875,7.308523270466924,6.529766510403156,-0.3435405387688428
1789063977322870000,7.5018701171875,7.299945411735773,6.539436840546131,-0.3419785866817459
1789063977332907000,7.511906982421875,7.290382049098611,6.55023588245809,-0.33930279160123317
1789063977342944000,7.521944091796875,7.282616091272234,6.558979160884022,-0.3371621993759647
1789063977352980700,7.531980712890625,7.2786413424223655,6.563192394664883,-0.3409890641877428
1789063977363018000,7.54201806640625,7.276063016366958,6.565746755322814,-0.3467872290724888
1789063977373055000,7.552054931640625,7.276116792380809,6.5653130400806665,-0.35379816728048025
1789063977383093000,7.562093017578125,7.27678782351017,6.564589986503123,-0.3534290417071432
1789063977393129700,7.572129638671875,7.2817737952291965,6.55935500845909,-0.34788298841994253
1789063977403167000,7.5821669921875,7.291299748465418,6.548824262094497,-0.3467581491084769
1789063977413204000,7.592203857421875,7.298406950122118,6.541131954026222,-0.3423957891805097
1789063977423241000,7.602240966796875,7.303723761230707,6.535383181241154,-0.33876813673526046
1789063977433278000,7.61227783203125,7.311036130070686,6.527237868708371,-0.338077597187832
1789063977443315000,7.62231494140625,7.315014970573783,6.522866229495405,-0.3363942472107708
1789063977453352000,7.63235205078125,7.314765379726886,6.5235524581938975,-0.32841161442641165
1789063977463389000,7.642388916015625,7.313923083683848,6.525004410567879,-0.3181631921345368
1789063977473426000,7.652426025390625,7.308502812200785,6.531673220807313,-0.30565009457999837
1789063977483464000,7.6624638671875,7.301137251868844,6.540598870062827,-0.2904142392643727
1789063977493501000,7.6725009765625,7.295119014492631,6.547682690843939,-0.2819209718104452
1789063977503538000,7.682537841796875,7.287796124258637,6.556040184822678,-0.27703095301287245
1789063977513575000,7.692574951171875,7.282406247913837,6.562305090436339,-0.2703749291897751
1789063977523612000,7.70261181640625,7.276001641568541,6.5698541906416414,-0.259231238558609
1789063977533649000,7.71264892578125,7.268877488777041,6.578339694914221,-0.2434204694318585
1789063977543686000,7.722685791015625,7.263465400600433,6.584920242348313,-0.22645402746396137
1789063977553723000,7.732722900390625,7.260017305973172,6.589137567782402,-0.2140187443859875
1789063977563760000,7.742760009765625,7.259135262441634,6.590369739925861,-0.20583277104925363
1789063977573796900,7.752796875,7.260062898680568,6.589502309441566,-0.20082973859757183
1789063977583835000,7.7628349609375,7.263461308947205,6.585870674940943,-0.19704501416077835
1789063977593872000,7.772871826171875,7.270021982637047,6.578731324580311,-0.19354513454735278
1789063977603909000,7.7829091796875,7.277976741033792,6.570086245831847,-0.18816145048132166
1789063977613945900,7.79294580078125,7.28831284160912,6.558807895970344,-0.18142110937563702
1789063977623982800,7.80298291015625,7.296453477966785,6.55001201057434,-0.17174939099317416
1789063977634019800,7.813019775390625,7.302909522238373,6.54300067050755,-0.16444588131308555
1789063977644057600,7.8230576171875,7.303937696242332,6.542002891641855,-0.158366835394036
1789063977654094300,7.83309423828125,7.300895259806514,6.5455100229799745,-0.15366698714001104
1789063977664131600,7.843131591796875,7.298852940323949,6.54784986410439,-0.15096915375762618
1789063977674168600,7.85316845703125,7.2941019464045755,6.5532525999307625,-0.14607776498687453
1789063977684206600,7.86320654296875,7.28717536201179,6.561080517077445,-0.1402811801378615
1789063977694243300,7.873243408203125,7.280359836778044,6.5688201714187855,-0.13168571268478407
1789063977704280600,7.883280517578125,7.276447047248483,6.573237987861037,-0.12747662535607815
1789063977714317600,7.893317626953125,7.2760180081814525,6.573800882440805,-0.12285118491197936
1789063977724354600,7.9033544921875,7.27818658439219,6.5714727317541834,-0.11886530274674295
1789063977734391600,7.9133916015625,7.280449853149056,6.569122369235753,-0.10983111508283763
1789063977744428500,7.923428466796875,7.285027244067192,6.56414984152019,-0.10347385501060634
1789063977754465500,7.933465576171875,7.2920999589324,6.556338290986418,-0.10042124424064532
1789063977764502500,7.94350244140625,7.297750532039999,6.550093843638897,-0.09742029059268534
1789063977774539500,7.95353955078125,7.3026950027048585,6.544615704488754,-0.09509366514286957
1789063977784577500,7.96357763671875,7.30496703929007,6.542145514982939,-0.09039601797908545
1789063977794614500,7.973614501953125,7.299866501280665,6.54796092326343,-0.08091689955927431
1789063977804651500,7.983651611328125,7.294432785794139,6.554150425553321,-0.06891058704967144
1789063977814688500,7.9936884765625,7.292170101559162,6.5567264135211705,-0.06306062804560643
1789063977824725500,8.0037255859375,7.2868918688952915,6.562619563212991,-0.06018042840021662
1789063977834762500,8.013762451171875,7.278565354576706,6.571893002992868,-0.055553549484279936
1789063977844799500,8.023799560546875,7.267054949524998,6.5846577920198435,-0.050711507147434165
1789063977854836500,8.03383642578125,7.258183660805225,6.594471914547682,-0.04577000475779641
1789063977864873500,8.04387353515625,7.255313073804974,6.597656974324583,-0.04169697403206955
1789063977874910700,8.05391064453125,7.2543749161720275,6.598718466076255,-0.036642136044625656
1789063977884948500,8.063948486328124,7.254729136437177,6.598361323201656,-0.030166934981418307
1789063977894985500,8.0739853515625,7.259692896324395,6.592922347018122,-0.025016013925068546
1789063977905022700,8.084022705078125,7.27124714051783,6.580187368607521,-0.022111750700790432
1789063977915059500,8.0940595703125,7.283206458380818,6.566957300156354,-0.019073135348496726
1789063977925096400,8.104096435546875,7.293484691289067,6.555552693566679,-0.013899529819592134
1789063977935133400,8.114133544921875,7.3040996088057755,6.543732491913437,-0.009379228537934249
1789063977945170700,8.124170654296876,7.313027011626958,6.533758794909716,-0.004370354292288539
1789063977955207700,8.134207763671874,7.320346394729614,6.525557952797413,-0.0010979564419394592
1789063977965244400,8.144244384765624,7.324667765060067,6.5207064211130135,0.0036353970748765276
1789063977975281400,8.154281494140625,7.3244514919608825,6.520944906044006,0.008179441418781061
1789063977985319700,8.164319580078125,7.318702719175815,6.52739159796536,0.011668956614285707
1789063977995356700,8.174356689453125,7.309653735801577,6.53751785518229,0.014447584164899307
1789063978005393400,8.184393310546875,7.298842418929934,6.549575957244635,0.018257689638121518
1789063978015430400,8.194430419921876,7.287869189494848,6.561786619520187,0.017547899684240108
1789063978025467600,8.204467529296876,7.27637632009983,6.574523936018347,0.01921061786522623
1789063978035504600,8.214504638671874,7.264661332386732,6.58746291256845,0.020288030988525132
1789063978045541600,8.224541748046875,7.259193130108714,6.593493424904346,0.018709865268855354
1789063978055578400,8.234578369140625,7.258035192245244,6.594771189755201,0.017171788389334686
1789063978065615400,8.244615478515625,7.260075758162141,6.592532470917702,0.01452153189216624
1789063978075653600,8.254653564453125,7.265449267894029,6.5866042499125,0.016819431287707992
1789063978085690600,8.264690673828126,7.2723238298386335,6.578996697518229,0.022062728493870233
1789063978095727400,8.274727294921876,7.281368137037753,6.568982083982229,0.02331085169170983
1789063978105764600,8.2847646484375,7.288698041534423,6.560860736846924,0.019532415431807747
1789063978115801600,8.294801513671874,7.293848263904452,6.5551499579846855,0.013029401629779022
1789063978125838600,8.304838623046875,7.297344289326667,6.5512634719401595,0.009603121542104054
1789063978135875600,8.31487548828125,7.29937199576199,6.549007217445969,0.007143924929405329
1789063978145912300,8.324912353515625,7.301569213545322,6.546555732640623,0.009216980331062222
1789063978155949600,8.334949462890625,7.3008128422200675,6.547393352508545,0.012954569128167349
1789063978165986600,8.344986572265626,7.295687169769406,6.553098286151886,0.015188695130584528
1789063978176024300,8.3550244140625,7.2892895776867865,6.560219516333937,0.012816079681151313
1789063978186061600,8.3650615234375,7.280980014503002,6.5694491169720886,0.007314508281426969
1789063978196098600,8.3750986328125,7.274375501671433,6.5767649929434056,0.0029655535410158334
1789063978206135600,8.385135498046875,7.269891634255647,6.581720569524169,0.0035230615574910187
1789063978216172500,8.395172607421875,7.265767832323909,6.58626931886971,0.007944172499826527
1789063978226209500,8.40520947265625,7.2665259572148315,6.585425853782892,0.012524265119235496
1789063978236246500,8.41524658203125,7.27538847810626,6.575630435955524,0.013719426295621086
1789063978246283500,8.425283447265626,7.287906598895788,6.561754470816254,0.013368178872269345
1789063978256320500,8.435320556640624,7.297268886002898,6.5513359526544805,0.01588496116590104
1789063978266357500,8.445357421875,7.308008306682109,6.539345655131339,0.018846125084522644
1789063978276395500,8.4553955078125,7.320716397085786,6.525102025723457,0.02325534494507592
1789063978286432500,8.4654326171875,7.329940152505039,6.514730269312858,0.02564578374556731
1789063978296469500,8.475469482421875,7.332295191198587,6.51206017332077,0.0301218445975217
1789063978306506800,8.4855068359375,7.326473937699198,6.518558303168415,0.03953931650756858
1789063978316543500,8.49554345703125,7.317119833898544,6.52897682133019,0.051065010459953916
1789063978326580500,8.50558056640625,7.308405781567096,6.538625524163246,0.06300869692896958
1789063978336617500,8.515617431640624,7.301528297013044,6.546182223153114,0.07458489265930839
1789063978346654500,8.525654541015625,7.2894310319840905,6.55944970100522,0.09054594784379005
1789063978356691700,8.535691650390625,7.275195585882663,6.574921995425224,0.11096128815654664
1789063978366728400,8.545728515625,7.267617844104766,6.582976707065105,0.12859509885883888
1789063978376766500,8.555766357421875,7.264332831084728,6.586281593829393,0.14405625996347515
1789063978386803700,8.5658037109375,7.260684245449304,6.5898857558012,0.16202764119021593
1789063978396840400,8.57584033203125,7.258202365505695,6.592044979661702,0.18393082717424258
1789063978406877400,8.58587744140625,7.2617404765039675,6.587569295552372,0.203577064544335
1789063978416914400,8.59591455078125,7.268537297037243,6.579520429131389,0.22058842336619272
1789063978426951700,8.60595166015625,7.277138536643982,6.5694824347198,0.23565016422392798
1789063978436988700,8.61598876953125,7.287213355934619,6.557722438821196,0.2513637200539
1789063978447025700,8.626025634765625,7.2949015723496675,6.548368335020542,0.2714218444268219
1789063978457062400,8.6360625,7.301800099691748,6.539815610730647,0.29140354256266726
1789063978467099400,8.646099365234376,7.304457920724153,6.535891130763292,0.3121043670196086
1789063978477137700,8.6561376953125,7.303391752797364,6.5362038499742745,0.32999997959639876
1789063978487174400,8.66617431640625,7.30034230209887,6.5387839295953505,0.3459659392848611
1789063978497211400,8.67621142578125,7.296530634856223,6.5423851689577095,0.35808179941643026
1789063978507248600,8.68624853515625,7.2920274782180785,6.546689003631472,0.3709247317135334
1789063978517285600,8.69628564453125,7.289570148193836,6.548855241754651,0.38085641620643435
1789063978527322600,8.706322509765625,7.289196638706326,6.548683392319083,0.39081681533716617
1789063978537359400,8.716359375,7.289501759132742,6.547653464749455,0.40222584237363185
1789063978547396400,8.726396240234376,7.292019294911623,6.544390663561225,0.4096363378258422
1789063978557433600,8.73643359375,7.2962629238307475,6.539361437222361,0.4143460864193737
1789063978567470600,8.746470703125,7.299867085802554,6.53520431754291,0.4164434240248054
1789063978577508400,8.75650830078125,7.304933137020468,6.5294076139628885,0.4185281578769907
1789063978587545600,8.766545654296875,7.3103165836244814,6.523341445791721,0.4191295213036239
1789063978597582600,8.77658251953125,7.312639473614096,6.520653814142942,0.42043084969315675
1789063978607619600,8.78661962890625,7.31709060780406,6.515820987159013,0.4179143368275836
1789063978617656600,8.796656494140626,7.322990187236666,6.509533869713544,0.41251141833811994
1789063978627693300,8.806693359375,7.324995681840181,6.5076218986123795,0.4070264110557735
1789063978637730600,8.81673046875,7.323747143083811,6.509343900099396,0.40194063222408294
1789063978647767300,8.826767333984375,7.319099025017023,6.514842497515678,0.39749519712254405
1789063978657804300,8.83680419921875,7.31072984060049,6.524534454968571,0.3925055356090888
1789063978667842300,8.84684228515625,7.304008423390984,6.532688535329699,0.3818637300854549
1789063978677879300,8.85687939453125,7.297967389661073,6.540158140558004,0.36930363331772387
1789063978687916300,8.866916259765626,7.287628366476297,6.552241961583495,0.3591371171556413
1789063978697953300,8.876953369140624,7.275331194961071,6.566265226238966,0.35227917755227534
1789063978707990500,8.886990478515624,7.268125793626904,6.574552577590942,0.3463893157960847
1789063978718027300,8.89702734375,7.268806761628389,6.574477174267172,0.33330293013192713
1789063978728064300,8.907064208984375,7.273986210092902,6.5695332881242035,0.3174086474401876
1789063978738101200,8.917101318359375,7.280342301121354,6.563125759169459,0.30393826742712404
1789063978748138500,8.927138427734375,7.287847562184929,6.555204318520427,0.29488206886081025
1789063978758175500,8.937175537109376,7.297174193456769,6.545202564465999,0.2862860168858431
1789063978768213200,8.947213134765626,7.307166595160961,6.534315259748697,0.28004546026214955
1789063978778250200,8.957250244140624,7.317547119399904,6.522987810048461,0.2729929479347542
1789063978788287500,8.96728759765625,7.324590023648739,6.515463844284415,0.26362324470616877
1789063978798324200,8.97732421875,7.324797528919577,6.5154661823719735,0.2577250535130501
1789063978808361200,8.987361328125,7.32188368729949,6.5190025398045774,0.25101806668769566
1789063978818398200,8.997398193359375,7.319639123243093,6.521829872184991,0.242894545861613
1789063978828435500,9.007435546875,7.316254156979918,6.5258484601765865,0.23687000660877675
1789063978838472400,9.017472412109376,7.3088915192574255,6.534101324737072,0.23668464010450987
1789063978848509200,9.02750927734375,7.299847212058305,6.544165622633695,0.2377355191306211
1789063978858546200,9.037546142578124,7.292857499301433,6.551965482729673,0.23740044195735827
1789063978868584400,9.04758447265625,7.288408118677139,6.557002892374992,0.23494365992238744
1789063978878621400,9.057621337890625,7.286954412737488,6.5587435985624785,0.23143588926345107
1789063978888658200,9.067658203125,7.286829909574985,6.558931230089068,0.2300200859150849
1789063978898695200,9.077695068359375,7.287710784062742,6.557907147738337,0.23130760497497393
1789063978908732400,9.087732421875,7.289770054680108,6.555519375818967,0.23408952731108293
1789063978918769400,9.097769287109376,7.2926757129937405,6.552403874146938,0.23081786696296183
1789063978928806400,9.107806396484374,7.295780108749866,6.549149256265163,0.22498715151548385
1789063978938843100,9.117843017578124,7.300874801540374,6.543740675219893,0.21693696992024777
1789063978948880400,9.12788037109375,7.3071876379489895,6.536934502336383,0.20948013284197076
1789063978958917400,9.13791748046875,7.311953244915604,6.531650424453615,0.20800253457007928
1789063978968955400,9.147955322265625,7.31285574671328,6.53057841130793,0.20993916518846525
1789063978978992000,9.1579921875,7.311853876194357,6.531688418376445,0.21027115535549817
1789063978989029400,9.168029296875,7.313660048833489,6.529861202949285,0.20414026965135706
1789063978999066400,9.17806640625,7.313665309530496,6.530110209274292,0.19584042414398864
1789063979009103400,9.188103271484374,7.308187754902243,6.536358163753151,0.1918367231942713
1789063979019140400,9.198140380859375,7.301749246287345,6.543575840047001,0.19095004002023488
1789063979029177300,9.20817724609375,7.297282330006361,6.548554797503352,0.19099071909049525
1789063979039214300,9.21821435546875,7.297882049465179,6.547970860135555,0.18810420386875046
1789063979049251300,9.228251220703125,7.300924485900998,6.544694614943862,0.1840128429018892
1789063979059288300,9.238288330078126,7.304274380850791,6.54111792550087,0.178128333174251
1789063979069326300,9.248326416015624,7.306834586727619,6.538348460787534,0.17478145216545088
1789063979079363300,9.25836328125,7.308982704672217,6.535994006615876,0.17302198647856712
1789063979089400300,9.268400390625,7.315434072768688,6.528837705120444,0.17055281988605855
1789063979099437300,9.278437255859375,7.325007372277975,6.518241492304205,0.1648739887983538
1789063979109474300,9.288474365234375,7.329944828680158,6.512764522197842,0.16187055093236266
1789063979119511300,9.29851123046875,7.330902275535464,6.511782525423169,0.1579153835657984
1789063979129548300,9.30854833984375,7.330045366445184,6.512867398050427,0.1528886414449662
1789063979139585300,9.318585205078126,7.328325118523836,6.514960570937395,0.14606179109960793
1789063979149622300,9.328622314453124,7.321636434540152,6.522543573412299,0.14298420115201732
1789063979159659300,9.3386591796875,7.311248311516642,6.534348577496409,0.1353674516711384
1789063979169697300,9.348697265625,7.298424485778808,6.548786852693557,0.12952733820765278
1789063979179734300,9.358734375,7.284913846820593,6.563965132603049,0.12154323498541489
1789063979189771500,9.368771484375,7.2716399392277,6.5788038052946325,0.11393419388695619
1789063979199808300,9.378808349609375,7.259832012534141,6.591939765721559,0.1074572620909661
1789063979209845200,9.38884521484375,7.254191376298666,6.598268968743086,0.0996943364718929
1789063979219882200,9.39888232421875,7.257058456167578,6.595317133200168,0.08531593823581933
1789063979229919500,9.40891943359375,7.263669398739934,6.588200579193234,0.0714650481723016
1789063979239956500,9.41895654296875,7.273574706682562,6.577367050489783,0.061072860895027406
1789063979249993200,9.4289931640625,7.290222474622726,6.559004295325279,0.050044001415721136
1789063979260030200,9.4390302734375,7.307679805380106,6.539608689981699,0.041521078609046524
1789063979270068500,9.449068359375,7.321437697097658,6.524246870198845,0.03371323613601271
1789063979280105500,9.45910546875,7.331435944020748,6.513052106967568,0.024079753704974425
1789063979290142200,9.46914208984375,7.33655986290574,6.507312686532735,0.012284691059566102
1789063979300179200,9.47917919921875,7.336316701799631,6.507599102258681,0.0005173644844280715
1789063979310216400,9.489216552734375,7.3318106225520365,6.512672167739272,-0.006886382529849652
1789063979320253400,9.49925341796875,7.326007489231229,6.51918374159038,-0.01565580917719053
1789063979330290400,9.50929052734375,7.3203575006455175,6.525501838696003,-0.024067191050923427
1789063979340327200,9.5193271484375,7.313737205722927,6.532907731038332,-0.027379327256616667
1789063979350364200,9.5293642578125,7.3102259827315805,6.536801231345534,-0.03483016613565851
1789063979360401400,9.5394013671875,7.308961661884188,6.5381690125674,-0.04261947287158109
1789063979370439200,9.549439208984374,7.310556822121143,6.536330691224336,-0.050170824399474075
1789063979380476200,9.55947607421875,7.312960960653424,6.533604481130838,-0.05479967151021119
1789063979390513400,9.569513427734375,7.314152800786495,6.532205135726929,-0.062107473772927184
1789063979400550400,9.57955029296875,7.315611767423152,6.530514113900065,-0.06782505226870998
1789063979410587400,9.58958740234375,7.315165777221321,6.530964195755124,-0.07242721230192109
1789063979420624400,9.599624267578125,7.312765730342268,6.5335933752149336,-0.0774772439667955
1789063979430661000,9.6096611328125,7.311715344506502,6.534687015670538,-0.0840687237868551
1789063979440698400,9.619698486328126,7.31017045315206,6.536348811402917,-0.0891100515554659
1789063979450735400,9.6297353515625,7.306803607067465,6.54009150506258,-0.09062125070285983
1789063979460772400,9.6397724609375,7.303591074761748,6.543649489805102,-0.09269368219589814
1789063979470810400,9.649810302734375,7.300518827709555,6.547008737105131,-0.0974209390466567
1789063979480847400,9.659847412109375,7.298274848175049,6.549446777907013,-0.10156649615247733
1789063979490884400,9.66988427734375,7.2985729543387885,6.5490247531026595,-0.10722607455044053
1789063979500921300,9.67992138671875,7.299732645767927,6.547634760048985,-0.11297342256340198
1789063979510958300,9.689958251953126,7.303647188863158,6.543161414027214,-0.11903023838433437
1789063979520995300,9.699995361328124,7.30903297355473,6.537127394559979,-0.11996591179925016
1789063979531032300,9.7100322265625,7.315065239456295,6.530316545501351,-0.12316078058411367
1789063979541069300,9.7200693359375,7.322791449794173,6.521513645842671,-0.13026794570819475
1789063979551106300,9.730106201171875,7.331320793208479,6.511681987658143,-0.1418197422162164
1789063979561143300,9.740143310546875,7.3381000780850645,6.503874528777599,-0.1492990377214737
1789063979571181300,9.750181396484376,7.340294373258948,6.501306139594316,-0.15325793141508473
1789063979581218300,9.76021826171875,7.33816379097104,6.503620261755585,-0.1570510400877334
1789063979591255600,9.770255615234374,7.335874803251028,6.506064147776365,-0.16262273927284404
1789063979601292300,9.780292236328124,7.331199212655425,6.511112663337588,-0.1712244903362356
1789063979611329300,9.790329345703125,7.323032272812724,6.519996227017045,-0.18230982010997832
1789063979621366300,9.8003662109375,7.31242729216814,6.531670298197865,-0.18991932699931785
1789063979631403300,9.8104033203125,7.303581722411513,6.541480913594365,-0.19262158996164797
1789063979641440500,9.8204404296875,7.300124859955907,6.545225945341587,-0.19640949273621663
1789063979651476700,9.830476806640625,7.298409872731566,6.546983602663874,-0.20149419385567308
1789063979661513700,9.840513671875,7.297834118670225,6.547489214098453,-0.20588819103091954
1789063979671551000,9.850551025390626,7.299052262288331,6.546054212859272,-0.2083103218776174
1789063979681589000,9.860589111328125,7.3025523793637745,6.541997630944848,-0.2130391222314909
1789063979691625700,9.870625732421875,7.30724258300662,6.536713553062081,-0.2144011495660059
1789063979701663000,9.8806630859375,7.314775901120901,6.528166089469194,-0.21791089298631994
1789063979711700000,9.890699951171875,7.320356331601738,6.521770250952243,-0.2219943811739795
1789063979721737000,9.900737060546875,7.3213137784570455,6.520591854822635,-0.22499942647516727
1789063979731774000,9.91077392578125,7.321625913146137,6.520097349303961,-0.2291665743582882
1789063979741810700,9.920810791015626,7.321818220847844,6.51978170748353,-0.23199191571101546
1789063979751848000,9.930847900390624,7.317488082689047,6.524626809427142,-0.23236971778115256
1789063979761885000,9.940885009765625,7.30852970020771,6.534714488199353,-0.23085366892870515
1789063979771923000,9.9509228515625,7.3001213528245685,6.5441258751451965,-0.23030268398243933
1789063979781960000,9.9609599609375,7.293304658547044,6.551596649417281,-0.23382108563324436
1789063979791997000,9.970996826171875,7.28596247909069,6.559625642094016,-0.23758178987363351
1789063979802034000,9.981033935546876,7.281526542469859,6.564454961946606,-0.24017609894946215
1789063979812071000,9.99107080078125,7.281297994410991,6.564685263571143,-0.24081368446694684
1789063979822108000,10.00110791015625,7.285470896181463,6.559969925487041,-0.24308922818349674
1789063979832145000,10.011144775390624,7.2923624092608685,6.552244884192943,-0.24479658009065314
1789063979842182000,10.021181884765625,7.299097854995727,6.544692861378192,-0.2460678238691762
1789063979852219000,10.031218994140625,7.306918173357844,6.5358893771976225,-0.24793495118161663
1789063979862255900,10.041255859375,7.314717448931932,6.5270607585757965,-0.2505581758246757
1789063979872294000,10.0512939453125,7.319106039279699,6.522015750145912,-0.2537225398734212
1789063979882331000,10.061330810546876,7.321464585104584,6.519281941267848,-0.2559403255207464
1789063979892368000,10.071367919921874,7.3188880126148455,6.522135577133297,-0.25693061519972976
1789063979902404900,10.08140478515625,7.311995915013552,6.529783461537956,-0.258904417757038
1789063979912441900,10.09144189453125,7.3049196930170055,6.537606702509522,-0.26121654889062046
1789063979922478800,10.101478759765625,7.298691027760505,6.544450869315862,-0.26392409081626683
1789063979932515800,10.111515869140625,7.291066524231433,6.552872076180577,-0.26571060890685766
1789063979942552800,10.121552734375,7.282392219388485,6.56248979935348,-0.2662347971777432
1789063979952590000,10.131590087890626,7.273697456279397,6.572118043920398,-0.26640516704227774
1789063979962626800,10.141626708984376,7.26738695795834,6.579020662915706,-0.2682513611645438
1789063979972663800,10.151663818359374,7.26361971437931,6.583140957716107,-0.269208661889378
1789063979982702000,10.1617021484375,7.261352938491106,6.585532236766815,-0.27184006983889264
1789063979992739000,10.171739013671875,7.262906597673893,6.58373307839036,-0.2739110856929794
1789063980002775800,10.18177587890625,7.268937110009789,6.576860854533314,-0.27900526702683415
1789063980012812800,10.191812744140625,7.277990769559144,6.566681405824422,-0.28271849712999536
1789063980022849800,10.201849853515625,7.287607908210158,6.556001021856069,-0.28286276443889363
1789063980032887000,10.211886962890626,7.297180623197555,6.545316546234488,-0.2834918743889779
1789063980042924000,10.221924072265624,7.305362176087498,6.536288605648279,-0.28105304813580584
1789063980052960800,10.231960693359374,7.311432435911893,6.529488277983665,-0.2812867472938262
1789063980062997800,10.241997802734375,7.314947750556469,6.525529311224818,-0.28175664809420703
1789063980073035000,10.252034912109375,7.314133511564135,6.526546963834762,-0.27931062491526826
1789063980083073000,10.262072998046875,7.310968910053372,6.53011371640563,-0.2787995518542826
1789063980093109800,10.27210986328125,7.306635264763235,6.535045912110805,-0.2768385174470022
1789063980103146800,10.282146728515626,7.301634095475078,6.540742077925801,-0.27425438270531594
1789063980113184000,10.29218408203125,7.2984022739470005,6.54443567174673,-0.27216391323208805
1789063980123221000,10.302220947265624,7.295216045126319,6.548268966299295,-0.2652860085529275
1789063980133258000,10.312258056640625,7.295715226820111,6.547891949680447,-0.26082603346938266
1789063980143294700,10.322294677734375,7.298479430836439,6.544992136585712,-0.2562467976540327
1789063980153332000,10.33233203125,7.30226245650649,6.541024401998519,-0.24969500139039008
1789063980163369000,10.342368896484375,7.306632926675677,6.536339459052681,-0.24446382273864
1789063980173406000,10.352406005859375,7.31099229092896,6.531759730046987,-0.2364191758350469
1789063980183443700,10.362443603515626,7.3141902101874345,6.528591621404886,-0.22472636342113836
1789063980193481000,10.37248095703125,7.31608347658813,6.526838640257716,-0.21376239500474184
1789063980203518000,10.38251806640625,7.317323247516155,6.525768380677699,-0.20373592663416637
1789063980213555000,10.392554931640625,7.317688573697209,6.525619912117719,-0.19521982629392295
1789063980223591700,10.402591796875,7.3156544375211,6.528194731041789,-0.18508754119500517
1789063980233629000,10.41262890625,7.311596686562895,6.533019959241152,-0.17489364383565262
1789063980243666000,10.422666015625,7.306448217758536,6.539020660960674,-0.1655627930464223
1789063980253703000,10.432702880859376,7.301978378868102,6.544215306994318,-0.15728769838782025
1789063980263740000,10.442739990234376,7.297137953099608,6.549810350522399,-0.1487991071090102
1789063980273777000,10.45277685546875,7.292129769548773,6.555601208883523,-0.13901277677039614
1789063980283815000,10.46281494140625,7.293435591450333,6.554311169072985,-0.13110124559402464
1789063980293852000,10.472851806640625,7.299588853383064,6.54756929359734,-0.1253690038186498
1789063980303889000,10.482888916015625,7.305472650724649,6.541121432632208,-0.11907583109172992
1789063980313926000,10.49292578125,7.31141957643032,6.534625640872121,-0.11039856710671446
1789063980323963000,10.502962890625,7.319408237096667,6.525763704502582,-0.1051582461672835
1789063980333999900,10.512999755859376,7.327562317457795,6.516680818858743,-0.10041991080008447
1789063980344036900,10.523036865234374,7.333776369667053,6.5098389901399605,-0.09002744039501995
1789063980354074000,10.53307421875,7.339288411086797,6.503707940039038,-0.08376605104585177
1789063980364110800,10.54311083984375,7.338401691380143,6.504784044837951,-0.07769673193637282
1789063980374147800,10.55314794921875,7.336917590302228,6.506492602321505,-0.07471158777889796
1789063980384184800,10.563184814453125,7.335655607542395,6.507925849995017,-0.07378036677681375
1789063980394222800,10.573222900390626,7.33078011046052,6.51344081402421,-0.0716762797701871
1789063980404259800,10.583259765625,7.324856565630435,6.520160477668046,-0.06609924225625581
1789063980414296800,10.593296875,7.3191031166702505,6.526698355004191,-0.057617313613672734
1789063980424333800,10.603333740234374,7.315511229658126,6.530761366659402,-0.053362702076230194
1789063980434371000,10.61337109375,7.310854343762993,6.536001605400442,-0.04973130503762513
1789063980444408000,10.623407958984375,7.3079352414458985,6.539266744676232,-0.04961488471687771
1789063980454444800,10.63344482421875,7.308017659032345,6.539189003264903,-0.04763986745001748
1789063980464481800,10.643481689453125,7.308445529055595,6.538717878621816,-0.046580316493683493
1789063980474519000,10.65351904296875,7.309041156861186,6.538040417751669,-0.04824775651555974
1789063980484556000,10.66355615234375,7.308590490484237,6.538529078051448,-0.050340965935145504
1789063980494593800,10.67359375,7.305343471387029,6.542118042454123,-0.05507541514509357
1789063980504630800,10.683630859375,7.303118781074881,6.544574787956476,-0.05808069334172178
1789063980514668000,10.69366796875,7.302928811460733,6.544772940877079,-0.05969846270270645
1789063980524705000,10.703705078125,7.299283732956647,6.548847642970085,-0.0586704804949928
1789063980534741800,10.71374169921875,7.293854109123349,6.554910888531803,-0.05671367930483538
1789063980544778800,10.72377880859375,7.291589086800813,6.557407381522655,-0.059398118916107336
1789063980554816000,10.73381591796875,7.2916913781315085,6.557220334517956,-0.06693252387577668
1789063980564853000,10.74385302734375,7.29347884607017,6.555150542506575,-0.07456782279349863
1789063980574890000,10.753889892578124,7.29599755089283,6.552295153075456,-0.07894867735938169
1789063980584926700,10.7639267578125,7.300145318222046,6.547694381281733,-0.07726109873177484
1789063980594965000,10.773965087890625,7.308180740639567,6.53874768923819,-0.07529470772936474
1789063980605002000,10.784001953125,7.318128718680143,6.527608455586433,-0.07555206175760831
1789063980615039000,10.7940390625,7.32510966360867,6.519734361210465,-0.07883738073832355
1789063980625075700,10.80407568359375,7.3308262876898045,6.513215773096681,-0.08592469038446433
1789063980635113000,10.814113037109376,7.333678754511475,6.509919069638848,-0.09215019556949845
1789063980645149400,10.8241494140625,7.335986446931957,6.507233776077627,-0.09797958670957013
1789063980655186400,10.8341865234375,7.3363529421567915,6.50679947631359,-0.09934422612627967
1789063980665223700,10.8442236328125,7.333191847777366,6.510348693227767,-0.10020866093588993
1789063980675260400,10.854260498046875,7.324809219357371,6.519784045571089,-0.09989064449528232
1789063980685297400,10.86429736328125,7.31569126240015,6.530004995334148,-0.10043935528607108
1789063980695334400,10.87433447265625,7.308700380599499,6.537720099756121,-0.10722191896513104
1789063980705372700,10.88437255859375,7.301130237606167,6.546057135468721,-0.11410530353700742
1789063980715409400,10.894409423828124,7.29168787100017,6.556486175024509,-0.11904443130646832
1789063980725446400,10.9044462890625,7.283357265028357,6.565671351999044,-0.1227141327951569
1789063980735483600,10.914483642578125,7.27695499677062,6.57269204441607,-0.12661345092179252
1789063980745520600,10.924520751953125,7.275166359788179,6.57457537394464,-0.13148742276686243
1789063980755557600,10.9345576171875,7.2783280386894935,6.570999269023537,-0.13526284051919354
1789063980765594400,10.944594482421875,7.280937928926944,6.567983136072755,-0.14115985353537835
1789063980775631400,10.95463134765625,7.285264559954404,6.563042757061123,-0.14754897005059756
1789063980785668600,10.964668701171876,7.296751584130525,6.550135929214954,-0.15338488226300104
1789063980795705600,10.97470556640625,7.311040221723914,6.534021829760074,-0.16011227255556731
1789063980805742600,10.98474267578125,7.320125445455313,6.523671116137504,-0.16692401666333898
1789063980815780600,10.994780517578125,7.321523621815443,6.5221490211367605,-0.16506211351528763
1789063980825817600,11.004817626953125,7.324354461327195,6.518912523433566,-0.16731623085131866
1789063980835854600,11.0148544921875,7.327786189341545,6.514866462913155,-0.17450720180133356
1789063980845891600,11.0248916015625,7.3269193433791395,6.515652060332894,-0.18141561121661215
1789063980855928300,11.03492822265625,7.321127315974235,6.522001721620559,-0.18699732033908367
1789063980865965600,11.044965576171874,7.315935008028149,6.527708993351459,-0.191017314836476
1789063980876002600,11.05500244140625,7.316439450418948,6.5270046444743866,-0.19570843179477376
1789063980886039600,11.06503955078125,7.3182842015028,6.5248728931427,-0.1978254422150552
1789063980896076500,11.07507666015625,7.31895464811027,6.524067421978712,-0.19955650379136203
1789063980906113500,11.085113525390625,7.319031220477819,6.523983835348487,-0.19950594264790414
1789063980916151600,11.095151611328125,7.32087655608356,6.52164633231163,-0.20802772381026297
1789063980926188500,11.1051884765625,7.324220605814457,6.517551756474376,-0.21838095818348227
1789063980936225500,11.1152255859375,7.327178871098161,6.513933565977215,-0.2269386143768206
1789063980946262500,11.125262451171874,7.326980718177556,6.514080280971527,-0.22912227855883538
1789063980956299500,11.135299560546875,7.326281629997491,6.514871723610162,-0.22896595548596232
1789063980966336500,11.14533642578125,7.325292618960142,6.515982899722457,-0.22899437786284832
1789063980976373500,11.15537353515625,7.326054250982403,6.51491264014244,-0.23500561924269422
1789063980986410500,11.165410400390625,7.323661218366026,6.517444788968563,-0.23933173881350084
1789063980996447500,11.175447509765625,7.317678636825084,6.523977990129589,-0.24429478631466625
1789063981006484500,11.185484375,7.314891636455059,6.526787202331423,-0.2525636886944994
1789063981016521500,11.195521484375,7.314562550631165,6.526804153466224,-0.2614976673869416
1789063981026559500,11.2055595703125,7.315514736789464,6.525379089099168,-0.27030895128147675
1789063981036596500,11.215596435546875,7.315735686063766,6.524952388119697,-0.2745780434354208
1789063981046633500,11.225633544921875,7.317298697596788,6.523159659484029,-0.2755222654829733
1789063981056670500,11.23567041015625,7.32488637624681,6.514385985919833,-0.2814193241649307
1789063981066707700,11.245707763671875,7.332951609280705,6.505007916721701,-0.2882389410519041
1789063981076744400,11.255744384765626,7.338212306287884,6.49868806605041,-0.2967819293990731
1789063981086781400,11.265781494140626,7.3406532696992155,6.495525802627205,-0.3054955981380306
1789063981096818400,11.275818359375,7.342742935454845,6.492783810442686,-0.3134849346578121
1789063981106855700,11.285855712890625,7.343235102885961,6.491978339278697,-0.31858163674231615
1789063981116892700,11.295892578125,7.339036482152342,6.496515982708335,-0.32281901858374473
1789063981126930400,11.305930419921875,7.331582074493169,6.504850680333376,-0.3243476529231295
1789063981136967400,11.315967529296875,7.323945880526304,6.51321635761857,-0.3289651566559449
1789063981147004700,11.326004638671876,7.3173852068364615,6.520214253681898,-0.3362676616890356
1789063981157041700,11.336041748046876,7.3138985337644815,6.523806140694022,-0.342391039940156
1789063981167078400,11.346078369140624,7.311262924563884,6.526615937417745,-0.34511787108816205
1789063981177115400,11.356115478515624,7.309154554107785,6.528865177649259,-0.34723274435028434
1789063981187152600,11.366152587890625,7.308575877436995,6.5295514063477516,-0.3465028226405382
1789063981197189600,11.376189697265625,7.311148942795396,6.526545794790983,-0.34883696467652914
1789063981207226600,11.3862265625,7.319805127459764,6.516587879878283,-0.3534429606346413
1789063981217263400,11.396263427734375,7.328253222331404,6.507057834988832,-0.35397710404396054
1789063981227300600,11.406300537109376,7.3320233885198824,6.502894285568595,-0.35240284046456216
1789063981237338600,11.416338623046874,7.334781747317313,6.500033635440468,-0.34774756200462575
1789063981247375600,11.426375732421874,7.3411740787029265,6.492625405010581,-0.35124369702469554
1789063981257412400,11.436412353515625,7.346884273043274,6.485777731072902,-0.3582689194863662
1789063981267449600,11.44644970703125,7.345901691746711,6.486859681090712,-0.35884240852538496
1789063981277486600,11.456486572265625,7.341683781790733,6.491874294382334,-0.35445180888362227
1789063981287523600,11.466523681640625,7.33876000329852,6.4954059756398195,-0.3502794551024213
1789063981297560600,11.476560546875,7.335929748308658,6.4988441333949565,-0.34575609592646356
1789063981307597600,11.48659765625,7.330220723012089,6.505538662597536,-0.3409124187549576
1789063981317634600,11.496634521484374,7.3214768600642675,6.515595946231484,-0.336703093964234
1789063981327671600,11.506671630859374,7.314230542197823,6.523970975866914,-0.33199550079517065
1789063981337709300,11.516709228515625,7.310345225197076,6.528616171324253,-0.32621202202290295
1789063981347746600,11.52674658203125,7.309713941556215,6.529745467615127,-0.3176353323355317
1789063981357783600,11.536783447265625,7.31263245935142,6.52699938377738,-0.30671065474990755
1789063981367820500,11.546820556640625,7.319275550627708,6.519895104730129,-0.2992734722201712
1789063981377857500,11.556857421875,7.328974522343278,6.509239855203032,-0.29377516706483436
1789063981387894500,11.56689453125,7.3382210741162295,6.498947009247541,-0.2908196417274885
1789063981397931500,11.576931640625,7.347125680583715,6.489035271564125,-0.2873159444554709
1789063981407968500,11.586968505859375,7.355896431538462,6.479556080079078,-0.2766399626675993
1789063981418005500,11.597005615234375,7.362397483995556,6.472742892932891,-0.2628400401729159
1789063981428042500,11.60704248046875,7.36375299025774,6.47171939510405,-0.2497569789770059
1789063981438079500,11.61707958984375,7.3601774698585265,6.476261130186915,-0.23709678283566607
1789063981448117500,11.627117431640626,7.356387429925799,6.480774808219075,-0.2312987823477015
1789063981458154500,11.637154541015626,7.348560681822896,6.48977293818891,-0.22777113794451578
1789063981468191700,11.647191650390624,7.33538614295125,6.504908548000454,-0.22057543602045623
1789063981478228500,11.657228515625,7.320804075369239,6.521706538066268,-0.2087192862709984
1789063981488265500,11.667265380859375,7.308543144211173,6.535880609369277,-0.19455288681779057
1789063981498302500,11.677302490234375,7.297529582765698,6.548422111034393,-0.18602210036506875
1789063981508339700,11.687339599609375,7.2898372746974225,6.557186432248353,-0.17877077752994372
1789063981518376700,11.697376708984375,7.289241646891832,6.558025805681943,-0.1721614789254032
1789063981528413400,11.707413330078126,7.294502928420901,6.552182340350747,-0.17179063631901517
1789063981538450400,11.717450439453126,7.3040703827112905,6.541534689608216,-0.17107525459127498
1789063981548487400,11.7274873046875,7.318299399071932,6.525787669900059,-0.16424895223518832
1789063981558525400,11.737525390625,7.335085698699951,6.507026855328679,-0.15970058648213742
1789063981568562400,11.7475625,7.3518848578095435,6.488093022277951,-0.1575360653920099
1789063981578599400,11.757599365234375,7.3673022071719165,6.470692390143871,-0.1528960940990597
1789063981588636700,11.76763671875,7.380248782506585,6.455958931392431,-0.15135673743626102
1789063981598673700,11.777673583984376,7.38553519847691,6.450035386562347,-0.14593194504170678
1789063981608710400,11.78771044921875,7.38396867981255,6.451967815929651,-0.1396420237177983
1789063981618747400,11.797747314453124,7.378750652903318,6.4580258007943625,-0.13539584664856083
1789063981628784400,11.807784423828124,7.370451611113547,6.467514344629645,-0.13447976385010404
1789063981638821600,11.817821533203125,7.358518596735596,6.481132535615563,-0.13233546356409787
1789063981648858600,11.827858642578125,7.346074710226058,6.495280303433537,-0.13002142360121943
1789063981658896000,11.837895751953125,7.335299633711576,6.507539481025934,-0.12526057500811294
1789063981668934000,11.847933837890626,7.329074475586414,6.514609857803583,-0.12211392014599405
1789063981678971100,11.85797119140625,7.326130823349953,6.517961506319046,-0.11985010339985601
1789063981689007900,11.8680078125,7.324523388153314,6.51985594176352,-0.11498358420887961
1789063981699044900,11.878044921875,7.328380648103356,6.5156164044976235,-0.10935256518512032
1789063981709081900,11.888081787109375,7.336048406252265,6.50700581254065,-0.10798020825283601
1789063981719118800,11.898118896484375,7.344249248364568,6.497748739373684,-0.10789411913827061
1789063981729156000,11.908156005859375,7.352421448904275,6.488487574553489,-0.10867359734447672
1789063981739193000,11.918193115234375,7.356339499130844,6.484108921077847,-0.10479172354298644
1789063981749229800,11.928229736328126,7.356046069142222,6.484525100663304,-0.09947926894910633
1789063981759266800,11.938266845703126,7.354868842056393,6.485863655790686,-0.09929196621607989
1789063981769305000,11.94830517578125,7.350071670907735,6.491220798909664,-0.10431740229581482
1789063981779341800,11.958341796875,7.338525025498867,6.504247453743219,-0.10579237935235723
1789063981789378800,11.96837890625,7.3237600025653835,6.520898144292831,-0.10392173577542416
1789063981799415800,11.978415771484375,7.312445412346721,6.53363896792233,-0.1004076541067101
1789063981809453000,11.988453125,7.306901222223043,6.539871140310168,-0.09829161180080845
1789063981819490000,11.998489990234376,7.302999538609385,6.544265575876832,-0.09574968136618844
1789063981829526800,12.00852685546875,7.302296943297982,6.5450453280776735,-0.09605157778905704
1789063981839563800,12.018563720703124,7.309514619591832,6.536899431023001,-0.10162250978918745
1789063981849601000,12.02860107421875,7.321302672541141,6.52364189004302,-0.10491657376536168
1789063981859638000,12.038637939453125,7.33529145040512,6.507895454856753,-0.10572166133685969
1789063981869675000,12.048675048828125,7.35028619044125,6.490961271190643,-0.10533223276101052
1789063981879713000,12.058713134765625,7.362443661224842,6.477160709375143,-0.10578915534880944
1789063981889750000,12.06875,7.372420865359902,6.465765455135703,-0.10805777613422833
1789063981899787000,12.078787109375,7.379459093433618,6.457654629394412,-0.1125588595462963
1789063981909824000,12.088823974609374,7.380192668405175,6.456773170384764,-0.11499648935622535
1789063981919860700,12.09886083984375,7.375640411928296,6.461930407017469,-0.1173260556817986
1789063981929898000,12.10889794921875,7.366383338761329,6.472457646250724,-0.11863904710966161
1789063981939935000,12.11893505859375,7.355738610628247,6.484431577160954,-0.12505576401785948
1789063981949972000,12.128971923828125,7.3443679063081735,6.4971811686187975,-0.13145335610047915
1789063981960009000,12.139009033203125,7.330745039147138,6.512534220573306,-0.13207972610420546
1789063981970046000,12.1490458984375,7.318986212292313,6.525799360337853,-0.12949495204170233
1789063981980083000,12.1590830078125,7.312122756263613,6.533477055358886,-0.13009897321630268
1789063981990121000,12.169120849609374,7.309260937091707,6.536498449006676,-0.13885124779944308
1789063982000158000,12.179157958984375,7.308917238220572,6.536700109058618,-0.14720907057174482
1789063982010195000,12.18919482421875,7.31041419878006,6.534851850843429,-0.15473810523655265
1789063982020232000,12.19923193359375,7.316539988183975,6.5279252664506435,-0.1575359923267737
1789063982030269000,12.20926904296875,7.327613170862198,6.515506514382362,-0.15698319901591165
1789063982040306000,12.219305908203125,7.337572254818677,6.504379555690289,-0.15317384246136062
1789063982050343000,12.229343017578126,7.343319274038076,6.497890193670988,-0.1531824002271518
1789063982060380000,12.2393798828125,7.346875505214929,6.493768145304918,-0.1574311985117383
1789063982070417000,12.2494169921875,7.3473361084640025,6.4931736865431064,-0.1604109815075062
1789063982080454000,12.259453857421875,7.3432561456739895,6.497767444074153,-0.1612082693650387
1789063982090491100,12.2694912109375,7.333200615605712,6.50930006095767,-0.15348220515763386
1789063982100529000,12.27952880859375,7.32102385559976,6.523188885578513,-0.1449030860511586
1789063982110566000,12.28956591796875,7.310698276418447,6.534869971022009,-0.1398235268977005
1789063982120603000,12.299602783203126,7.302853992658853,6.543630200582743,-0.14005792930861935
1789063982130640100,12.30964013671875,7.29970809584856,6.547073619034886,-0.14309300442188977
1789063982140676900,12.3196767578125,7.304439800545572,6.5417953863710165,-0.14303546554837376
1789063982150713900,12.3297138671875,7.317447750678658,6.527293398287892,-0.1406758511444088
1789063982160750800,12.339750732421875,7.333425072011351,6.509438008123636,-0.13595940794860945
1789063982170788000,12.3497880859375,7.348845928505063,6.492164217239618,-0.1290399930821266
1789063982180825000,12.3598251953125,7.3642206077694885,6.474766507714986,-0.12663716059094293
1789063982190861800,12.36986181640625,7.378506322753429,6.458367161577939,-0.13240982570825144
1789063982200898800,12.37989892578125,7.384830265077948,6.451014460727572,-0.13808755168425849
1789063982210937000,12.38993701171875,7.380585467115044,6.455860731714964,-0.13860768483453428
1789063982220974000,12.39997412109375,7.365588388991355,6.4730649644941085,-0.1338759070722852
1789063982231010800,12.4100107421875,7.34551240016818,6.4958490432322025,-0.13334103301060385
1789063982241047800,12.4200478515625,7.32471744942069,6.519249792563915,-0.13522154039442538
1789063982251085000,12.4300849609375,7.304440385067463,6.541811168462037,-0.14226114757447503
1789063982261122000,12.4401220703125,7.288285953602195,6.559634409922361,-0.14989930516956373
1789063982271159000,12.450158935546876,7.276253570502996,6.572904225862025,-0.1531121480025351
1789063982281195800,12.46019580078125,7.274182024925946,6.575172170794009,-0.15414002974554897
1789063982291233000,12.47023291015625,7.2832701712667935,6.565099105069041,-0.15436824901085347
1789063982301270000,12.48027001953125,7.300424719685315,6.545861905157565,-0.16085435962714253
1789063982311307000,12.49030712890625,7.320805244413018,6.522880258020758,-0.16799646820044145
1789063982321344800,12.5003447265625,7.340662037527561,6.500443969807028,-0.17116424804897978
1789063982331382000,12.510382080078125,7.358920163273811,6.479649603581428,-0.17556076597487552
1789063982341419000,12.5204189453125,7.372029820215702,6.4647454644382,-0.17499743300369008
1789063982351456000,12.5304560546875,7.380119603168964,6.455561456507444,-0.1730468651914969
1789063982361493000,12.540492919921874,7.384521637520193,6.45043929118812,-0.17623185190316287
1789063982371530000,12.550530029296874,7.380688342967629,6.454743125861882,-0.17919135929588229
1789063982381567000,12.56056689453125,7.367327926135062,6.47009676233828,-0.17525266814008353
1789063982391604000,12.57060400390625,7.352386962112784,6.487187013348937,-0.17086115518286824
1789063982401641000,12.580640869140625,7.339204824456572,6.502190521213412,-0.16728238338064402
1789063982411678000,12.590677978515625,7.324817402663826,6.51847530106008,-0.16406442598113788
1789063982421715000,12.60071484375,7.310851421153545,6.534315259748697,-0.15669879258396102
1789063982431752000,12.610751953125,7.30254244249165,6.543788606014847,-0.1486063062169589
1789063982441790000,12.6207900390625,7.301756845071911,6.544857112029194,-0.13990779851451515
1789063982451827000,12.630826904296875,7.305711135655641,6.540644462770223,-0.13014031900684347
1789063982461864000,12.640864013671875,7.315183312878013,6.530194380426407,-0.12265171681712381
1789063982471901000,12.65090087890625,7.328467157343029,6.515408314704895,-0.11579491885807365
1789063982481938000,12.66093798828125,7.342412680587172,6.499823792082071,-0.10792076055002398
1789063982491975000,12.670974853515625,7.355151750651001,6.4855661341488355,-0.09775217116186395
1789063982502012000,12.681011962890626,7.367051447281241,6.4721735686123365,-0.08895200231638736
1789063982512049000,12.691048828125,7.375835642239451,6.46226416901648,-0.0810051714977715
1789063982522086000,12.7010859375,7.378052149245143,6.45985769239664,-0.07053807865364942
1789063982532123000,12.711122802734375,7.375849086242914,6.462510252732038,-0.05654628684867639
1789063982542161000,12.721160888671875,7.372804896241426,6.466072913649678,-0.04507929168043192
1789063982552198000,12.731197998046875,7.367282333427667,6.472421405893564,-0.03588216625648783
1789063982562235000,12.74123486328125,7.357023974263668,6.484137562650441,-0.023462341042549812
1789063982572272000,12.751272216796876,7.3473565667301415,6.495114883738756,-0.014702360360277816
1789063982582309000,12.76130908203125,7.3377867743521925,6.505937306526303,-0.006376444834136055
1789063982592345900,12.771345947265624,7.328574709370732,6.516313154590129,0.007337673386238748
1789063982602382800,12.7813828125,7.322138538843393,6.523495759570598,0.025903206272469833
1789063982612419800,12.791419921875,7.320124276411533,6.525689470222592,0.039344707250921054
1789063982622457000,12.80145703125,7.321554016953706,6.524011307877302,0.05017758750040084
1789063982632494000,12.811494140625,7.326763276034593,6.5181123129665846,0.05603533708527684
1789063982642530800,12.82153076171875,7.333038703042268,6.511017386269569,0.05987328498007263
1789063982652568300,12.831568359375,7.340470314347743,6.502578643748164,0.06596291165864095
1789063982662606300,12.8416064453125,7.350041275769471,6.49163873206079,0.07683021476753056
1789063982672643000,12.85164306640625,7.357245508059859,6.483299942782521,0.09025805254681035
1789063982682680300,12.861680419921875,7.3598285102903835,6.480180933979153,0.10284673608820885
1789063982692717300,12.87171728515625,7.359960027715563,6.479890426599979,0.1113314457763452
1789063982702754300,12.88175439453125,7.357071320536733,6.4830269710600374,0.11934554227804764
1789063982712791300,12.891791259765625,7.3529977874875065,6.487528374132514,0.1256075161491055
1789063982722828300,12.901828369140626,7.345005619689822,6.496459284085035,0.1314956608722452
1789063982732865300,12.911865234375,7.3336886913836,6.509123535346984,0.1367499281386379
1789063982742902300,12.92190234375,7.323193016332388,6.520845537322759,0.14073485132264904
1789063982752939300,12.931939208984375,7.315308985084295,6.529626225149631,0.14362584179011173
1789063982762976300,12.941976318359375,7.311731711119413,6.5335080350190395,0.14910788993039167
