time,seconds_elapsed,z,y,x
1789063969861553000,0.040552978515625,-0.05536312237381935,0.03501337766647339,0.015621569938957691
1789063969871590100,0.050590087890625,-0.04998646676540375,0.019700201228260994,0.013912620022892952
1789063969881627100,0.060627197265625,-0.04566149413585663,0.027297668159008026,0.014009292237460613
1789063969891664100,0.0706640625,-0.039990026503801346,0.023551398888230324,0.013085708022117615
1789063969901700900,0.080700927734375,-0.034746263176202774,0.026129338890314102,0.010864099487662315
1789063969911737900,0.09073779296875,-0.02984924241900444,0.03578995540738106,0.00869255792349577
1789063969921775000,0.100775146484375,-0.02268427424132824,0.037942055612802505,0.010205233469605446
1789063969931813000,0.110813232421875,-0.015410914085805416,0.04543086513876915,0.009642240591347218
1789063969941849900,0.120849853515625,-0.015589346177875996,0.04867086559534073,0.01492488756775856
1789063969951887000,0.13088720703125,-0.018546519801020622,0.04884690046310425,0.015263907611370087
1789063969961924000,0.140924072265625,-0.02118438109755516,0.0471307598054409,0.017016001045703888
1789063969971961000,0.150961181640625,-0.024949025362730026,0.044667068868875504,0.02280597947537899
1789063969981998000,0.160998046875,-0.037157755345106125,0.041784998029470444,0.033306289464235306
1789063969992034800,0.171034912109375,-0.04436400160193443,0.04639279842376709,0.035469844937324524
1789063970002072000,0.181072021484375,-0.024097612127661705,0.05083388462662697,0.018632274121046066
1789063970012109000,0.191109130859375,0.0001805623178370297,0.03875644877552986,-0.011559717357158661
1789063970022146000,0.20114599609375,0.0320277065038681,0.08329861611127853,-0.015188007615506649
1789063970032183000,0.21118310546875,0.029679864645004272,0.046487871557474136,-0.028136296197772026
1789063970042220000,0.221219970703125,0.027788221836090088,0.10114286094903946,-0.03711913898587227
1789063970052257000,0.231257080078125,0.03111317753791809,0.08009137213230133,-0.04968126863241196
1789063970062294000,0.2412939453125,0.03723125904798508,0.10998642444610596,-0.03838866949081421
1789063970072332000,0.25133203125,0.044563740491867065,0.09613825380802155,-0.02658686973154545
1789063970082369000,0.261369140625,0.046961117535829544,0.07876458764076233,-0.012626046314835548
1789063970092406000,0.271406005859375,0.03671806678175926,0.07895473390817642,0.002769953804090619
1789063970102443000,0.281443115234375,0.027701934799551964,0.06829702854156494,0.017300160601735115
1789063970112480000,0.29147998046875,0.019641878083348274,0.06865096837282181,0.03347646817564964
1789063970122517000,0.30151708984375,0.0226144976913929,0.05706674978137016,0.050346262753009796
1789063970132554000,0.311553955078125,0.028054270893335342,0.05934135243296623,0.0536898598074913
1789063970142591000,0.321591064453125,0.03514520451426506,0.05760683864355087,0.05086104944348335
1789063970152628000,0.3316279296875,0.03960040584206581,0.06949438899755478,0.0398467481136322
1789063970162665200,0.341665283203125,0.04109497368335724,0.07455679029226303,0.022117553278803825
1789063970172702000,0.351701904296875,0.04526601359248161,0.07630249112844467,0.006561229936778545
1789063970182739000,0.361739013671875,0.04862133041024208,0.08183068037033081,-0.014209828339517117
1789063970192776000,0.37177587890625,0.050639208406209946,0.08737831562757492,-0.027157584205269814
1789063970202813000,0.38181298828125,0.05462036654353142,0.08399050682783127,-0.029172532260417938
1789063970212851000,0.391850830078125,0.06121222302317619,0.07968231290578842,-0.020748954266309738
1789063970222888000,0.401887939453125,0.0715109333395958,0.09226654469966888,-0.01318184845149517
1789063970232925000,0.411925048828125,0.08445815742015839,0.1018800288438797,-0.007288805674761534
1789063970242962200,0.421962158203125,0.09199889749288559,0.1011042445898056,0.003876763628795743
1789063970252999200,0.431999267578125,0.0705210343003273,0.06484290957450867,0.015251656994223595
1789063970263036000,0.442035888671875,0.008138087578117847,0.034139860421419144,0.030974427238106728
1789063970273073000,0.452072998046875,-0.01509825885295868,0.08863106369972229,0.012704609893262386
1789063970283110100,0.462110107421875,-0.024869929999113083,0.0923411175608635,0.05402355268597603
1789063970293147100,0.472147216796875,0.018637333065271378,-0.010279535315930843,0.06444557011127472
1789063970303184100,0.48218408203125,0.0569053590297699,0.024894431233406067,0.025946645066142082
1789063970313220900,0.492220947265625,0.07219803333282471,0.10383877903223038,-0.003635214874520898
1789063970323257900,0.5022578125,0.047815192490816116,0.00929416622966528,0.01133894082158804
1789063970333295000,0.512295166015625,0.0038978024385869503,0.053762029856443405,0.019596870988607407
1789063970343333000,0.5223330078125,-0.018606174737215042,0.046435676515102386,0.0010546117555350065
1789063970353369900,0.532369873046875,-0.019766513258218765,0.04391579329967499,-0.03173422813415527
1789063970363407000,0.542406982421875,-0.010087788105010986,0.03939134627580643,-0.025308553129434586
1789063970373444000,0.552444091796875,-0.01278690155595541,-0.0222104974091053,-0.03262079507112503
1789063970383481000,0.562481201171875,-0.025473669171333313,0.0036661075428128242,-0.020350545644760132
1789063970393518000,0.57251806640625,-0.043114181607961655,-0.0975009873509407,-0.012808472849428654
1789063970403554800,0.582554931640625,-0.04599172621965408,0.08910510689020157,-0.011511247605085373
1789063970413592000,0.592592041015625,-0.0525798536837101,0.11102345585823059,0.023180153220891953
1789063970423629000,0.602629150390625,-0.056472595781087875,-0.10278896242380142,0.03524400666356087
1789063970433666000,0.612666015625,-0.033735327422618866,-0.049440521746873856,0.06167561560869217
1789063970443703000,0.622703125,-0.0060118199326097965,-0.1041402518749237,0.03760463371872902
1789063970453740000,0.632739990234375,0.013030048459768295,-0.0638226568698883,0.012926717288792133
1789063970463777000,0.642777099609375,0.012662798166275024,0.0513225756585598,0.019453059881925583
1789063970473814000,0.65281396484375,0.009760751388967037,0.03116404451429844,0.011839082464575768
1789063970483852000,0.66285205078125,0.03814418986439705,0.057849984616041183,-0.0018708707066252828
1789063970493889000,0.672888916015625,0.09878649562597275,0.09158024936914444,-0.025291774421930313
1789063970503926000,0.682926025390625,0.17684215307235718,0.06361013650894165,-0.04400793835520744
1789063970513963000,0.692962890625,0.24793310463428497,0.07320497184991837,-0.06990105658769608
1789063970524000000,0.703,0.30131617188453674,0.07097936421632767,-0.07301082462072372
1789063970534037000,0.713037109375,0.33600038290023804,0.1366523802280426,-0.061110224574804306
1789063970544074000,0.723073974609375,0.35672324895858765,0.18406836688518524,-0.055445149540901184
1789063970554111000,0.733111083984375,0.37749776244163513,0.19645899534225464,-0.03991466015577316
1789063970564148000,0.74314794921875,0.39370813965797424,0.2343491166830063,-0.013483851216733456
1789063970574185200,0.753185302734375,0.3861708641052246,0.16159023344516754,0.04405640810728073
1789063970584222000,0.763221923828125,0.34101325273513794,0.06296245753765106,0.10709263384342194
1789063970594259000,0.773259033203125,0.28218960762023926,0.013032977469265461,0.14089347422122955
1789063970604296000,0.7832958984375,0.24025946855545044,0.04271524026989937,0.13258147239685059
1789063970614333000,0.7933330078125,0.2427559196949005,0.10958161950111389,0.11684831976890564
1789063970624371000,0.803370849609375,0.26503753662109375,0.08674528449773788,0.08538813143968582
1789063970634408400,0.813408447265625,0.29547053575515747,0.10366727411746979,0.03742700070142746
1789063970644445400,0.823445556640625,0.3045543134212494,0.10054924339056015,-0.019478892907500267
1789063970654482400,0.833482421875,0.28700965642929077,0.08584246784448624,-0.07284384965896606
1789063970664519400,0.84351953125,0.26101481914520264,0.09519974887371063,-0.0904121845960617
1789063970674556400,0.853556396484375,0.23482316732406616,0.06368762999773026,-0.07739359140396118
1789063970684593400,0.863593505859375,0.22605204582214355,0.06906268745660782,-0.08341792970895767
1789063970694630400,0.87363037109375,0.2242211252450943,0.10963115841150284,-0.1046915277838707
1789063970704667400,0.88366748046875,0.22262375056743622,0.12113121896982193,-0.07910733669996262
1789063970714704600,0.89370458984375,0.22603020071983337,0.10650327056646347,-0.040996700525283813
1789063970724741400,0.903741455078125,0.23028726875782013,0.08471541851758957,0.00800120085477829
1789063970734778400,0.9137783203125,0.2212114781141281,0.07467583566904068,0.04187421128153801
1789063970744815400,0.9238154296875,0.20230649411678314,0.0609123520553112,0.059956543147563934
1789063970754853400,0.933853271484375,0.1849251091480255,0.05577830970287323,0.08966304361820221
1789063970764890400,0.943890380859375,0.1919340193271637,0.05753226950764656,0.11270550638437271
1789063970774927400,0.95392724609375,0.23392993211746216,0.08250606060028076,0.10485850274562836
1789063970784964400,0.96396435546875,0.29554083943367004,0.15033571422100067,0.06234806403517723
1789063970795001600,0.974001708984375,0.34964749217033386,0.20165535807609558,0.009493903256952763
1789063970805038300,0.984038330078125,0.3811042010784149,0.22866086661815643,-0.041912563145160675
1789063970815075300,0.994075439453125,0.39004603028297424,0.23813852667808533,-0.07253891229629517
1789063970825112300,1.0041123046875,0.3797462582588196,0.23356321454048157,-0.07947857677936554
1789063970835149300,1.0141494140625,0.36108869314193726,0.2146230787038803,-0.08594314008951187
1789063970845186600,1.0241865234375,0.3551596999168396,0.22456945478916168,-0.08305999636650085
1789063970855223300,1.034223388671875,0.36199069023132324,0.22051532566547394,-0.057130664587020874
1789063970865260300,1.04426025390625,0.3842315673828125,0.2309621125459671,-0.016755010932683945
1789063970875297300,1.05429736328125,0.41138380765914917,0.2593165338039398,0.030903054401278496
1789063970885335600,1.06433544921875,0.43684524297714233,0.2785504162311554,0.07644763588905334
1789063970895372300,1.074372314453125,0.45160073041915894,0.29244092106819153,0.10988309234380722
1789063970905409300,1.0844091796875,0.4541800022125244,0.30681052803993225,0.12635155022144318
1789063970915446500,1.094446533203125,0.4436275064945221,0.29219672083854675,0.1270679384469986
1789063970925483500,1.1044833984375,0.42703360319137573,0.26945942640304565,0.109078548848629
1789063970935520500,1.1145205078125,0.42213207483291626,0.2756579518318176,0.08711652457714081
1789063970945557200,1.12455712890625,0.4275049865245819,0.28901103138923645,0.05926278978586197
1789063970955594200,1.13459423828125,0.4449862539768219,0.3323183059692383,-0.007937817834317684
1789063970965631500,1.144631591796875,0.45509853959083557,0.32810091972351074,-0.007095459848642349
1789063970975668500,1.15466845703125,0.4457910656929016,0.29137086868286133,0.015024489723145962
1789063970985705500,1.16470556640625,0.43870678544044495,0.3245099186897278,-0.035904206335544586
1789063970995742200,1.1747421875,0.4254983067512512,0.34198424220085144,-0.03900811821222305
1789063971005779500,1.184779541015625,0.4136512279510498,0.36887043714523315,-0.031683359295129776
1789063971015817500,1.1948173828125,0.4138839840888977,0.3782958984375,-0.025179920718073845
1789063971025854500,1.2048544921875,0.4108831286430359,0.27981460094451904,0.055440355092287064
1789063971035891200,1.21489111328125,0.42296430468559265,0.3216123878955841,0.0791504755616188
1789063971045928400,1.224928466796875,0.44012224674224854,0.36835697293281555,0.0824567899107933
1789063971055965400,1.23496533203125,0.4459921419620514,0.3703272044658661,0.13271783292293549
1789063971066002400,1.24500244140625,0.4372665584087372,0.386778324842453,0.15597309172153473
1789063971076039400,1.255039306640625,0.4051232635974884,0.30626511573791504,0.19340407848358154
1789063971086076400,1.265076416015625,0.36656174063682556,0.34172165393829346,0.17544426023960114
1789063971096113400,1.275113525390625,0.333725243806839,0.3366027772426605,0.15521541237831116
1789063971106150400,1.285150390625,0.31338080763816833,0.3518666923046112,0.12052880972623825
1789063971116187400,1.2951875,0.30311673879623413,0.3160895109176636,0.07640502601861954
1789063971126224600,1.305224609375,0.2846655547618866,0.26331445574760437,0.03843367472290993
1789063971136261400,1.315261474609375,0.26090189814567566,0.28271397948265076,-0.03785896673798561
1789063971146298400,1.32529833984375,0.2238280326128006,0.35686439275741577,-0.0961742028594017
1789063971156336400,1.33533642578125,0.1773710548877716,0.3075841963291168,-0.059060391038656235
1789063971166373400,1.345373291015625,0.12122416496276855,0.14047162234783173,0.027159182354807854
1789063971176410400,1.355410400390625,0.059059057384729385,0.12724371254444122,0.018274344503879547
1789063971186447400,1.365447265625,0.015735553577542305,0.21775229275226593,0.0019318570848554373
1789063971196484400,1.375484375,-0.035113245248794556,0.2123016119003296,0.027545340359210968
1789063971206521600,1.385521484375,-0.06694281101226807,0.10633362829685211,0.0929001122713089
1789063971216558300,1.395558349609375,-0.08899059146642685,0.04560530185699463,0.1412053257226944
1789063971226595300,1.40559521484375,-0.11096406728029251,0.0875338464975357,0.12475311756134033
1789063971236632300,1.41563232421875,-0.1436663568019867,0.161222442984581,0.07072477042675018
1789063971246669300,1.42566943359375,-0.17007772624492645,0.11329220235347748,0.05924814194440842
1789063971256706600,1.43570654296875,-0.1933569461107254,0.08885983377695084,0.14063328504562378
1789063971266743300,1.445743408203125,-0.2172633409500122,0.09968691319227219,0.15685538947582245
1789063971276780300,1.4557802734375,-0.22697323560714722,0.12498081475496292,0.08465656638145447
1789063971286817300,1.4658173828125,-0.2198101282119751,0.0690738782286644,0.046554453670978546
1789063971296855600,1.47585546875,-0.2040673792362213,0.12598323822021484,0.04801519587635994
1789063971306892300,1.485892333984375,-0.20253419876098633,0.04452379047870636,0.09541573375463486
1789063971316929300,1.49592919921875,-0.22775086760520935,-0.03461496904492378,0.09648792445659637
1789063971326966300,1.50596630859375,-0.24102726578712463,0.09805439412593842,0.017948640510439873
1789063971337003500,1.51600341796875,-0.23489001393318176,0.21403798460960388,0.01565166376531124
1789063971347040500,1.52604052734375,-0.22303947806358337,0.07598451524972916,0.11797670274972916
1789063971357077200,1.5360771484375,-0.233677476644516,-0.09822004288434982,0.1586676687002182
1789063971367114200,1.5461142578125,-0.22672554850578308,0.11740332841873169,0.04585936665534973
1789063971377151500,1.5561513671875,-0.18585455417633057,0.30615460872650146,0.04023823142051697
1789063971387188500,1.5661884765625,-0.1236116886138916,0.12223616242408752,0.13352343440055847
1789063971397225500,1.5762255859375,-0.029628200456500053,0.08894984424114227,0.19402433931827545
1789063971407262200,1.58626220703125,0.07184728980064392,0.05675329267978668,0.20241515338420868
1789063971417299500,1.596299560546875,0.1564234346151352,0.11121547222137451,0.11686403304338455
1789063971427337500,1.60633740234375,0.21852993965148926,0.3380696475505829,0.019353192299604416
1789063971437374500,1.61637451171875,0.23816169798374176,0.3367844223976135,0.023239009082317352
1789063971447411200,1.6264111328125,0.21702738106250763,0.29050081968307495,0.028263594955205917
1789063971457448400,1.636448486328125,0.2344239503145218,0.46829184889793396,-0.06096455082297325
1789063971467485400,1.6464853515625,0.3132902681827545,0.46622762084007263,-0.06072992458939552
1789063971477522400,1.6565224609375,0.4219597578048706,0.3795531690120697,-0.036125779151916504
1789063971487559400,1.666559326171875,0.5560909509658813,0.34303805232048035,0.0439394935965538
1789063971497596400,1.676596435546875,0.6411826610565186,0.29177460074424744,0.12665967643260956
1789063971507633400,1.68663330078125,0.6683517098426819,0.3707232177257538,0.08349622786045074
1789063971517670400,1.69667041015625,0.6437861919403076,0.5768998265266418,0.06254220753908157
1789063971527707400,1.706707275390625,0.6154738068580627,0.6133456826210022,0.10636798292398453
1789063971537744400,1.716744384765625,0.6249333620071411,0.6176635026931763,0.1308259218931198
1789063971547781400,1.726781494140625,0.6714955568313599,0.5748294591903687,0.18410006165504456
1789063971557818400,1.736818359375,0.7454409003257751,0.5751737952232361,0.15505988895893097
1789063971567856400,1.7468564453125,0.8126729130744934,0.4407377243041992,0.08506988734006882
1789063971577893400,1.756893310546875,0.8504005670547485,0.501498281955719,0.00010759170982055366
1789063971587930400,1.766930419921875,0.8600244522094727,0.6698145866394043,-0.0514615923166275
1789063971597967400,1.77696728515625,0.7865568995475769,0.6006442904472351,-0.028060929849743843
1789063971608004400,1.78700439453125,0.6858976483345032,0.6344166398048401,-0.08081069588661194
1789063971618041600,1.79704150390625,0.604473888874054,0.6382433176040649,-0.13990463316440582
1789063971628078300,1.807078369140625,0.5438848733901978,0.6257083415985107,-0.1325383335351944
1789063971638114600,1.817114501953125,0.521834135055542,0.4609566926956177,-0.04717869684100151
1789063971648151600,1.827151611328125,0.5166960954666138,0.42946454882621765,0.02702389471232891
1789063971658188500,1.8371884765625,0.4867861568927765,0.33369702100753784,0.12972630560398102
1789063971668225500,1.8472255859375,0.4407805800437927,0.4056854546070099,0.157875657081604
1789063971678262500,1.857262451171875,0.3714539706707001,0.4976617097854614,0.17649221420288086
1789063971688299800,1.8672998046875,0.30462273955345154,0.4543307423591614,0.2389494627714157
1789063971698337500,1.877337646484375,0.23845012485980988,0.3882918059825897,0.2682114839553833
1789063971708374500,1.88737451171875,0.15981923043727875,0.3086622357368469,0.23853375017642975
1789063971718411800,1.897411865234375,0.07198178023099899,0.22392258048057556,0.17817239463329315
1789063971728448500,1.907448486328125,-0.04159671068191528,0.17601710557937622,0.09175868332386017
1789063971738485500,1.917485595703125,-0.15249526500701904,0.1966523379087448,0.0455981120467186
1789063971748522500,1.9275224609375,-0.25435611605644226,0.08211297541856766,0.03320669010281563
1789063971758559500,1.9375595703125,-0.32026243209838867,0.038183603435754776,0.014473481103777885
1789063971768596700,1.9475966796875,-0.35409441590309143,0.10269974917173386,0.01990899257361889
1789063971778633500,1.957633544921875,-0.3853932321071625,0.14434173703193665,0.027153590694069862
1789063971788670500,1.96767041015625,-0.42280077934265137,0.043955475091934204,0.019536416977643967
1789063971798707500,1.97770751953125,-0.478376179933548,0.05903162807226181,-0.010422014631330967
1789063971808744700,1.98774462890625,-0.5295394659042358,0.006024602800607681,0.0015590144321322441
1789063971818781700,1.99778173828125,-0.588776171207428,-0.11371857672929764,0.03194701299071312
1789063971828818400,2.007818359375,-0.614403486251831,-0.08755088597536087,-0.012318185530602932
1789063971838856400,2.0178564453125,-0.6298229694366455,-0.12208116799592972,-0.024405207484960556
1789063971848893700,2.027893798828125,-0.6611617207527161,-0.13122034072875977,0.02358122542500496
1789063971858930700,2.0379306640625,-0.697646975517273,-0.13861113786697388,0.0534786693751812
1789063971868967400,2.047967529296875,-0.7510039806365967,-0.19116489589214325,0.09690071642398834
1789063971879004400,2.05800439453125,-0.7982971668243408,-0.15856727957725525,0.10017826408147812
1789063971889041700,2.068041748046875,-0.7864913940429688,-0.1830182820558548,0.09414620697498322
1789063971899078700,2.07807861328125,-0.7606880068778992,-0.23603036999702454,0.13064216077327728
1789063971909115600,2.08811572265625,-0.673578143119812,-0.1793638914823532,0.09754732996225357
1789063971919152400,2.09815234375,-0.6029191613197327,-0.15389235317707062,0.0674285739660263
1789063971929189600,2.108189697265625,-0.5230070352554321,-0.1065906286239624,0.04969671741127968
1789063971939226600,2.1182265625,-0.4179586172103882,-0.08826301991939545,0.04767138138413429
1789063971949263600,2.128263671875,-0.3385213315486908,-0.16527017951011658,0.03780011087656021
1789063971959300600,2.138300537109375,-0.27684199810028076,-0.08588375151157379,0.024994831532239914
1789063971969337300,2.14833740234375,-0.22717483341693878,0.010162356309592724,0.007129015866667032
1789063971979375600,2.158375732421875,-0.18814539909362793,-0.006980677600950003,-0.003472229465842247
1789063971989412600,2.16841259765625,-0.1334371566772461,0.07556772977113724,-0.0013345100451260805
1789063971999449600,2.17844970703125,-0.0729391872882843,0.038966041058301926,-0.0023001721128821373
1789063972009486600,2.188486572265625,0.007269364316016436,0.11133318394422531,-0.034811243414878845
1789063972019523600,2.198523681640625,0.09199676662683487,0.12148408591747284,-0.01973855122923851
1789063972029560600,2.208560546875,0.1521035134792328,0.09959476441144943,0.012170646339654922
1789063972039597600,2.21859765625,0.20416244864463806,0.1450035274028778,0.0352083221077919
1789063972049634600,2.228634521484375,0.2126811146736145,0.1376124620437622,0.07481751590967178
1789063972059671600,2.238671630859375,0.1954009234905243,0.19116702675819397,0.06250199675559998
1789063972069708500,2.24870849609375,0.16370850801467896,0.20639604330062866,0.07567744702100754
1789063972079745500,2.25874560546875,0.1285872757434845,0.22155874967575073,0.04953186586499214
1789063972089782500,2.268782470703125,0.12222311645746231,0.2287578135728836,-0.050875432789325714
1789063972099819800,2.27881982421875,0.11384933441877365,0.18458129465579987,-0.055090416222810745
1789063972109857500,2.288857421875,0.1013479232788086,0.104295514523983,-0.06863418966531754
1789063972119894500,2.29889453125,0.0852227509021759,0.10019025206565857,-0.14154301583766937
1789063972129931800,2.308931884765625,0.05696874484419823,0.19497188925743103,-0.15407238900661469
1789063972139968500,2.318968505859375,-0.004890895448625088,0.11523418128490448,-0.07428381592035294
1789063972150005500,2.329005615234375,-0.07541273534297943,0.13416099548339844,-0.03845604509115219
1789063972160042500,2.33904248046875,-0.12576618790626526,0.17211318016052246,-0.03626639395952225
1789063972170079500,2.34907958984375,-0.16466298699378967,0.14878468215465546,0.011780492961406708
1789063972180116700,2.35911669921875,-0.18268246948719025,0.16466937959194183,0.1691480129957199
1789063972190153500,2.369153564453125,-0.23227424919605255,-0.21140731871128082,0.2532426416873932
1789063972200190500,2.3791904296875,-0.23462475836277008,-0.06839290261268616,0.08253695070743561
1789063972210227500,2.3892275390625,-0.25084447860717773,0.2756046652793884,-0.001449025934562087
1789063972220264700,2.3992646484375,-0.250115305185318,0.3069407641887665,0.02449522353708744
1789063972230301700,2.4093017578125,-0.2365318387746811,0.007124222349375486,0.0645102858543396
1789063972240339500,2.41933935546875,-0.19579321146011353,-0.00788322277367115,0.004551608581095934
1789063972250376400,2.42937646484375,-0.16353459656238556,-0.10431016236543655,-0.13320572674274445
1789063972260413700,2.43941357421875,-0.20485034584999084,-0.1850164532661438,-0.2514743208885193
1789063972270450700,2.44945068359375,-0.3263261914253235,0.02129543572664261,-0.258713036775589
1789063972280487400,2.4594873046875,-0.5097426176071167,0.1825498342514038,-0.18856485188007355
1789063972290524400,2.4695244140625,-0.6571075916290283,0.12891218066215515,0.08266451954841614
1789063972300561700,2.479561767578125,-0.6653644442558289,-0.20303620398044586,0.27873948216438293
1789063972310598700,2.4895986328125,-0.4864061176776886,-0.12827648222446442,0.2943490743637085
1789063972320635600,2.4996357421875,-0.260465145111084,-0.039444345980882645,0.18778933584690094
1789063972330672400,2.50967236328125,-0.1702233999967575,0.008186024613678455,0.1630496382713318
1789063972340709600,2.519709716796875,-0.2495078295469284,-0.09347216039896011,0.2172100841999054
1789063972350746600,2.52974658203125,-0.44687336683273315,-0.22065222263336182,0.17365434765815735
1789063972360783600,2.53978369140625,-0.6121715307235718,-0.1491764336824417,0.03725362941622734
1789063972370820600,2.549820556640625,-0.6951478719711304,-0.05560920014977455,-0.02750779129564762
1789063972380858600,2.559858642578125,-0.6707698702812195,-0.1473710834980011,-0.06572841107845306
1789063972390895600,2.5698955078125,-0.6071013808250427,-0.1969040036201477,-0.1625225991010666
1789063972400932600,2.5799326171875,-0.5843327045440674,-0.24668274819850922,-0.1735273152589798
1789063972410969600,2.589969482421875,-0.5970969796180725,-0.30614688992500305,-0.15617762506008148
1789063972421006600,2.600006591796875,-0.6118503212928772,-0.10424837470054626,-0.2131495624780655
1789063972431043600,2.610043701171875,-0.6345543265342712,-0.13204938173294067,-0.18040306866168976
1789063972441080600,2.62008056640625,-0.6207780241966248,-0.17559632658958435,-0.05349118635058403
1789063972451117600,2.63011767578125,-0.6061005592346191,-0.2083212435245514,-0.03436995670199394
1789063972461154600,2.640154541015625,-0.5366389155387878,-0.1974768489599228,0.017853032797574997
1789063972471191600,2.650191650390625,-0.5088938474655151,-0.29608890414237976,0.10391734540462494
1789063972481228500,2.660228515625,-0.5205491781234741,-0.20465993881225586,0.12035863846540451
1789063972491265500,2.670265625,-0.5375654697418213,-0.2273748368024826,0.14881104230880737
1789063972501302500,2.680302490234375,-0.5398091673851013,-0.24426805973052979,0.143101766705513
1789063972511340500,2.690340576171875,-0.5061939358711243,-0.2229776829481125,0.11607839912176132
1789063972521377500,2.70037744140625,-0.4656446576118469,-0.2720634639263153,0.1138290986418724
1789063972531414500,2.71041455078125,-0.45616859197616577,-0.28248336911201477,0.013351225294172764
1789063972541451500,2.720451416015625,-0.4865882992744446,-0.26635605096817017,-0.03979162126779556
1789063972551488500,2.730488525390625,-0.5387330055236816,-0.2824940085411072,-0.04862852394580841
1789063972561525500,2.740525390625,-0.5730550289154053,-0.2676924169063568,-0.10729929059743881
1789063972571562500,2.7505625,-0.5513308048248291,-0.2597506046295166,-0.09333527088165283
1789063972581599500,2.760599609375,-0.49500787258148193,-0.3140769600868225,-0.03262478858232498
1789063972591636700,2.77063671875,-0.4193858206272125,-0.24196948111057281,-0.0570523664355278
1789063972601673700,2.780673828125,-0.36630821228027344,-0.2434970736503601,-0.0067875985987484455
1789063972611710500,2.79071044921875,-0.33666881918907166,-0.22908377647399902,0.0341811403632164
1789063972621747500,2.80074755859375,-0.3243437111377716,-0.21398445963859558,0.07615362107753754
1789063972631784700,2.81078466796875,-0.31369534134864807,-0.25666293501853943,0.10448592901229858
1789063972641821700,2.82082177734375,-0.2978135645389557,-0.2644186019897461,0.07302574068307877
1789063972651859700,2.830859619140625,-0.28310415148735046,-0.24890702962875366,0.05151059478521347
1789063972661896700,2.840896728515625,-0.2613429129123688,-0.25471219420433044,0.029462551698088646
1789063972671933700,2.85093359375,-0.23135332763195038,-0.21270214021205902,0.01701946370303631
1789063972681970700,2.860970703125,-0.185505673289299,-0.24046027660369873,0.011129350401461124
1789063972692007700,2.871007568359375,-0.13917280733585358,-0.15034449100494385,-0.029146432876586914
1789063972702044700,2.881044677734375,-0.061944592744112015,-0.0850464478135109,-0.07764925807714462
1789063972712081700,2.89108154296875,0.031615983694791794,-0.14924220740795135,-0.08686059713363647
1789063972722118700,2.90111865234375,0.1093808189034462,-0.038894668221473694,-0.10323983430862427
1789063972732156000,2.911156005859375,0.13418523967266083,-0.15527400374412537,-0.024882446974515915
1789063972742192600,2.921192626953125,0.1302671879529953,-0.1220737099647522,-0.03500405699014664
1789063972752229600,2.931229736328125,0.15365293622016907,-0.04276503995060921,-0.031257521361112595
1789063972762266600,2.9412666015625,0.18380126357078552,-0.11150548607110977,0.06571296602487564
1789063972772303600,2.9513037109375,0.23048406839370728,-0.06350839883089066,0.10861649364233017
1789063972782341600,2.961341552734375,0.26340368390083313,-0.08439690619707108,0.13929611444473267
1789063972792378600,2.971378662109375,0.2942718267440796,-0.016680177301168442,0.1281217485666275
1789063972802415600,2.98141552734375,0.2834596633911133,-0.015107580460608006,0.11749041080474854
1789063972812452900,2.991452880859375,0.2915373146533966,-0.004323375876992941,0.07468622177839279
1789063972822489900,3.00148974609375,0.2994828522205353,-0.024837173521518707,0.05555354058742523
1789063972832526600,3.011526611328125,0.3603712320327759,0.07605322450399399,-0.030544327571988106
1789063972842563600,3.0215634765625,0.40584203600883484,-0.014508103020489216,-0.005400890484452248
1789063972852600800,3.031600830078125,0.4546061158180237,0.047382429242134094,-0.040586575865745544
1789063972862637800,3.041637939453125,0.4765090346336365,0.09718140959739685,-0.047932639718055725
1789063972872674800,3.0516748046875,0.45207080245018005,0.00872158631682396,-0.013367203995585442
1789063972882711600,3.061711669921875,0.46608781814575195,0.1558428555727005,-0.06570231169462204
1789063972892748500,3.07174853515625,0.46891769766807556,0.047806404531002045,-0.06763017922639847
1789063972902785800,3.081785888671875,0.48759177327156067,0.09085773676633835,-0.0870898962020874
1789063972912823600,3.091823486328125,0.537826418876648,0.11278273910284042,-0.07507477700710297
1789063972922860500,3.101860595703125,0.5771467089653015,0.03185620158910751,-0.011298194527626038
1789063972932897800,3.111897705078125,0.6522659659385681,0.18742528557777405,-0.06472253799438477
1789063972942934800,3.121934814453125,0.6682845950126648,0.1323271542787552,-0.00857324805110693
1789063972952971800,3.1319716796875,0.6530294418334961,0.15804342925548553,0.03852182626724243
1789063972963008800,3.1420087890625,0.6473729014396667,0.23456749320030212,0.0031302794814109802
1789063972973045500,3.15204541015625,0.6141880750656128,0.1166621670126915,0.032994966953992844
1789063972983082800,3.162082763671875,0.6173306107521057,0.20693346858024597,-0.03298191726207733
1789063972993119700,3.17211962890625,0.6055775284767151,0.14769650995731354,-0.03364957123994827
1789063973003156700,3.18215673828125,0.580258846282959,0.11495454609394073,-0.021798240020871162
1789063973013193700,3.19219384765625,0.5542192459106445,0.1440674215555191,-0.09729991853237152
1789063973023230700,3.202230712890625,0.52167809009552,0.194041907787323,-0.09972446411848068
1789063973033267700,3.212267822265625,0.4740770161151886,0.16102243959903717,-0.050939079374074936
1789063973043305700,3.2223056640625,0.4429422616958618,0.14433321356773376,-0.05516631528735161
1789063973053342500,3.232342529296875,0.3633214831352234,0.11999911069869995,0.011860121041536331
1789063973063379700,3.242379638671875,0.2993052303791046,0.11581900715827942,0.024057133123278618
1789063973073416700,3.252416748046875,0.22675085067749023,0.010791394859552383,0.07990681380033493
1789063973083453700,3.26245361328125,0.1738351732492447,0.0735224187374115,0.07789133489131927
1789063973093490700,3.27249072265625,0.1731848269701004,0.023679230362176895,0.13261796534061432
1789063973103527700,3.282527587890625,0.19261126220226288,0.024178307503461838,0.14728398621082306
1789063973113564700,3.292564697265625,0.2765490412712097,0.1178523376584053,0.05583423748612404
1789063973123601700,3.3026015625,0.3452087938785553,0.08336253464221954,0.06226017698645592
1789063973133638700,3.312638671875,0.3966410756111145,0.15032052993774414,0.07337168604135513
1789063973143676000,3.322676025390625,0.43221452832221985,0.1667591631412506,0.03057308867573738
1789063973153712600,3.332712646484375,0.443785160779953,0.1784783899784088,0.004051200579851866
1789063973163749600,3.34274951171875,0.4786944091320038,0.2960478961467743,-0.054615043103694916
1789063973173787600,3.35278759765625,0.5212568044662476,0.2511182427406311,-0.03971891850233078
1789063973183825000,3.362824951171875,0.5721761584281921,0.26558905839920044,-0.04843331128358841
1789063973193861600,3.372861572265625,0.6261091828346252,0.28762006759643555,-0.0723293274641037
1789063973203898600,3.382898681640625,0.6359447836875916,0.2524189352989197,-0.03404052555561066
1789063973213935600,3.392935546875,0.6594945788383484,0.38633519411087036,-0.05144188553094864
1789063973223972900,3.402972900390625,0.666338324546814,0.3200395107269287,-0.013568272814154625
1789063973234009900,3.413009765625,0.6793944835662842,0.3739762604236603,0.018251441419124603
1789063973244046600,3.423046630859375,0.6893832087516785,0.39789941906929016,0.05750883370637894
1789063973254083600,3.43308349609375,0.669322669506073,0.39482349157333374,0.10027254372835159
1789063973264120600,3.44312060546875,0.6520078778266907,0.4108072519302368,0.08611251413822174
1789063973274157800,3.45315771484375,0.6461023092269897,0.35989904403686523,0.07994622737169266
1789063973284194800,3.46319482421875,0.6639692187309265,0.36595162749290466,0.10475756973028183
1789063973294231600,3.4732314453125,0.6781904697418213,0.40207579731941223,0.03225221112370491
1789063973304269800,3.483269775390625,0.6169769167900085,0.38527923822402954,0.011796471662819386
1789063973314306800,3.493306884765625,0.5042954087257385,0.438777893781662,-0.0018077536951750517
1789063973324343800,3.50334375,0.3621941804885864,0.3396049737930298,0.01059485413134098
1789063973334380500,3.513380615234375,0.2746925354003906,0.3890380263328552,-0.001817607437260449
1789063973344417800,3.523417724609375,0.26635098457336426,0.35306698083877563,-0.02394235134124756
1789063973354454800,3.533454833984375,0.28778570890426636,0.25498807430267334,0.03575160726904869
1789063973364491800,3.54349169921875,0.32782286405563354,0.2980612516403198,0.011391405016183853
1789063973374528800,3.55352880859375,0.29619863629341125,0.1970193237066269,0.08686912059783936
1789063973384565500,3.5635654296875,0.2310931384563446,0.39114299416542053,0.07274983823299408
1789063973394602800,3.573602783203125,0.12344656884670258,0.2965451180934906,0.08668003231287003
1789063973404639700,3.5836396484375,0.012998622842133045,0.3131523132324219,0.04356611892580986
1789063973414676700,3.5936767578125,-0.04436107352375984,0.35428616404533386,-0.03351321816444397
1789063973424713700,3.603713623046875,-0.08626484870910645,0.154534712433815,0.052441637963056564
1789063973434751700,3.613751708984375,-0.11118058115243912,0.1443052440881729,0.054064035415649414
1789063973444788700,3.623788818359375,-0.1476893275976181,0.012985306791961193,0.04772517830133438
1789063973454825700,3.63382568359375,-0.1686558574438095,0.18937233090400696,0.052014730870723724
1789063973464862500,3.643862548828125,-0.21354317665100098,0.21858321130275726,0.03533881530165672
1789063973474899700,3.653899658203125,-0.2591383457183838,0.24461480975151062,0.0602329820394516
1789063973484936700,3.663936767578125,-0.3288918733596802,0.11935382336378098,0.09144283086061478
1789063973494973700,3.6739736328125,-0.41809576749801636,0.017464211210608482,0.0897490605711937
1789063973505010700,3.6840107421875,-0.48177170753479004,0.08996637165546417,0.07754219323396683
1789063973515047700,3.694047607421875,-0.5804396867752075,-0.07685376703739166,0.08624673634767532
1789063973525084700,3.704084716796875,-0.6570060849189758,0.04711717739701271,0.025363679975271225
1789063973535121700,3.71412158203125,-0.7410677075386047,-0.1306789219379425,0.07365717738866806
1789063973545158700,3.72415869140625,-0.8086504936218262,-0.17868000268936157,0.09626182168722153
1789063973555196700,3.73419677734375,-0.8637672662734985,-0.11914610117673874,-0.0005073322099633515
1789063973565233700,3.744233642578125,-0.9219030141830444,-0.11131773889064789,-0.0064802695997059345
1789063973575270700,3.754270751953125,-0.9765883684158325,-0.07658398896455765,-0.021329790353775024
1789063973585307600,3.7643076171875,-1.0088165998458862,-0.310712069272995,0.008392153307795525
1789063973595345000,3.774344970703125,-1.020729422569275,-0.22881267964839935,-0.009726396761834621
1789063973605381600,3.784381591796875,-1.0336878299713135,-0.3697516918182373,0.023446736857295036
1789063973615418600,3.794418701171875,-1.0547508001327515,-0.21553868055343628,-0.02051832526922226
1789063973625455600,3.80445556640625,-1.0935873985290527,-0.3205934464931488,-0.011508051306009293
1789063973635493000,3.8144931640625,-1.1082955598831177,-0.2916691303253174,0.000041811628761934116
1789063973645530000,3.824530029296875,-1.0942840576171875,-0.33235132694244385,-0.007510113995522261
1789063973655567000,3.834567138671875,-1.0550792217254639,-0.3281160891056061,0.00017869810108095407
1789063973665604000,3.84460400390625,-1.01749849319458,-0.2164822369813919,-0.0685708075761795
1789063973675641000,3.85464111328125,-1.0119823217391968,-0.3299640715122223,-0.030246052891016006
1789063973685679000,3.86467919921875,-1.0368881225585938,-0.3227362334728241,-0.021923141553997993
1789063973695716000,3.874716064453125,-1.0438874959945679,-0.3773163855075836,-0.011020426638424397
1789063973705753000,3.884753173828125,-1.0381678342819214,-0.3338192403316498,-0.0586867481470108
1789063973715790300,3.894790283203125,-1.00884211063385,-0.3664664030075073,-0.03375476598739624
1789063973725827300,3.904827392578125,-0.9713097214698792,-0.3639952540397644,-0.0034104441292583942
1789063973735864000,3.914864013671875,-0.9500688910484314,-0.3788312077522278,-0.03701101616024971
1789063973745901000,3.924901123046875,-0.9422929883003235,-0.35089942812919617,-0.04348835349082947
1789063973755938000,3.93493798828125,-0.9366806149482727,-0.3223796486854553,-0.06308761984109879
1789063973765975300,3.944975341796875,-0.9107462167739868,-0.3796274960041046,-0.033479396253824234
1789063973776012300,3.95501220703125,-0.8810448050498962,-0.373922199010849,-0.04442259296774864
1789063973786049000,3.965049072265625,-0.8500482439994812,-0.3738265931606293,-0.033730000257492065
1789063973796086000,3.9750859375,-0.830716609954834,-0.3577069938182831,-0.0263005793094635
1789063973806124300,3.985124267578125,-0.8266068696975708,-0.4033879339694977,0.020175309851765633
1789063973816161300,3.995161376953125,-0.8237543106079102,-0.3424611985683441,0.05988330766558647
1789063973826198000,4.005197998046875,-0.8264968395233154,-0.39533719420433044,0.08783397823572159
1789063973836235000,4.015235107421875,-0.8027334809303284,-0.3637497127056122,0.09269504994153976
1789063973846272300,4.025272216796875,-0.7915303707122803,-0.4742128551006317,0.11840520799160004
1789063973856309200,4.035309326171875,-0.7648233771324158,-0.36820492148399353,0.06642243266105652
1789063973866346200,4.04534619140625,-0.7769034504890442,-0.4320898950099945,0.07554802298545837
1789063973876383000,4.055383056640625,-0.788425087928772,-0.4749060571193695,0.08768830448389053
1789063973886420200,4.065420166015625,-0.7916555404663086,-0.38745343685150146,0.017016267403960228
1789063973896457200,4.075457275390625,-0.8056997060775757,-0.4428328275680542,0.06952980905771255
1789063973906494200,4.085494140625,-0.8091557025909424,-0.49857890605926514,0.0543452650308609
1789063973916531200,4.09553125,-0.7981041073799133,-0.47786563634872437,0.04457945376634598
1789063973926568200,4.105568115234375,-0.7552639842033386,-0.4611250162124634,0.05461637303233147
1789063973936606200,4.115606201171875,-0.7135055661201477,-0.4940078556537628,0.05745503678917885
1789063973946643200,4.125643310546875,-0.6929625272750854,-0.479611337184906,0.045756835490465164
1789063973956680000,4.135679931640625,-0.6817519068717957,-0.4569382667541504,0.02497539110481739
1789063973966717200,4.14571728515625,-0.6573408842086792,-0.4028199017047882,0.009060872718691826
1789063973976754200,4.155754150390625,-0.6058563590049744,-0.4070463180541992,-0.004787032026797533
1789063973986791200,4.165791259765625,-0.5385004878044128,-0.44140881299972534,-0.008272310718894005
1789063973996828200,4.175828125,-0.46241745352745056,-0.40834036469459534,0.00033928672201000154
1789063974006865200,4.185865234375,-0.42114803194999695,-0.4130469560623169,0.06311824917793274
1789063974016902100,4.195902099609375,-0.3790903389453888,-0.35486727952957153,0.041300833225250244
1789063974026939100,4.205939208984375,-0.3378150463104248,-0.34502238035202026,0.09021218121051788
1789063974036976000,4.21597607421875,-0.2830117344856262,-0.32000091671943665,0.1335090547800064
1789063974047013000,4.22601318359375,-0.22941668331623077,-0.33829763531684875,0.12508894503116608
1789063974057051100,4.236051025390625,-0.14591087400913239,-0.23549428582191467,0.08483153581619263
1789063974067088100,4.246088134765625,-0.0809294730424881,-0.2949349582195282,0.11269592493772507
1789063974077125000,4.256125,-0.023457389324903488,-0.22251883149147034,0.04878325015306473
1789063974087162400,4.266162353515625,0.012979447841644287,-0.21336740255355835,-0.01618136651813984
1789063974097199000,4.27619921875,0.054072555154561996,-0.1633998453617096,-0.015675099566578865
1789063974107236000,4.286236083984375,0.10147815197706223,-0.21074526011943817,-0.025859294459223747
1789063974117273000,4.296273193359375,0.14774419367313385,-0.128456249833107,-0.05210448056459427
1789063974127310000,4.30631005859375,0.1961311548948288,-0.09242580085992813,-0.04983120411634445
1789063974137347300,4.316347412109375,0.19636578857898712,-0.0653848648071289,-0.012034025974571705
1789063974147384000,4.326384033203125,0.20602107048034668,0.07195461541414261,0.01426602154970169
1789063974157421000,4.336421142578125,0.23950207233428955,-0.02605423703789711,0.07532831281423569
1789063974167458000,4.3464580078125,0.28194141387939453,0.04248008131980896,0.08050043135881424
1789063974177496300,4.356496337890625,0.3893775939941406,0.008582568727433681,0.109760582447052
1789063974187533000,4.366532958984375,0.5128276348114014,0.10393465310335159,0.1257707178592682
1789063974197570000,4.376570068359375,0.6077450513839722,0.012193016707897186,0.16071884334087372
1789063974207607300,4.386607177734375,0.6721328496932983,0.08631118386983871,0.1451880782842636
1789063974217644300,4.396644287109375,0.703684389591217,0.07427875697612762,0.1304677277803421
1789063974227681300,4.406681396484375,0.7395246624946594,0.17927761375904083,0.07520713657140732
1789063974237718000,4.416718017578125,0.7487519979476929,0.13377511501312256,0.03586265817284584
1789063974247755000,4.426755126953125,0.7380242347717285,0.20650124549865723,0.00872105360031128
1789063974257792300,4.436792236328125,0.7237600684165955,0.17231450974941254,-0.05218863487243652
1789063974267829200,4.446829345703125,0.6946038007736206,0.16209037601947784,-0.0388890765607357
1789063974277866200,4.4568662109375,0.6866140365600586,0.10016148537397385,-0.08676392585039139
1789063974287903000,4.466903076171875,0.651389479637146,0.1885978728532791,-0.0995795875787735
1789063974297941200,4.476941162109375,0.5852943658828735,0.17300507426261902,-0.12938781082630157
1789063974307978200,4.486978271484375,0.5019006729125977,0.1094316840171814,-0.03882462903857231
1789063974318015000,4.497014892578125,0.48135995864868164,0.17589274048805237,-0.02480228617787361
1789063974328052000,4.507052001953125,0.46804335713386536,0.07356370240449905,-0.00606428412720561
1789063974338089200,4.517089111328125,0.44801560044288635,0.12824052572250366,-0.008559399284422398
1789063974348126200,4.527126220703125,0.38819193840026855,0.03141864389181137,0.03909094259142876
1789063974358163200,4.5371630859375,0.32707053422927856,0.0693252757191658,0.0013520868960767984
1789063974368200000,4.547199951171875,0.25997936725616455,0.002162753138691187,-0.030968835577368736
1789063974378237200,4.5572373046875,0.18733660876750946,0.09464555233716965,-0.03430577740073204
1789063974388274200,4.567274169921875,0.10164166986942291,-0.018215755000710487,0.03928908333182335
1789063974398311200,4.577311279296875,0.03184102103114128,-0.0595107302069664,0.027780232951045036
1789063974408348200,4.58734814453125,0.020809408277273178,-0.06222795322537422,-0.030794130638241768
1789063974418386200,4.59738623046875,0.029924342408776283,-0.02171967551112175,-0.0031523837242275476
1789063974428423200,4.607423095703125,0.02046319656074047,-0.12343352288007736,0.041183121502399445
1789063974438460200,4.617460205078125,0.003553189570084214,-0.059838298708200455,0.01882774941623211
1789063974448497200,4.6274970703125,-0.03724457323551178,-0.09160102158784866,-0.02274392731487751
1789063974458534100,4.6375341796875,-0.0641571506857872,-0.045469481498003006,-0.05170127749443054
1789063974468571100,4.647571044921875,-0.056892842054367065,-0.012353605590760708,-0.11539903283119202
1789063974478608100,4.657608154296875,-0.05474233999848366,-0.0884888544678688,-0.0032447953708469868
1789063974488645000,4.66764501953125,-0.03351428359746933,-0.09878649562597275,0.010898986831307411
1789063974498682400,4.677682373046875,-0.02183632366359234,-0.12792068719863892,0.04586096480488777
1789063974508719000,4.687718994140625,0.026809776201844215,-0.027226028963923454,0.003777960315346718
1789063974518756000,4.697756103515625,0.07646600902080536,-0.016755543649196625,0.0447581484913826
1789063974528793000,4.70779296875,0.13440361618995667,0.03708265349268913,0.03586212545633316
1789063974538831400,4.717831298828125,0.15456800162792206,-0.030595991760492325,0.08283602446317673
1789063974548868000,4.7278681640625,0.17131155729293823,-0.008682438172399998,0.019726034253835678
1789063974558905000,4.737905029296875,0.16859327256679535,-0.014390923082828522,0.028247617185115814
1789063974568942000,4.747942138671875,0.1904948502779007,-0.016200274229049683,0.015386146493256092
1789063974578979300,4.757979248046875,0.2217198759317398,-0.04195117950439453,0.021142303943634033
1789063974589016300,4.768016357421875,0.28138986229896545,0.07526439428329468,0.0005161206354387105
1789063974599053000,4.778052978515625,0.29293733835220337,0.002573146251961589,-0.029355226084589958
1789063974609090000,4.788090087890625,0.33539023995399475,0.1033460944890976,-0.10614055395126343
1789063974619127000,4.798126953125,0.34406575560569763,0.08186503499746323,-0.0295546967536211
1789063974629164300,4.808164306640625,0.38736581802368164,0.06591616570949554,-0.047449540346860886
1789063974639201000,4.818200927734375,0.40844956040382385,0.02948465570807457,-0.027066504582762718
1789063974649237800,4.82823779296875,0.4259457290172577,0.10817813873291016,-0.08209220319986343
1789063974659276000,4.838276123046875,0.4133457541465759,0.09671109914779663,-0.009532518684864044
1789063974669313000,4.84831298828125,0.3882787525653839,0.10477754473686218,0.0505414716899395
1789063974679350000,4.85835009765625,0.3744380474090576,0.08304162323474884,0.06202901527285576
1789063974689386800,4.86838671875,0.39166444540023804,0.13271942734718323,0.017890583723783493
1789063974699424000,4.878424072265625,0.41409918665885925,0.10492508113384247,0.06427992135286331
1789063974709461000,4.8884609375,0.4172542095184326,0.1143348291516304,0.0029699571896344423
1789063974719498000,4.898498046875,0.3948671519756317,0.08540438115596771,0.030833013355731964
1789063974729535000,4.908534912109375,0.3635063171386719,0.10395222902297974,0.020836839452385902
1789063974739572000,4.918572021484375,0.36113741993904114,0.06592708826065063,-0.00503923324868083
1789063974749609000,4.92860888671875,0.3722473382949829,0.16146506369113922,-0.049542784690856934
1789063974759646000,4.93864599609375,0.3944927155971527,0.10414903610944748,-0.01221884973347187
1789063974769683700,4.94868359375,0.40004539489746094,0.1282447874546051,-0.020481573417782784
1789063974779721000,4.958720947265625,0.3909318149089813,0.10741753876209259,-0.018508169800043106
1789063974789758000,4.968758056640625,0.3791007101535797,0.13676290214061737,-0.06852926313877106
1789063974799795000,4.978794921875,0.3918018639087677,0.12681519985198975,-0.04368675872683525
1789063974809832000,4.98883203125,0.40023982524871826,0.13630618155002594,-0.04074157029390335
1789063974819869000,4.998868896484375,0.41694581508636475,0.12741680443286896,-0.051961734890937805
1789063974829906000,5.008906005859375,0.3874734342098236,0.0909554734826088,-0.027365311980247498
1789063974839943000,5.01894287109375,0.3531024158000946,0.10801275074481964,-0.021039504557847977
1789063974849980000,5.02897998046875,0.30776527523994446,0.08953520655632019,0.049980342388153076
1789063974860017200,5.03901708984375,0.30853360891342163,0.08145304769277573,0.07762395590543747
1789063974870054000,5.049053955078125,0.3352874517440796,0.1289137750864029,0.08208475261926651
1789063974880091000,5.0590908203125,0.36526933312416077,0.1543264538049698,0.10173434764146805
1789063974890129000,5.06912890625,0.36375531554222107,0.11839509010314941,0.16863055527210236
1789063974900166100,5.079166259765625,0.33054062724113464,0.10774963349103928,0.20424021780490875
1789063974910203000,5.089202880859375,0.2935410737991333,0.10537063330411911,0.16294844448566437
1789063974920239900,5.099239990234375,0.276562362909317,0.12262605130672455,0.1551823914051056
1789063974930276900,5.10927685546875,0.2677065432071686,0.11677375435829163,0.12946131825447083
1789063974940314000,5.119314208984375,0.24245737493038177,0.06220691651105881,0.11245250701904297
1789063974950351000,5.12935107421875,0.17892181873321533,0.07246248424053192,0.03664855659008026
1789063974960387800,5.139387939453125,0.12504713237285614,0.1194441020488739,-0.06674254685640335
1789063974970424800,5.1494248046875,0.08561956137418747,0.131297305226326,-0.11961162090301514
1789063974980461800,5.1594619140625,0.11421579122543335,0.09015759080648422,-0.17922940850257874
1789063974990499000,5.1694990234375,0.15021666884422302,0.1056252270936966,-0.2137032300233841
1789063975000536800,5.179536865234375,0.1553344577550888,0.04610491171479225,-0.1550830602645874
1789063975010573800,5.18957373046875,0.11700305342674255,0.12634648382663727,-0.1522345393896103
1789063975020611000,5.199611083984375,0.07243851572275162,0.12054159492254257,-0.14284610748291016
1789063975030648000,5.20964794921875,0.028084898367524147,0.10821462422609329,-0.04404495656490326
1789063975040685000,5.21968505859375,0.027876105159521103,0.1105363667011261,-0.010333064943552017
1789063975050721800,5.2297216796875,0.03983769565820694,0.07015059143304825,0.03507516160607338
1789063975060758800,5.2397587890625,0.03994075953960419,0.057726677507162094,0.06840489059686661
1789063975070796000,5.249796142578125,0.02365233190357685,0.07334692031145096,0.11009614169597626
1789063975080833000,5.2598330078125,-0.018144382163882256,0.01751880533993244,0.15671823918819427
1789063975090870000,5.2698701171875,-0.052252285182476044,0.08761933445930481,0.13722656667232513
1789063975100906800,5.27990673828125,-0.09531959146261215,0.08863745629787445,0.08213800936937332
1789063975110945000,5.289945068359375,-0.125152587890625,0.046111300587654114,0.08778125047683716
1789063975120982000,5.29998193359375,-0.15390807390213013,0.008055529557168484,0.08105970174074173
1789063975131018800,5.310018798828125,-0.16685102880001068,0.04483245313167572,0.017727598547935486
1789063975141056000,5.320055908203125,-0.19247198104858398,0.0015776565996930003,-0.024474183097481728
1789063975151093000,5.330093017578125,-0.20307588577270508,-0.006382798310369253,-0.05245228856801987
1789063975161130000,5.3401298828125,-0.21652138233184814,-0.018378473818302155,-0.07244996726512909
1789063975171167000,5.3501669921875,-0.21668703854084015,-0.06937907636165619,-0.04923465847969055
1789063975181204000,5.360203857421875,-0.24801406264305115,-0.014220747165381908,-0.06640645116567612
1789063975191241000,5.370240966796875,-0.28311294317245483,-0.024960210546851158,-0.04523352533578873
1789063975201278000,5.38027783203125,-0.3445472717285156,-0.04392031952738762,0.0007041397620923817
1789063975211315000,5.39031494140625,-0.3693234622478485,-0.04907966032624245,-0.008504805155098438
1789063975221353000,5.40035302734375,-0.4029325544834137,-0.10805909335613251,0.060264937579631805
1789063975231390000,5.410389892578125,-0.39935803413391113,-0.179377481341362,0.05209808796644211
1789063975241427000,5.420427001953125,-0.4055091440677643,-0.13191010057926178,0.06940064579248428
1789063975251464000,5.4304638671875,-0.42169106006622314,-0.2432488650083542,0.10266592353582382
1789063975261501000,5.4405009765625,-0.46211570501327515,-0.13441532850265503,0.0758577436208725
1789063975271538000,5.450537841796875,-0.4729129672050476,-0.1514691561460495,0.008259261026978493
1789063975281575000,5.460574951171875,-0.45502716302871704,-0.1232239305973053,0.0291762612760067
1789063975291612000,5.47061181640625,-0.4148070514202118,-0.21015723049640656,0.004867459647357464
1789063975301649000,5.48064892578125,-0.38225603103637695,-0.16601267457008362,-0.007099454756826162
1789063975311686100,5.49068603515625,-0.37561944127082825,-0.19687658548355103,-0.08497694134712219
1789063975321723000,5.500722900390625,-0.35057905316352844,-0.1713120937347412,-0.13342010974884033
1789063975331761000,5.510760986328125,-0.3307499587535858,-0.17193341255187988,-0.10040037333965302
1789063975341798000,5.5207978515625,-0.305104523897171,-0.15652969479560852,-0.09977453202009201
1789063975351835100,5.530835205078125,-0.2891247570514679,-0.09417097270488739,-0.1303798407316208
1789063975361872000,5.540871826171875,-0.23695476353168488,-0.13633254170417786,-0.08761054277420044
1789063975371908900,5.550908935546875,-0.17031580209732056,-0.11528690904378891,-0.030369624495506287
1789063975381945900,5.56094580078125,-0.09228092432022095,-0.13357298076152802,-0.0026234800461679697
1789063975391983000,5.570983154296875,-0.050212036818265915,-0.06082233786582947,0.013468937017023563
1789063975402020000,5.58102001953125,-0.028117388486862183,-0.08803611248731613,0.015029283240437508
1789063975412056800,5.591056884765625,0.004608334042131901,-0.0059870523400604725,0.025177791714668274
1789063975422093800,5.60109375,0.050326552242040634,-0.05897170677781105,0.06645625829696655
1789063975432131000,5.611131103515625,0.11236701905727386,-0.014572551473975182,0.06686398386955261
1789063975442168800,5.6211689453125,0.15187928080558777,-0.04602847620844841,0.08514632284641266
1789063975452205800,5.631205810546875,0.2016388475894928,0.09853669255971909,0.02791418880224228
1789063975462242800,5.641242919921875,0.23100045323371887,0.07150240987539291,-0.008921323344111443
1789063975472280000,5.651280029296875,0.2604598104953766,0.01714622974395752,0.052067726850509644
1789063975482317000,5.661317138671875,0.2668580710887909,-0.003224289044737816,0.08790428936481476
1789063975492353800,5.671353759765625,0.2806292772293091,0.0734928622841835,-0.04309846833348274
1789063975502390800,5.681390869140625,0.3005097508430481,0.13955922424793243,-0.08127941191196442
1789063975512428000,5.691427978515625,0.3264247179031372,0.056605756282806396,-0.024935975670814514
1789063975522465000,5.701465087890625,0.3463084101676941,0.07711422443389893,-0.014598117209970951
1789063975532502000,5.711501953125,0.3370419442653656,0.08963081985712051,-0.027179157361388206
1789063975542539000,5.7215390625,0.33891788125038147,0.18516212701797485,-0.02311037853360176
1789063975552577000,5.731576904296875,0.3363892138004303,0.12030217796564102,0.00012783173588104546
1789063975562614000,5.741614013671875,0.362607479095459,0.15572568774223328,0.004866394214332104
1789063975572651000,5.751651123046875,0.38412609696388245,0.1110311821103096,0.03780277073383331
1789063975582687700,5.761687744140625,0.41517722606658936,0.17759288847446442,-0.013880395330488682
1789063975592725000,5.77172509765625,0.41317158937454224,0.1747339963912964,-0.020613664761185646
1789063975602762000,5.781761962890625,0.4121612012386322,0.2092011570930481,0.008762865327298641
1789063975612799000,5.791799072265625,0.3956668972969055,0.18546493351459503,0.08319928497076035
1789063975622836000,5.8018359375,0.4152155816555023,0.24966149032115936,-0.012484366074204445
1789063975632873000,5.811873046875,0.4053642749786377,0.20896174013614655,0.01113494299352169
1789063975642909700,5.82190966796875,0.4033924639225006,0.2161024659872055,0.03326554596424103
1789063975652946700,5.83194677734375,0.39261120557785034,0.18161480128765106,0.050345730036497116
1789063975662985000,5.84198486328125,0.391253262758255,0.21341507136821747,-0.016994163393974304
1789063975673021700,5.852021728515625,0.4006994664669037,0.25773885846138,-0.039323169738054276
1789063975683058700,5.86205859375,0.42127400636672974,0.25363412499427795,-0.016632240265607834
1789063975693096000,5.872095947265625,0.4373624324798584,0.29728439450263977,-0.050103913992643356
1789063975703133000,5.8821328125,0.41635754704475403,0.24615678191184998,-0.08270153403282166
1789063975713170000,5.892169921875,0.4155663251876831,0.3284745514392853,-0.12435363978147507
1789063975723206700,5.90220654296875,0.37564021348953247,0.17556756734848022,-0.00660597113892436
1789063975733243600,5.91224365234375,0.3848448693752289,0.25798892974853516,-0.04836779832839966
1789063975743281000,5.922281005859375,0.392978698015213,0.23075944185256958,-0.03610926866531372
1789063975753318000,5.93231787109375,0.4009215831756592,0.2942982017993927,-0.013937653042376041
1789063975763355600,5.942355712890625,0.38173776865005493,0.269618421792984,0.06658009439706802
1789063975773393000,5.952392822265625,0.3555738031864166,0.23012560606002808,0.10805243253707886
1789063975783430000,5.962429931640625,0.35212767124176025,0.2936427891254425,0.09210675954818726
1789063975793467000,5.972466796875,0.3647891581058502,0.2810671031475067,0.107957623898983
1789063975803503900,5.98250390625,0.3674967885017395,0.26701945066452026,0.1713794767856598
1789063975813540900,5.992540771484375,0.3322887420654297,0.1795431226491928,0.19538094103336334
1789063975823577900,6.002577880859375,0.3127608299255371,0.27094441652297974,0.1461566835641861
1789063975833614800,6.01261474609375,0.27263739705085754,0.2584587037563324,0.156289204955101
1789063975843651800,6.02265185546875,0.2599908411502838,0.2596816420555115,0.10365502536296844
1789063975853688800,6.032688720703125,0.23640267550945282,0.2667344808578491,0.072596974670887
1789063975863726800,6.042726806640625,0.2225547730922699,0.23192431032657623,-0.025378327816724777
1789063975873763800,6.052763916015625,0.1904791295528412,0.2954047620296478,-0.1048571765422821
1789063975883800800,6.06280078125,0.15800881385803223,0.2162119299173355,-0.1827583611011505
1789063975893837800,6.072837890625,0.14801636338233948,0.2723580300807953,-0.21105152368545532
1789063975903874800,6.082874755859375,0.13636423647403717,0.1670563668012619,-0.18798774480819702
1789063975913911800,6.092911865234375,0.13530802726745605,0.27350690960884094,-0.17480961978435516
1789063975923948800,6.10294873046875,0.08993974328041077,0.18572299182415009,-0.1096750944852829
1789063975933985800,6.11298583984375,0.0656794086098671,0.2152731567621231,-0.01576937548816204
1789063975944022800,6.123022705078125,0.00794181227684021,0.174519881606102,0.06838198751211166
1789063975954059800,6.133059814453125,-0.006944458931684494,0.21749770641326904,0.09785838425159454
1789063975964096800,6.1430966796875,-0.05110419541597366,0.14570234715938568,0.21473707258701324
1789063975974135000,6.153135009765625,-0.06967788189649582,0.1006416529417038,0.20642241835594177
1789063975984171800,6.163171875,-0.09267587214708328,0.1424921602010727,0.15572035312652588
1789063975994208800,6.173208740234375,-0.12980593740940094,0.13986869156360626,0.08066076040267944
1789063976004245800,6.183245849609375,-0.16264323890209198,0.12333125621080399,0.0777943953871727
1789063976014282800,6.19328271484375,-0.2159314900636673,0.08948221057653427,0.044312071055173874
1789063976024320000,6.203320068359375,-0.2405577450990677,0.09348680824041367,-0.08438438922166824
1789063976034356700,6.213356689453125,-0.28959932923316956,0.030404778197407722,-0.10050423443317413
1789063976044393700,6.223393798828125,-0.31742429733276367,0.07142598181962967,-0.17146016657352448
1789063976054430700,6.2334306640625,-0.357671856880188,-0.03154194727540016,-0.16023866832256317
1789063976064468000,6.243468017578125,-0.386512815952301,-0.0326511524617672,-0.1334182471036911
1789063976074505700,6.253505615234375,-0.38199636340141296,-0.012256133370101452,-0.09150861203670502
1789063976084542700,6.263542724609375,-0.3651478886604309,0.0394643172621727,-0.09853136539459229
1789063976094580000,6.273580078125,-0.3343537449836731,0.0297927837818861,-0.03840650990605354
1789063976104617000,6.283616943359375,-0.337943434715271,0.06388630717992783,0.08705820143222809
1789063976114654000,6.293654052734375,-0.36175981163978577,-0.03936391696333885,0.10834937542676926
1789063976124690700,6.303690673828125,-0.3840549886226654,-0.02454316057264805,0.13474422693252563
1789063976134727700,6.313727783203125,-0.4182358682155609,-0.06066947057843208,0.17972928285598755
1789063976144765000,6.323764892578125,-0.460779070854187,-0.12322579324245453,0.2021714746952057
1789063976154802000,6.333802001953125,-0.5197291970252991,-0.12758858501911163,0.16791842877864838
1789063976164839000,6.3438388671875,-0.5326047539710999,-0.08980951458215714,0.12887835502624512
1789063976174875600,6.353875732421875,-0.5335614085197449,-0.13108718395233154,0.08484324812889099
1789063976184914000,6.363913818359375,-0.4992132782936096,-0.13440202176570892,-0.00917538907378912
1789063976194951000,6.373950927734375,-0.48666632175445557,-0.1419305056333542,-0.10100171715021133
1789063976204987600,6.383987548828125,-0.45416244864463806,-0.054250456392765045,-0.21417488157749176
1789063976215024600,6.394024658203125,-0.4682851731777191,-0.12410730123519897,-0.1785058230161667
1789063976225062000,6.404061767578125,-0.4875291883945465,-0.1305055469274521,-0.17363516986370087
1789063976235099000,6.414098876953125,-0.5182599425315857,-0.15075355768203735,-0.14706002175807953
1789063976245136000,6.424135986328125,-0.531322181224823,-0.128458634018898,-0.13095241785049438
1789063976255172600,6.434172607421875,-0.4881454408168793,-0.14454439282417297,-0.06472573429346085
1789063976265209900,6.4442099609375,-0.4581854045391083,-0.2208911031484604,0.046424224972724915
1789063976275246800,6.454246826171875,-0.4295990467071533,-0.1920139193534851,0.05964468792080879
1789063976285284900,6.464284912109375,-0.45199117064476013,-0.1648360937833786,0.1143241748213768
1789063976295321600,6.474321533203125,-0.47323334217071533,-0.1951252818107605,0.1389208734035492
1789063976305358800,6.48435888671875,-0.46009862422943115,-0.12840910255908966,0.12169740349054337
1789063976315395800,6.494395751953125,-0.44752609729766846,-0.18394532799720764,0.1487218290567398
1789063976325432800,6.504432861328125,-0.4095771312713623,-0.2396746426820755,0.14965713024139404
1789063976335469800,6.5144697265625,-0.39124393463134766,-0.24781513214111328,0.11356171220541
1789063976345506800,6.5245068359375,-0.37718138098716736,-0.2262035757303238,0.08599959313869476
1789063976355543800,6.534543701171875,-0.4079262316226959,-0.2805600166320801,0.062422629445791245
1789063976365580800,6.544580810546875,-0.4189610481262207,-0.2587633728981018,0.0007613977650180459
1789063976375617800,6.55461767578125,-0.4147375226020813,-0.2794840931892395,-0.03080984391272068
1789063976385655800,6.56465576171875,-0.35678476095199585,-0.22773276269435883,-0.10786281526088715
1789063976395692800,6.57469287109375,-0.2862189710140228,-0.21824924647808075,-0.13653041422367096
1789063976405729800,6.584729736328125,-0.2445407658815384,-0.19156517088413239,-0.12168062478303909
1789063976415766800,6.594766845703125,-0.2091553509235382,-0.1772024780511856,-0.10879731923341751
1789063976425803800,6.6048037109375,-0.22145675122737885,-0.18420685827732086,-0.0497470498085022
1789063976435840800,6.6148408203125,-0.2022646814584732,-0.20149530470371246,-0.03981772065162659
1789063976445877800,6.624877685546875,-0.17773669958114624,-0.1937718689441681,0.014221279881894588
1789063976455914800,6.634914794921875,-0.13375353813171387,-0.18493416905403137,0.036675721406936646
1789063976465952000,6.644951904296875,-0.10279562324285507,-0.19760175049304962,0.08572688698768616
1789063976475989000,6.654989013671875,-0.09096106886863708,-0.1772986203432083,0.14874739944934845
1789063976486026800,6.66502685546875,-0.08409277349710464,-0.1451452076435089,0.13222195208072662
1789063976496063700,6.675063720703125,-0.06448045372962952,-0.14831410348415375,0.12533661723136902
1789063976506101000,6.68510107421875,-0.01727885566651821,-0.09067903459072113,0.1291140466928482
1789063976516137700,6.6951376953125,0.012601546011865139,-0.11571168899536133,0.12607857584953308
1789063976526174700,6.7051748046875,0.028235899284482002,-0.10191038250923157,0.08075103908777237
1789063976536211700,6.715211669921875,0.03311347961425781,-0.0612013041973114,0.010753312148153782
1789063976546249000,6.7252490234375,0.0679662674665451,-0.09384633600711823,-0.018258633092045784
1789063976556286000,6.735285888671875,0.09976653754711151,-0.06337737292051315,-0.08838658779859543
1789063976566322700,6.74532275390625,0.12226226180791855,-0.03069106675684452,-0.2134464979171753
1789063976576359700,6.755359619140625,0.10470803827047348,-0.040775660425424576,-0.21944767236709595
1789063976586398000,6.76539794921875,0.09921953082084656,-0.07348726689815521,-0.22967101633548737
1789063976596435000,6.77543505859375,0.09331769496202469,-0.07042010128498077,-0.13382305204868317
1789063976606471700,6.7854716796875,0.1093968003988266,0.012606339529156685,-0.11666003614664078
1789063976616508700,6.7955087890625,0.1390383094549179,-0.05408240854740143,-0.04610144719481468
1789063976626546000,6.8055458984375,0.18242333829402924,-0.0571700781583786,0.07632672786712646
1789063976636583000,6.8155830078125,0.21546517312526703,0.07295170426368713,0.08034916967153549
1789063976646620200,6.8256201171875,0.2221481204032898,0.023851536214351654,0.17854072153568268
1789063976656657000,6.835656982421875,0.21470564603805542,0.0462159663438797,0.1598178893327713
1789063976666694000,6.84569384765625,0.2136574238538742,0.02239239029586315,0.14439606666564941
1789063976676731000,6.85573095703125,0.18146832287311554,0.009819074533879757,0.12601891160011292
1789063976686769000,6.865768798828125,0.1561882644891739,-0.007142864167690277,0.07659730315208435
1789063976696806000,6.875805908203125,0.10319162905216217,-0.04932307451963425,0.06064257398247719
1789063976706843000,6.8858427734375,0.07848202437162399,-0.05658445134758949,0.015516108833253384
1789063976716880000,6.8958798828125,0.07552351802587509,0.042936548590660095,-0.013431386090815067
1789063976726917000,6.905917236328125,0.057004164904356,0.038184668868780136,-0.03352440521121025
1789063976736953900,6.915953857421875,0.06874870508909225,0.03237338736653328,-0.08953547477722168
1789063976746990800,6.925990966796875,0.0717005506157875,0.08185039460659027,-0.11848989129066467
1789063976757027800,6.93602783203125,0.07635575532913208,0.01750921830534935,-0.10750622302293777
1789063976767065000,6.946065185546875,0.023639015853405,-0.0008383630774915218,-0.14720463752746582
1789063976777102000,6.95610205078125,-0.036849625408649445,-0.002016279147937894,-0.19930724799633026
1789063976787139800,6.966139892578125,-0.10787027329206467,0.01750708743929863,-0.16706354916095734
1789063976797176800,6.9761767578125,-0.165964737534523,-0.10269175469875336,-0.08330927044153214
1789063976807214000,6.986214111328125,-0.18109574913978577,-0.11874502897262573,-0.04152773693203926
1789063976817251000,6.9962509765625,-0.17852845788002014,-0.07252346724271774,0.00001704423084447626
1789063976827287800,7.006287841796875,-0.17580804228782654,-0.1036536917090416,0.06589911878108978
1789063976837324800,7.01632470703125,-0.1945609599351883,-0.035896748304367065,0.10353012382984161
1789063976847362000,7.026362060546875,-0.2312723696231842,-0.12012480944395065,0.12861549854278564
1789063976857399000,7.03639892578125,-0.2717958390712738,-0.1251099854707718,0.15042945742607117
1789063976867436000,7.04643603515625,-0.29192906618118286,-0.13898345828056335,0.06356219947338104
1789063976877472800,7.05647265625,-0.2761673927307129,-0.10449551790952682,-0.023190541192889214
1789063976887511000,7.066510986328125,-0.2825848162174225,-0.12585033476352692,-0.021816615015268326
1789063976897548000,7.076548095703125,-0.27574583888053894,-0.12546764314174652,-0.17193074524402618
1789063976907585000,7.0865849609375,-0.26837021112442017,-0.14440831542015076,-0.20560508966445923
1789063976917621800,7.096621826171875,-0.2505003809928894,-0.21486489474773407,-0.18508702516555786
1789063976927659000,7.106658935546875,-0.19193561375141144,-0.05077822506427765,-0.3141230344772339
1789063976937696000,7.116696044921875,-0.1507096141576767,-0.017952369526028633,-0.2932300269603729
1789063976947733000,7.12673291015625,-0.11957699805498123,-0.14745283126831055,-0.08278915286064148
1789063976957770000,7.13677001953125,-0.11435534060001373,-0.0796990916132927,-0.0201066005975008
1789063976967807000,7.146806884765625,-0.08482780307531357,-0.0970088392496109,0.08883586525917053
1789063976977844000,7.156843994140625,-0.06531429290771484,-0.018824022263288498,0.18884502351284027
1789063976987882000,7.166882080078125,-0.01673423871397972,-0.051235225051641464,0.24297749996185303
1789063976997918700,7.176918701171875,0.02034814842045307,-0.08339928835630417,0.3647763729095459
1789063977007956000,7.1869560546875,0.04604019597172737,-0.032167524099349976,0.3295730948448181
1789063977017993000,7.196992919921875,0.03755936026573181,-0.0013598100049421191,0.2238040715456009
1789063977028030000,7.207030029296875,0.029438050463795662,0.023991085588932037,0.13263900578022003
1789063977038067000,7.21706689453125,0.030727818608283997,-0.08201790601015091,0.05831789970397949
1789063977048104000,7.22710400390625,0.037512220442295074,-0.0637454241514206,-0.01721174456179142
1789063977058141000,7.237140869140625,0.029338181018829346,-0.11633885651826859,-0.17533347010612488
1789063977068178000,7.247177978515625,0.0565522238612175,0.06583040952682495,-0.35580363869667053
1789063977078215000,7.25721484375,0.058516837656497955,0.06145723536610603,-0.3093098998069763
1789063977088253000,7.2672529296875,0.04929031804203987,0.018440792337059975,-0.2330457717180252
1789063977098290000,7.2772900390625,0.046789877116680145,0.04725752770900726,-0.2364913672208786
1789063977108327000,7.287326904296875,0.060612745583057404,0.008156729862093925,-0.1805063933134079
1789063977118364000,7.297364013671875,0.09122258424758911,0.04483218491077423,-0.05179235711693764
1789063977128401200,7.307401123046875,0.10795709490776062,-0.0330415740609169,0.06160743907094002
1789063977138438000,7.31743798828125,0.1260809749364853,0.0035723643377423286,0.17161303758621216
1789063977148475000,7.327474853515625,0.10744976252317429,-0.01034531556069851,0.2615695595741272
1789063977158511900,7.337511962890625,0.13480974733829498,0.0809241458773613,0.23343592882156372
1789063977168549000,7.347549072265625,0.1391001045703888,0.01888553984463215,0.27358362078666687
1789063977178586000,7.357586181640625,0.15254932641983032,0.07584735751152039,0.1757798194885254
1789063977188624000,7.367623779296875,0.12714970111846924,0.10595732182264328,0.13980796933174133
1789063977198660900,7.377660888671875,0.08238355815410614,-0.01679815538227558,0.08083679527044296
1789063977208698000,7.387697998046875,0.03458753973245621,0.0025363946333527565,-0.012485431507229805
1789063977218735000,7.397735107421875,-0.026284601539373398,-0.06945497542619705,-0.07043422013521194
1789063977228771800,7.407771728515625,-0.030252976343035698,-0.020436830818653107,-0.19970804452896118
1789063977238808800,7.417808837890625,-0.014191718772053719,0.014119813218712807,-0.2396799623966217
1789063977248846000,7.42784619140625,0.01435363944619894,-0.08902308344841003,-0.20039275288581848
1789063977258883000,7.437883056640625,0.02851925976574421,0.024235831573605537,-0.17889705300331116
1789063977268920000,7.447920166015625,-0.025777535513043404,-0.0017800568602979183,-0.14135846495628357
1789063977278956800,7.457956787109375,-0.0994725301861763,-0.022492792457342148,-0.06881474703550339
1789063977288995000,7.4679951171875,-0.17257604002952576,-0.04795767366886139,0.047146473079919815
1789063977299032000,7.478031982421875,-0.19452473521232605,-0.09532465785741806,0.11206741631031036
1789063977309068800,7.48806884765625,-0.1714436560869217,-0.05016729608178139,0.12125319242477417
1789063977319105800,7.498105712890625,-0.13051512837409973,-0.17944379150867462,0.14142663776874542
1789063977329143000,7.50814306640625,-0.08714582026004791,-0.10003472119569778,0.14696867763996124
1789063977339180000,7.518179931640625,-0.09396697580814362,-0.11700811237096786,0.12376934289932251
1789063977349217000,7.528217041015625,-0.10635679960250854,-0.024754349142313004,0.044130176305770874
1789063977359253800,7.538253662109375,-0.13350160419940948,-0.024866733700037003,0.04583406820893288
1789063977369290800,7.548290771484375,-0.1239435151219368,-0.02340545691549778,-0.015813050791621208
1789063977379329000,7.5583291015625,-0.10952862352132797,-0.10211119055747986,-0.001630120910704136
1789063977389366000,7.568365966796875,-0.08423391729593277,-0.17479178309440613,-0.08006420731544495
1789063977399402800,7.57840283203125,-0.02810487151145935,-0.005486377980560064,-0.16051697731018066
1789063977409440000,7.58843994140625,-0.0082089276984334,-0.08265066891908646,-0.08816234767436981
1789063977419477000,7.59847705078125,0.004434163216501474,-0.03852076083421707,-0.08535803854465485
1789063977429514000,7.608513916015625,0.008448079228401184,0.014959774911403656,-0.11701396852731705
1789063977439551000,7.618551025390625,0.045339252799749374,0.005395564250648022,-0.053521815687417984
1789063977449588000,7.628587890625,0.0973699614405632,-0.023318106308579445,0.011741344816982746
1789063977459625000,7.638625,0.1647958755493164,0.003306314582005143,0.012900885194540024
1789063977469662000,7.648661865234375,0.2080482691526413,0.004179564770311117,0.08571650087833405
1789063977479700000,7.658699951171875,0.17277364432811737,-0.05323472619056702,0.12434565275907516
1789063977489737000,7.668737060546875,0.14614228904247284,0.026641463860869408,0.07791797071695328
1789063977499774000,7.67877392578125,0.10660846531391144,0.045334190130233765,0.11162266880273819
1789063977509811000,7.68881103515625,0.12932522594928741,0.018304971978068352,0.07761969417333603
1789063977519848000,7.698847900390625,0.1928485482931137,0.030229007825255394,0.08925610780715942
1789063977529885000,7.708885009765625,0.23705382645130157,-0.01884346269071102,0.11485947668552399
1789063977539922000,7.718921875,0.24839329719543457,-0.012379171326756477,0.06756626069545746
1789063977549959000,7.728958984375,0.2065180242061615,0.03954261541366577,0.053951382637023926
1789063977559996000,7.738995849609375,0.16742175817489624,0.04469423368573189,0.002478603972122073
1789063977570033000,7.749032958984375,0.12681466341018677,0.06544718146324158,-0.020369986072182655
1789063977580071000,7.75907080078125,0.08051082491874695,0.007632886059582233,-0.05362514406442642
1789063977590108000,7.76910791015625,0.06635372340679169,0.030044717714190483,-0.11972533166408539
1789063977600145000,7.779144775390625,0.0557362325489521,-0.027574103325605392,-0.1138666495680809
1789063977610182100,7.78918212890625,0.09341596812009811,-0.00971760880202055,-0.1680486649274826
1789063977620219000,7.799218994140625,0.11954104155302048,-0.028794096782803535,-0.11722835898399353
1789063977630255900,7.809255859375,0.11796951293945312,0.012827381491661072,-0.09826238453388214
1789063977640293600,7.819293701171875,0.10647983849048615,0.0228579118847847,-0.009688845835626125
1789063977650330600,7.82933056640625,0.07290243357419968,0.006042978726327419,0.05688059329986572
1789063977660367600,7.83936767578125,0.0898079201579094,0.05368959531188011,0.016224242746829987
1789063977670404400,7.849404296875,0.0917176678776741,0.00920495018362999,0.08009536564350128
1789063977680442600,7.859442626953125,0.09229637682437897,0.008840363472700119,0.11123038083314896
1789063977690479600,7.869479736328125,0.0839601457118988,-0.050524692982435226,0.09503304213285446
1789063977700516400,7.879516357421875,0.07549609243869781,0.02966361865401268,0.058822568506002426
1789063977710553600,7.8895537109375,0.08324428647756577,-0.010007360018789768,-0.007262174040079117
1789063977720590600,7.899590576171875,0.093461774289608,0.04752543941140175,-0.046851661056280136
1789063977730627600,7.909627685546875,0.07452642917633057,-0.07518663257360458,-0.02412530966103077
1789063977740664600,7.91966455078125,0.06989306211471558,-0.0062549663707613945,-0.09098423272371292
1789063977750701300,7.929701416015625,0.027523236349225044,-0.009980196133255959,-0.10052261501550674
1789063977760738600,7.939738525390625,0.019150791689753532,-0.014570953324437141,-0.08950191736221313
1789063977770775600,7.949775634765625,0.03150785714387894,-0.0016431703697890043,-0.07237432897090912
1789063977780813600,7.9598134765625,0.06761206686496735,-0.0070275492034852505,-0.03257392346858978
1789063977790850600,7.9698505859375,0.10170851647853851,-0.04913904890418053,0.09394966810941696
1789063977800887600,7.979887451171875,0.10020436346530914,-0.07751502841711044,0.08153320848941803
1789063977810924500,7.989924560546875,0.09982380270957947,0.028688369318842888,0.012026835232973099
1789063977820961500,7.99996142578125,0.0662490576505661,0.024333834648132324,0.09793481975793839
1789063977830998500,8.00999853515625,0.06181037053465843,-0.009222793392837048,0.12067048996686935
1789063977841035500,8.020035400390626,0.049613360315561295,-0.01666233316063881,0.18805059790611267
1789063977851072500,8.030072509765626,0.020448017865419388,-0.04923998564481735,0.12381382286548615
1789063977861109500,8.040109619140624,0.013206616044044495,-0.03460298478603363,0.021529261022806168
1789063977871146500,8.050146484375,-0.0016620787791907787,-0.07283265888690948,0.016636233776807785
1789063977881184500,8.0601845703125,-0.010848119854927063,-0.09668979048728943,-0.010811102576553822
1789063977891221500,8.070221435546875,-0.015140336938202381,-0.08147168904542923,-0.08324988186359406
1789063977901258500,8.080258544921875,0.028389563784003258,-0.0035665053874254227,-0.19739988446235657
1789063977911295500,8.09029541015625,0.07258045673370361,0.022588400170207024,-0.17726559937000275
1789063977921332500,8.10033251953125,0.08329515904188156,0.009365006349980831,-0.15012133121490479
1789063977931369500,8.110369384765624,0.08114118874073029,0.023858461529016495,-0.17477740347385406
1789063977941406500,8.120406494140624,0.048893507570028305,-0.030611438676714897,-0.1222446858882904
1789063977951443500,8.130443359375,0.057983409613370895,0.019772905856370926,-0.12111923098564148
1789063977961480700,8.140480712890625,0.05680708959698677,-0.023152723908424377,-0.05161365866661072
1789063977971517400,8.150517333984375,0.05814692750573158,0.0016801883466541767,0.007641141768544912
1789063977981555500,8.160555419921875,0.040950361639261246,-0.01503940299153328,0.09892045706510544
1789063977991592700,8.1705927734375,0.019267171621322632,-0.004972121678292751,0.14838574826717377
1789063978001629700,8.180629638671874,0.011926434002816677,-0.05276893824338913,0.1594407856464386
1789063978011666400,8.19066650390625,0.01576138660311699,0.04271870106458664,0.1700739860534668
1789063978021703400,8.200703369140625,0.00600409647449851,-0.02346937358379364,0.17163807153701782
1789063978031740400,8.210740478515625,-0.019568374380469322,-0.02719699963927269,0.17757637798786163
1789063978041777700,8.220777587890625,-0.06972581893205643,-0.029142972081899643,0.06597502529621124
1789063978051814700,8.230814697265625,-0.09220343083143234,-0.07168936729431152,0.0003057308786083013
1789063978061851400,8.240851318359375,-0.09902191907167435,-0.04566974937915802,-0.02941914089024067
1789063978071889700,8.2508896484375,-0.06606610119342804,-0.09844641387462616,-0.09588578343391418
1789063978081926700,8.2609267578125,-0.052019789814949036,-0.13185204565525055,-0.10269229114055634
1789063978091963600,8.270963623046875,-0.06193633750081062,-0.04685938358306885,-0.14661180973052979
1789063978102000400,8.28100048828125,-0.0932585746049881,-0.03708371892571449,-0.11055660247802734
1789063978112037400,8.291037353515625,-0.15340180695056915,-0.03490152582526207,-0.07069440931081772
1789063978122074600,8.30107470703125,-0.13588273525238037,-0.08480969816446304,-0.060267601162195206
1789063978132111600,8.311111572265625,-0.09451904892921448,-0.053886134177446365,-0.02532453089952469
1789063978142148600,8.321148681640626,-0.044562142342329025,-0.07377728819847107,-0.039987631142139435
1789063978152185300,8.331185302734376,-0.041733331978321075,-0.09484688192605972,0.012369584292173386
1789063978162222600,8.34122265625,-0.10001900792121887,-0.11310818046331406,0.09389746934175491
1789063978172260600,8.351260498046875,-0.12343112379312515,-0.0737871378660202,0.08272603899240494
1789063978182297300,8.36129736328125,-0.14161279797554016,-0.056126918643713,0.13817518949508667
1789063978192334300,8.371334228515625,-0.12530305981636047,-0.051062118262052536,0.08623315393924713
1789063978202371600,8.38137158203125,-0.09450306743383408,-0.115672267973423,0.061765894293785095
1789063978212408600,8.39140869140625,-0.07013913989067078,-0.1189253181219101,0.0695180892944336
1789063978222445600,8.401445556640626,-0.027790619060397148,-0.09345165640115738,-0.03304849565029144
1789063978232482600,8.411482666015624,-0.02653280831873417,-0.031213579699397087,-0.1503748595714569
1789063978242519600,8.42151953125,-0.030485205352306366,-0.03207750990986824,-0.2009299099445343
1789063978252556500,8.431556640625,-0.0532994419336319,-0.09329026937484741,-0.13142140209674835
1789063978262593500,8.441593505859375,-0.055929046124219894,-0.07688412815332413,-0.16850538551807404
1789063978272631600,8.451631591796875,-0.033488716930150986,-0.10844152420759201,-0.20443782210350037
1789063978282668500,8.46166845703125,-0.004496481269598007,-0.019272496923804283,-0.1291702389717102
1789063978292705500,8.47170556640625,0.039802275598049164,-0.02130688726902008,-0.026998328045010567
1789063978302742500,8.481742431640624,0.07534348964691162,-0.08163254708051682,0.10693470388650894
1789063978312779500,8.491779541015624,0.10606704652309418,-0.04334054887294769,0.14769305288791656
1789063978322816500,8.50181640625,0.1553983837366104,-0.033240243792533875,0.12724557518959045
1789063978332853500,8.511853515625,0.2282363623380661,0.04717683419585228,0.09135308116674423
1789063978342890500,8.521890380859375,0.2776334881782532,0.02172127366065979,0.20224018394947052
1789063978352927500,8.531927490234375,0.2980913519859314,-0.020970262587070465,0.21444572508335114
1789063978362964700,8.54196484375,0.33506959676742554,0.09147106111049652,0.09737688302993774
1789063978373002500,8.55200244140625,0.37864771485328674,0.11784833669662476,0.04203986003994942
1789063978383039500,8.56203955078125,0.43909773230552673,0.14727839827537537,0.05816956236958504
1789063978393076500,8.572076416015625,0.46826493740081787,0.11509303003549576,0.03657399117946625
1789063978403113700,8.58211376953125,0.46705105900764465,0.1530044674873352,-0.07268299162387848
1789063978413150500,8.592150390625,0.4558753967285156,0.19237662851810455,-0.09639817476272583
1789063978423187500,8.6021875,0.4711395502090454,0.23161378502845764,-0.13165417313575745
1789063978433224400,8.612224365234376,0.5342870950698853,0.2584182322025299,-0.14633670449256897
1789063978443261700,8.62226171875,0.5776202082633972,0.25311800837516785,-0.101457379758358
1789063978453298700,8.632298583984374,0.5977994799613953,0.25826191902160645,-0.09713054448366165
1789063978463335400,8.64233544921875,0.575924277305603,0.23583276569843292,-0.019533220678567886
1789063978473373400,8.65237353515625,0.5623533725738525,0.266368567943573,0.02833709865808487
1789063978483410700,8.66241064453125,0.5461666584014893,0.26551663875579834,0.06703443080186844
1789063978493447400,8.672447509765625,0.5248826742172241,0.3403961956501007,0.06874018162488937
1789063978503484400,8.682484375,0.49170181155204773,0.23960433900356293,0.09011364728212357
1789063978513521400,8.692521484375,0.45827168226242065,0.29525214433670044,0.045037783682346344
1789063978523558700,8.70255859375,0.4368574917316437,0.26270991563796997,0.016476711258292198
1789063978533595600,8.712595703125,0.4127121865749359,0.1911473274230957,0.005678392015397549
1789063978543632400,8.72263232421875,0.38001126050949097,0.27658605575561523,-0.027108583599328995
1789063978553669400,8.73266943359375,0.3330317437648773,0.21878933906555176,-0.05717886611819267
1789063978563706600,8.74270654296875,0.28678756952285767,0.24708248674869537,-0.039860330522060394
1789063978573744600,8.75274462890625,0.2587333023548126,0.19562062621116638,-0.06968320906162262
1789063978583781400,8.762781494140626,0.24797438085079193,0.21666279435157776,-0.07745563983917236
1789063978593818400,8.772818359375,0.2057369202375412,0.15914331376552582,-0.010936803184449673
1789063978603855600,8.782855712890624,0.17471002042293549,0.20025719702243805,-0.06704268604516983
1789063978613892600,8.792892578125,0.1487327516078949,0.23454059660434723,-0.08369223028421402
1789063978623929600,8.8029296875,0.12928102910518646,0.18056897819042206,-0.006906109396368265
1789063978633966300,8.81296630859375,0.11467571556568146,0.17680592834949493,0.027093669399619102
1789063978644003300,8.82300341796875,0.08623475581407547,0.14372654259204865,0.09193285554647446
1789063978654040300,8.833040283203125,0.035234421491622925,0.0954628735780716,0.13625717163085938
1789063978664078300,8.843078369140626,-0.022116487845778465,0.15258288383483887,0.10682950913906097
1789063978674115300,8.853115234375,-0.05750963091850281,0.1221751794219017,0.09602213650941849
1789063978684152300,8.86315234375,-0.05193377286195755,0.07438421994447708,0.17169585824012756
1789063978694189300,8.873189208984375,-0.06208441033959389,0.045349106192588806,0.19308850169181824
1789063978704226300,8.883226318359375,-0.07859653979539871,-0.006446714047342539,0.09532944858074188
1789063978714263300,8.89326318359375,-0.0868467465043068,0.14360909163951874,-0.0235306266695261
1789063978724300300,8.90330029296875,-0.0905059278011322,0.12702693045139313,-0.07711289077997208
1789063978734337300,8.913337158203126,-0.09036904573440552,0.10320121794939041,-0.10495784133672714
1789063978744374300,8.923374267578126,-0.09352275729179382,0.039864856749773026,-0.11428049951791763
1789063978754411300,8.933411376953124,-0.09056106209754944,0.025296302512288094,-0.14895619451999664
1789063978764449300,8.94344921875,-0.07314904779195786,0.02310132421553135,-0.1571347564458847
1789063978774486300,8.953486328125,-0.05486990511417389,0.04897526651620865,-0.15624472498893738
1789063978784523300,8.963523193359375,-0.03471004217863083,0.1059432104229927,-0.09951327741146088
1789063978794560500,8.973560546875,-0.04002011939883232,0.04236077144742012,0.014378140680491924
1789063978804597500,8.983597412109376,-0.025107750669121742,0.06408151239156723,0.05321555212140083
1789063978814634200,8.99363427734375,0.010553308762609959,0.1348385065793991,0.02197027951478958
1789063978824671200,9.003671142578124,0.030117422342300415,0.10513840615749359,0.06511881202459335
1789063978834708200,9.013708251953124,0.05506724491715431,0.035526834428310394,0.11785686016082764
1789063978844745500,9.023745361328125,0.06124897673726082,0.05290982127189636,0.1380169838666916
1789063978854782500,9.033782470703125,0.03665654733777046,0.04537200927734375,0.10479246079921722
1789063978864820200,9.0438203125,0.022361498326063156,0.05933895707130432,0.05965001508593559
1789063978874857500,9.053857421875,0.042809516191482544,0.09432277083396912,0.018577944487333298
1789063978884894500,9.06389453125,0.09653479605913162,0.09197572618722916,0.0012298477813601494
1789063978894931200,9.07393115234375,0.13336977362632751,0.11292947828769684,-0.017374463379383087
1789063978904968200,9.08396826171875,0.10611019283533096,0.0471307598054409,-0.0293701384216547
1789063978915005200,9.094005126953125,0.04440634697675705,0.1050286814570427,-0.048708416521549225
1789063978925042400,9.10404248046875,-0.027391677722334862,0.06389375776052475,-0.0414758026599884
1789063978935079400,9.114079345703125,-0.02375832572579384,0.08197475969791412,-0.08463392406702042
1789063978945116200,9.1241162109375,0.02979411371052265,0.136339470744133,-0.09826958179473877
1789063978955153200,9.134153076171875,0.07945381104946136,0.07315037399530411,-0.06154245510697365
1789063978965191400,9.14419140625,0.10681326687335968,0.07018841058015823,-0.011127752251923084
1789063978975228400,9.154228515625,0.08013291656970978,0.07326995581388474,0.024501614272594452
1789063978985265200,9.16426513671875,0.0660618394613266,0.148631289601326,-0.03671567142009735
1789063978995302100,9.17430224609375,0.06042126566171646,0.1900639533996582,0.0023126890882849693
1789063979005339400,9.18433935546875,0.05136731639504433,0.07579995691776276,0.10772433131933212
1789063979015376400,9.19437646484375,0.07642659544944763,0.09248252958059311,0.08821694552898407
1789063979025413400,9.204413330078125,0.08759722858667374,0.0826147198677063,0.07030345499515533
1789063979035450000,9.2144501953125,0.0824754387140274,0.10729849338531494,-0.02022404596209526
1789063979045487400,9.2244873046875,0.08305627107620239,0.15019163489341736,-0.055028099566698074
1789063979055524400,9.2345244140625,0.06347617506980896,0.13629712164402008,-0.040584444999694824
1789063979065562400,9.244562255859375,0.07377781718969345,0.10165365785360336,-0.039803605526685715
1789063979075599400,9.254599365234375,0.08537694811820984,0.11478836834430695,-0.03380749747157097
1789063979085636400,9.26463623046875,0.07879334688186646,0.10183422267436981,-0.09975855052471161
1789063979095673300,9.27467333984375,0.0764060914516449,0.15981416404247284,-0.16047117114067078
1789063979105710300,9.28471044921875,0.037339914590120316,0.06029636412858963,-0.05820285156369209
1789063979115747300,9.294747314453126,0.01497894898056984,0.07762954384088516,-0.012181831523776054
1789063979125784300,9.304784423828124,0.002210689941421151,0.07733766734600067,0.013775200583040714
1789063979135821300,9.3148212890625,0.0028692898340523243,0.10962103307247162,0.03020503930747509
1789063979145858300,9.3248583984375,-0.006689061876386404,0.01648177206516266,0.11204317957162857
1789063979155895300,9.334895263671875,-0.0337638221681118,0.10505104809999466,0.16103415191173553
1789063979165933300,9.344933349609375,-0.0970945879817009,-0.026089124381542206,0.20264364778995514
1789063979175970300,9.35497021484375,-0.11428236961364746,0.021808359771966934,0.1965964138507843
1789063979186007300,9.36500732421875,-0.13363368809223175,-0.013343501836061478,0.2095918357372284
1789063979196044300,9.375044189453124,-0.13134923577308655,-0.03873887285590172,0.17048119008541107
1789063979206081300,9.385081298828124,-0.17611990869045258,-0.039261918514966965,0.06787518411874771
1789063979216118300,9.3951181640625,-0.20308467745780945,0.029029253870248795,-0.06031340733170509
1789063979226155300,9.4051552734375,-0.21613895893096924,-0.014165886677801609,-0.11307276040315628
1789063979236192300,9.415192138671875,-0.21142622828483582,-0.050814446061849594,-0.15505483746528625
1789063979246229500,9.4252294921875,-0.1955026537179947,-0.015052985399961472,-0.2692338526248932
1789063979256266200,9.435266357421876,-0.2004055380821228,-0.0668749064207077,-0.27130234241485596
1789063979266304300,9.44530419921875,-0.22924144566059113,-0.1009356677532196,-0.1951335370540619
1789063979276341500,9.455341552734374,-0.22960150241851807,-0.05552664026618004,-0.15348462760448456
1789063979286378500,9.46537841796875,-0.21703404188156128,-0.03477662429213524,-0.06997908651828766
1789063979296415200,9.475415283203125,-0.18680636584758759,0.0035079156514257193,0.01770203188061714
1789063979306452200,9.4854521484375,-0.13734027743339539,-0.0417674221098423,0.05976080149412155
1789063979316489200,9.4954892578125,-0.11295212060213089,0.023686153814196587,0.0889623612165451
1789063979326526500,9.5055263671875,-0.103118397295475,0.029033515602350235,0.08454684168100357
1789063979336563500,9.5155634765625,-0.12651106715202332,-0.08328423649072647,0.1019013300538063
1789063979346600200,9.52560009765625,-0.14057256281375885,0.004554005339741707,0.05101711302995682
1789063979356637200,9.53563720703125,-0.1425880342721939,-0.029564550146460533,0.008901349268853664
1789063979366675500,9.545675537109375,-0.16058142483234406,-0.026737337931990623,-0.026985811069607735
1789063979376712400,9.55571240234375,-0.1574287712574005,-0.077481210231781,-0.037877608090639114
1789063979386749200,9.565749267578125,-0.1484067738056183,-0.024096548557281494,-0.01907595619559288
1789063979396786200,9.5757861328125,-0.13524384796619415,-0.0429203025996685,-0.01738138683140278
1789063979406823400,9.585823486328126,-0.10663430392742157,-0.021281586959958076,-0.0003382214636076242
1789063979416860400,9.5958603515625,-0.09472624212503433,-0.020897824317216873,0.05626273900270462
1789063979426897400,9.6058974609375,-0.07625722140073776,0.051172640174627304,0.00384374032728374
1789063979436934100,9.61593408203125,-0.06338988989591599,0.0006186523241922259,0.025589516386389732
1789063979446971400,9.625971435546875,-0.06681684404611588,-0.034892737865448,0.060319531708955765
1789063979457008400,9.63600830078125,-0.07699784636497498,-0.04247448965907097,0.040296558290719986
1789063979467046100,9.646046142578125,-0.11620517075061798,-0.03014724887907505,0.04910043254494667
1789063979477083100,9.656083251953126,-0.1302858293056488,-0.05783959850668907,0.03292519226670265
1789063979487120400,9.666120361328124,-0.10552216321229935,-0.012200207449495792,-0.019835490733385086
1789063979497157400,9.676157470703124,-0.09234005212783813,-0.00041678472189232707,-0.00962919183075428
1789063979507194400,9.6861943359375,-0.051778774708509445,0.03970187157392502,-0.07885593175888062
1789063979517231000,9.696231201171875,-0.02779700979590416,-0.02822205051779747,-0.08083279430866241
1789063979527268400,9.706268310546875,-0.05686274915933609,0.02508777566254139,-0.08064530789852142
1789063979537305300,9.716305419921875,-0.10302198678255081,0.01593848690390587,-0.13699087500572205
1789063979547342300,9.72634228515625,-0.16872110962867737,0.01997717097401619,-0.12757234275341034
1789063979557379300,9.73637939453125,-0.19688349962234497,-0.07360844314098358,-0.0991406962275505
1789063979567417300,9.746417236328124,-0.1685117781162262,-0.10593122988939285,-0.03285275399684906
1789063979577454300,9.756454345703125,-0.1585206687450409,-0.0741109773516655,0.049672480672597885
1789063979587491300,9.7664912109375,-0.15044569969177246,-0.060864150524139404,0.02263527177274227
1789063979597528300,9.7765283203125,-0.1589379906654358,-0.0261240117251873,0.08192256093025208
1789063979607565300,9.7865654296875,-0.16358919441699982,0.030828751623630524,0.12794890999794006
1789063979617602300,9.796602294921875,-0.15599572658538818,-0.06035228818655014,0.16333593428134918
1789063979627639300,9.806639404296876,-0.15299034118652344,-0.09597393125295639,0.13970543444156647
1789063979637676300,9.81667626953125,-0.1313662827014923,-0.05224855616688728,0.03266739845275879
1789063979647713000,9.826713134765624,-0.1288623809814453,-0.05318412557244301,0.02774640917778015
1789063979657750000,9.83675,-0.13659965991973877,-0.045048702508211136,0.0105903260409832
1789063979667786800,9.846786865234375,-0.12469106912612915,-0.08641158789396286,-0.024983912706375122
1789063979677825000,9.856824951171875,-0.0981111228466034,-0.01888394169509411,-0.06106735020875931
1789063979687862000,9.866862060546875,-0.0774465873837471,-0.05090499296784401,-0.06813404709100723
1789063979697898800,9.876898681640625,-0.06906402111053467,-0.016390424221754074,-0.1360854059457779
1789063979707935700,9.886935791015626,-0.10357806086540222,-0.031745411455631256,-0.0737043172121048
1789063979717973000,9.896972900390624,-0.11310471594333649,-0.058526426553726196,-0.00418489146977663
1789063979728010000,9.907010009765624,-0.08032573014497757,-0.017226656898856163,-0.014838600531220436
1789063979738047000,9.917046875,-0.046543266624212265,0.004779841285198927,0.00016724651504773647
1789063979748083700,9.927083740234375,-0.0054357778280973434,-0.00791544746607542,0.07236847281455994
1789063979758121000,9.937120849609375,0.004226436838507652,-0.015558186918497086,0.14343465864658356
1789063979768159000,9.947158935546875,0.003459978848695755,0.005848035216331482,0.1275015026330948
1789063979778196000,9.957196044921876,0.002302302746102214,0.05867716297507286,0.09150461852550507
1789063979788232700,9.967232666015626,-0.01381221879273653,0.042641203850507736,0.11604324728250504
1789063979798270000,9.97727001953125,-0.01822827197611332,0.021765217185020447,0.05301261693239212
1789063979808307000,9.987306884765625,-0.01386681292206049,-0.02395007386803627,-0.0027238810434937477
1789063979818344000,9.997343994140625,-0.004431233741343021,0.05083362013101578,-0.07403934001922607
1789063979828381000,10.007380859375,-0.005494900047779083,0.01630813255906105,-0.11152945458889008
1789063979838418000,10.01741796875,-0.03327566385269165,-0.01774437539279461,-0.09813535213470459
1789063979848455000,10.027454833984375,-0.05450505390763283,0.006318349856883287,-0.12606579065322876
1789063979858492000,10.037491943359376,-0.05459453538060188,-0.03423307090997696,-0.11937645822763443
1789063979868530000,10.047530029296874,-0.0572182834148407,0.010579673573374748,-0.060445498675107956
1789063979878567000,10.05756689453125,-0.034821365028619766,-0.002508165081962943,-0.035348668694496155
1789063979888604000,10.06760400390625,-0.03881104663014412,-0.024574851617217064,0.04887166991829872
1789063979898641000,10.077640869140625,-0.05619749054312706,-0.009068862535059452,0.11798921972513199
1789063979908678000,10.087677978515625,-0.06456754356622696,-0.02340971864759922,0.10369816422462463
1789063979918715000,10.09771484375,-0.06935590505599976,-0.029397569596767426,0.08925903588533401
1789063979928751900,10.107751953125,-0.07707454264163971,-0.039812128990888596,0.12190300226211548
1789063979938788900,10.117788818359376,-0.07715097814798355,-0.07066058367490768,0.1300666630268097
1789063979948825900,10.127825927734374,-0.10194180905818939,-0.08637537062168121,0.13746517896652222
1789063979958863000,10.137863037109375,-0.10422174632549286,-0.05757434666156769,0.08692717552185059
1789063979968899800,10.14789990234375,-0.09844827651977539,-0.099849633872509,0.0510978065431118
1789063979978937900,10.157937744140625,-0.09379839897155762,-0.025949841365218163,0.03680994734168053
1789063979988974800,10.167974853515625,-0.10218842327594757,-0.06788690388202667,-0.03173103183507919
1789063979999012000,10.17801220703125,-0.09500055015087128,-0.016812002286314964,-0.10595759004354477
1789063980009048800,10.188048828125,-0.08834956586360931,-0.016934774816036224,-0.13984765112400055
1789063980019085800,10.1980859375,-0.07061611115932465,-0.0975036546587944,-0.1453060656785965
1789063980029122800,10.208122802734374,-0.07084327936172485,-0.026799390092492104,-0.14972957968711853
1789063980039160000,10.21816015625,-0.09082444757223129,-0.12281034141778946,-0.1086905300617218
1789063980049197000,10.228197021484375,-0.08692611008882523,-0.07535360753536224,-0.09539416432380676
1789063980059233800,10.23823388671875,-0.06681019067764282,-0.03725336119532585,-0.045939262956380844
1789063980069270800,10.248270751953125,-0.05970567464828491,-0.08892960846424103,0.027780763804912567
1789063980079309000,10.25830908203125,-0.03677745535969734,-0.04062439128756523,0.048769935965538025
1789063980089346000,10.268345947265624,-0.03892849013209343,-0.04430434852838516,0.06983420997858047
1789063980099382800,10.2783828125,-0.02816639095544815,-0.07039134204387665,0.07909189164638519
1789063980109419800,10.288419677734375,-0.010904579423367977,-0.029625803232192993,0.040469661355018616
1789063980119457000,10.29845703125,-0.019099125638604164,-0.10915045440196991,0.06266524642705917
1789063980129494000,10.308493896484375,0.011098457500338554,-0.05391276627779007,-0.023570040240883827
1789063980139531000,10.318531005859375,0.020373981446027756,-0.018752915784716606,-0.04325266554951668
1789063980149567700,10.328567626953125,0.036139097064733505,-0.07898296415805817,-0.056721337139606476
1789063980159604700,10.338604736328126,0.07685376703739166,0.0011054781498387456,-0.07898962497711182
1789063980169642000,10.34864208984375,0.11461233347654343,0.0035350800026208162,-0.0568249337375164
1789063980179679700,10.3586796875,0.14872795343399048,-0.047864992171525955,-0.04385240748524666
1789063980189716700,10.368716796875,0.16049353778362274,0.017553692683577538,-0.03298165276646614
1789063980199754000,10.37875390625,0.15453791618347168,-0.007535414304584265,-0.015459383837878704
1789063980209791000,10.388791015625,0.16463714838027954,0.025297101587057114,-0.015262842178344727
1789063980219828000,10.398827880859375,0.17370574176311493,0.025174595415592194,0.03754737600684166
1789063980229865000,10.408864990234376,0.17761287093162537,0.01691293716430664,0.0656924620270729
1789063980239902000,10.41890185546875,0.17206363379955292,0.029097165912389755,0.0717168003320694
1789063980249939000,10.42893896484375,0.16113536059856415,0.0512261688709259,0.06401041150093079
1789063980259976000,10.438975830078125,0.1606714427471161,0.020253872498869896,0.0783214345574379
1789063980270013000,10.449012939453125,0.16632825136184692,0.01702239364385605,0.06784402579069138
1789063980280051000,10.459051025390625,0.17157602310180664,0.04097752645611763,-0.0369657427072525
1789063980290088000,10.469087890625,0.19512422382831573,0.09762375801801682,-0.10585053265094757
1789063980300125000,10.479125,0.19628988206386566,0.0916188657283783,-0.09494755417108536
1789063980310162000,10.489161865234376,0.16279157996177673,0.029572272673249245,-0.08032307028770447
1789063980320199000,10.499198974609374,0.15105396509170532,0.06911994516849518,-0.13717037439346313
1789063980330236000,10.50923583984375,0.16174069046974182,0.10965406149625778,-0.12064918875694275
1789063980340273000,10.51927294921875,0.18092530965805054,-0.018730543553829193,-0.08972642570734024
1789063980350310000,10.529309814453125,0.20392677187919617,0.12638802826404572,-0.10472827404737473
1789063980360347000,10.539346923828125,0.16987478733062744,0.06313183158636093,0.04151841625571251
1789063980370384000,10.5493837890625,0.13609099388122559,0.09296935796737671,0.004034955520182848
1789063980380420900,10.5594208984375,0.13379640877246857,0.10836535692214966,0.017355021089315414
1789063980390459000,10.569458984375,0.1280786097049713,0.09499948471784592,0.08269168436527252
1789063980400496000,10.57949609375,0.16254843771457672,0.04965730011463165,0.08852960169315338
1789063980410532900,10.589532958984375,0.17220771312713623,0.04385267570614815,0.07696668803691864
1789063980420569900,10.59956982421875,0.14486637711524963,0.08469997346401215,0.05337480828166008
1789063980430606800,10.60960693359375,0.08851974457502365,0.019402991980314255,0.06932234764099121
1789063980440643800,10.619643798828125,0.04592807590961456,0.0586199052631855,0.030732613056898117
1789063980450681000,10.62968115234375,0.020917532965540886,-0.013742976821959019,-0.0020820593927055597
1789063980460717800,10.6397177734375,0.021205952391028404,0.001005343277938664,-0.012692625634372234
1789063980470754800,10.6497548828125,-0.013570936396718025,0.03771328926086426,-0.011158112436532974
1789063980480791800,10.659791748046874,-0.06943979114294052,-0.051781706511974335,0.012867328710854053
1789063980490829800,10.669829833984375,-0.10040196776390076,-0.010291785933077335,0.04896807670593262
1789063980500866800,10.67986669921875,-0.08478333055973053,-0.033975277096033096,0.03239309415221214
1789063980510903800,10.68990380859375,-0.03735855594277382,-0.019773438572883606,-0.0010572749888524413
1789063980520941000,10.699941162109376,-0.010204168036580086,-0.02473996765911579,0.05824865773320198
1789063980530978000,10.70997802734375,-0.032043952494859695,-0.05331701785326004,0.09176880121231079
1789063980541014800,10.720014892578124,-0.051361724734306335,-0.002674346324056387,0.020710337907075882
1789063980551051800,10.7300517578125,-0.07448861747980118,0.05462170019745827,-0.008414523676037788
1789063980561088800,10.7400888671875,-0.0820607841014862,0.027106186375021935,-0.026879817247390747
1789063980571126000,10.7501259765625,-0.05415484681725502,0.003942277282476425,-0.04394082725048065
1789063980581163000,10.7601630859375,-0.02496340684592724,-0.04663567990064621,-0.06636916846036911
1789063980591200800,10.77020068359375,0.0007904262165538967,-0.03736468404531479,-0.13194817304611206
1789063980601238000,10.780238037109376,-0.02009195275604725,0.002389654517173767,-0.15855902433395386
1789063980611275000,10.79027490234375,-0.0812612995505333,-0.015243933536112309,-0.09265643358230591
1789063980621312000,10.80031201171875,-0.10051888227462769,-0.0018953717080876231,-0.09884002804756165
1789063980631348700,10.8103486328125,-0.09427031129598618,0.013430055230855942,-0.03969308361411095
1789063980641385500,10.820385498046875,-0.04665112495422363,0.03497369587421417,-0.029626868665218353
1789063980651422500,10.83042236328125,-0.003980626817792654,0.013717410154640675,-0.012796222232282162
1789063980661459500,10.84045947265625,0.0008439557277597487,0.010460097342729568,0.06297790259122849
1789063980671496700,10.85049658203125,-0.04808923229575157,-0.04282283037900925,0.14194461703300476
1789063980681533700,10.86053369140625,-0.08633648604154587,-0.0744398757815361,0.12986639142036438
1789063980691570400,10.8705703125,-0.11358515173196793,0.017107347026467323,0.10338311642408371
1789063980701608400,10.8806083984375,-0.11079708486795425,-0.018149442970752716,0.11618998646736145
1789063980711645700,10.890645751953125,-0.10426036268472672,-0.012109126895666122,0.13956588506698608
1789063980721682400,10.900682373046875,-0.1146986186504364,-0.056224923580884933,0.13076892495155334
1789063980731719400,10.910719482421875,-0.1025862991809845,-0.04719121381640434,0.08166290819644928
1789063980741756400,10.92075634765625,-0.09969303756952286,-0.011089668609201908,0.014488395303487778
1789063980751793700,10.930793701171876,-0.11763875186443329,-0.07668891549110413,-0.05842975527048111
1789063980761830700,10.94083056640625,-0.12517096102237701,-0.02520602010190487,-0.045165348798036575
1789063980771867400,10.950867431640624,-0.13723349571228027,-0.04495975002646446,-0.06938653439283371
1789063980781904400,10.960904296875,-0.13461267948150635,-0.03394678235054016,-0.1875842809677124
1789063980791941600,10.970941650390625,-0.11436092853546143,0.002448510378599167,-0.22915542125701904
1789063980801978600,10.980978515625,-0.10372693091630936,0.0016564861871302128,-0.11932000517845154
1789063980812016400,10.991016357421875,-0.1138240396976471,-0.13751791417598724,0.0027348001021891832
1789063980822053400,11.001053466796876,-0.09728127717971802,-0.04019429162144661,-0.06037279590964317
1789063980832090600,11.011090576171876,-0.09469135850667953,0.026968766003847122,-0.04327849671244621
1789063980842127600,11.021127685546874,-0.0844978392124176,0.03369218483567238,0.019328424707055092
1789063980852164600,11.03116455078125,-0.09011444449424744,-0.00609411159530282,0.0995449647307396
1789063980862201300,11.041201416015625,-0.10866735875606537,-0.03676973283290863,0.08206983655691147
1789063980872238600,11.051238525390625,-0.08852320909500122,-0.014461230486631393,-0.034158769994974136
1789063980882275600,11.061275634765625,-0.07762022316455841,-0.05405604466795921,-0.023634223267436028
1789063980892312600,11.0713125,-0.06805148720741272,-0.026193520054221153,-0.009242233820259571
1789063980902349600,11.081349609375,-0.08393272012472153,-0.08736739307641983,-0.00546294217929244
1789063980912387600,11.0913876953125,-0.12207797169685364,0.04221802577376366,-0.029876405373215675
1789063980922424600,11.101424560546874,-0.13629579544067383,0.028689967468380928,-0.05711362138390541
1789063980932461600,11.111461669921875,-0.09567911922931671,0.022046979516744614,-0.05211406573653221
1789063980942498600,11.12149853515625,-0.06295286864042282,-0.03229402378201485,0.02225656993687153
1789063980952535600,11.13153564453125,-0.019361713901162148,-0.021831795573234558,-0.00039175100391730666
1789063980962572500,11.141572509765625,-0.04331258684396744,-0.0462907999753952,0.017016267403960228
1789063980972609500,11.151609619140626,-0.07970920950174332,0.041662223637104034,-0.015422099269926548
1789063980982646500,11.161646484375,-0.1084766760468483,-0.0420134961605072,0.03947097808122635
1789063980992683500,11.17168359375,-0.1362164318561554,-0.0593690499663353,0.10209760814905167
1789063981002720500,11.181720458984374,-0.16070899367332458,-0.006685599684715271,0.033242907375097275
1789063981012757500,11.191757568359375,-0.1745409071445465,-0.038776423782110214,-0.004620318301022053
1789063981022795500,11.20179541015625,-0.16557511687278748,-0.02683081477880478,-0.015671636909246445
1789063981032832500,11.21183251953125,-0.15371765196323395,-0.07496345788240433,0.005408081226050854
1789063981042869500,11.221869384765625,-0.14179441332817078,-0.12433100491762161,-0.02907506190240383
1789063981052906500,11.231906494140626,-0.11301577091217041,0.001050350721925497,-0.1320967823266983
1789063981062943500,11.241943603515624,-0.14261068403720856,-0.024950623512268066,-0.11695937812328339
1789063981072980700,11.251980712890624,-0.1837937980890274,-0.045580536127090454,-0.07878775894641876
1789063981083017500,11.262017578125,-0.21979068219661713,-0.07392748445272446,-0.02225310727953911
1789063981093054500,11.272054443359375,-0.2024282068014145,-0.051308728754520416,-0.03401495888829231
1789063981103091500,11.282091552734375,-0.1519479900598526,-0.08362112939357758,-0.0057249972596764565
1789063981113128400,11.29212841796875,-0.13035240769386292,-0.04623673856258392,0.08365761488676071
1789063981123166500,11.30216650390625,-0.14171692728996277,-0.1108679249882698,0.11527679115533829
1789063981133203500,11.312203369140626,-0.16107118129730225,-0.08470902591943741,0.12098580598831177
1789063981143240400,11.322240478515624,-0.1740250587463379,-0.03656813129782677,0.10010050237178802
1789063981153277700,11.332277587890625,-0.14840970933437347,-0.05672985687851906,0.04348675534129143
1789063981163314700,11.342314697265625,-0.13330478966236115,-0.0913805142045021,0.04252855107188225
1789063981173351400,11.352351318359375,-0.11761558055877686,-0.06288522481918335,0.03804884850978851
1789063981183388400,11.362388427734375,-0.13125468790531158,-0.12860511243343353,0.011201521381735802
1789063981193425400,11.37242529296875,-0.1466488242149353,-0.0910223200917244,-0.040351416915655136
1789063981203462700,11.382462646484376,-0.1372436136007309,-0.05228344351053238,-0.1456562727689743
1789063981213499600,11.392499755859374,-0.090950146317482,-0.0911450907588005,-0.1283971220254898
1789063981223536400,11.402536376953124,-0.07040093094110489,-0.06749808043241501,-0.036665335297584534
1789063981233574700,11.41257470703125,-0.08421261608600616,-0.1429571509361267,-0.037279460579156876
1789063981243611600,11.422611572265625,-0.11703181266784668,-0.05108954757452011,-0.1121923178434372
1789063981253648600,11.432648681640625,-0.14794419705867767,-0.011107778176665306,-0.07969509810209274
1789063981263685400,11.442685302734375,-0.1337181180715561,-0.136023610830307,0.03442348912358284
1789063981273722400,11.452722412109376,-0.08911655843257904,-0.13938532769680023,0.07299404591321945
1789063981283759600,11.462759521484376,-0.02267708256840706,-0.07944102585315704,0.047258324921131134
1789063981293796600,11.472796630859374,0.026327211409807205,-0.034209370613098145,0.035960663110017776
1789063981303833600,11.48283349609375,0.07555734366178513,0.0016700683627277613,0.0986514762043953
1789063981313870300,11.492870361328125,0.08844038099050522,0.03912689536809921,0.14033260941505432
1789063981323907600,11.502907470703125,0.09063988924026489,0.009621468372642994,0.09773135185241699
1789063981333945600,11.512945556640625,0.0816812813282013,-0.005832589231431484,0.05620761215686798
1789063981343982300,11.522982421875,0.08890723437070847,-0.02966042421758175,0.0057534934021532536
1789063981354019600,11.53301953125,0.09940328449010849,-0.08193587511777878,-0.050403252243995667
1789063981364056600,11.543056640625,0.084168940782547,0.003965979442000389,-0.11043330281972885
1789063981374093600,11.553093505859374,0.05383286997675896,-0.0189630389213562,-0.15115755796432495
1789063981384130600,11.563130615234375,0.05193164199590683,0.004966262727975845,-0.14623869955539703
1789063981394167300,11.573167236328125,0.09383541345596313,0.046958453953266144,-0.13568300008773804
1789063981404204500,11.58320458984375,0.16529016196727753,-0.023477628827095032,-0.13686171174049377
1789063981414241500,11.593241455078125,0.21858933568000793,0.007787615526467562,-0.10029038786888123
1789063981424278500,11.603278564453126,0.2091739922761917,0.01302445586770773,-0.006651777308434248
1789063981434315500,11.6133154296875,0.14088468253612518,-0.049904175102710724,0.06119251623749733
1789063981444353500,11.623353515625,0.09579550474882126,0.021166803315281868,0.05064959451556206
1789063981454390500,11.633390625,0.06910663098096848,0.034094054251909256,0.1325945258140564
1789063981464427500,11.643427490234375,0.09818648546934128,-0.0314125157892704,0.21085578203201294
1789063981474464500,11.653464599609375,0.12208676338195801,-0.05661454424262047,0.2254701405763626
1789063981484501500,11.66350146484375,0.12970153987407684,-0.06896468997001648,0.18506066501140594
1789063981494538500,11.67353857421875,0.14222452044487,0.010058226995170116,0.1618778556585312
1789063981504575500,11.683575439453126,0.11423389613628387,0.020724453032016754,0.10856056213378906
1789063981514612500,11.693612548828124,0.07060945779085159,-0.03308311849832535,-0.004907673224806786
1789063981524649700,11.703649658203124,0.05333646014332771,0.050994738936424255,-0.09939609467983246
1789063981534686500,11.7136865234375,0.04975557327270508,0.04410780593752861,-0.15346598625183105
1789063981544723500,11.723723388671875,0.044789575040340424,-0.06561096757650375,-0.2227286845445633
1789063981554761500,11.733761474609375,0.05149301886558533,-0.015454856678843498,-0.26953187584877014
1789063981564798700,11.743798828125,0.04514217749238014,0.024115456268191338,-0.25933516025543213
1789063981574835500,11.75383544921875,0.04439223185181618,-0.03399258852005005,-0.23129872977733612
1789063981584872400,11.76387255859375,0.09191447496414185,0.06551589071750641,-0.20529483258724213
1789063981594909400,11.773909423828124,0.11871812492609024,0.04147686809301376,-0.06222369149327278
1789063981604946700,11.78394677734375,0.1238737404346466,0.0054602790623903275,0.039633963257074356
1789063981614983700,11.793983642578125,0.09972339868545532,0.034623757004737854,0.07664337754249573
1789063981625020400,11.8040205078125,0.06325779855251312,0.06385967135429382,0.13669046759605408
1789063981635057400,11.814057373046875,0.03720036521553993,-0.012345349416136742,0.19041708111763
1789063981645094700,11.8240947265625,0.04948686063289642,0.013259879313409328,0.18372029066085815
1789063981655132200,11.834132080078126,0.05276334658265114,-0.013382118195295334,0.16760843992233276
1789063981665170000,11.844169921875,0.08321579545736313,0.020424848422408104,0.07383720576763153
1789063981675207000,11.85420703125,0.11091160029172897,0.07866791635751724,0.03748718649148941
1789063981685244000,11.864243896484375,0.11841106414794922,0.045634862035512924,0.029233785346150398
1789063981695281200,11.87428125,0.1112988293170929,0.008680840022861958,-0.07579436153173447
1789063981705318000,11.88431787109375,0.08882813900709152,0.08587948977947235,-0.12839898467063904
1789063981715355000,11.89435498046875,0.05776795744895935,0.05320170149207115,-0.12036449462175369
1789063981725392000,11.904391845703126,0.05413780361413956,0.055692821741104126,-0.13376232981681824
1789063981735429000,11.91442919921875,0.056057408452034,-0.0020066918805241585,-0.05200860649347305
1789063981745466000,11.924466064453124,0.04069603234529495,-0.03990587219595909,0.017251957207918167
1789063981755502800,11.9345029296875,0.005310076754540205,0.00703926756978035,0.009647301398217678
1789063981765540900,11.944540771484375,-0.011955728754401207,0.078920379281044,0.07793314754962921
1789063981775578000,11.954578125,-0.022522086277604103,-0.019044265151023865,0.1938198059797287
1789063981785614800,11.96461474609375,0.010867827571928501,-0.02443690039217472,0.2280086725950241
1789063981795651800,11.97465185546875,0.04893212392926216,0.0004450142150744796,0.15899497270584106
1789063981805688800,11.984688720703126,0.0621722936630249,0.03460085391998291,0.07875712960958481
1789063981815726000,11.99472607421875,0.03538089245557785,-0.008473113179206848,0.05507576838135719
1789063981825763000,12.00476318359375,-0.0264222864061594,-0.006682403851300478,-0.000630636524874717
1789063981835799800,12.0147998046875,-0.07505080848932266,0.0219697467982769,-0.12589187920093536
1789063981845836800,12.0248369140625,-0.061582937836647034,-0.027660656720399857,-0.19263789057731628
1789063981855874000,12.0348740234375,-0.024444889277219772,0.0026764769572764635,-0.22123011946678162
1789063981865911000,12.0449111328125,-0.014303837902843952,-0.033311884850263596,-0.22732636332511902
1789063981875948800,12.05494873046875,-0.04186302796006203,-0.01942642778158188,-0.18158283829689026
1789063981885985800,12.06498583984375,-0.08656605333089828,-0.029516080394387245,-0.1489785611629486
1789063981896023000,12.07502294921875,-0.08274921029806137,-0.018004300072789192,-0.1008232831954956
1789063981906060000,12.08506005859375,-0.06860675662755966,-0.016714531928300858,-0.004255731590092182
1789063981916097000,12.095096923828125,-0.07018601149320602,-0.02720578759908676,0.08611597865819931
1789063981926133800,12.1051337890625,-0.12203243374824524,-0.09128729999065399,0.15164890885353088
1789063981936171000,12.1151708984375,-0.1684473305940628,-0.031103590503335,0.15788310766220093
1789063981946208000,12.1252080078125,-0.18061372637748718,-0.06943207234144211,0.18717068433761597
1789063981956245000,12.135244873046876,-0.11107352375984192,-0.1023106575012207,0.2065393328666687
1789063981966282000,12.145281982421874,-0.06541815400123596,-0.09113550186157227,0.17682936787605286
1789063981976318700,12.155318603515624,-0.08812453597784042,-0.0723133459687233,0.09588897973299026
1789063981986357000,12.16535693359375,-0.15419648587703705,0.005678392015397549,0.026158366352319717
1789063981996394000,12.17539404296875,-0.22436359524726868,-0.07918883115053177,0.007850466296076775
1789063982006431000,12.185430908203125,-0.22505521774291992,-0.11135874688625336,-0.01835503801703453
1789063982016468000,12.195468017578126,-0.15748363733291626,-0.11083490401506424,-0.1153297871351242
1789063982026505000,12.2055048828125,-0.09388495236635208,-0.08935864269733429,-0.17548473179340363
1789063982036542000,12.2155419921875,-0.06640592217445374,-0.1257006675004959,-0.14619289338588715
1789063982046579000,12.225578857421874,-0.043655868619680405,-0.02744227647781372,-0.08832266926765442
1789063982056616000,12.235615966796875,-0.03916444629430771,0.03398699685931206,-0.0504237599670887
1789063982066653000,12.24565283203125,-0.006852313410490751,0.021009411662817,-0.006912234704941511
1789063982076690000,12.25568994140625,0.029832996428012848,0.04014742001891136,0.0649864599108696
