time,seconds_elapsed,z,y,x
1789740866181512000,0.053511962890625,8.315810553741455,5.380668955993652,-0.6018424423217773
1789740866191590000,0.06358984375,8.43971048965454,5.36914686050415,-0.7838017684936524
1789740866201666800,0.073666748046875,8.513182553100586,5.296572622680664,-0.9163806854248047
1789740866211744800,0.083744873046875,8.588450267791748,5.218461793518066,-0.828693049621582
1789740866221823000,0.093822998046875,8.723124111175537,5.212326651763916,-0.5461772537231445
1789740866231900000,0.10389990234375,8.785822267150879,5.3196168136596675,-0.08768763580322265
1789740866241977900,0.113977783203125,8.7455697517395,5.44546203842163,0.24495675735473632
1789740866252055000,0.124054931640625,8.642020529937744,5.570110162353515,0.07631517791748046
1789740866262133000,0.134133056640625,8.608352069091797,5.640439836120605,-0.14170681076049804
1789740866272211000,0.1442109375,8.374019581604003,5.63086302947998,-0.4837783729553222
1789740866282287900,0.154287841796875,8.074594736480712,5.700444515228271,-0.1619078872680664
1789740866292365800,0.16436572265625,7.640944960784911,5.866242980194092,0.4966472068786621
1789740866302444000,0.174444091796875,7.6951137733459465,6.237942787933349,0.6802525466918945
1789740866312521000,0.18452099609375,8.004115425109863,6.1459156616210935,0.5855319435119628
1789740866322599000,0.194598876953125,8.18457837524414,5.700444515228271,0.3254617881774902
1789740866332676900,0.2046767578125,8.172757004547119,5.540930829620361,0.24869769744873046
1789740866342753800,0.21475390625,8.426243105316162,5.514744248962402,0.46731823654174803
1789740866352831700,0.224831787109375,8.925733426666259,5.345953031921386,0.6988076095581054
1789740866362909700,0.23490966796875,9.401880281829833,5.042338333892822,1.006761798095703
1789740866372987000,0.24498681640625,9.432256715393066,5.196165790557861,0.92565821685791
1789740866383065000,0.255065185546875,8.850914624786377,5.503072515869141,0.7429507026672363
1789740866393143000,0.26514306640625,8.205677277374267,5.548711985015869,0.7107786178588866
1789740866403220000,0.275219970703125,7.812429654693603,5.874622686004638,0.6093243225097655
1789740866413298000,0.2852978515625,7.689128269195556,6.280140592193603,0.7191583236694336
1789740866423376000,0.2953759765625,7.65486125793457,6.424241604614258,0.7254431030273437
1789740866433452800,0.305452880859375,7.370549810791015,6.182127961730957,0.5255272644042969
1789740866443530800,0.31553076171875,7.916278151702881,5.834669445800781,0.29433716659545894
1789740866453607700,0.325607666015625,8.667458922576904,5.673509746551513,0.12030863342285156
1789740866463686000,0.335685791015625,8.415469197845459,5.42675733795166,0.5856815811157227
1789740866473763800,0.345763916015625,7.772177139282226,5.5373395271301264,0.41689036407470703
1789740866483841800,0.355841796875,7.236773793029784,6.094589963531494,0.08678981018066406
1789740866493919000,0.3659189453125,6.590040069580078,6.86956311340332,-0.006883329772949218
1789740866503997000,0.375996826171875,6.134842478942871,7.464821501159667,-0.13287819213867186
1789740866514073900,0.386073974609375,5.795314756011963,7.94830059890747,-0.4321533996582031
1789740866524151800,0.39615185546875,5.390096125030517,8.439261576843261,-0.8022071937561035
1789740866534230000,0.40622998046875,4.920084411621094,8.584559690093993,-0.9620201545715331
1789740866544307000,0.416306884765625,4.476708191680908,8.673594064331054,-1.0989385620117187
1789740866554385000,0.426385009765625,4.059817827606201,8.819341090393065,-1.2262801628112792
1789740866564462800,0.436462890625,3.7063738075256345,9.10470000076294,-1.458068811035156
1789740866574539800,0.446539794921875,3.6879683822631835,9.5247327545166,-1.6033669242858886
1789740866584617700,0.45661767578125,4.168305090332031,9.866953954315186,-1.880196491241455
1789740866594695700,0.46669580078125,4.438999515533447,10.416273597717284,-1.9011457557678222
1789740866604772900,0.47677294921875,4.07298593673706,10.94913310470581,-1.7465701110839842
1789740866614850800,0.486850830078125,3.582174596405029,11.168950744628905,-1.5511434005737303
1789740866624929000,0.496928955078125,3.2715269309997557,11.26845975112915,-1.4938321983337401
1789740866635006000,0.507005859375,3.0080151107788082,11.374552812194823,-1.5541361526489257
1789740866645084000,0.517083984375,3.201945445251465,11.591078424835205,-1.4631564895629883
1789740866655161900,0.527161865234375,3.4932898597717283,11.557409963989258,-1.2211924842834472
1789740866665238800,0.53723876953125,3.455132270812988,11.347618043518066,-0.8201637062072753
1789740866675316700,0.547316650390625,3.135506349182129,11.190049646759032,-0.15906477279663084
1789740866685394700,0.557394775390625,2.7959786262512205,10.909479139709472,0.2693476867675781
1789740866695471900,0.567471923828125,2.5311200675964356,10.46385835571289,0.3721487205505371
1789740866705550000,0.577550048828125,2.1167735427856442,10.028861841583252,0.7625532287597656
1789740866715627000,0.587626953125,1.966986301422119,9.484779514312743,1.0962450851440428
1789740866725705000,0.597705078125,2.203264077758789,8.822483480072021,0.8616133224487305
1789740866735783000,0.607782958984375,2.216132911682129,8.279897528839111,0.7282862174987793
1789740866745859800,0.61785986328125,2.1767782218933105,7.798363719940185,0.7278373046875
1789740866755937800,0.627937744140625,3.4139819297790526,7.304260352325439,1.2274772636413573
1789740866766015700,0.638015625,1.8282722427368163,6.600963614654541,0.873434693145752
1789740866776092700,0.6480927734375,2.1006126815795896,6.196493171691894,2.076221752166748
1789740866786171000,0.6581708984375,2.8941408943176268,5.6824880027771,1.610100616455078
1789740866796248800,0.668248779296875,2.2219687782287596,5.622782598876952,1.211166764831543
1789740866806326000,0.678325927734375,1.1131541343688964,5.7332151504516595,1.424250712585449
1789740866816404000,0.688404052734375,0.25468320159912106,5.6778492370605465,1.8332102836608886
1789740866826482000,0.69848193359375,-0.7603086647033691,5.558887342071533,1.872564973449707
1789740866836558800,0.708558837890625,-1.5888520767211913,5.521178665924072,1.7664719123840331
1789740866846636800,0.71863671875,-1.443404325866699,5.620238759613037,1.3262380821228026
1789740866856715000,0.728715087890625,-0.2916436897277832,5.723339068603515,0.8176198669433593
1789740866866792000,0.7387919921875,1.0696095916748045,5.868038631439209,-0.13078326568603516
1789740866876870000,0.748869873046875,2.2303484840393066,5.935375553131103,-0.49111061553955077
1789740866886947800,0.75894775390625,2.8630162727355954,6.401347051239013,-0.8596680335998534
1789740866897024800,0.769024658203125,2.657713480377197,6.848164936065674,-0.5916670852661132
1789740866907102700,0.779102783203125,2.6235961067199707,6.808062058258057,-0.4887164138793945
1789740866917180700,0.7891806640625,2.6644471725463865,6.9050272254943845,-0.5913678100585937
1789740866927257900,0.7992578125,2.1609166358947753,6.795642137145996,-2.5962124252319336
1789740866937336000,0.809336181640625,1.7419313453674314,6.912958018493652,-0.21128829650878905
1789740866947414000,0.8194140625,2.775777549743652,7.221510757446288,2.0011036750793454
1789740866957491000,0.829490966796875,2.828898899078369,7.216123803710937,-1.4932336479187012
1789740866967569000,0.83956884765625,4.383783239746093,7.333140409851074,-1.0826280632019043
1789740866977645800,0.849645751953125,5.083189399719238,7.598747156524658,-1.2454337760925291
1789740866987723800,0.859723876953125,5.06942274017334,7.987505651092529,-2.398990063476562
1789740866997801700,0.8698017578125,5.364508094787597,8.667907835388183,-2.1894974182128903
1789740867007878700,0.879878662109375,5.009268423461914,9.066692049407958,-1.6105495292663574
1789740867017956900,0.889956787109375,4.492120864868164,9.239373844146728,-2.0415058280944822
1789740867028034800,0.900034912109375,4.094234476470947,9.749638072967528,-2.1101894882202146
1789740867038112000,0.910112060546875,3.8899791473388667,10.327089585876465,-1.9322703773498533
1789740867048190000,0.92018994140625,3.8709751716613767,10.662876368713379,-2.2911013511657714
1789740867058268000,0.930267822265625,4.164414512634277,11.175235523986816,-2.443282794189453
1789740867068344800,0.9403447265625,4.503493322753906,11.569829885101317,-2.712630480957031
1789740867078422800,0.9504228515625,5.512649322509765,11.513117233276366,-3.231124777984619
1789740867088501000,0.9605009765625,3.7394437179565427,12.287192557525634,-3.339462403106689
1789740867098578000,0.970577880859375,3.4343326438903805,12.697498867034911,-3.0986954986572264
1789740867108655900,0.98065576171875,3.5494039611816404,12.461520365905761,-3.105429190826416
1789740867118733800,0.99073388671875,3.303250102996826,12.549507276916502,-3.1275755561828613
1789740867128811000,1.00081103515625,2.9141923332214352,12.665027507019042,-2.830095999908447
1789740867138889000,1.010888916015625,2.589329095458984,12.442217115020751,-2.6321254501342772
1789740867148967000,1.020966796875,2.403778466796875,12.354679116821288,-2.637362766265869
1789740867159043800,1.0310439453125,2.1900959686279298,12.1932201423645,-2.5291747787475582
1789740867169122000,1.0411220703125,1.8951602516174315,12.09849953918457,-2.5751135231018063
1789740867179200000,1.051199951171875,1.506102481842041,11.701510976409912,-2.4877251625061034
1789740867189277000,1.06127685546875,1.295412735748291,11.204863769531249,-2.1658546768188476
1789740867199355000,1.07135498046875,1.3449427825927733,11.022605168151856,-1.7476175743103026
1789740867209431800,1.081431884765625,1.6490063934326171,10.87296756439209,-1.4173673828125
1789740867219509800,1.091509765625,2.0343232231140136,10.48361051940918,-1.2862848419189452
1789740867229587700,1.101587646484375,2.3077111251831055,10.090063621520995,-1.2342109558105467
1789740867239665000,1.111664794921875,2.5885809074401855,9.754875389099121,-1.234061318206787
1789740867249743000,1.1217431640625,2.850596351623535,9.41040962524414,-1.2113164024353027
1789740867259821000,1.131821044921875,3.1842882080078123,9.318232861328125,-1.1988964813232421
1789740867269898000,1.14189794921875,3.3871967987060545,9.48732335357666,-1.271021806335449
1789740867279976000,1.151975830078125,3.2480338272094724,9.605686698150635,-1.1885714866638184
1789740867290054000,1.162053955078125,2.903568063354492,9.700108026123047,-1.1893196746826171
1789740867300130800,1.172130859375,2.419041502380371,9.853935482788085,-1.1595417915344237
1789740867310208800,1.182208740234375,2.0075380920410155,9.925911170196533,-1.026513961791992
1789740867320287000,1.192286865234375,1.8376994117736816,9.950900650024414,-1.0105027381896972
1789740867330364000,1.202364013671875,1.8843863441467283,10.098592964935301,-1.0696095916748045
1789740867340441900,1.21244189453125,1.8927660499572754,10.186130963134765,-0.9168295982360839
1789740867350519800,1.222519775390625,1.8477251312255858,10.492888050842284,-0.5461772537231445
1789740867360597000,1.232596923828125,1.5376760162353516,10.557830770874023,-0.5440823272705078
1789740867370675000,1.242675048828125,1.3631985702514648,10.645518406677246,-0.3037643356323242
1789740867380753000,1.2527529296875,1.4618097511291503,10.582969888305664,-0.15292963104248045
1789740867390829800,1.262829833984375,1.5679028121948242,10.341155520629883,-0.22296002960205077
1789740867400907800,1.27290771484375,1.792808130645752,10.04173067550659,-0.47375265350341794
1789740867410986000,1.282986083984375,1.916558428955078,9.775824653625488,-0.448164623260498
1789740867421063000,1.29306298828125,1.7751508934020994,9.445275186920165,-0.34536358947753903
1789740867431140900,1.303140869140625,1.8341081092834473,9.031676850128173,-0.32441432495117184
1789740867441218800,1.31321875,1.9850924514770507,8.671648775482177,-0.36092590026855464
1789740867451295700,1.323295654296875,2.37489840927124,8.269572534179687,-0.4150947128295898
1789740867461373700,1.333373779296875,2.756175023651123,7.923161481475829,-0.35030163040161133
1789740867471451600,1.34345166015625,2.695422156524658,7.704540942382812,0.14260463638305662
1789740867481528800,1.35352880859375,2.770091320800781,7.527968569946289,0.16699556579589842
1789740867491607000,1.36360693359375,2.929156093597412,7.912537211608886,-0.08409633331298827
1789740867501685000,1.37368505859375,3.0974983978271484,8.377012333679199,-0.4182371025085449
1789740867511762000,1.383761962890625,2.8932430686950683,8.8489693359375,-1.1299135459899903
1789740867521839900,1.39383984375,2.5770588119506836,9.024194969940185,-1.710357810974121
1789740867531917800,1.403917724609375,2.137423532104492,9.106645289611816,-2.1288941886901855
1789740867541994800,1.413994873046875,1.784428424835205,9.297882147216797,-2.618209152984619
1789740867552072700,1.42407275390625,1.4136264427185057,10.033201332092284,-2.1857564781188965
1789740867562150000,1.43414990234375,1.1691185981750487,10.432733734130858,-2.194884371948242
1789740867572227800,1.444227783203125,1.3109750465393066,11.356147386932372,-2.3982418754577637
1789740867582305800,1.454305908203125,1.677736813354492,12.591854718780517,-3.279607361602783
1789740867592383000,1.464383056640625,0.03860650177001953,10.15096612625122,-2.4904186393737793
1789740867602461000,1.4744609375,-1.042674822998047,10.829423021697997,-2.211943058776855
1789740867612539000,1.484538818359375,-0.5961562133789062,11.796530854797362,-3.4069489624023435
1789740867622615800,1.49461572265625,-0.11267711563110351,11.413608226776123,-3.922600144958496
1789740867632693800,1.50469384765625,-0.18465280303955078,11.18615906906128,-3.6270658775329587
1789740867642771700,1.514771728515625,-0.23418284988403318,10.619331826019286,-3.463511976623535
1789740867652848600,1.5248486328125,0.07466916427612304,10.16952118911743,-3.3550247138977047
1789740867662926800,1.5349267578125,0.35359365768432616,9.852439106750488,-3.1166520111083984
1789740867673004800,1.5450048828125,0.6552630668640136,9.356839363098144,-2.6677391998291013
1789740867683082000,1.55508203125,0.7270891166687011,9.014169250488282,-2.2776339668273926
1789740867693160000,1.565159912109375,0.7447463539123534,8.771307419586181,-1.9838953506469725
1789740867703238000,1.57523779296875,0.854879630279541,8.530989427947997,-1.903839232635498
1789740867713314800,1.585314697265625,0.7936778503417968,8.393322832489012,-1.88977329788208
1789740867723392800,1.595392822265625,0.44053310546874996,8.334664891815185,-1.6870143447875976
1789740867733471000,1.605470947265625,0.24001871643066405,8.393472470092773,-1.8519149841308593
1789740867743548000,1.6155478515625,0.2832639839172363,8.66282015686035,-1.9840449882507323
1789740867753625900,1.6256259765625,0.03516483688354492,8.800935665130615,-1.9303250885009764
1789740867763703800,1.635703857421875,0.09786299285888671,8.802282403564453,-1.924189946746826
1789740867773780700,1.64578076171875,0.46686932373046874,8.774599446868896,-1.8997990173339843
1789740867783858700,1.655858642578125,0.799962629699707,8.915109156799316,-1.999607299041748
1789740867793936600,1.6659365234375,0.9094973556518554,9.192537274169922,-2.144456499481201
1789740867804013800,1.676013916015625,1.1962030044555663,9.233687615203857,-1.9782091217041013
1789740867814092000,1.686092041015625,1.1092635566711424,9.377489352416992,-1.8426374526977538
1789740867824170000,1.696169921875,0.7009025360107421,9.573664250946045,-1.4688427185058592
1789740867834247000,1.706246826171875,0.4955997436523437,9.490765018463135,-1.3248913436889647
1789740867844324900,1.716324951171875,0.3058592620849609,9.268253901672363,-1.3657424095153807
1789740867854402800,1.72640283203125,0.5485714553833008,9.265410787200928,-1.3329717742919922
1789740867864479700,1.736479736328125,0.8268973983764648,9.633220017242431,-1.44280577545166
1789740867874557700,1.7465576171875,0.732326432800293,9.856479322052001,-1.3367127143859863
1789740867884636000,1.756635986328125,0.9332897346496581,9.316137934875488,-0.8553285430908203
1789740867894712800,1.766712890625,0.725892015838623,8.985588468170166,-0.6664858871459961
1789740867904790800,1.776790771484375,0.2424129180908203,8.86108998184204,-0.4951508308410644
1789740867914868700,1.78686865234375,0.22266075439453123,9.230245950317382,-0.6576572685241698
1789740867924946000,1.79694580078125,0.36361937713623044,9.476100533294677,-1.4770727867126463
1789740867935023900,1.80702392578125,0.4055179061889648,9.69801309967041,-1.9168577041625976
1789740867945100800,1.817100830078125,-0.3327940307617187,9.828946002960205,-3.61359849319458
1789740867955178800,1.8271787109375,-3.2344168052673337,10.04173067550659,-5.718251390075683
1789740867965257000,1.837257080078125,-3.706822720336914,11.763760219573975,-4.720318210601806
1789740867975334000,1.847333984375,-0.5312134933471679,12.05360825805664,-4.3363481193542475
1789740867985411800,1.857411865234375,-0.4095581214904785,10.288333446502685,-2.4479215599060056
1789740867995489800,1.86748974609375,0.08289923248291015,10.351181240081786,-1.089212117767334
1789740868005566700,1.877566650390625,2.139518458557129,10.417620336151122,-0.7923311119079589
1789740868015644700,1.887644775390625,1.7120038246154785,10.05489878463745,-0.8137292892456054
1789740868025722600,1.89772265625,1.2828431770324706,10.014047718811035,-0.6772597946166992
1789740868035799800,1.9077998046875,1.613991194152832,9.610624739074707,-0.6750152305603027
1789740868045878000,1.9178779296875,1.5102923347473143,9.677363110351562,-0.7190086860656738
1789740868055956000,1.9279560546875,1.237203707885742,9.760711255645752,-0.5077203895568847
1789740868066033000,1.938032958984375,0.9533411735534667,9.184606481170654,-0.13033435287475587
1789740868076110800,1.94811083984375,1.1918635139465332,9.233238702392578,-0.11671733093261719
1789740868086188800,1.958188720703125,1.319055477142334,9.274688318634032,-0.7131728195190429
1789740868096265700,1.968265625,1.128117894744873,9.673921445465087,-1.3088801200866698
1789740868106343700,1.97834375,1.0033201332092285,10.08003790206909,-1.2597989860534666
1789740868116422000,1.988421875,0.9950900650024413,9.897629663085937,-1.3103764961242674
1789740868126498800,1.998498779296875,1.1866261978149413,9.738265615081787,-1.2259808876037597
1789740868136576800,2.00857666015625,0.9846154327392578,9.399186804962158,-1.4223054237365722
1789740868146654700,2.01865478515625,0.7175123100280761,9.041852207183837,-1.6763900749206542
1789740868156732000,2.02873193359375,0.4562450538635254,8.57438433303833,-1.3379098152160644
1789740868166809900,2.038809814453125,0.23448212509155272,7.784297785186767,-1.1330559356689451
1789740868176887800,2.0488876953125,0.03202244720458984,6.9348051086425775,-1.4308347671508788
1789740868186964700,2.05896484375,1.0562918449401855,7.460182735443115,-1.165228020477295
1789740868197043000,2.06904296875,0.27189152603149414,7.620594246673583,-0.7817068420410156
1789740868207121000,2.079120849609375,-0.10429740982055663,7.079055758666992,-0.2727893516540527
1789740868217197800,2.08919775390625,1.1649287452697754,6.523301698303222,-0.0076315177917480465
1789740868227275800,2.09927587890625,0.9208698135375976,5.812971993255615,-0.5478232673645019
1789740868237353700,2.109353759765625,-0.5686228942871093,6.833500450897216,-2.0790648666381837
1789740868247431000,2.119430908203125,3.094356008148193,8.141183470153807,-2.3946505729675294
1789740868257508900,2.1295087890625,4.140921408843994,10.191817192077636,-1.1106102951049803
1789740868267587000,2.139587158203125,2.292597727203369,13.22856272277832,-0.12255319747924803
1789740868277664000,2.1496640625,-4.420294815063476,18.752434865570066,-2.034472860717773
1789740868287742000,2.159741943359375,-6.076783088684081,12.594398558044432,-0.7350199096679687
1789740868297820000,2.16981982421875,1.2397475471496582,15.770456697845457,-1.665616167449951
1789740868307896800,2.179896728515625,-1.1243769546508788,13.03044253540039,-0.3372831588745117
1789740868317974800,2.189974853515625,0.03501519927978516,9.88341409072876,0.6877344268798827
1789740868328052700,2.200052734375,0.7764695259094238,10.181641835021972,-0.14245499877929688
1789740868338129700,2.210129638671875,0.3495534423828125,10.377816733551025,-1.0175357055664063
1789740868348209000,2.220208984375,0.3345896820068359,11.378892302703857,-2.9128455947875973
1789740868358286800,2.230286865234375,1.100584575653076,11.118223596954346,-2.5718214958190915
1789740868368363800,2.24036376953125,0.8011597305297851,9.996390481567381,-2.0958242782592773
1789740868378441700,2.250441650390625,0.395192911529541,10.544363386535643,-0.9979331794738769
1789740868388519700,2.260519775390625,0.16355390090942382,10.36180550994873,-1.598578520965576
1789740868398596900,2.270596923828125,0.36631285400390623,10.340407332611083,-1.569848101043701
1789740868408674800,2.2806748046875,0.7422025146484375,10.199149434661864,-1.4829086532592772
1789740868418751700,2.290751708984375,0.8426093467712402,10.06223102722168,-1.5168763893127442
1789740868428830000,2.300829833984375,0.898274535369873,9.600000469207764,-1.407042388153076
1789740868438908000,2.310907958984375,1.0356418556213378,9.088389501953124,-0.37229835815429685
1789740868448984800,2.32098486328125,1.1682207725524902,9.394996952056884,-0.9714473236083984
1789740868459062800,2.331062744140625,0.32097266006469727,9.69801309967041,-1.507299582672119
1789740868469140700,2.341140625,-0.9211690887451172,9.812036953735351,-2.039410901641846
1789740868479217700,2.3512177734375,-0.8399158699035644,10.013748443603514,-2.0787655914306638
1789740868489295600,2.361295654296875,0.008678981018066407,9.842413387298583,-1.0992378372192382
1789740868499373800,2.371373779296875,0.4466682472229004,9.826701438903807,-0.3833715408325195
1789740868509451000,2.381450927734375,0.4010287780761719,9.381828842926025,-0.7731774986267089
1789740868519529000,2.391529052734375,0.6648398735046386,9.127594554138183,-0.7128735443115234
1789740868529607000,2.40160693359375,1.001075569152832,8.930821105194092,-0.5294178421020508
1789740868539683800,2.411683837890625,1.4347253448486328,8.867374761199951,-0.8304887008666991
1789740868549761800,2.42176171875,0.7683890953063964,9.8189202835083,-1.6461632789611815
1789740868559839700,2.43183984375,-0.1883937431335449,8.607603881072997,-0.32920272827148434
1789740868569916700,2.441916748046875,-0.5198410354614258,6.808959883880615,0.33578678283691404
1789740868579995000,2.451994873046875,0.11207856521606445,7.42501789855957,-0.488417138671875
1789740868590072800,2.46207275390625,0.3389291725158691,7.752724250793457,-0.9944915145874023
1789740868600149800,2.472149658203125,0.2371756019592285,7.663540238952637,-1.5741875915527344
1789740868610227700,2.482227783203125,1.7444751846313475,10.77046580581665,-1.7555483673095702
1789740868620305700,2.4923056640625,-0.8699930282592773,12.22569150238037,-1.638232485961914
1789740868630382800,2.5023828125,-1.0637737251281738,11.474660369110106,0.08693944778442382
1789740868640460800,2.512460693359375,-0.9753379013061523,11.042656607055664,0.6395511184692383
1789740868650539000,2.5225390625,-0.42586862030029293,11.660659910583496,-0.5434837768554687
1789740868660616000,2.532615966796875,0.4107552223205566,11.47256544265747,-0.8635586112976074
1789740868670694000,2.54269384765625,0.18704700469970703,11.63222876586914,-0.5141548065185546
1789740868680771800,2.552771728515625,0.21009119567871093,12.214019769287109,-0.567575431060791
1789740868690848800,2.562848876953125,-0.22744915771484372,12.277615750885008,-0.8991723609924316
1789740868700926700,2.5729267578125,0.013168109130859374,11.95813946685791,-0.7314286071777343
1789740868711004700,2.583004638671875,0.7472901931762694,11.238532230377196,-0.7257423782348632
1789740868721081900,2.593081787109375,1.4752771354675291,10.619032550811767,-1.342698218536377
1789740868731159800,2.603159912109375,1.933916390991211,10.36809028930664,-1.8463783927917479
1789740868741237800,2.61323779296875,1.692401298522949,9.942820219421385,-2.012925045776367
1789740868751315000,2.62331494140625,1.7414824325561522,9.029731561279297,-2.4289175842285156
1789740868761393000,2.633392822265625,2.0724808120727536,8.18427910003662,-2.743306189727783
1789740868771470800,2.643470947265625,2.6223990058898923,7.420379132843017,-3.133411422729492
1789740868781547800,2.6535478515625,2.9287071807861325,7.122899576568603,-3.2410008598327633
1789740868791625700,2.663625732421875,2.789544209289551,6.788160256958007,-2.929156093597412
1789740868801704000,2.673703857421875,2.526930214691162,6.627599108123779,-2.82830034866333
1789740868811780900,2.68378076171875,2.2170307373046874,6.908768165588379,-2.6617536956787107
1789740868821858800,2.69385888671875,1.7334020019531249,7.34241794128418,-2.249651734924316
1789740868831936800,2.703936767578125,0.8810662109374999,7.7036431167602535,-2.375796234893799
1789740868842014000,2.714013916015625,-0.27623101654052734,7.9761331932067865,-1.8273744171142576
1789740868852092000,2.724091796875,1.7720085037231443,8.556128545379638,-1.8876783714294432
1789740868862169900,2.734169921875,-0.044292730712890624,10.06731870574951,-2.6081834335327145
1789740868872246800,2.744246826171875,4.06655151977539,10.385298613739012,-3.4222119979858396
1789740868882325000,2.754324951171875,-0.13257891693115234,9.399037167358397,-2.7465982170104977
1789740868892403000,2.76440283203125,-0.860565859222412,11.160870314025878,-0.849791951751709
1789740868902480000,2.77447998046875,1.0307038146972656,11.059864931488036,-1.5574281799316405
1789740868912557800,2.784557861328125,1.416020644378662,11.093383754730224,-1.377713417816162
1789740868922635800,2.7946357421875,1.1119570335388183,11.15353807144165,-1.1837830833435057
1789740868932712700,2.804712646484375,-0.4664204109191894,9.839869548034667,3.6988919273376464
1789740868942790700,2.814790771484375,-0.1693897674560547,8.791957408905029,1.020827732849121
1789740868952868900,2.824868896484375,0.7864952453613281,9.170540546417236,-0.40462008056640625
1789740868962946000,2.834946044921875,1.142183829498291,8.974664923095702,-0.35179800643920894
1789740868973024000,2.84502392578125,1.2808978881835937,8.530241239929198,-0.12853870162963865
1789740868983102000,2.85510205078125,1.5662567985534668,8.069357420349121,-0.2754828285217285
1789740868993179000,2.865178955078125,1.6232687255859375,8.1594392578125,-0.4510077377319336
1789740869003256800,2.8752568359375,1.769763939666748,8.121880219268798,-0.19767127456665037
1789740869013334800,2.885334716796875,1.9180548049926758,8.03793352355957,-0.24914661026000975
1789740869023411700,2.89541162109375,2.1371242568969726,7.45704034576416,0.026186580657958983
1789740869033490000,2.905489990234375,1.7425298957824706,6.547842265319824,-0.19393033447265623
1789740869043567900,2.91556787109375,1.959354783630371,7.549366747283935,0.6042366439819336
1789740869053644800,2.925644775390625,2.0974702919006347,9.075371030426025,0.5454290657043457
1789740869063722800,2.93572265625,1.8154034088134765,11.226261946868895,0.3221697608947754
1789740869073800700,2.94580078125,0.5512649322509765,13.93111127243042,0.10115502014160156
1789740869083878000,2.9558779296875,-0.8059481338500976,15.781380242919921,0.3978863883972168
1789740869093955800,2.965955810546875,-3.16004691619873,15.698032097625731,2.0856489212036133
1789740869104034000,2.976033935546875,-3.618386896514892,15.529240880584716,3.1829414695739744
1789740869114111000,2.986111083984375,-0.44861353607177734,12.778752085876464,2.214786173248291
1789740869124189000,2.99618896484375,2.487425887298584,9.330652782440184,0.3452139518737793
1789740869134267000,3.006266845703125,1.957409494781494,10.123732082366942,0.3124433166503906
1789740869144343800,3.01634375,1.2502221794128416,9.903016616821288,0.41838674011230464
1789740869154421800,3.026421875,1.0556932945251465,10.040982487487792,0.7294833183288574
1789740869164499700,3.036499755859375,0.812083275604248,10.420014537811278,0.9732429748535155
1789740869174576600,3.04657666015625,1.0383353324890137,10.894665016937255,0.6801029090881348
1789740869184654800,3.05665478515625,0.7983166160583496,11.634323692321777,0.7369651985168456
1789740869194732800,3.06673291015625,0.4537012145996093,11.934945638275146,0.6277297477722168
1789740869204810000,3.07681005859375,0.28311434631347654,12.29632045135498,0.6591536445617675
1789740869214888000,3.086887939453125,0.4553472282409668,12.89711543045044,0.2786252182006836
1789740869224966000,3.0969658203125,1.458068811035156,12.812270909118652,-1.2834417274475096
1789740869235042800,3.107042724609375,0.3226186737060547,11.551723735046385,-0.8845078758239746
1789740869245120800,3.117120849609375,-0.9736918876647949,10.747421614837647,0.09277531433105468
1789740869255198700,3.12719873046875,-0.7460930923461914,10.5720463432312,-0.2813186950683594
1789740869265275600,3.137275634765625,0.8215104446411132,10.64821188354492,-2.13877027053833
1789740869275353900,3.147353759765625,1.5559318038940428,10.833014324188232,-2.878578583526611
1789740869285431800,3.157431884765625,1.7694646644592285,10.530147814178466,-1.876305913543701
1789740869295508700,3.1675087890625,1.3723264640808104,9.405321946716308,-1.5849614990234373
1789740869305586700,3.177586669921875,1.4022539848327635,8.891915328216552,-0.6763619689941406
1789740869315665000,3.187664794921875,2.254440138244629,8.74093098602295,-0.7770680763244628
1789740869325741800,3.197741943359375,2.0361188743591305,8.291868537139893,-0.7417536018371581
1789740869335819800,3.20781982421875,1.9147627777099607,7.511209158325195,0.22909517135620117
1789740869345898000,3.21789794921875,1.7176900535583495,6.582558189392089,0.36391865234375
1789740869355974400,3.227974365234375,1.244386312866211,6.067355919647216,0.5671265182495117
1789740869366052400,3.23805224609375,0.5023334358215332,5.8351183586120605,1.3539210388183593
1789740869376130300,3.24813037109375,0.9409212524414062,6.2310594581604,1.786224076080322
1789740869386207200,3.258207275390625,1.227028350830078,7.174225274658203,1.8788497528076171
1789740869396285200,3.26828515625,0.8283937744140625,8.021772662353515,2.5010429092407227
1789740869406363100,3.278363037109375,0.5385457359313964,7.820958998107909,2.756025386047363
1789740869416440300,3.2884404296875,-1.7567454681396484,8.209118942260742,2.251746661376953
1789740869426518500,3.2985185546875,-0.10145429534912109,8.767716117095947,2.6280852348327635
1789740869436596500,3.308596435546875,-0.28640637359619137,8.960299713134765,1.3165116378784179
1789740869446674400,3.31867431640625,0.07511807708740234,9.473107781219483,0.6769605194091797
1789740869456751400,3.32875146484375,0.8539818046569824,9.400383905792236,0.6314706878662109
1789740869466829300,3.338829345703125,0.9268553176879882,9.426720124053954,0.1288379768371582
1789740869476907300,3.3489072265625,1.6226701751708983,9.70354969100952,-0.6479308242797851
1789740869486984200,3.358984130859375,1.6895581840515135,10.063128852844237,-1.5572785423278808
1789740869497062400,3.3690625,1.156249764251709,10.20229182434082,-1.1450269439697265
1789740869507140400,3.379140380859375,0.9657610946655273,10.555436569213867,-0.6076783088684081
1789740869517217300,3.38921728515625,1.2373533454895018,11.184213780212401,-0.7615057655334472
1789740869527295200,3.399295166015625,1.6295535049438477,11.58778639755249,-1.3883376876831053
1789740869537373200,3.409373291015625,0.8352771041870116,12.084433604431151,-1.0950479843139649
1789740869547450400,3.419450439453125,0.5930138236999511,12.103138304901123,-0.6889315277099609
1789740869557528300,3.4295283203125,0.8858546142578124,12.221352011871337,-0.7538742477416992
1789740869567606500,3.4396064453125,0.5376479103088379,11.285967350769042,0.6827963859558105
1789740869577683500,3.449683349609375,-0.4848258361816406,10.557681133270263,1.5131354492187499
1789740869587761400,3.459761474609375,0.8598176712036132,9.8442090385437,1.96638775100708
1789740869597839400,3.46983935546875,2.1918916198730467,8.43971048965454,2.0554221252441405
1789740869607916300,3.479916259765625,0.5802946273803711,7.9378259666442865,3.164685681915283
1789740869617994200,3.489994140625,0.04608838195800781,8.118139279174803,3.2044892845153807
1789740869628072200,3.500072265625,0.5638344909667968,8.613739022827147,1.8682254829406737
1789740869638149400,3.5101494140625,1.4534300453186035,9.864859027862549,0.16355390090942382
1789740869648227300,3.520227294921875,1.3195043899536132,9.418340418243409,-0.9238625656127929
1789740869658305300,3.53030517578125,1.3768155921936034,9.702502227783203,0.03277063522338867
1789740869668382500,3.540382568359375,1.1079168182373047,9.849446354675292,-0.41060558471679687
1789740869678460400,3.55046044921875,0.9804255798339843,10.075099861145018,-0.7160159339904785
1789740869688538400,3.560538330078125,1.537227103424072,10.338462043762206,-1.3660416847229002
1789740869698615300,3.570615234375,1.7860744384765623,10.686070197296141,-1.694496224975586
1789740869708693200,3.580693359375,2.3041198226928707,10.48361051940918,-1.0971429107666015
1789740869718771200,3.590771240234375,2.4862287864685055,9.572317512512207,-1.9607015220642088
1789740869728848100,3.60084814453125,1.6347908210754394,8.898649020385742,-1.6757915245056152
1789740869738926300,3.61092626953125,1.1149497856140136,8.556577458190917,-1.4366706336975097
1789740869749004300,3.62100439453125,1.0043675964355467,8.709507089233398,-1.4761749610900878
1789740869759081500,3.63108154296875,1.18108960647583,9.159018450927734,-1.5249568199157715
1789740869769159400,3.641159423828125,1.1628338188171385,9.649081603240965,-0.968454571533203
1789740869779237400,3.6512373046875,1.265335577392578,9.984419473266602,-0.37978023834228514
1789740869789314300,3.661314208984375,1.5952864936828612,10.357166744232178,-0.001496376037597656
1789740869799392300,3.671392333984375,1.593490842437744,10.608408280944824,0.2850596351623535
1789740869809470500,3.681470458984375,1.3162123626708984,10.505756884765624,0.5668272430419922
1789740869819548400,3.69154833984375,1.1990461189270019,10.490942761993407,1.2184990074157713
1789740869829625300,3.701625244140625,1.2054805358886718,10.622923128509521,1.5260042831420897
1789740869839703300,3.711703369140625,1.27042325592041,10.803834991455078,1.3971663063049315
1789740869849781200,3.72178125,1.291522158050537,10.765527764892578,1.1444283935546875
1789740869859858200,3.731858154296875,1.5050550186157226,10.780790800476074,1.044470474243164
1789740869869936000,3.74193603515625,1.5854104118347168,10.875960316467285,1.0064625228881836
1789740869880014300,3.752014404296875,1.6633716033935546,10.964396140289306,0.8854057014465332
1789740869890091500,3.762091552734375,1.646462554168701,10.813711073303223,0.7845499565124511
1789740869900169500,3.77216943359375,1.6913538352966309,10.27217258529663,0.6977601463317871
1789740869910247400,3.782247314453125,1.5854104118347168,9.662848262786865,0.6628945846557617
1789740869920324400,3.792324462890625,1.8713678726196288,8.613140472412109,0.7109282554626465
1789740869930402300,3.80240234375,1.7999907356262206,9.41070890045166,-0.12629413757324218
1789740869940480300,3.812480224609375,2.253093399810791,10.020482135772705,-1.064821188354492
1789740869950557200,3.82255712890625,1.992574331665039,10.347290662384033,-0.4144961624145508
1789740869960635400,3.832635498046875,0.9353846611022949,10.57863039779663,0.20485387954711912
1789740869970713300,3.84271337890625,0.1801636749267578,10.562319898986816,0.2136824981689453
1789740869980790300,3.852790283203125,0.02798223190307617,11.295095244598388,0.4138976119995117
1789740869990868200,3.8628681640625,-0.0962169792175293,12.760496298217772,0.9879074600219726
1789740870000946200,3.8729462890625,-0.17776947326660156,13.940388803863524,1.5167267517089842
1789740870011023400,3.8830234375,0.25917232971191406,13.621062157440186,1.4671967048645018
1789740870021101300,3.893101318359375,0.3167828071594238,12.523769609069824,1.2541127571105957
1789740870031179500,3.903179443359375,1.375169578552246,11.681459537506102,1.9282301620483397
1789740870041256400,3.91325634765625,2.1856068405151365,11.00030916519165,1.3180080139160155
1789740870051334400,3.92333447265625,0.7909843734741211,10.983549753570555,1.2921207084655761
1789740870061412400,3.933412353515625,0.9715969612121581,10.734403143310546,1.5068506698608397
1789740870071489300,3.9434892578125,0.687584789276123,10.193463205718993,1.202787059020996
1789740870081567200,3.953567138671875,0.43679216537475585,9.542539629364013,1.149815347290039
1789740870091645200,3.963645263671875,0.7523778717041015,8.991274697113036,0.7633014167785644
1789740870101722400,3.973722412109375,0.8406640579223632,8.469338735198974,0.2255038688659668
1789740870111800300,3.98380029296875,0.5834370170593262,8.413224633789062,0.001496376037597656
1789740870121878300,3.993878173828125,0.9650129066467285,8.259995727539062,-0.44322658233642576
1789740870131956200,4.003956298828125,0.8400655075073241,7.848043404388427,-0.9904512992858886
1789740870142033400,4.014033447265625,0.7594108390808105,7.096413720703125,-1.087266828918457
1789740870152111400,4.024111328125,0.8716390419006347,6.277447115325927,-1.0778396598815918
1789740870162189300,4.034189208984375,1.301098964691162,5.677699599456787,-1.2349591438293457
1789740870172266200,4.044266357421875,1.4374188217163084,5.571905813598632,-1.199495031738281
1789740870182344400,4.054344482421875,0.867598826599121,5.678447787475585,-0.821061531829834
1789740870192422400,4.06442236328125,0.9062053283691406,6.016179859161377,-0.07377133865356444
1789740870202499300,4.074499267578125,0.2255038688659668,6.354061568450927,0.2302922721862793
1789740870212577300,4.084577392578125,0.5957073005676269,6.605602380371093,0.7918821990966797
1789740870222655200,4.0946552734375,1.3066355560302734,7.021894194030761,0.6024409927368164
1789740870232732400,4.104732421875,2.104952172088623,7.999027746582031,0.8285434120178222
1789740870242810400,4.114810302734375,1.5907973655700682,7.987804926300049,0.945560018157959
1789740870252888300,4.124888427734375,0.7053916641235352,8.036137872314452,0.443076944732666
1789740870262965500,4.134965576171875,1.010652375793457,8.074145823669433,0.4312555740356445
1789740870273043500,4.14504345703125,2.0536264739990235,7.548468921661376,0.16684592819213867
1789740870283121400,4.155121337890625,4.304325672149658,6.630292584991455,-0.7676409072875976
1789740870293198300,4.1651982421875,1.7549498168945312,9.074922117614745,-1.0507552536010742
1789740870303276300,4.1752763671875,0.10025719451904297,11.53616142425537,2.3546973327636715
1789740870313354200,4.185354248046875,-5.208436074066162,18.36158144454956,3.4287960525512693
1789740870323431200,4.19543115234375,-3.33257907333374,22.692093697357176,3.2760160591125485
1789740870333509400,4.20550927734375,2.558204473876953,13.192948973083496,0.373495458984375
1789740870343587300,4.21558740234375,2.6261399459838866,7.765593084716796,0.7139210075378417
1789740870353665800,4.225665771484375,0.6549637916564941,8.194753732299803,-0.48018707046508785
1789740870363742700,4.23574267578125,1.3920786277770996,7.454945419311523,0.45923780593872066
1789740870373820700,4.245820556640625,0.9404723396301269,8.432228609466552,-0.18420389022827147
1789740870383898600,4.255898681640625,1.159392153930664,9.828796365356444,-1.3136685234069823
1789740870393975800,4.265975830078125,1.138891802215576,11.033827988433837,-0.8481459381103515
1789740870404054000,4.276053955078125,0.9970353538513183,10.988936707305907,-0.30256723480224607
1789740870414132000,4.286132080078125,0.8750807067871094,10.863241120147704,0.18420389022827147
1789740870424209000,4.296208984375,0.9593266777038574,10.260650489807128,0.39803602600097654
1789740870434286800,4.306286865234375,1.0030208580017088,9.315539384460449,0.035464112091064454
1789740870444364800,4.31636474609375,0.7758709754943848,9.005639907073974,-0.21862053909301757
1789740870454441700,4.326441650390625,0.46357729644775386,8.68242268295288,-0.28221652069091796
1789740870464519700,4.336519775390625,0.25692776565551756,8.811709572601318,-0.13392565536499024
1789740870474598000,4.346597900390625,-0.0017956512451171875,8.70845962600708,0.2620154441833496
1789740870484674800,4.3566748046875,-0.09771335525512695,9.496151972198486,0.8940846824645996
1789740870494752800,4.366752685546875,-0.2841618095397949,10.384999338531493,0.9690531219482421
1789740870504830700,4.376830810546875,0.15263035583496093,9.115174633026122,0.5208884986877441
1789740870514908000,4.386907958984375,0.7486369316101074,8.252214572143554,0.5666776054382324
1789740870524985900,4.39698583984375,6.379350323486328,8.163030560302733,-1.0568903953552244
1789740870535063800,4.407063720703125,6.9439330024719235,7.448810277557373,-3.6547488342285153
1789740870545140700,4.417140625,0.6290764862060546,8.725219037628174,-1.2973580245971679
1789740870555219000,4.427218994140625,1.0770914718627929,9.88999814529419,0.974290438079834
1789740870565297000,4.437296875,2.1651064888000486,9.417741867828369,0.08768763580322265
1789740870575374800,4.447374755859375,1.990629042816162,10.134356352233887,-0.502483073425293
1789740870585451800,4.45745166015625,1.9262848731994628,10.680683243560791,-0.8327332649230956
1789740870595529700,4.46752978515625,1.622221262359619,10.584166989135742,-0.8903437423706054
1789740870605607700,4.477607666015625,1.2910732452392577,10.507103623199463,-0.7344213592529296
1789740870615684900,4.487684814453125,1.3652934967041015,10.385897164154052,-0.520289948272705
1789740870625762800,4.4977626953125,1.748665037536621,9.987412225341796,-0.4638765716552734
1789740870635840800,4.5078408203125,1.7477672119140624,9.641749360656737,-0.38322190322875976
1789740870645918000,4.51791796875,1.9681834022521971,9.574113163757323,-0.206200617980957
1789740870655996000,4.527995849609375,2.0980688423156737,9.870844532012939,-0.17432780838012693
1789740870666073900,4.538073974609375,1.808669716644287,10.091559997558592,-0.35793314819335936
1789740870676150800,4.54815087890625,1.5652093353271483,10.097695139312744,-0.36691140441894526
1789740870686228700,4.558228759765625,1.6147393821716307,9.64578957595825,-0.4212298545837402
1789740870696307000,4.568306884765625,1.6813281158447264,8.879645044708251,-0.5409399375915527
1789740870706384000,4.5783837890625,1.76198278427124,8.275707675933837,-0.586729044342041
1789740870716461800,4.5884619140625,1.6885107208251953,7.7693340248107905,-0.5904699844360352
1789740870726539800,4.598539794921875,1.6356886466979979,7.518092488098144,-0.3251625129699707
1789740870736617000,4.608616943359375,1.514931100463867,8.065616480255127,0.2480991470336914
1789740870746695000,4.61869482421875,1.453729320526123,9.03272431335449,0.5277718284606934
1789740870756772900,4.62877294921875,1.7848773376464844,9.489268642425536,0.13242927932739257
1789740870766849800,4.638849853515625,2.1871032165527344,10.231920069885254,0.08544307174682617
1789740870776928000,4.648927978515625,1.7738041549682617,11.099967809295654,0.1500865165710449
1789740870787006000,4.659005859375,1.9699790534973143,11.720814227294921,-0.41464580001831053
1789740870797084000,4.669083984375,1.8745102622985839,11.914894199371338,-0.5104138664245605
1789740870807160800,4.679160888671875,1.7114052742004393,11.852046405792235,-0.1924339584350586
1789740870817238800,4.68923876953125,1.7540519912719725,11.689240692901611,0.021697452545166016
1789740870827316700,4.699316650390625,1.6602292137145995,10.842441493225097,0.5997475158691405
1789740870837393700,4.7093935546875,1.668160006713867,9.783306533813477,0.7179612228393554
1789740870847471900,4.719471923828125,1.7384896804809569,9.754875389099121,0.46686932373046874
1789740870857549800,4.7295498046875,1.6802806526184082,9.766696759796142,0.5029319862365722
1789740870867627000,4.739626953125,1.6250643768310546,9.688735568237304,0.32606033859252925
1789740870877705000,4.749705078125,1.7929577682495117,9.667935941314697,0.21068974609375
1789740870887783000,4.759782958984375,1.7887679153442382,9.717914900970458,0.29269115295410153
1789740870897859800,4.76985986328125,1.732055263519287,9.563339256286621,0.21757307586669922
1789740870907937800,4.779937744140625,1.5937901176452636,9.585335984039306,0.12629413757324218
1789740870918015700,4.790015625,1.578826357269287,9.846154327392577,0.4462193344116211
1789740870928092700,4.8000927734375,1.6415245132446288,9.726593881988524,0.30570962448120115
1789740870938171000,4.8101708984375,1.6172832214355468,9.539696514892578,0.3464110527038574
1789740870948248800,4.820248779296875,1.6729484100341796,9.150489107513428,0.2768295669555664
1789740870958325800,4.83032568359375,1.914613140106201,7.154622748565673,-0.09352350234985352
1789740870968403700,4.84040380859375,1.5032593673706054,5.948693299865722,0.09127893829345703
1789740870978481700,4.850481689453125,1.6213234367370604,8.144475497436522,0.8740332435607909
1789740870988559600,4.8605595703125,1.9909283180236814,7.819312984466552,1.1882722114562987
1789740870998636800,4.87063671875,3.2324715164184568,18.060360948181152,-1.546205359649658
1789740871008715000,4.880715087890625,-0.44756607284545896,12.094758599090575,1.8134581199645996
1789740871018793000,4.89079296875,1.9535189170837401,8.90598126296997,0.1924339584350586
1789740871028870000,4.900869873046875,1.7871219017028808,10.091859272766113,0.32576106338500976
1789740871038947800,4.91094775390625,1.8077718910217284,9.802759422302245,0.4074631950378418
1789740871049025800,4.92102587890625,1.710357810974121,9.87683003616333,0.3640682899475097
1789740871059102700,4.931102783203125,1.7583914817810058,9.747543146514891,0.30570962448120115
1789740871069180700,4.9411806640625,1.695693325805664,9.601197570037842,0.14125789794921875
1789740871079259000,4.9512587890625,1.4335282440185546,9.421033895111083,0.06404489440917968
1789740871089335800,4.961335693359375,1.4266449142456055,9.45515126876831,0.023642741394042967
1789740871099413800,4.971413818359375,2.20251588973999,8.340949671173096,-0.4568436042785644
1789740871109491700,4.98149169921875,3.7343560394287105,5.960664308166503,-0.6741174049377441
1789740871119569000,4.99156884765625,3.0077158355712887,5.350741435241699,-0.10205284576416015
1789740871129646800,5.001646728515625,1.900696842956543,2.841468457794189,0.44532150878906246
1789740871139724800,5.011724853515625,0.7902361854553223,0.6524199523925781,0.23388357467651366
1789740871149803000,5.021802978515625,-3.343053705596924,2.4160487503051757,5.580435157012939
1789740871159880000,5.0318798828125,2.427870121002197,8.104073344421387,0.6088754096984863
1789740871169958000,5.0419580078125,1.492635097503662,13.138181610107422,-0.26396073303222656
1789740871180035800,5.052035888671875,1.3959692054748534,15.956755514526366,-0.40836102066040036
1789740871190112800,5.06211279296875,1.7031752059936522,18.825158740997313,-1.363647483062744
1789740871200190700,5.072190673828125,1.8378490493774413,20.598513983154294,-2.1199159324645995
1789740871210268700,5.0822685546875,1.6958429634094236,15.123274061584471,0.32231939849853514
1789740871220345900,5.092345947265625,1.794603781890869,9.336638286590576,-0.16265607528686524
1789740871230423800,5.102423828125,1.6406266876220703,9.894337635803222,-0.25842414169311523
1789740871240501800,5.112501708984375,1.3407529296874998,9.383025943756103,-0.10205284576416015
1789740871250579000,5.122578857421875,1.3932757286071777,9.246706086730956,-0.08230068206787108
1789740871260657000,5.132656982421875,1.4597148246765135,9.366116894531249,-0.14290391159057617
1789740871270734800,5.14273486328125,1.4969745880126952,9.573813888549804,-0.10519523544311522
1789740871280812800,5.152812744140625,1.5958850440979002,9.80605144958496,-0.1318307289123535
1789740871290889700,5.1628896484375,1.6511013198852538,9.933243412780762,-0.16505027694702148
1789740871300968000,5.172968017578125,1.5670049865722655,9.933692325592041,-0.17896657409667968
1789740871311046000,5.1830458984375,1.5625158584594725,9.784802909851074,-0.18809446792602538
1789740871321122800,5.193122802734375,1.5928922920227049,9.655067107391357,-0.19797054977416992
1789740871331200800,5.20320068359375,1.5919944664001464,9.56393780670166,-0.14963760375976562
1789740871341278700,5.21327880859375,1.6077064147949218,9.57575917739868,-0.1352723937988281
1789740871351355100,5.223355224609375,1.5767314308166502,9.64578957595825,-0.11776479415893554
1789740871361433000,5.23343310546875,1.590348452758789,9.727790982818602,-0.0896329246520996
1789740871371511000,5.243510986328125,1.6015712730407714,9.782558345794676,-0.03426701126098632
1789740871381588000,5.253587890625,1.6256629272460936,9.840468098449707,0.03890577697753906
1789740871391666200,5.263666259765625,1.645864003753662,9.79378116607666,0.030974983978271482
1789740871401744100,5.273744140625,1.6585832000732421,9.721805478668212,-0.025737667846679687
1789740871411821000,5.283821044921875,1.580023458099365,9.667487028503418,-0.08424597091674804
1789740871421899000,5.29389892578125,1.5260042831420897,9.598953005981445,-0.14589666366577148
1789740871431977000,5.30397705078125,1.4960767623901365,9.586084172058104,-0.1409586227416992
1789740871442055000,5.314054931640625,1.5692495506286621,9.629628714752197,-0.11148001480102539
1789740871452132000,5.324132080078125,1.5542857902526854,9.689633393859863,-0.09112930068969725
1789740871462210300,5.334210205078125,1.5738883163452146,9.732729023742674,-0.03755903854370117
1789740871472288300,5.344288330078125,1.6683096443176268,9.770138424682617,-0.05027823486328125
1789740871482365200,5.354365234375,1.6781857261657713,9.763554370117188,-0.11761515655517578
1789740871492443100,5.364443115234375,1.5913959159851074,9.684396077728271,-0.22131401596069333
1789740871502521000,5.37452099609375,1.5342343513488768,9.655516020202636,-0.2765302917480469
1789740871512598000,5.384597900390625,1.5388731170654295,9.654767832183838,-0.30466216125488277
1789740871522676000,5.394676025390625,1.5126865364074706,9.65327145614624,-0.27563246612548825
1789740871532754200,5.404754150390625,1.5025111793518064,9.680056587219237,-0.27997195663452146
1789740871542831000,5.4148310546875,1.5412673187255859,9.678260935974121,-0.280271231842041
1789740871552909000,5.424908935546875,1.564760422515869,9.69112976989746,-0.33054946670532226
1789740871562987000,5.434987060546875,1.5544354278564452,9.686790279388427,-0.33788170928955075
1789740871573065000,5.44506494140625,1.5433622451782225,9.71641852493286,-0.337732071685791
1789740871583142100,5.45514208984375,1.5662567985534668,9.695918173217773,-0.3366846084594726
1789740871593220000,5.46522021484375,1.5352818145751952,9.703400053405762,-0.3321954803466797
1789740871603298300,5.47529833984375,1.5102923347473143,9.687538467407226,-0.3055599868774414
1789740871613375200,5.485375244140625,1.5304934112548827,9.705494979858399,-0.33399113159179683
1789740871623453200,5.495453125,1.5607202072143553,9.677662385559081,-0.39594109954833984
1789740871633531100,5.50553125,1.528997035217285,9.672574707031249,-0.46806642456054687
1789740871643608000,5.515608154296875,1.5339350761413573,9.668983404541015,-0.4976946701049804
1789740871653686000,5.52568603515625,1.554585065460205,9.667786303710937,-0.4725555526733398
1789740871663764000,5.535763916015625,1.573140128326416,9.67811129837036,-0.43364977569580077
1789740871673841000,5.5458408203125,1.5708955642700195,9.677213472747802,-0.39848493881225583
1789740871683919000,5.555919189453125,1.5957354064941405,9.702951140594482,-0.39220015945434566
1789740871693997000,5.5659970703125,1.6083049652099608,9.690082306671142,-0.37409400939941406
1789740871704075000,5.576074951171875,1.599925259399414,9.687239192199707,-0.3419219245910644
1789740871714152200,5.586152099609375,1.5491981117248534,9.670629418182372,-0.2823661582946777
1789740871724230100,5.596230224609375,1.5819687469482422,9.673771807861328,-0.2973299186706543
1789740871734308000,5.60630810546875,1.6189292350769042,9.692626145935058,-0.2925415153503418
1789740871744385000,5.616385009765625,1.6093524284362792,9.693972884368895,-0.2750339157104492
1789740871754463200,5.626463134765625,1.5753846923828123,9.689034843444823,-0.23702596435546874
1789740871764541200,5.636541259765625,1.573738678741455,9.706243167877197,-0.19961656341552733
1789740871774618000,5.6466181640625,1.5536872398376464,9.71641852493286,-0.21862053909301757
1789740871784696000,5.656696044921875,1.5367781906127929,9.696516723632811,-0.22640169448852537
1789740871794774000,5.66677392578125,1.5521908638000488,9.681852238464355,-0.19782091217041015
1789740871804851000,5.676850830078125,1.5572785423278808,9.661501524353026,-0.18390461502075195
1789740871814929000,5.686928955078125,1.54500825881958,9.682750064086914,-0.12569558715820311
1789740871825007000,5.697007080078125,1.5456068092346191,9.702801502990722,-0.07167641220092773
1789740871835085000,5.7070849609375,1.5355810897827147,9.68454571533203,-0.04668693237304687
1789740871845162200,5.717162353515625,1.51942022857666,9.68469535293579,-0.0076315177917480465
1789740871855240200,5.727240234375,1.4915876342773438,9.688735568237304,0.03067570877075195
1789740871865318100,5.737318115234375,1.4589666366577148,9.683797527313232,0.044292730712890624
1789740871875395000,5.74739501953125,1.4924854598999022,9.701155489349365,0.04578910675048828
1789740871885473000,5.75747314453125,1.5167267517089842,9.725097505950927,0.06973112335205078
1789740871895551000,5.767551025390625,1.4776713371276855,9.70444751663208,0.14918869094848633
1789740871905628000,5.7776279296875,1.4854524925231933,9.711031571197509,0.17911621170043945
1789740871915706000,5.7877060546875,1.4674959800720213,9.711480484008788,0.17552490921020505
1789740871925784000,5.7977841796875,1.4495394676208495,9.718064538574218,0.1701379554748535
1789740871935862000,5.807862060546875,1.4374188217163084,9.695618898010252,0.16849194183349608
1789740871945939000,5.81793896484375,1.4041992736816404,9.683797527313232,0.20979192047119138
1789740871956017000,5.828016845703125,1.4290391159057616,9.682151513671874,0.24794950942993163
1789740871966094800,5.8380947265625,1.4570213478088379,9.72390040512085,0.24779987182617186
1789740871976172000,5.848172119140625,1.4609119255065917,9.731831198120117,0.24705168380737302
1789740871986250200,5.858250244140625,1.4733318466186522,9.719411277008057,0.25647885284423827
1789740871996328200,5.868328125,1.4592659118652342,9.725247143554688,0.23403321228027343
1789740872006405000,5.878405029296875,1.4236521621704101,9.694721072387695,0.22729952011108398
1789740872016483000,5.888483154296875,1.4291887535095213,9.647435589599608,0.213233585357666
1789740872026561000,5.89856103515625,1.4273931022644042,9.67197615661621,0.23597850112915036
1789740872036639000,5.908638916015625,1.4694412689208984,9.726294606781005,0.2599205177307129
1789740872046716000,5.9187158203125,1.5158289260864257,9.759663792419433,0.30047230834960936
1789740872056794000,5.928794189453125,1.5535376022338867,9.765948571777344,0.3181295455932617
1789740872066872000,5.9388720703125,1.5705962890624998,9.747243871307372,0.3107973030090332
1789740872076949000,5.948948974609375,1.5119383483886717,9.681253688049315,0.27877485580444333
1789740872087027200,5.959027099609375,1.4968249504089355,9.64653776397705,0.2947860794067383
1789740872097105200,5.969105224609375,1.5189713157653808,9.628880526733397,0.3221697608947754
1789740872107182000,5.97918212890625,1.4893430702209471,9.629479077148437,0.33039982910156246
1789740872117260000,5.989260009765625,1.4908394462585448,9.657760584259032,0.28580782318115233
1789740872127338200,5.999338134765625,1.5257050079345702,9.707290631103515,0.21787235107421873
1789740872137415200,6.009415283203125,1.571194839477539,9.76744494781494,0.1753752716064453
1789740872147493000,6.0194931640625,1.5764321556091307,9.775824653625488,0.21487959899902342
1789740872157571000,6.029571044921875,1.5664064361572265,9.772382988739013,0.2524386375427246
1789740872167649000,6.03964892578125,1.5257050079345702,9.708188456726074,0.263062907409668
1789740872177726000,6.049725830078125,1.530343773651123,9.675866734313963,0.23418284988403318
1789740872187804000,6.059803955078125,1.4815619148254393,9.632322191619872,0.18599954147338865
1789740872197882000,6.069882080078125,1.509843421936035,9.628880526733397,0.19961656341552733
1789740872207959300,6.079959228515625,1.565358972930908,9.656862758636475,0.19228432083129882
1789740872218037200,6.090037353515625,1.5946879432678223,9.705195704650878,0.177470198059082
1789740872228115200,6.100115234375,1.6621745025634764,9.706841718292235,0.18809446792602538
1789740872238193200,6.110193115234375,1.721879906463623,9.742605105590819,0.3847182792663574
1789740872248270000,6.12027001953125,1.6603788513183593,9.759214879608153,0.36631285400390623
1789740872258348000,6.13034814453125,1.753154165649414,9.728988083648682,0.07077858657836913
1789740872268426200,6.14042626953125,1.6557400856018065,9.65865840988159,0.062249243164062495
1789740872278503200,6.150503173828125,2.000954037475586,9.665541739654541,-0.46193128280639645
1789740872288581000,6.1605810546875,2.278382154846191,10.071658196258545,-1.5888520767211913
1789740872298659000,6.1706591796875,1.4698901817321777,9.03332286376953,-1.588403163909912
1789740872308736000,6.180736083984375,1.597979970550537,9.343521616363525,-0.3456628646850586
1789740872318814000,6.19081396484375,1.4772224243164063,9.299827436065673,0.7465420051574707
1789740872328892000,6.200891845703125,2.533963182067871,9.70504606704712,0.611568886566162
1789740872338970000,6.21097021484375,2.0370166999816894,10.090961447143554,-0.11028291397094726
1789740872349047300,6.22104736328125,2.1908441566467283,10.291924748992919,-1.7377414924621581
1789740872359125200,6.231125244140625,2.152387292480469,9.925312619781494,-1.1668740341186523
1789740872369203200,6.241203125,1.6787842765808105,9.438840769958496,-0.22026655273437498
1789740872379280100,6.251280029296875,1.7348983779907226,9.349806395721435,-0.1457470260620117
1789740872389358000,6.261358154296875,1.5921441040039062,9.048585899353027,-0.7845499565124511
1789740872399436000,6.27143603515625,1.6838719551086425,9.29548794555664,-1.1798925056457519
1789740872409513000,6.281512939453125,1.9725228927612304,9.706542443084716,-1.045069024658203
1789740872419591200,6.291591064453125,2.1312883903503415,9.851541281127929,-0.38232407760620113
1789740872429669000,6.301669189453125,2.26641114654541,9.910348859405516,-0.10564414825439453
1789740872439747000,6.3117470703125,2.3663690658569334,10.066420880126952,-0.512658430480957
1789740872449824000,6.321823974609375,1.8947113388061523,9.69083049468994,-1.2183493698120116
1789740872459902000,6.33190185546875,1.7331027267456054,9.521440727233886,-1.378311968231201
1789740872469980000,6.34197998046875,1.7708114028930664,9.434351641845703,-1.006163247680664
1789740872480057000,6.35205712890625,1.5879542510986326,9.318981049346924,-0.5644330413818359
1789740872490135300,6.36213525390625,1.5447089836120604,9.414898753356933,-0.5556044227600098
1789740872500213200,6.372213134765625,1.8028338500976562,9.74275474319458,-0.7647977928161621
1789740872510290200,6.382290283203125,1.7660229995727539,9.832986218261718,-0.999130280303955
1789740872520368000,6.3923681640625,1.8417396270751951,9.873538008880615,-0.7647977928161621
1789740872530446000,6.402446044921875,1.9047370582580565,9.798569569396973,-0.2998737579345703
1789740872540524000,6.41252392578125,1.7429788085937499,9.615712417602538,-0.16475100173950194
1789740872550601000,6.42260107421875,1.6460136413574218,9.593266777038574,-0.31259295425415035
1789740872560679200,6.43267919921875,1.6753426116943357,9.529970070648194,-0.4761468551635742
1789740872570757000,6.442757080078125,1.553986515045166,9.494954871368408,-0.5545569595336913
1789740872580834000,6.452833984375,1.4685434432983397,9.581595043945311,-0.48108489608764643
1789740872590912000,6.462912109375,1.6730980476379393,9.734375037384032,-0.4198831161499023
1789740872600990000,6.472989990234375,1.718737516784668,9.808595288848876,-0.526125814819336
1789740872611067100,6.483067138671875,1.6970400642395018,9.775375740814209,-0.575206948852539
1789740872621145000,6.49314501953125,1.7018284675598143,9.690980132293701,-0.3359364204406738
1789740872631223300,6.503223388671875,1.6454150909423828,9.535805937194823,0.01601122360229492
1789740872641301200,6.51330126953125,1.6597803009033203,9.522787465667724,0.21113865890502928
1789740872651378200,6.523378173828125,1.7043723068237304,9.58952583694458,0.12000935821533203
1789740872661456100,6.5334560546875,1.7108067237854003,9.660603698730467,-0.10938508834838867
1789740872671534000,6.5435341796875,1.6961422386169434,9.6656913772583,-0.18121113815307616
1789740872681611000,6.553611083984375,1.8459294799804686,9.713575410461425,-0.08454524612426757
1789740872691689000,6.56368896484375,1.9035399574279783,9.626635962677002,0.25483283920288086
1789740872701767000,6.573766845703125,2.2376807266235352,9.489268642425536,0.7107786178588866
1789740872711845000,6.58384521484375,1.4767735115051268,9.786598561096191,1.3901333389282227
1789740872721922000,6.593922119140625,1.5427636947631835,9.77432827758789,0.05357026214599609
1789740872732000000,6.604,1.1544541130065917,9.382876306152344,-1.345840608215332
1789740872742078000,6.614077880859375,0.7191583236694336,9.441534246826171,-2.3603835617065427
1789740872752155100,6.624155029296875,0.9668085578918456,9.603142858886718,-2.0738275505065915
1789740872762233000,6.634233154296875,0.9943418769836425,9.656563483428954,-0.7029974624633789
1789740872772311000,6.64431103515625,1.416020644378662,10.113556725311279,0.044592005920410155
1789740872782388000,6.654387939453125,1.2484265281677245,9.956437241363524,-0.09980828170776367
1789740872792466200,6.664466064453125,1.105672254180908,9.781810157775878,-0.5069722015380859
1789740872802544000,6.674544189453125,1.0839748016357422,9.633220017242431,-0.3263596138000488
1789740872812622000,6.6846220703125,1.0908581314086914,9.675417821502686,-0.11866261978149413
1789740872822699000,6.694698974609375,0.9240122032165526,9.464279162597656,0.3387795349121094
1789740872832777000,6.70477685546875,0.9654618194580078,9.572916062927245,0.5873275947570801
1789740872842855000,6.71485498046875,0.9023147506713867,9.618854807281494,0.5826888290405273
1789740872852932000,6.72493212890625,0.9476549446105956,9.674370358276366,0.6094739601135254
1789740872863010000,6.735010009765625,1.1363479629516602,9.87727894897461,0.6786065330505371
1789740872873088000,6.745087890625,1.1513117233276366,9.879224237823486,0.4282628219604492
1789740872883166000,6.755166015625,0.9762357269287109,9.705644617462157,0.13676876983642577
1789740872893243100,6.7652431640625,0.9153332221984862,9.727192432403564,0.09038111267089843
1789740872903321000,6.775321044921875,0.8538321670532226,9.71686743774414,0.29553426742553707
1789740872913399000,6.78539892578125,0.8828618621826171,9.679308399200439,0.49455228042602534
1789740872923476000,6.79547607421875,0.8643067993164062,9.681702600860595,0.7240963645935058
1789740872933554200,6.80555419921875,0.9313444458007812,9.816526081848144,0.7770680763244628
1789740872943632100,6.815632080078125,1.0589853218078613,9.78629928588867,0.741903239440918
1789740872953709000,6.825708984375,1.101183126068115,9.740659816741942,0.6923731925964355
1789740872963787000,6.835787109375,1.0402806213378906,9.737667064666747,0.6790554458618163
1789740872973865000,6.845864990234375,0.9533411735534667,9.601646482849121,0.5572504364013672
1789740872983943000,6.85594287109375,0.9618705169677734,9.698162737274169,0.4964975692749023
1789740872994020000,6.86602001953125,0.9787795661926268,9.719112001800536,0.496048656463623
1789740873004098300,6.876098388671875,0.9853636207580566,9.670479780578614,0.6169558403015136
1789740873014176300,6.88617626953125,1.117942537689209,9.713575410461425,0.8243535591125488
1789740873024253200,6.896253173828125,1.256357321166992,9.759663792419433,0.939724151611328
1789740873034331100,6.9063310546875,1.2725181823730467,9.824157599639893,0.8991723609924316
1789740873044409000,6.9164091796875,1.3473369842529297,9.964068759155273,0.7694365585327148
1789740873054486000,6.926486083984375,1.2834417274475096,9.912892698669433,0.6133645378112793
1789740873064564000,6.93656396484375,1.135749412536621,9.81996774673462,0.5633855781555176
1789740873074642200,6.94664208984375,1.0812813247680664,9.71581997451782,0.6441898841857909
1789740873084720000,6.95672021484375,1.0040683212280272,9.510367544555663,0.7496843948364257
1789740873094797000,6.966797119140625,0.9971849914550781,9.434052366638182,0.8110358123779297
1789740873104875000,6.976875,1.0639233627319336,9.478943647766112,0.7781155395507812
1789740873114953000,6.986952880859375,0.996586441040039,9.766996035003661,0.7351695472717285
1789740873125030100,6.997030029296875,1.5174749397277831,8.851962088012694,1.0625766242980956
1789740873135108000,7.007108154296875,2.6128221992492673,9.514258122253418,0.2811690574645996
1789740873145186300,7.017186279296875,1.9662381134033202,8.284985207366942,0.4008791404724121
1789740873155264300,7.02726416015625,4.3251252990722655,10.337863493347168,0.35090018081665036
1789740873165341200,7.037341064453125,2.961627453613281,9.897629663085937,0.7893383598327637
1789740873175419100,7.047419189453125,2.8624177223205565,10.702380696105957,0.6316203254699707
1789740873185497000,7.0574970703125,2.0573674140930174,10.206631314849853,1.486948868560791
1789740873195574000,7.067573974609375,1.3772645050048826,9.848548529052733,1.6594810256958006
1789740873205652000,7.07765185546875,1.382801096343994,9.1163717338562,1.6098013412475585
1789740873215730200,7.087730224609375,1.4576198982238768,9.043647858428955,1.5376760162353516
1789740873225808100,7.09780810546875,1.3593079925537108,8.698583544158936,1.8800468536376953
1789740873235885000,7.107885009765625,1.5774796188354492,8.737938233947753,2.5733178718566894
1789740873245963000,7.117962890625,2.2020669769287107,9.457246195220947,2.7320833694458004
1789740873256041000,7.128041015625,2.3473650901794434,10.114454550933837,2.309806051635742
1789740873266118100,7.1381181640625,2.11318224029541,10.563068087005615,1.6017209106445311
1789740873276196000,7.148196044921875,1.8632874420166015,10.667066221618652,1.2883797683715819
1789740873286274300,7.1582744140625,1.3925275405883788,10.357914932250976,1.913266401672363
1789740873296351200,7.168351318359375,0.6507739387512207,9.78016414413452,2.7008091102600096
1789740873306429200,7.17842919921875,0.44636897201538084,9.312696269989013,2.9191303741455075
1789740873316507100,7.188507080078125,0.48033670806884765,9.02658917160034,2.7443536529541013
1789740873326585000,7.198585205078125,0.5624877525329589,9.069984076690673,2.3454198013305665
1789740873336662000,7.208662109375,0.7146691955566405,9.428216500091553,1.9304747261047361
1789740873346740000,7.218739990234375,1.1647791076660157,9.917531464385986,1.6059107635498047
1789740873356818700,7.228818603515625,1.4043489112854004,10.413879396057128,1.5285481224060058
1789740873366895600,7.2388955078125,1.2352584190368652,10.548702877044677,1.3736732025146483
1789740873376973800,7.248973876953125,1.0130465774536133,10.250624770355223,1.3133692481994628
1789740873387051800,7.2590517578125,0.7020996368408202,9.802310509490967,1.4276923774719237
1789740873397129700,7.269129638671875,0.3724479957580566,9.361029216003418,1.5791256324768066
1789740873407206700,7.27920654296875,0.4373907157897949,9.201216255187989,1.387290224456787
1789740873417284600,7.28928466796875,0.7306804191589356,9.399486080169677,1.0938508834838867
1789740873427362600,7.299362548828125,1.0633248123168946,9.667038115692138,0.7193079612731933
1789740873437439700,7.309439697265625,1.4947300239562988,9.976937593078613,0.12120645904541015
1789740873447517700,7.319517578125,1.4788684379577637,10.014795906829834,-0.08364742050170898
1789740873457596000,7.329595947265625,1.4854524925231933,9.970652813720703,-0.006883329772949218
1789740873467673900,7.339673828125,1.5107412475585937,9.889698870086669,0.28730419921875
1789740873477750800,7.349750732421875,1.2045827102661133,9.82550433807373,0.7743745994567871
1789740873487828700,7.359828857421875,1.1228805786132812,9.634716393280028,0.9585784896850585
1789740873497906700,7.36990673828125,1.337460902404785,9.494356320953369,0.8367734802246093
1789740873507983600,7.379983642578125,1.3290811965942382,9.267206438446044,0.5379471855163573
1789740873518061600,7.3900615234375,1.465849966430664,9.3209263381958,0.2859574607849121
1789740873528139800,7.400139892578125,1.7720085037231443,9.60179612045288,0.1336263801574707
1789740873538217700,7.4102177734375,2.5746646102905273,9.776273566436767,-0.12853870162963865
1789740873548294700,7.420294677734375,2.1568764205932616,9.772233351135254,-0.3746925598144531
1789740873558372600,7.43037255859375,2.0843021827697754,9.553912087249754,-0.6551134292602538
1789740873568450800,7.440450927734375,2.43879366607666,9.829245278167724,-0.7624035911560059
1789740873578527700,7.45052783203125,2.289305699920654,9.682001876068115,-0.7567173622131347
1789740873588605700,7.460605712890625,2.3030723594665528,9.728988083648682,-0.4709095390319824
1789740873598684000,7.470683837890625,2.0020015007019043,9.497797985839844,0.19482816009521484
1789740873608761900,7.480761962890625,2.058414877319336,9.406519047546386,1.105073703765869
1789740873618838800,7.4908388671875,1.8960580772399902,9.617208793640136,1.843086365509033
1789740873628916700,7.500916748046875,1.7408838821411132,9.507674067687988,2.2870611358642576
1789740873638994700,7.51099462890625,1.437119546508789,9.517400511932372,2.6988638214111327
1789740873649071600,7.521071533203125,1.3232453300476072,9.539995790100097,3.16663097076416
1789740873659149600,7.531149658203125,1.6437690773010254,9.703848966217041,3.2300773147583004
1789740873669227800,7.541227783203125,2.057217776489258,9.539696514892578,2.9893104103088377
1789740873679305700,7.5513056640625,2.487276249694824,9.549722234344483,2.3445219757080076
1789740873689383000,7.5613828125,2.4811411079406738,9.65925696029663,1.6927005737304686
1789740873699460900,7.5714609375,2.329109302520752,9.708787007141114,1.556380716705322
1789740873709538800,7.581538818359375,2.205059729003906,9.69083049468994,1.8218378257751464
1789740873719615700,7.59161572265625,2.0657471199035644,9.533262097930908,2.080561242675781
1789740873729693700,7.601693603515625,1.9333178405761717,9.121609049987793,2.045695680999756
1789740873739772000,7.61177197265625,2.0587141525268553,9.067440237426757,1.6756418869018554
1789740873749849900,7.621849853515625,2.4615385818481443,9.246855724334717,1.0634744499206543
1789740873759926800,7.6319267578125,2.9984383041381832,9.232640151977538,0.1945288848876953
1789740873770004700,7.642004638671875,3.296965323638916,9.22500863418579,-0.5578489868164063
1789740873780082700,7.652082763671875,3.210175513458252,9.234286165618895,-0.985064345550537
1789740873790159600,7.66215966796875,3.531896361541748,9.387664709472656,-1.0422259101867675
1789740873800237600,7.672237548828125,3.577236555480957,9.520692539215087,-0.5919663604736328
1789740873810315800,7.682315673828125,3.369689199066162,9.542240354156494,-0.17372925796508787
1789740873820393700,7.692393798828125,3.3268928443908687,9.042450757598877,-0.06778583450317383
1789740873830471000,7.702470947265625,3.219004132080078,9.15587606124878,-0.6118681617736816
1789740873840548900,7.712548828125,2.6095301719665525,9.401581006622314,-0.689530078125
1789740873850626800,7.722626708984375,3.13475816116333,9.798569569396973,-0.6358101783752441
1789740873860703700,7.732703857421875,2.353051319122314,9.619154082489013,-0.5386953735351562
1789740873870781700,7.74278173828125,2.643647545623779,9.464279162597656,0.14170681076049804
1789740873880860000,7.75285986328125,3.8199487487792965,10.033201332092284,0.3413233741760254
1789740873890937900,7.762937744140625,2.0670938583374023,8.691849851989746,0.7662941688537597
1789740873901014800,7.773014892578125,1.839943975830078,8.591592657470702,0.8524854286193847
1789740873911092700,7.7830927734375,2.9227216766357422,10.231920069885254,1.0764929214477539
1789740873921170700,7.793170654296875,2.0024504135131833,9.58339069519043,0.734870272064209
1789740873931247600,7.80324755859375,2.674472891998291,9.765948571777344,0.10459668502807616
1789740873941325600,7.81332568359375,2.1308394775390624,9.826701438903807,0.061949967956542965
1789740873951403800,7.82340380859375,1.835454847717285,9.467271914672851,0.24525603256225584
1789740873961481700,7.833481689453125,2.185906115722656,9.477297634124755,0.7631517791748046
1789740873971559000,7.843558837890625,1.9027917694091796,9.0397572807312,1.4609119255065917
1789740873981636900,7.853636962890625,1.250072541809082,8.696937530517578,1.8556559242248534
1789740873991714800,7.86371484375,1.2898761444091795,9.227103560638428,1.5521908638000488
1789740874001791700,7.873791748046875,1.4909890838623046,9.37898572845459,1.119139638519287
1789740874011869700,7.88386962890625,1.5263035583496092,10.449942058563233,-0.10594342346191406
1789740874021948000,7.893947998046875,-0.44592005920410155,10.13824692993164,-0.36002807464599607
1789740874032025900,7.90402587890625,1.052251629638672,10.75804588470459,0.1806125877380371
1789740874042102800,7.914102783203125,0.535702621459961,9.310152430725097,0.939125601196289
1789740874052180700,7.9241806640625,0.886153889465332,7.298723760986328,0.39115269622802734
1789740874062258700,7.9342587890625,3.2769138847351074,8.56839882888794,-0.2867056488037109
1789740874072335600,7.944335693359375,4.855291329193115,10.607959368133544,-0.2376245147705078
1789740874082413600,7.95441357421875,4.083759844207764,9.801861596679688,-0.13856442108154296
1789740874092491800,7.96449169921875,-0.33952772293090816,12.60262862625122,1.6947955001831054
1789740874102569700,7.97456982421875,-0.28520927276611324,10.465055456542968,2.205059729003906
1789740874112647000,7.98464697265625,-0.0028431144714355467,8.054244022369383,1.743427721405029
1789740874122724900,7.994724853515625,1.8261773162841797,8.807818994903563,1.1821370697021483
1789740874132802800,8.004802734375,1.1839327209472656,8.817844714355468,0.757166275024414
1789740874142879700,8.014879638671875,0.18779519271850584,9.367762908172606,1.2603975364685058
1789740874152957700,8.024957763671875,0.41045594711303707,9.680355862426758,2.1734861946105957
1789740874163036000,8.035035888671874,1.3046902671813965,9.872191270446777,2.290203525543213
1789740874173113900,8.04511376953125,1.5418658691406248,10.136002365875244,1.9244892219543457
1789740874183190800,8.055190673828125,1.43008657913208,9.949853186798094,1.131260284423828
1789740874193268700,8.065268798828125,1.4981716888427734,9.977536143493651,0.6766612442016601
1789740874203346700,8.0753466796875,1.221342121887207,9.920973129272461,0.9519944351196289
1789740874213423600,8.085423583984374,0.8129811012268066,10.164732785797119,1.4826093780517577
1789740874223501600,8.09550146484375,0.6328174263000488,9.939079279327393,1.619078872680664
1789740874233579500,8.10557958984375,1.0375871444702147,9.527276593780517,1.202787059020996
1789740874243657700,8.11565771484375,0.8851064262390136,9.615413142395019,0.611568886566162
1789740874253735000,8.12573486328125,0.9226654647827148,9.705644617462157,0.3203741096496582
1789740874263812900,8.135812744140624,1.6570868240356444,9.784802909851074,0.7012018112182616
1789740874273890800,8.145890869140626,1.9029414070129393,9.998485408020018,1.39177935256958
1789740874283968800,8.15596875,1.4380173721313476,10.180744009399413,1.9490297889709471
1789740874294045700,8.166045654296875,1.4146739059448241,9.891494521331786,2.6927286796569825
1789740874304123600,8.17612353515625,1.5544354278564452,9.542389991760253,3.277213159942627
1789740874314201900,8.186201904296874,0.9074024291992187,9.553912087249754,3.536235852050781
1789740874324278800,8.19627880859375,0.508169302368164,9.477746546936034,3.049015814208984
1789740874334356700,8.206356689453125,0.7175123100280761,9.432406352996825,2.664896085357666
1789740874344434700,8.2164345703125,0.9539397239685058,9.682301151275635,2.7630583534240722
1789740874354512100,8.22651220703125,1.2413935607910156,10.102333905029296,3.53683440246582
1789740874364589300,8.23658935546875,1.294814185333252,10.339659144592284,4.518606720733643
1789740874374667300,8.246667236328125,0.9639654434204101,10.115352376556396,5.345803394317627
1789740874384745200,8.2567451171875,0.670975015258789,9.441085334014891,4.659266068267822
1789740874394822100,8.266822265625,0.26740239791870113,8.97631093673706,3.7949592689514158
1789740874404900400,8.276900390625,-0.03172317199707031,9.042151482391358,3.0582933456420895
1789740874414978300,8.286978271484376,0.32396541213989255,9.38422304458618,2.658012755584717
1789740874425056300,8.29705615234375,0.46686932373046874,9.64638812637329,2.403179916381836
1789740874435133200,8.30713330078125,0.45295302658081055,9.923068055725096,2.144456499481201
1789740874445211100,8.317211181640625,0.27144261322021485,10.10667339553833,1.8960580772399902
1789740874455289000,8.3272890625,0.1614589744567871,10.231022244262695,1.683572679901123
1789740874465366000,8.337365966796876,-0.10040683212280273,10.275165337371826,1.7753005310058592
1789740874475444200,8.3474443359375,-0.18106150054931638,10.040084661865233,2.0278888061523435
1789740874485522200,8.357522216796875,0.006733692169189453,9.607781624603271,2.0202572883605954
1789740874495600000,8.36760009765625,0.1919850456237793,9.630825815582275,1.548150648498535
1789740874505677300,8.37767724609375,-0.012419921112060545,9.583839608001709,0.814627114868164
1789740874515755300,8.38775537109375,0.05910685348510742,9.953594126892089,0.09217676391601562
1789740874525833200,8.397833251953125,0.39055414581298825,10.169221913909912,-0.09861118087768554
1789740874535911400,8.407911376953125,0.08334814529418945,10.24673419265747,0.09023147506713866
1789740874545988400,8.41798828125,-0.2855085479736328,10.147823736572265,0.32411504974365235
1789740874556066300,8.42806640625,-0.40132805328369137,10.139743305969239,0.6328174263000488
1789740874566144300,8.438144287109376,-0.4354454269409179,10.135254177856444,0.6914753669738769
1789740874576221200,8.44822119140625,-0.13347674255371092,10.066121604919433,0.6744166801452637
1789740874586299100,8.458299072265625,-0.03890577697753906,9.932195949554442,0.4950011932373047
1789740874596377000,8.468377197265625,0.366462491607666,9.768642048645019,0.058957215881347655
1789740874606455300,8.478455322265624,0.7136217323303222,9.482385312652587,-0.2991255699157715
1789740874616532200,8.4885322265625,0.7484872940063476,9.440037870788574,-0.36017771224975587
1789740874626610200,8.498610107421875,0.9961375282287597,9.644293199920654,-0.17342998275756835
1789740874636688100,8.508688232421875,1.0006266563415527,9.782259070587157,0.11013327636718749
1789740874646766000,8.51876611328125,0.9802759422302245,9.788543849945068,0.4230255058288574
1789740874656843300,8.52884326171875,1.4525322196960448,10.017489383697509,0.7544727981567383
1789740874666921200,8.538921142578126,1.126172605895996,10.289380909729003,0.9463082061767577
1789740874676999200,8.548999267578125,1.677736813354492,10.079140076446533,0.8976759849548339
1789740874687076000,8.559076171875,1.4501380180358885,9.583989245605467,0.4837783729553222
1789740874697154300,8.569154296875,1.4103344154357909,9.502586389160156,0.2867056488037109
1789740874707232300,8.579232177734376,1.8065747901916502,9.870994169616699,0.4375403533935547
1789740874717310200,8.589310302734376,2.140117008972168,10.250774407958984,1.0763432838439941
1789740874727387100,8.59938720703125,1.7836802368164062,9.662848262786865,1.9550152931213378
1789740874737465000,8.609465087890625,1.4188637588500976,9.30760859146118,2.404975567626953
1789740874747543000,8.61954296875,1.4909890838623046,9.27648396987915,2.622099730682373
1789740874757621200,8.629621337890624,1.2210428466796874,9.513659571838378,2.353051319122314
1789740874767698200,8.6396982421875,0.9769839149475097,9.72345149230957,1.935113491821289
1789740874777776000,8.649776123046875,0.9958382530212402,9.783306533813477,1.6735469604492186
1789740874787854000,8.65985400390625,1.30229606552124,9.865158303070068,1.3290811965942382
1789740874797931300,8.66993115234375,1.4392144729614258,9.57590881500244,1.1327566604614256
1789740874808009200,8.68000927734375,1.3202525779724121,9.377339714813232,1.074547632598877
1789740874818087200,8.690087158203125,1.4794669883728027,9.383923769378661,1.3871405868530273
1789740874828165400,8.700165283203125,1.99826056060791,9.755922852325439,1.6150386573791502
1789740874838242300,8.7102421875,1.9786580345153808,9.950601374816895,1.5803227333068848
1789740874848320300,8.7203203125,1.7112556365966796,9.925911170196533,1.0467150382995605
1789740874858398200,8.730398193359376,1.345092420196533,9.393949488830566,0.412401235961914
1789740874868476200,8.74047607421875,1.2690765174865721,9.31509047164917,0.2555810272216797
1789740874878553000,8.750552978515625,1.5716437522888183,9.56962403564453,0.7074865905761718
1789740874888631000,8.760631103515625,1.6262614776611328,9.471312129974365,1.2401964599609374
1789740874898709200,8.770709228515624,1.7143980262756346,9.514108484649658,1.46195938873291
1789740874908786200,8.7807861328125,1.5269021087646484,9.59551134109497,1.3420996681213377
1789740874918864100,8.790864013671875,1.2116156776428222,9.72943699645996,1.1528080993652343
1789740874928942000,8.800942138671875,0.7154173835754394,9.600449382019042,0.9736918876647949
1789740874939020000,8.81102001953125,0.5823895538330078,9.274089768218994,0.6763619689941406
1789740874949097200,8.82109716796875,0.608426496887207,9.725396781158446,0.2480991470336914
1789740874959175200,8.831175048828126,0.7710825721740722,9.936984352874756,-0.25303718795776364
1789740874969253400,8.84125341796875,1.0711059677124022,9.865906491088866,-0.44262803192138667
1789740874979331300,8.851331298828125,1.2677297790527342,9.982174909210205,-0.16744447860717773
1789740874989408300,8.861408203125,1.0907084938049316,10.18313821105957,0.15861585998535155
1789740874999486200,8.871486328125,0.979976667022705,9.868899243164062,0.43634325256347656
1789740875009564200,8.881564208984376,0.7447463539123534,9.402029919433593,0.6919242797851562
1789740875019641000,8.89164111328125,0.44412440795898434,9.125050714874266,0.7381622993469238
1789740875029719000,8.901718994140625,0.7425017898559569,9.75502502670288,0.6479308242797851
1789740875039797200,8.91179736328125,0.9373299499511718,9.95898108062744,0.5279214660644531
1789740875049875200,8.921875244140624,1.1348515869140625,9.772083713531494,0.2941875289916992
1789740875059952400,8.931952392578125,1.0678139404296874,10.01000750350952,0.23837270278930664
1789740875070030300,8.9420302734375,0.7383119369506835,9.703848966217041,0.4665700485229492
1789740875080108300,8.9521083984375,0.6889315277099609,9.471761042785644,0.9449614677429199
1789740875090186200,8.962186279296875,0.635211627960205,9.459790034484863,1.6326958946228027
1789740875100263200,8.97226318359375,0.6257844589233398,9.65297218093872,1.9223942955017088
1789740875110341400,8.98234130859375,0.8726865051269531,10.132859976196288,2.0337246726989746
1789740875120419300,8.99241943359375,0.8976759849548339,9.916484001159667,1.8791490280151366
1789740875130496300,9.002496337890625,0.9783306533813476,9.888052856445311,1.5120879859924317
1789740875140574200,9.01257421875,1.0645219131469725,10.211120442962645,1.2906243324279785
1789740875150652200,9.022652099609376,0.8699930282592773,9.942820219421385,1.079635311126709
1789740875160730000,9.032730224609375,0.7187094108581542,9.767295310211182,1.0148422286987304
1789740875170807000,9.04280712890625,0.6821978355407714,9.54478419342041,1.4094365898132324
1789740875180885200,9.05288525390625,0.4825812721252441,9.35863501434326,1.8656816436767576
1789740875190963200,9.062963134765624,0.3972878379821777,9.847501065826416,2.2637176696777344
1789740875201041200,9.073041259765626,0.7627028663635254,10.18283893585205,2.4717139389038083
1789740875211118300,9.083118408203125,0.9524433479309081,10.24089832611084,2.25997672958374
1789740875221196300,9.0931962890625,0.5488707305908203,9.841066648864745,1.9195511810302732
1789740875231274200,9.103274169921875,0.6619967590332031,9.661351886749268,1.532887612915039
1789740875241352200,9.113352294921874,0.6446387969970703,9.721506203460693,1.3799579818725585
1789740875251429400,9.123429443359376,0.7003039855957031,9.119813398742675,1.3245920684814452
1789740875261507300,9.13350732421875,0.9674071083068847,9.505579141235351,1.307383744049072
1789740875271585300,9.143585205078125,1.3224971420288085,9.62065045852661,1.4282909278869629
1789740875281663200,9.153663330078125,1.2662334030151365,9.86441011505127,1.2966098365783691
1789740875291740200,9.163740234375,1.5942390304565428,10.2410479637146,1.3733739273071288
1789740875301818000,9.173818115234376,1.488145969390869,10.140790769195556,1.3184569267272948
1789740875311896300,9.183896240234375,1.0594342346191405,9.565134907531737,1.1513117233276366
1789740875321973200,9.19397314453125,0.8423100715637206,9.262268397521972,0.9253589416503906
1789740875332051200,9.20405126953125,0.8517372406005859,9.23249051437378,0.5978022270202636
1789740875342129200,9.214129150390624,1.2086229255676268,9.610924014282226,0.32665888900756834
1789740875352207000,9.22420703125,1.3039420791625975,9.431957440185545,0.1792658493041992
1789740875362284800,9.234284912109375,1.5286977600097655,9.827299989318847,0.06105214233398437
1789740875372362800,9.24436279296875,1.4278420150756834,9.83208839263916,0.3098994773864746
1789740875382441000,9.25444091796875,1.1186907257080076,9.05831234359741,0.572663109588623
1789740875392519000,9.264518798828124,1.4730325714111328,9.753827925872802,0.6156091018676757
1789740875402596000,9.27459619140625,1.7528548904418944,9.88266590270996,0.6459855354309082
1789740875412674000,9.284674072265625,1.5055039314270018,9.521141452026367,0.21263503494262695
1789740875422752000,9.294751953125,1.5786767196655274,10.017938296508788,0.10609306106567382
1789740875432830000,9.304829833984375,1.539322029876709,8.975712386322021,0.5346551582336425
1789740875442907000,9.314906982421874,1.458218448638916,9.329306044006348,0.8194155181884765
1789740875452985000,9.324985107421876,1.2996025886535645,9.906757556915283,0.9344868354797363
1789740875463063000,9.33506298828125,1.338209090423584,9.695918173217773,0.9081506172180175
1789740875473140000,9.345139892578125,0.9038111267089843,9.797671743774414,0.8096890739440917
1789740875483218000,9.355218017578125,1.3204022155761719,9.88910031967163,0.6438906089782714
1789740875493295900,9.3652958984375,1.808071166229248,9.779116680908203,0.1833060646057129
1789740875503373800,9.375373779296876,2.5100211654663083,9.95898108062744,-0.20679916839599607
1789740875513450800,9.38545068359375,2.289455337524414,9.7806130569458,-0.4604349067687988
1789740875523529000,9.395529052734375,1.6973393394470213,9.383774131774901,-0.34102409896850583
1789740875533607000,9.40560693359375,1.8031331253051757,9.44228243484497,-0.14559738845825196
1789740875543684900,9.415684814453124,2.0073884544372556,9.780912332153319,0.17657237243652343
1789740875553762000,9.425761962890626,1.8932149627685546,9.434202004241943,0.19467852249145506
1789740875563840000,9.435840087890625,2.2207716773986816,9.96511622238159,0.13003507766723632
1789740875573918000,9.44591796875,2.712780118560791,9.647734864807129,0.31962592163085934
1789740875583996200,9.45599609375,2.4410382301330564,9.196278214263916,0.46148236999511716
1789740875594073000,9.466072998046876,1.8896236602783203,9.268702814483643,0.33967736053466796
1789740875604151000,9.476151123046876,2.2472575332641602,9.326014016723633,0.4626794708251953
1789740875614229000,9.48622900390625,1.6440683525085449,9.311349531555175,0.3839700912475586
1789740875624307000,9.496306884765625,1.566107160949707,9.535357024383543,0.6118681617736816
1789740875634384000,9.5063837890625,1.2747627464294433,9.361777404022217,0.900818374633789
1789740875644461800,9.5164619140625,1.1369465133666992,9.747842421722412,1.1118073959350585
1789740875654540000,9.5265400390625,1.608903515625,10.165331336212157,1.0877157417297363
1789740875664618000,9.536617919921875,2.1267992622375487,10.305242495727539,0.8958803337097168
1789740875674695000,9.54669482421875,1.9952678085327147,10.462661254882812,0.512658430480957
1789740875684772900,9.55677294921875,1.9428946472167967,9.558700490570068,0.1927332336425781
1789740875694850800,9.566850830078126,1.8655320060729979,9.173533298492432,0.014963760375976562
1789740875704928000,9.576927978515625,1.374571028137207,8.832060286712647,-0.20694880599975585
1789740875715006000,9.587005859375,1.4618097511291503,8.980800064849854,-0.7368155609130859
1789740875725084200,9.597084228515625,1.6514005950927733,9.552864624023437,-1.0516530792236327
1789740875735162000,9.607162109375,1.5656582481384276,9.835081144714355,-1.0619780738830567
1789740875745239000,9.617239013671876,1.5644611473083496,9.997587582397461,-1.0350433052062988
1789740875755317000,9.62731689453125,2.0693384223937987,10.431237358093261,-1.1754033775329589
1789740875765395000,9.63739501953125,1.8537106353759765,10.081683915710448,-1.3952210174560546
1789740875775473000,9.647472900390625,1.702726293182373,9.53131680908203,-1.4924854598999022
1789740875785549800,9.6575498046875,1.6208745239257811,8.860192156219481,-1.6935983993530273
1789740875795628000,9.6676279296875,1.8447323791503905,9.24416224746704,-1.7548001792907715
1789740875805706000,9.6777060546875,2.0970213790893553,9.76774422302246,-1.6753426116943357
1789740875815784000,9.687783935546875,2.342277411651611,10.0357451713562,-1.7093103477478027
1789740875825860900,9.69786083984375,2.055122850036621,9.887603943634033,-1.7106570861816406
1789740875835938800,9.707938720703124,1.57044665145874,9.064746760559082,-1.6603788513183593
1789740875846016800,9.718016845703126,1.687313619995117,9.377339714813232,-1.6178817718505858
1789740875856095000,9.728094970703125,1.726967584991455,9.951499200439452,-1.5119383483886717
1789740875866172200,9.738172119140625,1.885284169769287,9.757868141174315,-1.5071499450683592
1789740875876250000,9.74825,1.6935983993530273,9.840468098449707,-1.3911808021545409
1789740875886328000,9.758328125,1.333719962310791,9.35264951019287,-1.3178583763122558
1789740875896406000,9.768406005859376,1.5423147819519043,9.146748167419434,-1.5860089622497557
1789740875906483000,9.77848291015625,1.408389126586914,9.443928448486327,-1.8264765914916992
1789740875916561000,9.788560791015625,1.3908815269470214,9.881768077087402,-1.9252374099731444
1789740875926638800,9.798638916015625,1.725620846557617,10.060136100769043,-1.9119196632385254
1789740875936715800,9.8087158203125,1.6124948181152343,10.11325745010376,-1.8231845642089843
1789740875946794000,9.8187939453125,1.4282909278869629,9.888352131652832,-1.6463129165649413
1789740875956872000,9.828871826171875,1.389235513305664,9.496002334594726,-1.4214075981140135
1789740875966950000,9.838949951171875,0.9570821136474609,9.482086037445068,-1.4987702392578124
1789740875977026800,9.84902685546875,1.421108322906494,9.584438158416747,-1.2921207084655761
1789740875987104800,9.859104736328124,1.2660837654113768,9.610475101470946,-1.2176011817932129
1789740875997182700,9.8691826171875,1.2678794166564942,9.768791686248779,-1.1848305465698241
1789740876007261000,9.879260986328125,1.2318167541503906,9.912144510650634,-1.1903671379089356
1789740876017338000,9.889338134765625,0.9047089523315429,9.551667523193359,-1.2816460762023925
1789740876027416000,9.899416015625,0.9377788627624511,9.717765263366699,-1.3193547523498534
1789740876037494000,9.909493896484374,1.0595838722229003,9.637709145355224,-1.0615291610717772
1789740876047572000,9.919572021484376,0.7281365798950195,9.522338552856445,-0.9546879119873046
1789740876057649000,9.92964892578125,1.0280103378295897,10.0495118309021,-0.9249100288391112
1789740876067726800,9.939726806640625,1.0524012672424317,9.939079279327393,-0.7211036125183105
1789740876077805000,9.94980517578125,0.8161234909057616,9.9215716796875,-0.8093897987365722
1789740876087883000,9.959883056640624,0.7580641006469726,9.919476753234862,-0.7220014381408691
1789740876097960000,9.9699599609375,0.39923312683105466,8.838494703674316,-0.8863035270690918
1789740876108038000,9.980037841796875,0.7190086860656738,9.261370571899414,-1.1782464920043945
1789740876118115800,9.99011572265625,0.8716390419006347,9.910498497009277,-0.9778817405700683
1789740876128193800,10.00019384765625,1.375169578552246,10.281599754333495,-0.9114426445007323
1789740876138271000,10.01027099609375,1.271021806335449,10.581174237060546,-0.4703109886169433
1789740876148349000,10.020348876953125,0.5144540817260742,9.423877009582519,-0.1806125877380371
1789740876158427000,10.030427001953125,0.6257844589233398,9.830891291809081,-0.46148236999511716
1789740876168504800,10.0405048828125,1.093701245880127,10.232368982696533,-0.30780455093383785
1789740876178582000,10.05058203125,0.7987655288696288,9.666589202880859,-0.42721535873413086
1789740876188660000,10.060659912109376,0.46148236999511716,9.545981294250488,-0.2480991470336914
1789740876198738000,10.070738037109376,0.8328829025268554,9.61481459197998,-0.07287351303100585
1789740876208816000,10.080816162109375,0.8391676818847655,9.598504093170165,-0.13257891693115234
1789740876218893000,10.09089306640625,1.1462240447998047,9.738564890289306,-0.10998363876342773
1789740876228971000,10.100970947265624,1.209071838378906,10.167426262664794,-0.16026187362670896
1789740876239049000,10.111049072265626,0.8372223930358886,10.0357451713562,-0.10594342346191406
1789740876249127000,10.121126953125,1.0740987197875975,10.051307482147216,-0.0016460136413574218
1789740876259203800,10.131203857421875,1.1308113716125487,10.336816030120849,0.062249243164062495
1789740876269281800,10.14128173828125,0.9528922607421875,10.109965422821045,-0.08349778289794921
1789740876279360000,10.151360107421874,0.7743745994567871,9.862614463806151,-0.2768295669555664
1789740876289438000,10.16143798828125,0.37140053253173827,9.212289437866211,-0.13123217849731444
1789740876299515100,10.17151513671875,0.6534674156188964,9.36596725692749,-0.04773439559936523
1789740876309593000,10.181593017578125,1.0513538040161132,11.024700094604492,-0.014664485168457031
1789740876319671000,10.191671142578125,1.5099930595397948,11.148001480102538,0.3280056274414062
1789740876329749000,10.2017490234375,1.0455179374694823,9.098265583801268,0.4516062881469726
1789740876339826000,10.211825927734376,-0.1649006393432617,7.436988906860351,0.40761283264160153
1789740876349904100,10.221904052734375,-0.2953846298217773,8.09539436340332,0.2150292366027832
1789740876359981800,10.23198193359375,-0.2246060432434082,8.904335249328613,0.18405425262451172
1789740876370059800,10.242059814453125,0.3574842353820801,9.126846366119384,0.42377369384765623
1789740876380136700,10.25213671875,0.9642647186279296,10.311976187896727,0.4177881896972656
1789740876390214700,10.262214599609376,1.4387655601501463,11.442637921905517,0.0900818374633789
1789740876400292600,10.272292724609375,1.9399018951416014,12.204891875457763,-0.174926358795166
1789740876410370800,10.282370849609375,1.642721614074707,11.353304272460937,-0.17298106994628906
1789740876420447700,10.29244775390625,1.097442185974121,9.944915145874022,0.053719899749755856
1789740876430525700,10.302525634765624,0.16819266662597654,8.567052090454101,0.35464112091064454
1789740876440603600,10.312603759765626,-0.5038298118591308,7.813626755523681,0.5392939239501953
1789740876450680800,10.322680908203125,-0.4538508522033691,8.002170136260986,0.6908768165588378
1789740876460758800,10.3327587890625,0.04025251541137695,8.845826946258544,0.5954080253601074
1789740876470836700,10.342836669921875,1.3729250144958496,10.655095213317871,0.5220855995178222
1789740876480914700,10.352914794921874,1.4685434432983397,11.226112309265137,0.4767454055786133
1789740876490991600,10.36299169921875,1.6795324645996093,11.125106926727295,0.48332946014404293
1789740876501069800,10.37306982421875,0.9961375282287597,10.880599082183837,0.46671968612670894
1789740876511147800,10.383147705078125,0.6717232032775878,9.435099829864502,0.45444940261840816
1789740876521225700,10.393225830078125,0.40925884628295894,9.140762663269042,0.28655601119995117
1789740876531303700,10.4033037109375,0.15532383270263672,9.32706147994995,0.5304653053283691
1789740876541380600,10.413380615234376,0.0565630142211914,8.828169709014892,0.7009025360107421
1789740876551458600,10.42345849609375,0.6736684921264648,9.187299958038329,0.7377133865356444
1789740876561536800,10.433536865234375,1.4279916526794432,10.78318500213623,0.6380547424316406
1789740876571613700,10.44361376953125,1.5216647926330567,10.969184543609618,0.42886137237548827
1789740876581691600,10.453691650390626,0.9702502227783203,9.986664037322997,0.16445172653198242
1789740876591769600,10.46376953125,0.745045629119873,9.932644862365722,0.2319382858276367
1789740876601847600,10.47384765625,0.5328595069885254,9.504082765197753,0.3173813575744629
1789740876611924700,10.4839248046875,0.5533598587036133,9.884611191558838,0.12464812393188476
1789740876622002700,10.494002685546874,0.7680898200988769,9.717465988159178,0.17567454681396483
1789740876632081000,10.504080810546874,0.8782230964660644,9.4741552444458,-0.00239420166015625
1789740876642158800,10.514158935546876,1.077690022277832,10.002076710510254,-0.08978256225585937
1789740876652235800,10.52423583984375,1.5713444770812988,10.599280387115478,-0.21697452545166016
1789740876662313700,10.534313720703125,1.2089222007751463,10.120440055084227,-0.49470191802978514
1789740876672391700,10.5443916015625,0.8518868782043456,9.553463174438477,-0.4390367294311523
1789740876682469600,10.5544697265625,0.26710312271118164,9.286509689331055,-0.2859574607849121
1789740876692547800,10.5645478515625,0.42182840499877927,9.262866947937011,-0.12120645904541015
1789740876702624800,10.574624755859375,0.7190086860656738,9.739013803100585,-0.28431144714355466
1789740876712702700,10.58470263671875,1.0733505317687988,9.73572177581787,-0.354341845703125
1789740876722780700,10.59478076171875,1.628655679321289,10.352228703308105,-0.43933600463867184
1789740876732858600,10.604858642578124,1.7235259201049804,10.276063162994385,-0.24765023422241209
1789740876742935600,10.614935546875,1.4059949249267578,10.133757801818847,-0.4730044654846191
1789740876753013500,10.625013427734375,1.3739724777221678,9.58339069519043,-0.5958569381713866
1789740876763091700,10.635091796875,0.7652467056274413,9.06489639816284,-0.8016086433410644
1789740876773169700,10.645169677734375,0.5627870277404785,9.276633607482909,-0.8162731285095214
1789740876783246800,10.655246826171876,1.3358148887634276,9.920224941253661,-0.6988076095581054
1789740876793324800,10.66532470703125,1.4654010536193847,10.022427424621581,-0.8183680549621581
1789740876803402800,10.67540283203125,1.6243161888122557,9.93967782974243,-1.0084078117370605
1789740876813480700,10.685480712890625,1.5690999130249021,9.569923310852051,-1.0588356842041016
1789740876823557600,10.6955576171875,1.774253067779541,9.913191973876952,-0.9210194511413574
1789740876833635800,10.7056357421875,1.34060329208374,9.463830249786376,-0.8233060958862304
1789740876843713800,10.7157138671875,1.4585177238464355,9.218424579620361,-1.0489596023559569
1789740876853791700,10.725791748046875,0.8903437423706054,8.998606939697265,-1.1150994232177733
1789740876863868700,10.73586865234375,1.2425906616210938,9.689483756256102,-1.2868833923339842
1789740876873946600,10.745946533203124,1.7513585144042967,10.071807833862303,-1.2216413970947264
1789740876884024600,10.756024658203126,1.8809446792602538,10.473584799957274,-1.297806937408447
1789740876894102800,10.766102783203126,1.6594810256958006,10.210372254943847,-1.1074679054260252
1789740876904179700,10.7761796875,1.2548609451293944,9.682450788879393,-0.9090484428405761
1789740876914257700,10.786257568359375,2.291550263977051,9.339331763458251,-1.1577461402893066
1789740876924335600,10.796335693359374,2.929754644012451,10.20827732849121,-1.3536217636108399
1789740876934413600,10.80641357421875,1.209071838378906,9.496301609802245,-1.110161382293701
1789740876944490800,10.81649072265625,0.9581295768737792,9.381080654907226,-0.9329904594421387
1789740876954568700,10.826568603515625,0.6607996582031249,8.43357534790039,-0.5325602317810059
1789740876964647000,10.83664697265625,0.4848258361816406,8.124723333740233,-0.7199065116882324
1789740876974724900,10.846724853515624,0.9997288307189941,10.520421369934082,-0.8040028450012207
1789740876984801800,10.8568017578125,1.730708525085449,11.264868448638916,-0.8743325187683105
1789740876994879700,10.866879638671875,2.2746412147521973,10.30374611968994,-0.9705494979858398
1789740877004957700,10.876957763671875,2.0049942527770996,9.628730889129638,-0.7498340324401855
1789740877015035600,10.88703564453125,1.843086365509033,9.594314240264891,-0.6983586967468262
1789740877025112600,10.897112548828124,2.5399486862182616,9.400234268188475,-0.8086416107177734
1789740877035190800,10.907190673828126,2.1158757171630858,9.22485899658203,-0.9253589416503906
1789740877045268700,10.917268798828125,1.8532617225646972,9.254187966918945,-1.061828436279297
1789740877055346700,10.9273466796875,1.7863737136840818,9.713575410461425,-0.9448118301391601
1789740877065423600,10.937423583984375,1.6793828269958495,9.818770645904541,-0.5737105728149414
1789740877075501600,10.94750146484375,1.6398784996032714,10.186130963134765,-0.5978022270202636
1789740877085579500,10.95757958984375,1.4992191520690916,9.491213931274414,-0.7474398307800293
1789740877095657700,10.96765771484375,1.0455179374694823,8.19086315460205,-0.8068459594726562
1789740877105735000,10.97773486328125,1.6849194183349607,9.523086740875243,-0.5345055206298828
1789740877115812900,10.987812744140625,2.255786876678467,10.481814868164061,-0.016909049224853513
1789740877125890800,10.997890869140624,2.2291513832092282,9.654318919372558,0.027234043884277342
1789740877135968800,11.00796875,1.7708114028930664,9.695918173217773,-0.02633621826171875
1789740877146046700,11.018046630859375,1.4040496360778807,10.072705659484862,-0.07077858657836913
1789740877156123600,11.02812353515625,1.2243348739624023,9.677812023162842,-0.12734160079956053
1789740877166201600,11.03820166015625,1.0181342559814452,9.268553176879882,-0.02633621826171875
1789740877176279800,11.04827978515625,1.0844237144470215,9.577105915832519,-0.011971008300781249
1789740877186357800,11.058357666015626,1.4990695144653319,10.031555318450927,0.20380641632080077
1789740877196434700,11.0684345703125,1.9656395629882812,10.027066190338134,0.2602197929382324
1789740877206512600,11.0785126953125,2.071134073638916,10.254664985656738,0.414346524810791
1789740877216590600,11.088590576171875,1.1106102951049803,9.72943699645996,0.5363011718749999
1789740877226668500,11.09866845703125,0.9503484214782715,9.325714741516112,0.37753567428588863
1789740877236745500,11.108745361328126,0.9681552963256835,9.958532167816161,0.34865561676025386
1789740877246823700,11.11882373046875,0.35673604736328124,9.331550608062743,0.4230255058288574
1789740877256901600,11.128901611328125,0.42063130416870115,8.607005330657959,0.3796306007385254
1789740877266979600,11.1389794921875,1.1436802055358886,9.144503603363036,0.4991910461425781
1789740877277056800,11.149056884765624,1.894262425994873,10.38095912322998,0.5599439132690429
1789740877287134700,11.159134765625,2.216731462097168,10.407594616699217,0.8295908752441405
1789740877297212700,11.169212646484375,1.7450737350463865,10.169820464324951,0.8913912055969238
1789740877307291000,11.179290771484375,1.4764742362976073,10.36868883972168,0.7410054138183594
1789740877317367800,11.189367919921875,1.2228384979248046,9.910199221801758,0.1883937431335449
1789740877327445800,11.19944580078125,0.8532336166381835,9.514258122253418,-0.2653074714660644
1789740877337523700,11.209523681640626,0.5374982727050781,9.52533130493164,-0.3447650390625
1789740877347601700,11.2196015625,1.143380930328369,9.446472287750243,-0.15233108062744138
1789740877357678300,11.22967822265625,1.9987094734191893,10.310180536651611,0.07392097625732422
1789740877367756300,11.23975634765625,2.1601684478759764,10.487052184295655,0.2558803024291992
1789740877377834500,11.24983447265625,1.9270330612182616,10.218751960754394,0.13063362808227538
1789740877387912400,11.259912353515626,1.8951602516174315,10.353874716949463,0.10684124908447265
1789740877397990400,11.269990478515625,0.9202712631225586,9.932046311950684,0.19078794479370115
1789740877408067600,11.280067626953125,0.244507844543457,8.974365647888183,0.0992097312927246
1789740877418145500,11.2901455078125,0.31169512863159177,8.939500086212158,-0.33698388366699217
1789740877428223500,11.300223388671874,0.24869769744873046,9.249549201202392,-0.5936123741149902
1789740877438301400,11.310301513671876,0.8092401611328125,9.443180260467528,-0.7727285858154297
1789740877448378600,11.320378662109375,1.2714707191467285,9.913191973876952,-0.6341641647338867
1789740877458456600,11.33045654296875,1.5364789154052734,10.081683915710448,-0.31109657821655273
1789740877468534500,11.340534423828124,1.565957523345947,10.574440544891356,-0.1988683753967285
1789740877478612500,11.350612548828124,1.3753192161560057,10.385597888946533,-0.06958148574829101
1789740877488689400,11.360689453125,0.922515827178955,9.580996493530273,-0.30316578521728516
1789740877498767400,11.370767333984375,0.45923780593872066,9.52518166732788,-0.46582186050415036
1789740877508845600,11.380845458984375,0.4149450752258301,9.380931017303466,-0.4595370811462402
1789740877518923500,11.390923583984375,0.3504512680053711,8.780136038208008,-0.6763619689941406
1789740877529000400,11.40100048828125,0.7890390846252441,9.251943402862548,-0.8737339683532714
1789740877539078400,11.411078369140625,1.177199028778076,9.836876795959473,-0.8916904808044434
1789740877549156400,11.42115625,1.8604443275451659,10.728716914367675,-0.8801683853149413
1789740877559234300,11.431234375,1.571793389892578,10.668412960052489,-0.6286275733947754
1789740877569311500,11.4413115234375,1.2675801414489745,9.950601374816895,-0.6651391487121582
1789740877579389700,11.4513896484375,0.8538321670532226,9.726893157196045,-0.7558195365905761
1789740877589467600,11.461467529296876,0.6075286712646484,9.025092795562744,-0.7805097412109374
1789740877599545600,11.471545654296875,0.4752490295410156,8.590994107055664,-0.9080009796142577
1789740877609622500,11.48162255859375,0.6775590698242188,8.723573023986816,-0.7704840217590332
1789740877619700500,11.491700439453124,1.0172364303588866,9.185055393981933,-0.5428852264404297
1789740877629778400,11.5017783203125,1.3468880714416502,9.6779616607666,-0.5147533569335937
1789740877639856600,11.511856689453126,1.5722423027038572,10.813112522888183,-0.48617257461547847
1789740877649934600,11.5219345703125,1.4767735115051268,10.906037474822998,-0.24525603256225584
1789740877660011500,11.532011474609375,1.6115969924926756,11.147552567291259,-0.3124433166503906
1789740877670089500,11.54208935546875,1.2533645690917967,10.545859762573242,-0.08170213165283202
1789740877680167400,11.55216748046875,0.33039982910156246,9.163208303833008,-0.12015899581909179
1789740877690245400,11.562245361328126,0.3757400230407715,8.46529851989746,-0.3404255485534668
1789740877700322300,11.572322265625,0.8075941474914551,9.607781624603271,-0.4918588035583496
1789740877710400300,11.582400146484375,0.5632359405517577,9.094973556518553,-0.5451297904968262
1789740877720478500,11.592478515625,0.9100959060668945,9.561693242645264,-0.7285854927062988
1789740877730556400,11.602556396484376,1.5912462783813475,11.183315954589844,-0.5195417602539062
1789740877740633600,11.612633544921875,1.3672387855529784,10.311976187896727,-0.43783962860107417
1789740877750711600,11.622711669921875,1.2677297790527342,10.248080931091309,-0.603338818359375
1789740877760789500,11.63278955078125,1.6823755790710448,10.081833553314208,-0.3103483901977539
1789740877770867500,11.642867431640624,0.9979331794738769,9.380931017303466,-0.5506663818359374
1789740877780945700,11.652945556640624,0.9482534950256347,8.831012823486327,-0.720804337310791
1789740877791022600,11.663022705078125,1.0793360359191895,9.03407105178833,-0.9335890098571776
1789740877801100500,11.6731005859375,0.6444891593933105,9.458443296051025,-1.1956044540405273
1789740877811178500,11.683178466796875,0.9606734161376953,9.71716671295166,-1.415272456359863
1789740877821256400,11.69325634765625,1.6259622024536131,10.359710583496094,-1.5976806953430174
1789740877831333400,11.70333349609375,1.064970825958252,9.892841259765625,-1.5506944877624511
1789740877841411300,11.713411376953125,1.6178817718505858,9.906607919311522,-1.50026661529541
1789740877851489500,11.723489501953125,1.4636054023742675,9.663147537994384,-1.2446855880737304
1789740877861567500,11.7335673828125,0.9279027809143066,8.51617530517578,-1.392976453399658
1789740877871644400,11.74364453125,1.3910311645507811,9.173982211303711,-1.595436131286621
1789740877881722400,11.753722412109376,1.3588590797424316,9.799317757415771,-1.5046061058044433
1789740877891800300,11.76380029296875,1.8528128097534178,10.291775111389159,-1.6750433364868162
1789740877901878300,11.773878173828125,2.223016241455078,11.39580135192871,-1.412130066680908
1789740877911955500,11.78395556640625,2.242020217132568,11.47885022201538,-1.5218144302368164
1789740877922033700,11.79403369140625,2.057816326904297,10.708366200256346,-1.6065093139648436
1789740877932111600,11.804111572265626,1.084722989654541,8.860042518615723,-1.379658706665039
1789740877942189600,11.814189453125,0.6391022056579589,8.218695748901366,-1.3853449356079102
1789740877952267500,11.824267578125,-0.23777415237426758,7.212831776428223,-0.8542810798645019
1789740877962344400,11.834344482421875,0.08349778289794921,7.630769603729248,-0.7493851196289062
1789740877972422400,11.84442236328125,1.3238438804626464,10.295067138671874,-0.6145616386413574
1789740877982500600,11.85450048828125,1.9156606033325194,10.958560273742675,-0.5529109458923339
1789740877992578600,11.86457861328125,2.6788123825073242,11.432462564849853,-0.7278373046875
1789740878002655500,11.874655517578125,2.2379800018310547,11.075427242279051,-0.4691138877868652
1789740878012733400,11.8847333984375,1.8224363761901854,9.846752877807617,-0.4914098907470703
1789740878022811400,11.894811279296874,1.4847043045043944,9.113528619384764,-0.4908113403320312
1789740878032889300,11.904889404296876,0.36795886764526364,7.960271607208251,-0.39220015945434566
1789740878042966300,11.91496630859375,1.134402674102783,8.630049521636963,-0.5636848533630371
1789740878053044500,11.92504443359375,1.5080477706909179,9.188646696472167,-0.3938461730957031
1789740878063122400,11.935122314453125,1.6786346389770508,9.100959060668945,-0.6914753669738769
1789740878073200400,11.945200439453124,2.7742811737060546,10.794707097625732,-0.8426093467712402
1789740878083277600,11.955277587890626,2.837877155303955,11.02574755783081,-0.575206948852539
1789740878093355500,11.96535546875,2.4488193855285645,10.561870986175537,-0.59376201171875
1789740878103433500,11.97543359375,1.750011775970459,9.814730430603026,-0.46103345718383787
1789740878113511700,11.98551171875,1.311872872161865,8.992022885131835,-0.6293757614135742
1789740878123589600,11.995589599609374,0.622492431640625,8.313865264892577,-0.7612064903259277
1789740878133666600,12.00566650390625,0.5469254417419434,8.136843979644775,-0.6226420692443847
1789740878143744500,12.01574462890625,1.3952210174560546,9.58234323196411,-0.6181529411315918
1789740878153822500,12.025822509765625,2.3273136512756345,10.772261457061767,-0.4433762199401855
1789740878163900400,12.035900390625,2.7178677970886227,11.109095703125,-0.5345055206298828
1789740878173977300,12.045977294921874,2.8260557846069334,11.6837041015625,-0.5553051475524902
1789740878184055600,12.0560556640625,1.6521487831115722,10.430788445281982,-0.4873696754455566
1789740878194133500,12.066133544921875,0.6958148574829102,8.723722661590577,-0.4676175117492676
1789740878204211500,12.07621142578125,-0.04474164352416992,7.854328183746337,-0.3224690361022949
1789740878214288400,12.086288330078125,0.19393033447265623,7.932439012908935,-0.49155952835083006
1789740878224366300,12.096366455078124,1.9316718269348143,9.941772756195068,-0.7249941902160644
1789740878234444300,12.1064443359375,2.3313538665771483,10.25885483856201,-0.3945943611145019
1789740878244522500,12.1165224609375,2.118269918823242,9.648183777618408,-0.6525695899963379
1789740878254600400,12.126600341796875,2.9173347229003905,11.034725814056396,-0.64478843460083
1789740878264677600,12.136677734375,1.6807295654296874,10.264092154693603,-0.2510918991088867
1789740878274755600,12.146755615234374,0.4342483261108398,8.336161267852782,-0.3591302490234375
1789740878284833500,12.15683349609375,1.0962450851440428,9.543886367797851,-0.5469254417419434
1789740878294911500,12.166911376953125,1.0377367820739745,10.483460881805419,-0.4236240562438965
1789740878304988400,12.176988525390625,1.406443837738037,10.062380664825438,-0.6325181510925293
1789740878315066600,12.187066650390625,2.375048046875,11.117774684143066,-0.6229413444519043
1789740878325144600,12.19714453125,2.07487501373291,11.02529864501953,-0.39369653549194333
1789740878335222500,12.207222412109376,1.0441711990356444,8.778041111755371,-0.6061819328308106
1789740878345299500,12.217299560546875,0.26231471939086914,8.202385250091552,-0.7460930923461914
1789740878355377400,12.22737744140625,-0.31049802780151364,8.399009061431885,-0.49679684448242184
1789740878365455600,12.23745556640625,-0.5002385093688965,8.184428737640381,-0.702847824859619
1789740878375533600,12.247533447265624,0.5310638557434082,9.278279621124266,-0.9126397453308105
1789740878385611500,12.257611572265626,1.2521674682617188,10.196605595397948,-0.8964788841247558
1789740878395688400,12.2676884765625,1.6136919189453125,10.577882209777831,-1.1246762298583983
1789740878405766700,12.2777666015625,2.21553436126709,10.882095458221436,-1.159990704345703
1789740878415844600,12.2878447265625,1.802384937286377,10.755502045440673,-0.9534908111572266
1789740878425922600,12.297922607421874,0.9705494979858398,9.58249286956787,-0.8752303443908691
1789740878435999700,12.307999755859376,0.6745663177490234,8.781482776641845,-1.0492588775634766
1789740878446077700,12.31807763671875,-0.11626841812133788,8.356063069152832,-1.016338604736328
1789740878456155600,12.32815576171875,0.21727380065917967,8.69514187927246,-1.1869254730224608
1789740878466233900,12.33823388671875,1.0850222648620604,9.826402163696288,-1.0823287879943848
1789740878476311800,12.348311767578124,1.5595231063842772,10.164732785797119,-0.879719472503662
1789740878486388700,12.358388671875,2.207005017852783,10.977564249420166,-0.7472901931762694
1789740878496466700,12.368466796875,2.1517887420654294,11.09517940597534,-0.299424845123291
1789740878506544600,12.378544677734375,1.5243582695007323,10.032004231262206,-0.09666589202880858
1789740878516622600,12.38862255859375,1.0842740768432617,9.5001921875,-0.12569558715820311
1789740878526699500,12.398699462890624,0.34611177749633787,9.199570241546631,0.04444236831665039
1789740878536777700,12.40877783203125,0.14918869094848633,8.519168057250976,-0.01975216369628906
1789740878546855700,12.418855712890625,0.6902782661437988,9.73617068862915,-0.20260931549072264
1789740878556933600,12.42893359375,1.5562310791015623,10.862044019317626,-0.021996727752685546
1789740878567010600,12.439010498046875,1.986289552307129,10.938658472442626,-0.10145429534912109
1789740878577088500,12.449088623046874,2.0132243209838867,11.061959857940673,0.016909049224853513
1789740878587166500,12.45916650390625,1.4221557861328125,10.564863738250732,0.27099370040893556
1789740878597244700,12.46924462890625,0.6021417175292968,8.837896153259276,0.35793314819335936
1789740878607322600,12.479322509765625,-0.004489128112792969,7.915230688476562,0.23104046020507812
1789740878617399800,12.48939990234375,0.3280056274414062,8.49791951751709,0.33698388366699217
1789740878627477800,12.499477783203124,0.8880991783142089,9.463381336975097,0.30690672531127927
1789740878637555700,12.5095556640625,2.0944775398254394,10.797699849700926,0.5563526107788086
1789740878647633700,12.519633544921875,2.773233710479736,11.738172189331054,0.9404723396301269
1789740878657710600,12.529710693359375,2.417694763946533,10.99372511062622,1.1258733306884765
1789740878667788800,12.539788818359375,1.594837580871582,10.046818354034423,1.0498574279785156
1789740878677866800,12.54986669921875,0.7249941902160644,8.904484886932373,1.1475707832336426
1789740878687944700,12.55994482421875,0.0665887336730957,8.22288560180664,1.0699088668823242
1789740878698022700,12.570022705078125,0.11866261978149413,8.24129102706909,1.0821791503906248
1789740878708099600,12.580099609375,0.3087023765563965,8.716988969421386,1.1279682571411132
1789740878718177500,12.590177490234375,0.744447078704834,9.330802420043945,1.1635820068359375
1789740878728255500,12.60025537109375,1.9017443061828612,10.683227082824706,1.1858780097961426
1789740878738333700,12.610333740234376,2.479046181488037,11.387720921325682,1.1227309410095214
1789740878748410600,12.62041064453125,2.6678888374328613,11.798925056457518,1.101183126068115
1789740878758488600,12.630488525390625,2.1580735214233395,10.920103409576415,1.2003928573608398
1789740878768566500,12.64056640625,1.0875661041259765,9.524882392120361,1.1719617126464843
1789740878778644500,12.65064453125,0.1632546257019043,8.497021691894531,1.2223895851135254
1789740878788722400,12.660722412109376,-0.4164414512634277,7.222258945465088,1.230918928527832
1789740878798799600,12.670799560546875,0.13213000411987305,7.0747162681579585,1.11075993270874
1789740878808877800,12.6808779296875,0.8539818046569824,8.783876978302002,0.8462006492614745
1789740878818955800,12.690955810546875,2.0883423980712887,10.295964964294432,0.8795698348999023
1789740878829033700,12.70103369140625,2.8905495918273925,11.69043779373169,0.6498761131286621
1789740878839110700,12.711110595703126,3.125929542541504,12.382362073516845,0.7167641220092773
1789740878849188600,12.721188720703125,1.8599954147338866,10.41208374481201,1.0218751960754393
1789740878859266600,12.7312666015625,0.9988310050964355,9.23174232635498,0.5612906517028808
1789740878869344800,12.7413447265625,1.1251251426696776,8.937105884552002,0.48826750106811523
1789740878879422700,12.751422607421874,0.9177274238586425,8.788066831207274,0.09861118087768554
1789740878889499600,12.761499755859376,1.9720739799499512,9.4741552444458,-0.256029940032959
1789740878899577600,12.77157763671875,2.4459762710571287,10.679785417938232,-0.411802685546875
1789740878909655600,12.781655517578125,2.2671593345642087,10.086921231842041,-0.2720411636352539
1789740878919733500,12.7917333984375,1.9162591537475584,9.850044905090332,-0.2889502128601074
1789740878929810400,12.801810546875,1.6000748970031737,9.600000469207764,0.10474632263183593
1789740878939888600,12.811888671875,1.1691185981750487,8.981099340057373,0.323666136932373
1789740878949966600,12.821966552734375,1.0790367607116698,8.547150289154052,0.27174188842773433
1789740878960044500,12.83204443359375,1.7048212196350097,9.292644831085205,0.1836053398132324
1789740878970122500,12.84212255859375,1.9322703773498533,9.816376444244383,0.30690672531127927
1789740878980199700,12.85219970703125,1.5095441467285156,9.29548794555664,0.3296516410827637
1789740878990277600,12.862277587890626,1.988683753967285,9.756072489929199,0.26979659957885743
1789740879000355800,12.87235595703125,1.8390461502075195,9.858125335693359,0.3318962051391601
1789740879010433800,12.882433837890625,1.933766753387451,9.95942999343872,0.04548983154296875
1789740879020510700,12.8925107421875,2.3792378997802732,10.455029737091063,0.11073182678222655
1789740879030588700,12.902588623046874,1.394323191833496,10.22668275375366,0.5090671279907226
1789740879040666600,12.91266650390625,1.0166378799438476,9.016114539337158,0.6554127044677734
1789740879050744600,12.92274462890625,1.151162085723877,9.447519750976562,0.45819034271240233
