time,seconds_elapsed,z,y,x
1789740866204184800,0.076184814453125,0.1712047079235315,0.1461924317419529,-0.6810604290086776
1789740866214263000,0.086262939453125,0.2608651051044464,0.04338964439332485,-0.6278195449475199
1789740866224341000,0.096341064453125,0.4142465715676546,0.00585457124710083,-0.38622261941470204
1789740866234418000,0.10641796875,0.4996662624388933,0.07590659711658954,0.028534020566940307
1789740866244496000,0.116495849609375,0.4851613517463207,0.16046704080998897,0.3147417663184926
1789740866254572800,0.12657275390625,0.4107476235359907,0.2394189969718456,0.0928358671455644
1789740866264650800,0.136650634765625,0.40906361597180363,0.2607967160433531,-0.18036160865165293
1789740866274728700,0.146728759765625,0.20638123524487018,0.20353695172965525,-0.5486354605302214
1789740866284806000,0.156805908203125,-0.06617255408763885,0.23274609507918356,-0.21259782647108658
1789740866294883800,0.1668837890625,-0.47783144724965093,0.36575814273059365,0.47377848206441847
1789740866304961800,0.1769619140625,-0.40168636520206924,0.7051134317040443,0.6842584213323891
1789740866315039000,0.1870390625,-0.06959785236120224,0.5795107835263014,0.6116033733576536
1789740866325117000,0.197116943359375,0.13279343646466732,0.10248539196252822,0.37012327913753684
1789740866335195000,0.20719482421875,0.14067922127842902,-0.0851192466199398,0.3093086718864739
1789740866345271800,0.217271728515625,0.4140788137853145,-0.13951193106472493,0.5379946048546582
1789740866355349800,0.227349853515625,0.9382014720886945,-0.3430599887102842,0.7684812305692583
1789740866365428000,0.237427978515625,1.4471861824929713,-0.6926333048373461,1.064438253451511
1789740866375505000,0.2475048828125,1.5199030436575411,-0.5971984159082174,0.9702426970589906
1789740866385582800,0.257582763671875,0.9891051453739405,-0.35877018353939055,0.7768491728767752
1789740866395660800,0.267660888671875,0.4015887500464916,-0.38974341395199297,0.7473114551600069
1789740866405738000,0.277738037109375,0.07462590965628624,-0.14978841040730476,0.6663456018924713
1789740866415816000,0.28781591796875,0.02706511705815792,0.1600917777568102,0.8096396087791771
1789740866425894000,0.297893798828125,0.07623334485292434,0.20199498298466204,0.8612060568220913
1789740866435970800,0.307970703125,-0.11685294001102446,-0.14820961678326128,0.7153057398945093
1789740866446049000,0.318049072265625,0.5330863014817238,-0.6149369016945362,0.5422049160260707
1789740866456126000,0.3281259765625,1.405114050439,-0.9094710521668196,0.4254373892761767
1789740866466204000,0.338203857421875,1.2872171543329953,-1.2984037342578172,0.9470955571621655
1789740866476281900,0.34828173828125,0.7848971625149249,-1.3311293612957,0.8321483046419919
1789740866486359800,0.35835986328125,0.3900695771664381,-0.910620806723833,0.555889742507413
1789740866496436700,0.368436767578125,-0.12156009478867054,-0.2612128956288099,0.5192757297288626
1789740866506514700,0.3785146484375,-0.44811552342176436,0.2195861692547798,0.45160106398258354
1789740866516591900,0.388591796875,-0.6653700348585844,0.5986234802752732,0.20986659314259887
1789740866526670000,0.398670166015625,-0.955782136964798,0.9951491017132997,-0.10549019980169833
1789740866536748000,0.408748046875,-1.3221499360263347,1.0579945572048426,-0.21655798054002223
1789740866546825000,0.418824951171875,-1.6770365561306475,1.0788672493636609,-0.31030352814272044
1789740866556903000,0.42890283203125,-2.022458597797155,1.1713111397832632,-0.39926739442683756
1789740866566980900,0.43898095703125,-2.3192343897163865,1.4154285237044095,-0.5992635317444801
1789740866577057800,0.449057861328125,-2.2886750008016823,1.79939510782063,-0.7262770696334541
1789740866587135700,0.4591357421875,-1.7581418909341096,2.103364610636234,-1.0002513932883739
1789740866597214000,0.4692138671875,-1.4315963991731404,2.6094682126462456,-1.0292083154425025
1789740866607291000,0.479290771484375,-1.7381471506536006,3.0960990524232384,-0.8915942538883537
1789740866617368800,0.489368896484375,-2.1709622290909287,3.2705613008379935,-0.7221412850029766
1789740866627446800,0.49944677734375,-2.425986206951737,3.3267408686995505,-0.6951917571485042
1789740866637524000,0.50952392578125,-2.6318121464014053,3.38839916023314,-0.7898833534296602
1789740866647602000,0.519601806640625,-2.3704139573335645,3.5536429139256476,-0.7428596633829176
1789740866657680000,0.529679931640625,-1.9948399385094642,3.4574265192300078,-0.5570515528284012
1789740866667756800,0.5397568359375,-1.9287118080854415,3.1732009968042374,-0.21723796216081825
1789740866677835000,0.5498349609375,-2.126343335163593,2.932645104756951,0.387373579548113
1789740866687913000,0.559912841796875,-2.330552487066388,2.56425310639143,0.7656076478943228
1789740866697990000,0.569989990234375,-2.4518027852535247,2.029585673198104,0.8237141652304679
1789740866708067800,0.58006787109375,-2.719671339379251,1.5076245768427847,1.172075256023556
1789740866718144800,0.590144775390625,-2.72202345546335,0.879484494704008,1.4602161983273922
1789740866728222700,0.60022265625,-2.3361954613894222,0.1352566117078066,1.1711150326892732
1789740866738301000,0.610301025390625,-2.1708067462682723,-0.4873533088326454,0.9741960377946496
1789740866748377900,0.6203779296875,-2.0481471658051014,-1.0498311244934797,0.9005689299173653
1789740866758456000,0.6304560546875,-0.6252662802681327,-1.6314058548122643,1.3209018356613813
1789740866768534000,0.640533935546875,-2.01359081620872,-2.4217969385683533,0.8898598313111812
1789740866778611000,0.65061083984375,-1.5130433870211242,-2.919870378857851,2.014620159256458
1789740866788689000,0.66068896484375,-0.46061464724987744,-3.53155675432384,1.478291514852643
1789740866798766800,0.670766845703125,-0.8573071496874094,-3.685993867319822,1.0237277651395649
1789740866808843800,0.68084375,-1.6989809691742062,-3.6589965548008676,1.2037014704521745
1789740866818921700,0.690921630859375,-2.323269344320893,-3.7811920248836275,1.6071926200538873
1789740866828999700,0.700999755859375,-3.1579747860997913,-3.9478345394581553,1.6632164128318427
1789740866839076900,0.711076904296875,-3.8680277200326323,-4.015200102722645,1.584212434221804
1789740866849155000,0.721155029296875,-3.655546414346993,-3.932441740015149,1.1742072265509516
1789740866859233000,0.73123291015625,-2.46785024921298,-3.838036778655648,0.6967766151871532
1789740866869310000,0.74131005859375,-1.0793021336495876,-3.6998312540143727,-0.22260621119569987
1789740866879388000,0.751387939453125,0.11361395808979868,-3.639898471099138,-0.55398467607107
1789740866889465900,0.7614658203125,0.7819272067934274,-3.181888161128759,-0.8921358864843845
1789740866899542800,0.771542724609375,0.6040079497925936,-2.741031230533123,-0.590389904937148
1789740866909620700,0.781620849609375,0.583489624029398,-2.783976638290286,-0.4548863327309489
1789740866919699000,0.791698974609375,0.6232926421076059,-2.686677124533057,-0.5340695403654128
1789740866929775900,0.80177587890625,0.08822627272456884,-2.7892624697387216,-2.5334376968890426
1789740866939853800,0.811853759765625,-0.3898401523247361,-2.6587539293408393,-0.12038075794414617
1789740866949931800,0.821931884765625,0.5720534532576799,-2.3333219517797232,2.1395789565727115
1789740866960009000,0.832009033203125,0.5555512312680483,-2.321457326462865,-1.3013421257972717
1789740866970087000,0.8420869140625,2.0648235753178596,-2.19197871363461,-0.8278434470549225
1789740866980163800,0.852163818359375,2.752780705037713,-1.92162740278244,-0.9259748085264116
1789740866990241800,0.86224169921875,2.7631173901349304,-1.5365017117589712,-2.018696907176077
1789740867000320000,0.872320068359375,3.109995475828647,-0.8656114521741867,-1.742761220320314
1789740867010397000,0.88239697265625,2.818764458554983,-0.4778495674282312,-1.0872793230738491
1789740867020475000,0.892474853515625,2.3635335501700636,-0.31443770533800125,-1.4380186873055993
1789740867030552800,0.902552734375,2.0166694930016993,0.19016601350307463,-1.4241747247397898
1789740867040629800,0.912629638671875,1.8506768206380306,0.7656459340780973,-1.163874706172198
1789740867050707700,0.922707763671875,1.863558660173416,1.1014286252617835,-1.4429318860493598
1789740867060785700,0.93278564453125,2.191214597394317,1.6142992371886968,-1.51303286562711
1789740867070862800,0.94286279296875,2.582587804505229,2.006537390565872,-1.7007281051024794
1789740867080941000,0.952941162109375,3.666131521247327,1.9438965177357195,-2.1398978132635356
1789740867091019000,0.96301904296875,1.970311646452546,2.712145912310481,-2.1736820094436404
1789740867101096000,0.973095947265625,1.740938242676854,3.1169349197030067,-1.8675997522577643
1789740867111174000,0.983173828125,1.9247171854913234,2.8767858548909424,-1.8156057995177803
1789740867121251800,0.993251953125,1.7341193564422428,2.962824554443359,-1.784547667300701
1789740867131328800,1.003328857421875,1.386126441374421,3.078652827581763,-1.438397019098699
1789740867141406700,1.01340673828125,1.0901945529334247,2.8573411497086285,-1.1992469021961092
1789740867151485000,1.02348486328125,0.9260399096518754,2.770934785887599,-1.1749961119063197
1789740867161561900,1.033561767578125,0.7265344053953886,2.6099504432052374,-1.0495433935932814
1789740867171639800,1.043639892578125,0.4360457309216261,2.515114104691148,-1.0918423201404512
1789740867181717800,1.0537177734375,0.03777297355532646,2.1180361100673673,-1.0141545386955142
1789740867191795000,1.063794921875,-0.1951695208787918,1.6212749214202165,-0.7155529926538468
1789740867201873000,1.073872802734375,-0.17627616596892476,1.438909937056899,-0.33020050713717936
1789740867211949800,1.08394970703125,0.09510916410610079,1.2888713512808083,-0.03864201147481799
1789740867222027800,1.09402783203125,0.45029739750549197,0.8986398615509271,0.05146919821351766
1789740867232106000,1.10410595703125,0.6995287634395062,0.5039870482474565,0.0662802522458136
1789740867242183000,1.114182861328125,0.9645943889737129,0.16774784546792507,0.038750732546299696
1789740867252260900,1.1242607421875,1.222048078199476,-0.17811726379096507,0.04501783011704683
1789740867262338800,1.1343388671875,1.5657196229368446,-0.2730997327774763,0.04888809567913413
1789740867272416000,1.144416015625,1.7916073765538632,-0.10887187812924384,-0.03105389443337917
1789740867282494000,1.154493896484375,1.6801748541563748,0.0032844284981489178,0.038650925433635706
1789740867292572000,1.164572021484375,1.3580221905268728,0.09177636642158031,0.01966148973815143
1789740867302648800,1.17464892578125,0.882649680736661,0.24154841021597384,0.028697102174162863
1789740867312727000,1.18472705078125,0.4646181838028133,0.3119686848759651,0.1404893977947533
1789740867322805000,1.194804931640625,0.2759937006533146,0.3373755133330822,0.1347450089238584
1789740867332882000,1.2048818359375,0.2984128916017711,0.48638183345198627,0.05309731087200343
1789740867342959900,1.2149599609375,0.28240868226215243,0.5756488474011421,0.18579415509440003
1789740867353037800,1.225037841796875,0.21590265843644738,0.8840560404032468,0.539127116015926
1789740867363114800,1.23511474609375,-0.11260989561378955,0.9501800791740417,0.5236231112834066
1789740867373192700,1.245192626953125,-0.3010240970134735,1.0381962162792682,0.7450960441328585
1789740867383270700,1.255270751953125,-0.20958923750594258,0.9749059396296739,0.8775635365787893
1789740867393347800,1.265347900390625,-0.1033634899713099,0.7312953361868858,0.7908648387476801
1789740867403426000,1.275426025390625,0.12913184521719812,0.42915830949544903,0.5267581944387406
1789740867413504000,1.28550390625,0.2646171511143446,0.16045827298164367,0.5449116177015007
1789740867423581000,1.295580810546875,0.13252923257052898,-0.1719201627165079,0.6454643611010163
1789740867433659000,1.305658935546875,0.19577727751359342,-0.5860632739096879,0.6682245475068688
1789740867443736800,1.31573681640625,0.34449089829623697,-0.945082463774085,0.6377254374120384
1789740867453813800,1.325813720703125,0.7266688454300165,-1.3447919759452343,0.5937256982963531
1789740867463891700,1.3358916015625,1.0963098209433257,-1.6875398299664257,0.6742259068135171
1789740867473970000,1.345969970703125,1.020109647707641,-1.900513887605071,1.1945762069713324
1789740867484046800,1.356046875,1.0861385555408893,-2.0710621774464846,1.259375938335806
1789740867494124800,1.366124755859375,1.2603610038504003,-1.6829215225160121,1.0616298449672759
1789740867504202800,1.37620263671875,1.4757096816658972,-1.2185691500425337,0.7921373429015278
1789740867514280000,1.386280029296875,1.3424949510492383,-0.749126176431775,0.15153919959738849
1789740867524358000,1.39635791015625,1.1035808348596094,-0.5759405238240957,-0.3551249589048326
1789740867534435800,1.406435791015625,0.7326360832713544,-0.4933569331616163,-0.7016881334304809
1789740867544512800,1.4165126953125,0.4333009622581303,-0.30002514910399913,-1.1265604361698032
1789740867554591000,1.426591064453125,0.09989245285987854,0.44012452466785906,-0.6309621538221836
1789740867564668000,1.43666796875,-0.11568404236212372,0.846037567654252,-0.5778109938710928
1789740867574745900,1.446745849609375,0.10442892724573612,1.7691846784740686,-0.7234940147861838
1789740867584823800,1.45682373046875,0.6154751732897014,2.9955583647876978,-1.5611530456736682
1789740867594900700,1.466900634765625,-0.8935106819689274,0.5487129096806049,-0.7302250766068696
1789740867604978700,1.476978759765625,-1.8902128583431244,1.2278887670516967,-0.4056733890116215
1789740867615056600,1.487056640625,-1.3947025465399026,2.1978286087065935,-1.5636847561083733
1789740867625133800,1.4971337890625,-0.8823124116063118,1.8156892400175333,-2.063030992812663
1789740867635212000,1.5072119140625,-0.9359019629746675,1.586885160562396,-1.766968902120739
1789740867645290000,1.5172900390625,-0.9757518158692866,1.0176035101056098,-1.6122227231755852
1789740867655367000,1.527366943359375,-0.6643021864313632,0.5646849703162908,-1.5188783767849205
1789740867665444900,1.53744482421875,-0.38895964316315945,0.24408757330477238,-1.3004530680030584
1789740867675522800,1.547522705078125,-0.09622932724244893,-0.25494565192759033,-0.8735155032970011
1789740867685599700,1.557599853515625,-0.03655841013379395,-0.6008025778800249,-0.5057603415302931
1789740867695677700,1.567677734375,-0.02908120612092316,-0.8468997374415397,-0.23413243487104773
1789740867705756000,1.577755859375,0.07833579702489078,-1.0910089380562304,-0.17626476779207587
1789740867715832800,1.587832763671875,0.02116436858177185,-1.2326947060287,-0.18290479032844303
1789740867725910800,1.597910888671875,-0.3265776404649019,-1.2946370752006768,0.003686871819198131
1789740867735988700,1.60798876953125,-0.5217664505660533,-1.2383365113079547,-0.1731286617234349
1789740867746066000,1.61806591796875,-0.4775503652859479,-0.9706997201114892,-0.3146604081779718
1789740867756143900,1.628143798828125,-0.7291665805298835,-0.8337129236102103,-0.26908070639446374
1789740867766221800,1.638221923828125,-0.670557739694789,-0.8333055118530989,-0.27029665805548425
1789740867776298800,1.648298828125,-0.3007609890978783,-0.8619938461989164,-0.25140827158167955
1789740867786377000,1.658376953125,0.03996032753176987,-0.7226561026573181,-0.3545347379267216
1789740867796455000,1.668454833984375,0.16376257522404192,-0.4468406811803579,-0.5023034790746868
1789740867806531800,1.67853173828125,0.47229193330109115,-0.4077507798075676,-0.33838995107263325
1789740867816609800,1.68860986328125,0.41089718807451425,-0.26588205648362634,-0.2031052823141217
1789740867826687700,1.698687744140625,0.031111104513332245,-0.07097907758653163,0.17512407332435248
1789740867836765000,1.708764892578125,-0.14420863751359284,-0.1548749198913574,0.3251559370987117
1789740867846843000,1.7188427734375,-0.3048451531389728,-0.3783323776215315,0.28979309342503545
1789740867856920800,1.7289208984375,-0.03226096866820007,-0.382408248758316,0.3261275586098432
1789740867866997800,1.738997802734375,0.2753554027497768,-0.015913023924827574,0.21864728096947073
1789740867877076000,1.749075927734375,0.21315292133688926,0.20570552794039249,0.3256372908748686
1789740867887154000,1.75915380859375,0.45781975583434104,-0.3374193524748087,0.8039344559401274
1789740867897230800,1.76923095703125,0.30175416485369205,-0.6706336544752121,0.9911873584754765
1789740867907308800,1.779308837890625,-0.12809793559219687,-0.7966817083328962,1.1663397811114788
1789740867917386800,1.78938671875,-0.0912625716805458,-0.427983420497179,1.0128076541312039
1789740867927463700,1.799463623046875,0.10782556568039581,-0.18238894976079462,0.20177432597130535
1789740867937541600,1.809541748046875,0.20391046121716497,0.03887596636116505,-0.2343564528852701
1789740867947618800,1.819618896484375,-0.5081090966135263,0.1654535970509052,-1.9533083430729805
1789740867957697000,1.829697021484375,-3.44904915150702,0.36959728250205515,-4.113834956736863
1789740867967775000,1.83977490234375,-3.9960961738020178,2.0803385398358105,-3.1978014773145316
1789740867977852000,1.849851806640625,-0.8851730617344379,2.3570552940666674,-2.914392531968653
1789740867987929900,1.859929931640625,-0.8263368418842554,0.5808171899497508,-1.120962616162747
1789740867998007800,1.8700078125,-0.41653081004731357,0.6382382823050021,0.1676515454865992
1789740868008084700,1.880084716796875,1.5744979726761579,0.7007090592652558,0.40465924353301524
1789740868018162700,1.89016259765625,1.093665590044856,0.3347428267419338,0.32934907793961465
1789740868028241000,1.900240966796875,0.6221452256381511,0.2913379847794771,0.4194569266270846
1789740868038317800,1.91031787109375,0.9230085060667246,-0.11437924337387084,0.3819766524080187
1789740868048395800,1.920395751953125,0.7995803523838519,-0.05005611654520035,0.3020705373264849
1789740868058473700,1.9304736328125,0.5127472047429531,0.03117722855210304,0.4830975510843098
1789740868068551000,1.940551025390625,0.21872451092414558,-0.5462637629628181,0.8396616028815508
1789740868078628900,1.95062890625,0.4543944575607776,-0.49875849994421,0.8397126754816621
1789740868088706800,1.960706787109375,0.5865753881502896,-0.4587444694638252,0.23241876282095908
1789740868098783700,1.97078369140625,0.40802192489914596,-0.061436173215508455,-0.37364765387140214
1789740868108862000,1.980862060546875,0.3025898850254714,0.3423813587963581,-0.33383374907299873
1789740868118940000,1.99093994140625,0.3206037536870688,0.15737725810110567,-0.39225729646906254
1789740868129016800,2.001016845703125,0.5458645345121622,-0.005004676419496536,-0.31576508148424326
1789740868139094800,2.0110947265625,0.38290450784265995,-0.3475082002907991,-0.5221533309917896
1789740868149172700,2.0211728515625,0.15734803200662134,-0.7085001515328884,-0.7891269090391695
1789740868159249700,2.031249755859375,-0.059179991786554455,-1.17970955029428,-0.46477249758169054
1789740868169327600,2.04132763671875,-0.22940208188090472,-1.974340171316266,-0.28206366821676493
1789740868179405800,2.05140576171875,-0.37520346847865726,-2.829088868692517,-0.611730360738188
1789740868189483000,2.06148291015625,0.7103145074784756,-2.3085072439968584,-0.375678502111882
1789740868199561000,2.07156103515625,-0.023565621037222442,-2.1513316459476948,-0.011925415593385696
1789740868209639000,2.081638916015625,-0.37130642450749873,-2.693956175625324,0.49359008433036505
1789740868219715800,2.0917158203125,0.9113684102207422,-3.2491607854127884,0.7702337002597749
1789740868229793800,2.101793701171875,0.6431681399226188,-3.9582302612662312,0.23758710536956787
1789740868239871700,2.111871826171875,-0.9072259035885334,-2.936763645991683,-1.3059670091189444
1789740868249948700,2.12194873046875,2.6952327714323996,-1.6288433108478784,-1.6478871801443398
1789740868260027000,2.13202685546875,3.6793081059455868,0.424031468001008,-0.3705646662294864
1789740868270104800,2.142104736328125,1.8702865071237087,3.460351466766,0.6351276760037988
1789740868280181800,2.152181640625,-4.723546524998546,8.983422814568877,-1.2314612187109888
1789740868290259700,2.162259765625,-6.337817120614647,2.8309961636185643,0.14714732131399214
1789740868300337700,2.172337646484375,0.9588900398522615,6.015319442939758,-0.7018760572180152
1789740868310414800,2.182414794921875,-1.4445844755619763,3.2817256689310073,0.6777915634058416
1789740868320492800,2.192492919921875,-0.32337679859697815,0.13863748631775377,1.7275724190168082
1789740868330571000,2.202571044921875,0.37315581523384894,0.44211482170224187,0.9296187179867178
1789740868340648000,2.21264794921875,-0.09447923217210918,0.6446376279532909,0.09531908052973449
1789740868350727000,2.222726806640625,-0.1373083566058427,1.6507424234449863,-1.7679440307632088
1789740868360804900,2.232804931640625,0.6100286348542198,1.3936416393101214,-1.4046648453667758
1789740868370881800,2.2428818359375,0.30447273963000626,0.2746680050075054,-0.9076308311276138
1789740868380959700,2.252959716796875,-0.10855682083070277,0.8258072650521994,0.21297332698628305
1789740868391038000,2.263037841796875,-0.3460445574790239,0.6457382826715707,-0.370272697545588
1789740868401115000,2.273114990234375,-0.14540511728916317,0.6258329742401838,-0.33066286395192146
1789740868411192800,2.28319287109375,0.2324831332940608,0.4851636898338794,-0.2383016833797097
1789740868421270000,2.29327001953125,0.3398275095950812,0.3477086912989616,-0.27363223221898075
1789740868431348000,2.303347900390625,0.40828678638041016,-0.11487257984876632,-0.1614326709717512
1789740868441426000,2.313426025390625,0.5646235589852556,-0.6244166777014732,0.8965301759205758
1789740868451502800,2.3235029296875,0.7227461190283299,-0.3144166625499725,0.33209815745204685
1789740868461580800,2.333580810546875,-0.10433010651376098,-0.007217091771960258,-0.16639964572936294
1789740868471659000,2.343658935546875,-1.3410036895781754,0.11045008723139763,-0.6707113958865404
1789740868481736000,2.35373583984375,-1.268380936437845,0.3148872026711702,-0.6935232394143939
1789740868491814000,2.36381396484375,-0.43919341783020643,0.14601590613126753,0.29706922190785406
1789740868501891800,2.373891845703125,-0.024821758578158912,0.13438684313595295,1.033355936641246
1789740868511968800,2.38396875,-0.091803290961124,-0.30500469108223915,0.6734605484642088
1789740868522046700,2.394046630859375,0.15265315218865871,-0.5518617291003466,0.7758100390873849
1789740868532124700,2.404124755859375,0.4752934532046318,-0.7396101600676774,1.0122361378535627
1789740868542201900,2.414201904296875,0.9061451226145029,-0.7934341047137975,0.7694353894889354
1789740868552280000,2.424280029296875,0.24302900416254997,0.1683347054451704,0.015334931775927542
1789740868562358000,2.43435791015625,-0.7116758589595555,-1.0273357995688914,1.421368873538822
1789740868572435000,2.44443505859375,-1.0459060600042343,-2.8062790709912777,2.1907339742705223
1789740868582513000,2.454512939453125,-0.4220499387949705,-2.168371628075838,1.4742295261107383
1789740868592590800,2.4645908203125,-0.20223346791565416,-1.8213731308728456,1.0583585682116448
1789740868602667800,2.474667724609375,-0.3046966480463743,-1.9019091413557527,0.5184055958308279
1789740868612745700,2.484745849609375,1.2124947985649108,1.1985288170546293,0.3097381493449211
1789740868622823700,2.49482373046875,-1.3920499862045048,2.635193605533242,0.34171602675542234
1789740868632900600,2.504900634765625,-1.5920879899024962,1.860065557360649,1.9445815773904322
1789740868642978800,2.514978759765625,-1.530912513449788,1.401404674527049,2.3448345487885174
1789740868653056800,2.525056884765625,-1.0428251181889325,1.9937159029155969,0.9862059168010949
1789740868663134000,2.535134033203125,-0.27052615596242247,1.7823790910899637,0.48051484111472964
1789740868673212000,2.5452119140625,-0.563031869347021,1.9252485158890484,0.6615560295283794
1789740868683289900,2.555289794921875,-0.6137351977545767,2.4973925700396298,0.47110221205987035
1789740868693366800,2.56536669921875,-1.1334458848346025,2.5580840623676777,0.03905044614523649
1789740868703444700,2.57544482421875,-0.9786124659974127,2.2415853328466415,0.149105396579206
1789740868713523000,2.58552294921875,-0.3278926685862243,1.5295669440597295,0.14048822875097394
1789740868723600000,2.595599853515625,0.3236988701581955,0.9200281020164489,-0.4631633818846196
1789740868733677800,2.605677734375,0.7142617107342928,0.680121029266715,-0.9374905473403632
1789740868743755800,2.615755859375,0.4096485762529075,0.2666951264321804,-1.0655375929955393
1789740868753832700,2.625832763671875,0.3960584423176944,-0.6340466758340597,-1.4432158175572751
1789740868763910700,2.63591064453125,0.6688233901828528,-1.4679565833210944,-1.7262147207975387
1789740868773988600,2.645988525390625,1.1757400621414185,-2.2233733843296766,-2.0962994945555926
1789740868784065800,2.656065673828125,1.461588217332959,-2.516819739565253,-2.1951693263694643
1789740868794144000,2.66614404296875,1.3209960898160933,-2.8522201534330844,-1.8914574515767395
1789740868804222000,2.676221923828125,1.0682106846623123,-3.0180034208297726,-1.825865181595087
1789740868814299000,2.686298828125,0.7809472558453678,-2.7469921847641467,-1.7266887680500744
1789740868824376800,2.696376953125,0.3470638175241649,-2.3301281241744753,-1.4188044298782945
1789740868834454800,2.706454833984375,-0.4110599043555557,-1.9928344439059495,-1.6836171035647391
1789740868844531700,2.71653173828125,-1.4214187040299175,-1.7480419372022151,-1.2802372323177753
1789740868854609700,2.726609619140625,0.8104496830530464,-1.1946417464882135,-1.4774825365573168
1789740868864687900,2.73668798828125,-0.9838498551942407,0.310527253895998,-2.3038167480930682
1789740868874764800,2.746764892578125,3.1472242595046755,0.6241197405815124,-3.210997351235151
1789740868884842800,2.7568427734375,-1.037338722667098,-0.3646177405238151,-2.5954797270432115
1789740868894920700,2.766920654296875,-1.7618799084186554,1.3966343913853168,-0.7166914951644837
1789740868904998000,2.776997802734375,0.13272614338211713,1.295561788830161,-1.4077442528121173
1789740868915075800,2.787075927734375,0.5194418070107698,1.329883745148778,-1.1761878059089184
1789740868925153800,2.79715380859375,0.21090485014915464,1.3905226305067537,-0.9787951290879398
1789740868935230700,2.807230712890625,-1.3754367050558327,0.07703589340746403,3.8754119850650426
1789740868945309000,2.817308837890625,-1.0884231593467295,-0.9705629419893026,1.1585232621416448
1789740868955387000,2.827386962890625,-0.14205518580675125,-0.5915419975817203,-0.30498715542554855
1789740868965463800,2.8374638671875,0.20604740018062292,-0.7870183924525975,-0.2920049973208457
1789740868975541800,2.847541748046875,0.3407322764150798,-1.2312211263447999,-0.1103725193500053
1789740868985619700,2.85761962890625,0.6274087721895426,-1.6922089908212423,-0.3032758214630186
1789740868995697000,2.86769677734375,0.6889915873341262,-1.6022855587899685,-0.5300562496034428
1789740869005774800,2.87777490234375,0.8448036419451236,-1.6401374428004025,-0.3312416867531836
1789740869015853000,2.88785302734375,1.0109159951657056,-1.7248165444374084,-0.43940812002681195
1789740869025930000,2.897929931640625,1.2609370501726864,-2.307183886438608,-0.2240231105226092
1789740869036008000,2.908008056640625,0.9037829965930432,-3.2178841881394384,-0.5061506194895133
1789740869046086000,2.9180859375,1.1505850895535201,-2.216863564044237,0.23406926997434346
1789740869056162800,2.928162841796875,1.3019634725660085,-0.689714787042141,0.12039291417282073
1789740869066240800,2.93824072265625,1.0217968701422213,1.4631465526908636,-0.1491520852651447
1789740869076318700,2.948318603515625,-0.24369484766013919,4.169472965067625,-0.3976864088457078
1789740869086395600,2.958395751953125,-1.606046372628212,6.020732115638256,-0.11200020275022834
1789740869096473900,2.968473876953125,-3.97164211602509,5.93868160893917,1.5691367379039525
1789740869106551800,2.9785517578125,-4.446480811199546,5.771860230666399,2.655514801289141
1789740869116629000,2.98862890625,-1.2910288215756416,3.023091099357605,1.678315490025282
1789740869126707000,2.99870703125,1.6378133837670086,-0.42401568590998645,-0.1979219613920897
1789740869136785000,3.008784912109375,1.1069663856446743,0.3694540746390819,-0.23636695245746522
1789740869146861800,3.01886181640625,0.4039185081683099,0.14876432805657386,-0.13724526477437465
1789740869156939800,3.028939697265625,0.21513620410859582,0.28646950196027754,0.1697287536194548
1789740869167018000,3.03901806640625,-0.022185016866400835,0.6650672525197268,0.4116461432782933
1789740869177095000,3.049094970703125,0.21054354255609212,1.1389882483273743,0.12160532216988504
1789740869187172900,3.0591728515625,-0.02549107267446816,1.8778017050594091,0.1874087141515687
1789740869197250800,3.069250732421875,-0.3712303635966033,2.1777163795262573,0.09261522839851677
1789740869207327700,3.07932763671875,-0.5502034404993057,2.538522452807426,0.14792287226375192
1789740869217405700,3.08940576171875,-0.38640345587432384,3.138441233590245,-0.2010760415088385
1789740869227483600,3.099483642578125,0.6072597911953925,3.052770782828331,-1.7291656795576213
1789740869237560800,3.109560791015625,-0.5526736300051212,1.7923124560832977,-1.2821993261709808
1789740869247639000,3.11963916015625,-1.8874223508417605,0.9886223302930592,-0.2255276516003534
1789740869257717000,3.129717041015625,-1.7029063259243964,0.8144739701330661,-0.4926834908794611
1789740869267794000,3.1397939453125,-0.1716589544970542,0.8924790008336305,-2.2371422358326614
1789740869277871900,3.149871826171875,0.5448433747708797,1.0786427929580211,-2.8606530507355927
1789740869287949800,3.15994970703125,0.7554279069244861,0.7770265752702951,-1.7394104485876858
1789740869298026800,3.17002685546875,0.35251755288541314,-0.3448819434404373,-1.332172586738318
1789740869308104700,3.180104736328125,0.3851741332750767,-0.8549614633440971,-0.3098495372975245
1789740869318183000,3.190182861328125,1.2531295912921427,-1.003608302500844,-0.31693916676491496
1789740869328259800,3.200259765625,1.0586059671014547,-1.4513018011182546,-0.20743633378837256
1789740869338337800,3.210337890625,0.9726574300505221,-2.2318074506759644,0.8261282406348734
1789740869348415700,3.220415771484375,0.8175737627793103,-3.161522833970189,1.0066166905365883
1789740869358492400,3.230492431640625,0.38947913699261844,-3.6788469181746244,1.2387347168453038
1789740869368570400,3.2405703125,-0.3033230216056108,-3.9140485897123813,2.0431638244345782
1789740869378648300,3.2506484375,0.18796879571974276,-3.5215637680977583,2.4860855786055325
1789740869388725200,3.260725341796875,0.516446132326126,-2.5816239279091358,2.578046653944254
1789740869398803200,3.27080322265625,0.1255698418866843,-1.7353408610612153,3.190364897572994
1789740869408881400,3.28088134765625,-0.15835406724400816,-1.9374591781646011,3.432775477576256
1789740869418958300,3.290958251953125,-2.460703884589672,-1.549420814564824,2.9193726584687827
1789740869429036300,3.301036376953125,-0.8309393672436475,-0.9893377850860356,3.2900019143670796
1789740869439114200,3.3111142578125,-1.0473008022982626,-0.795716078171134,1.958063867036998
1789740869449192200,3.321192138671875,-0.7288391752064227,-0.28207272830605506,1.2773689834050834
1789740869459269400,3.331269287109375,-0.006624898032471537,-0.35329730508625506,1.175020807956159
1789740869469347300,3.341347412109375,0.0034007483541965483,-0.3247323048591614,0.6050738985236733
1789740869479425500,3.351425537109375,0.6632786155372857,-0.04756546877324581,-0.24085257343892005
1789740869489502500,3.36150244140625,0.7205242782603949,0.3102794166147709,-1.2206991478085518
1789740869499580400,3.371580322265625,0.18423954606354234,0.4478554111808538,-0.8683375892024486
1789740869509658400,3.381658447265625,-0.01269625383540988,0.8005909907311201,-0.3710485772889107
1789740869519735300,3.3917353515625,0.2430312691848725,1.430528477680683,-0.5439411287015303
1789740869529813200,3.401813232421875,0.6330213513743131,1.8341098628491161,-1.1807353131454437
1789740869539891200,3.41189111328125,-0.15344459482729433,2.3300164804935455,-0.8849052776437252
1789740869549968100,3.421968017578125,-0.3972755630224943,2.349301026678085,-0.460079736655578
1789740869560046300,3.43204638671875,-0.10781272446513175,2.4685978527098893,-0.49540465947166085
1789740869570124300,3.442124267578125,-0.4607382736295461,1.5346476083248852,0.9749979287620634
1789740869580201500,3.452201416015625,-1.502055252277851,0.8089291954874992,1.8253323898926377
1789740869590279400,3.462279541015625,-0.16950499133355915,0.09615092824399471,2.26006484625861
1789740869600357400,3.472357421875,1.1535679778218269,-1.309461719366908,2.2696885607808825
1789740869610434300,3.482434326171875,-0.47958157885260877,-1.8110048815935849,3.2503798058137297
1789740869620512300,3.49251220703125,-1.0459352860987186,-1.6271891139000654,3.1241447049513456
1789740869630590500,3.502590576171875,-0.5607007229857146,-1.1248621078193186,1.6123865354351699
1789740869640667400,3.51266748046875,0.2994735065706074,0.13503916956484316,-0.24799429841972886
1789740869650745300,3.522745361328125,0.1443839210152626,-0.3035661827117204,-1.4473314361825584
1789740869660823300,3.5328232421875,0.19576507561914622,-0.01583820512294769,-0.5411364465443417
1789740869670900200,3.542900146484375,-0.074945716195181,0.13150105856657027,-0.9874634425815194
1789740869680978200,3.552978271484375,-0.20333236906826496,0.355595060634613,-1.26404495306015
1789740869691056000,3.56305615234375,0.3573796059638262,0.6162731187343597,-1.8733907567493617
1789740869701133300,3.57313330078125,0.6099485918879508,0.9611591538280249,-2.156251274432242
1789740869711211500,3.58321142578125,1.1161228479813783,0.758201463291049,-1.5160298554860054
1789740869721289500,3.59328955078125,1.298022041463852,-0.1543961964637041,-2.347466504727304
1789740869731366400,3.603366455078125,0.45368543250858784,-0.8297089486658573,-2.042429372680187
1789740869741444400,3.6134443359375,-0.05851414828896522,-1.1728694751411675,-1.798945610487461
1789740869751522300,3.623522216796875,-0.16226678370833397,-1.020104094749689,-1.8556806202746927
1789740869761599200,3.63359912109375,0.01864500617198646,-0.5694546689361334,-1.9443848857745527
1789740869771677200,3.64367724609375,0.00032031799554824825,-0.076731942024827,-1.4454238489955662
1789740869781755400,3.65375537109375,0.1003735143750906,0.26260230416059493,-0.9270746595270931
1789740869791832300,3.663832275390625,0.4283399057846516,0.6402636506527661,-0.6263318636730313
1789740869801910500,3.67391064453125,0.4212022359244525,0.8976526040792465,-0.4201710662458092
1789740869811988500,3.683988525390625,0.13076507244221866,0.8025339414924383,-0.2158441331822425
1789740869822066400,3.69406640625,-0.006152092888951301,0.7957780374914407,0.36898631099686025
1789740869832143400,3.704143310546875,-0.022364392021298408,0.9357084862291812,0.6201075823307037
1789740869842221300,3.71422119140625,0.020231910037249324,1.1239268727958203,0.44491007844395936
1789740869852299500,3.724299560546875,0.01727788253724575,1.0920780285924672,0.15900266734585164
1789740869862376400,3.73437646484375,0.20243907349035142,1.1128759019494057,0.04197283639796078
1789740869872454400,3.744454345703125,0.24605375881120561,1.2136223412901161,-0.0013728227231651544
1789740869882532400,3.754532470703125,0.278657951426506,1.3084803071141242,-0.12268332666493952
1789740869892609300,3.764609375,0.21111293994188307,1.1649112096130847,-0.2208466907098889
1789740869902687200,3.774687255859375,0.2020925981402397,0.63106210706532,-0.3029760347988456
1789740869912765200,3.78476513671875,0.04255319356918335,0.028950200152397153,-0.32603871128261086
1789740869922842400,3.79484228515625,0.2821272349722683,-1.0152285976678133,-0.258197054938972
1789740869932920300,3.80492041015625,0.1751997689090669,-0.213537536740303,-1.0772577683404088
1789740869942998500,3.81499853515625,0.6122029466859996,0.39746377907097336,-2.000439658212662
1789740869953075500,3.825075439453125,0.3530586740247905,0.7223626726686954,-1.3327189685747027
1789740869963153400,3.8351533203125,-0.6916402021467686,0.9500544069677591,-0.6971976170781999
1789740869973231400,3.8452314453125,-1.4273793659999965,0.9295780206501484,-0.6787784555513411
1789740869983308300,3.855308349609375,-1.554820773912221,1.6578309204012154,-0.4739400658342987
1789740869993386200,3.86538623046875,-1.6541759050250053,3.118528326374292,0.10722243042178452
1789740870003464200,3.875464111328125,-1.7088645036764443,4.292862028849124,0.6499157144866884
1789740870013541000,3.885541015625,-1.2361327176533639,3.9662937407344576,0.6187297911714762
1789740870023619300,3.895619384765625,-1.1373621084302663,2.860112367987633,0.43582894636578856
1789740870033697300,3.905697265625,-0.0347312677718699,2.006509333515167,1.1680255422413348
1789740870043774500,3.9157744140625,0.8176217666395008,1.314517833712697,0.6219856511622667
1789740870053852400,3.925852294921875,-0.5448572571657597,1.288724636286497,0.6626109454087913
1789740870063930400,3.935930419921875,-0.34797347971498965,1.0332593443989753,0.9438773257680236
1789740870074007300,3.94600732421875,-0.6333405733913183,0.4889689273357391,0.7044574520133435
1789740870084085200,3.956085205078125,-0.9045721742093562,-0.162287241974473,0.7168477086395025
1789740870094163500,3.96616357421875,-0.6220891115367412,-0.7115951949387789,0.3951389893852174
1789740870104240400,3.976240478515625,-0.5693892024844884,-1.2304834597200154,-0.0836630929948762
1789740870114318300,3.986318359375,-0.8558144269116222,-1.2838526463359594,-0.2546940152540803
1789740870124396300,3.996396240234375,-0.48825829484835265,-1.436034089359641,-0.6562973783478141
1789740870134474200,4.00647412109375,-0.6065016663044691,-1.8496090452760456,-1.173126445576921
1789740870144551200,4.01655126953125,-0.657653176870942,-2.6059552360892293,-1.2495961564689875
1789740870154629000,4.026629150390625,-0.49382455067336556,-3.432497245156765,-1.229097704450041
1789740870164707300,4.036707275390625,0.005184563031047583,-4.041790003484487,-1.3850202336981892
1789740870174784500,4.046784423828125,0.224101016330719,-4.158033871686459,-1.362329093940556
1789740870184862500,4.056862548828125,-0.26104579543359574,-4.061284977549314,-1.0058689409092068
1789740870194940400,4.0669404296875,-0.14473112701773644,-3.7317251064032315,-0.28418725450830534
1789740870205017300,4.077017333984375,-0.7596780386496335,-3.4002053333610296,-0.0022510668624192475
1789740870215095300,4.08709521484375,-0.3375895214099437,-3.1534599390238522,0.5468261826185509
1789740870225173200,4.09717333984375,0.4081236317079514,-2.7401883499681947,0.3478706038624048
1789740870235250200,4.107250244140625,1.209965572348237,-1.7627520150780678,0.5509759592417627
1789740870245328400,4.117328369140625,0.6851660376965999,-1.7719862918913363,0.6345968570627272
1789740870255406300,4.12740625,-0.2208803737837821,-1.720643058145046,0.10010474390368908
1789740870265483300,4.137483154296875,0.060670011148601766,-1.6794605684071777,0.06373568232953548
1789740870275561200,4.147561279296875,1.1332282965611666,-2.208025593072176,-0.19931352534834296
1789740870285639200,4.15763916015625,3.4835371120423075,-3.135416332811117,-1.124880958650261
1789740870295716400,4.16771630859375,1.0216618455857038,-0.6972235552370548,-1.422033621057868
1789740870305794300,4.177794189453125,-0.5978226852864027,1.7618191181421279,1.973498752056062
1789740870315872500,4.18787255859375,-5.9412546742975705,8.589771287262439,3.047885641135275
1789740870325949400,4.197949462890625,-4.109453088390827,12.923206149518489,2.907633705358207
1789740870336027400,4.20802734375,1.755658841946721,3.425104212296009,0.03363097837977111
1789740870346105300,4.218105224609375,1.805783785944432,-2.0019909793078896,0.41109526792988177
1789740870356183800,4.228183837890625,-0.18122224406898021,-1.572518781557679,-0.7477154328510165
1789740870366260700,4.2382607421875,0.5468037881236523,-2.3124071740448473,0.22530602647261694
1789740870376338700,4.248338623046875,0.08956848111376166,-1.3351736682504414,-0.39445192043650895
1789740870386417000,4.2584169921875,0.3009421908836812,0.06178630182743072,-1.5110758863404392
1789740870396493800,4.268493896484375,0.26888408784382045,1.267713412439823,-1.0391227565396577
1789740870406571800,4.27857177734375,0.11170030648820102,1.2241308758229017,-0.4900379448067397
1789740870416649700,4.288649658203125,-0.029342414340376852,1.1001701496332883,-0.002513279728870839
1789740870426727000,4.298726806640625,0.0333041575782001,0.4996119019031524,0.21098231756584718
1789740870436804900,4.308804931640625,0.0551459870301187,-0.4434036924690008,-0.15149894065223635
1789740870446882800,4.3188828125,-0.19358254394829272,-0.7512427301943302,-0.4024433575818315
1789740870456959700,4.328959716796875,-0.5305528374813496,-1.0720546467393637,-0.4618109078297391
1789740870467038000,4.339037841796875,-0.7715203790694475,-0.9392904363691806,-0.30909305637441575
1789740870477116000,4.349115966796875,-1.0794570319503545,-1.0373504131048916,0.09404809247953817
1789740870487192800,4.35919287109375,-1.23901689478755,-0.24266718511283397,0.741718895849958
1789740870497270800,4.369270751953125,-1.5012451049387454,0.655008799842,0.84107117741853
1789740870507348700,4.3793486328125,-1.1521974201209841,-0.6038350774437189,0.42783126214276995
1789740870517425700,4.38942578125,-0.6416976289786398,-1.455275380924344,0.5220211925121024
1789740870527503600,4.399503662109375,4.94700281368494,-1.5384505077391861,-1.0626130838509649
1789740870537581800,4.409581787109375,5.503955143922567,-2.2515420787155627,-3.6587569008260963
1789740870547659000,4.419658935546875,-0.8223464570738375,-0.9734270992487668,-1.3018157346583903
1789740870557737000,4.429737060546875,-0.3862503111392259,0.19314239896535873,0.9767647192388772
1789740870567815000,4.43981494140625,0.6914221754819154,-0.2775432681828737,0.09719865633179434
1789740870577892900,4.449892822265625,0.5078710500739515,0.4404582866668701,-0.4897344318155199
1789740870587969800,4.4599697265625,0.4354430888533592,0.9880243643999099,-0.8207594070781021
1789740870598047700,4.4700478515625,0.12438099742829799,0.8925842147737741,-0.8811263436269015
1789740870608126000,4.4801259765625,-0.21319208430349826,0.8165133670061826,-0.72744567502141
1789740870618203000,4.490202880859375,-0.1447153449267149,0.6961994728863239,-0.5148311714101582
1789740870628280800,4.50028076171875,0.234228880982846,0.2984048544257879,-0.4612165951984003
1789740870638358800,4.51035888671875,0.2294574287973344,-0.04665186105966568,-0.38499625595752146
1789740870648435700,4.520435791015625,0.4468978181950748,-0.11381985592544078,-0.2113570326297544
1789740870658513700,4.530513671875,0.5747649041734636,0.18322890771627426,-0.18020495678521692
1789740870668591600,4.540591552734375,0.28323797269314527,0.4042781352609396,-0.36237058265153316
1789740870678668800,4.550668701171875,0.03702069388329982,0.4108469922572374,-0.3692688542652875
1789740870688747000,4.5607470703125,0.08320596034452318,-0.04053016330897808,-0.4234303968353197
1789740870698825000,4.570824951171875,0.14647753229364752,-0.8061480403363704,-0.5462379344018176
1789740870708902000,4.58090185546875,0.2233234560869634,-1.4094769218236207,-0.5975216930458321
1789740870718979800,4.590979736328125,0.14471768301427362,-1.9150246435165403,-0.6073930621862411
1789740870729057800,4.601057861328125,0.08351005785763263,-2.1649171037077903,-0.34639844895061106
1789740870739134700,4.611134765625,-0.05031169874146581,-1.6152905863136051,0.22696451600305734
1789740870749212700,4.621212646484375,-0.12741247407868503,-0.6456044271588325,0.5096159209799022
1789740870759291000,4.631290771484375,0.18929726784452794,-0.18669219991266725,0.11542075178343802
1789740870769367800,4.641367919921875,0.5788378527007997,0.5580629218280315,0.06657446311914827
1789740870779445800,4.65144580078125,0.15456570781171322,1.4279577504098415,0.12405134534882381
1789740870789523700,4.661523681640625,0.34278277920410033,2.050197084072232,-0.4569548095680773
1789740870799602000,4.671601806640625,0.24161036953628062,2.2453636823415755,-0.575340000647679
1789740870809678800,4.681678955078125,0.07451777310669422,2.1833850728124378,-0.281781946932245
1789740870819756800,4.6917568359375,0.11456570585668087,2.0212591588795186,-0.09053773713787086
1789740870829835000,4.7018349609375,0.018395926781743763,1.175069615533948,0.4705201013229787
1789740870839912000,4.711911865234375,0.024124387431144714,0.1164852757424116,0.5761304203730077
1789740870849990000,4.721989990234375,0.09263327551186085,0.08849719862043857,0.3162732136694714
1789740870860067800,4.73206787109375,0.03287161137983203,0.10066168366670608,0.3473758791480213
1789740870870144800,4.742144775390625,-0.02357552137672901,0.022960604348778724,0.16738237315639853
1789740870880222700,4.75222265625,0.14377484920620917,0.0022977555483579635,0.0493824002684094
1789740870890300700,4.76230078125,0.13963760327100752,0.05230243416726589,0.12931273647574706
1789740870900377900,4.7723779296875,0.08300970712006092,-0.1022287868529558,0.05072146685244515
1789740870910456000,4.7824560546875,-0.0557224717438221,-0.0800911893248558,-0.0440549399016425
1789740870920534000,4.792533935546875,-0.07145780101418495,0.18089257372319698,0.27396369266305115
1789740870930611000,4.80261083984375,-0.009789718738943338,0.06153554193675518,0.13192012422885746
1789740870940689000,4.81268896484375,-0.03522051259353757,-0.1251256783157587,0.17081479529049245
1789740870950766800,4.822766845703125,0.01917041828557849,-0.5140455009251833,0.09743497670516371
1789740870960843800,4.83284375,0.25751491789370773,-2.509213940736651,-0.279748943267297
1789740870970921700,4.842921630859375,-0.15981953668668866,-3.7140140931457277,-0.100135212107189
1789740870981000000,4.853,-0.04915843705311417,-1.5170301185697317,0.6864429257646203
1789740870991078000,4.863077880859375,0.3271738527923822,-1.8432418483316897,0.9950359967276453
1789740871001154800,4.87315478515625,1.5748891639508307,8.396955051511526,-1.7496362206563352
1789740871011232800,4.883232666015625,-2.1055179892778395,2.431433950963616,1.6091301639877258
1789740871021310700,4.893310791015625,0.29540406517460943,-0.7572995460152626,-0.012596227527037263
1789740871031388000,4.903387939453125,0.12910685690641402,0.4285591745585203,0.1207825162786059
1789740871041465900,4.9134658203125,0.15039397508502006,0.13933949710726737,0.20298909032223744
1789740871051544000,4.9235439453125,0.05407704262435436,0.21320903543829917,0.16022727723736316
1789740871061621000,4.93362109375,0.10313815678283572,0.08374562017917632,0.10188079539919272
1789740871071699000,4.943698974609375,0.04166749677583575,-0.06280161634981632,-0.06297193141542375
1789740871081777000,4.95377685546875,-0.21983415266647935,-0.24307050521671772,-0.14057694821404293
1789740871091853800,4.963853759765625,-0.22629063532948493,-0.2090028159201145,-0.18207486057663336
1789740871101931800,4.973931884765625,0.5597393306076527,-1.3247709321796892,-0.6701885410562157
1789740871112009700,4.984009765625,2.1164662304021418,-3.708959732365608,-0.9003601094722747
1789740871122086700,4.994086669921875,1.4193680551104246,-4.323518448397517,-0.33917507356833665
1789740871132164600,5.00416455078125,0.34659093931540846,-6.838225725853443,0.2031229823675938
1789740871142242800,5.014242919921875,-0.7709225593067706,-9.026660483270883,0.013498911987803876
1789740871152320800,5.02432080078125,-4.932997669208049,-7.2594812994003295,5.417391543713212
1789740871162398000,5.03439794921875,0.8119336380004882,-1.5678700789690017,0.4963697051115334
1789740871172476000,5.044475830078125,-0.14575184836760163,3.469555932962894,-0.32530360194109376
1789740871182553900,5.054553955078125,-0.2600615336365998,6.290964184024929,-0.4291424908718094
1789740871192630800,5.064630859375,0.03744271868765354,9.161014008659123,-1.3687844075597821
1789740871202708700,5.074708740234375,0.1697707295976579,10.93477490900755,-2.1260570655681192
1789740871212787000,5.084786865234375,0.027010610391944644,5.459664166775346,0.31676665974222123
1789740871222864000,5.09486376953125,0.12581190701425074,-0.3269792070031166,-0.16715552386427296
1789740871232941800,5.10494189453125,-0.027466683596372603,0.23059914617836474,-0.2619959174989723
1789740871243019800,5.115019775390625,-0.3266647342264652,-0.2808294502466917,-0.10433702944489195
1789740871253096700,5.1250966796875,-0.2735053909689188,-0.41725978190898894,-0.08255635559568181
1789740871263174700,5.135174560546875,-0.2063531781941652,-0.2979711391836405,-0.14094642998040652
1789740871273252600,5.145252685546875,-0.16842472181618212,-0.09038871145546436,-0.10102359404796733
1789740871283330800,5.155330810546875,-0.06916545229330659,0.14178922834694385,-0.12606194538571872
1789740871293408000,5.165407958984375,-0.014130378291755914,0.2690133402466774,-0.1583174798269756
1789740871303486000,5.17548583984375,-0.09868614581003785,0.26954233255684373,-0.17127032050564883
1789740871313564000,5.18556396484375,-0.10364815213158726,0.12073474988043308,-0.1793656929494813
1789740871323640800,5.195640869140625,-0.07355915720760822,-0.008949614652991295,-0.1876411529342644
1789740871333718800,5.20571875,-0.07419818576350808,-0.10012158544063568,-0.1375864428948611
1789740871343796700,5.215796630859375,-0.057903907436132426,-0.08839782989919186,-0.1214029497318901
1789740871353873000,5.225872802734375,-0.08840499029234052,-0.018447510838508607,-0.10251152191762812
1789740871363950800,5.235950927734375,-0.07430851427018642,0.06347206295728683,-0.07354669958483427
1789740871374029000,5.246029052734375,-0.06274959390163422,0.11818331183195113,-0.017653462967544328
1789740871384106200,5.256106201171875,-0.037823096307367084,0.1759504411458969,0.05606666380530223
1789740871394184200,5.26618408203125,-0.01683233072683215,0.1291290687382221,0.04897958248802461
1789740871404262100,5.27626220703125,-0.0033148236364126202,0.05701835677325725,-0.006483176590397488
1789740871414339000,5.286339111328125,-0.08101356486678123,0.0025549451798200606,-0.0635513341719983
1789740871424417000,5.2964169921875,-0.1343926883548498,-0.06608604484796524,-0.12379547089161351
1789740871434495000,5.306494873046875,-0.16410335148572922,-0.07898995008468628,-0.11799662102027796
1789740871444573200,5.3165732421875,-0.09078910894989967,-0.035468788266181946,-0.08806795862400904
1789740871454650000,5.326650146484375,-0.10580664533972739,0.02454582771360874,-0.06748209774966817
1789740871464728000,5.33672802734375,-0.0862399212129414,0.06764847185909748,-0.013487045736785512
1789740871474806000,5.346805908203125,0.008286620699614286,0.10504150618612766,-0.02550737763858633
1789740871484883000,5.356883056640625,0.018757307440042496,0.09835691385567187,-0.0920547632378526
1789740871494961000,5.3669609375,-0.06743219875991344,0.01909866822361946,-0.1949039835440926
1789740871505039000,5.3770390625,-0.12407879961133003,-0.009868483063578605,-0.24950888596745208
1789740871515116000,5.387115966796875,-0.11892448558807373,-0.010703764843940734,-0.2772746803745627
1789740871525194200,5.3971943359375,-0.14478592594489453,-0.012255085939168929,-0.24795953763360157
1789740871535272200,5.407272216796875,-0.1547730669520795,0.01449848095178604,-0.2521159083943814
1789740871545349000,5.41734912109375,-0.1158189207881689,0.012668927437067032,-0.25206664415886626
1789740871555427000,5.427427001953125,-0.09232771669402717,0.025539514926075934,-0.30212436813926324
1789740871565505000,5.437505126953125,-0.1024048740722239,0.02115735431909561,-0.3093090006800368
1789740871575583000,5.4475830078125,-0.11315934619009495,0.05073065480589866,-0.30930589540749787
1789740871585660000,5.457659912109375,-0.08986088818907738,0.03016074498593807,-0.3084778836181387
1789740871595738000,5.467738037109375,-0.12052271456494927,0.03758768011629581,-0.30439189294613894
1789740871605816000,5.477816162109375,-0.14525792737081647,0.021681670454144476,-0.2781236618867144
1789740871615893200,5.487893310546875,-0.12476678187549113,0.03958674497902393,-0.30702472566775973
1789740871625971200,5.49797119140625,-0.09399564990624786,0.011660042655467986,-0.3696361166751012
1789740871636049200,5.508049072265625,-0.12547887566760182,0.006528524985909462,-0.44263928396776314
1789740871646126000,5.5181259765625,-0.12056290044486521,0.0029372224956750867,-0.4734737269641831
1789740871656204000,5.5282041015625,-0.09987783981263637,0.0017307693153619766,-0.4499547580802813
1789740871666282200,5.5382822265625,-0.08127849941328168,0.012044658058881759,-0.4126964195162058
1789740871676359200,5.548359130859375,-0.08339958322048187,0.011121697995066642,-0.3794579841179773
1789740871686437000,5.55843701171875,-0.058522331595420835,0.03684942896962166,-0.3751214162183925
1789740871696515000,5.56851513671875,-0.04591083343401551,0.023970073652267453,-0.35888248480744656
1789740871706593000,5.578593017578125,-0.05439809127226471,0.02114215674996376,-0.3287387274889275
1789740871716670000,5.588669921875,-0.1053523257009685,0.004568623089790344,-0.2717128084637225
1789740871726748000,5.598747802734375,-0.07271510759890079,0.007730301991105079,-0.2895217108714394
1789740871736826000,5.608826171875,-0.03571531037315726,0.026576456758379934,-0.28780750909838826
1789740871746903300,5.6189033203125,-0.045038726774603126,0.027878771528601645,-0.27351598542816935
1789740871756981200,5.628981201171875,-0.07882350747659803,0.022909166422486305,-0.23870659265248104
1789740871767059200,5.63905908203125,-0.0802491563655436,0.040081250497698784,-0.20465072165783493
1789740871777136000,5.64913623046875,-0.10021803155243396,0.05024491711556911,-0.22696767607452348
1789740871787214000,5.659214111328125,-0.1171218200802803,0.03034545390307903,-0.23808389417687428
1789740871797292000,5.6692919921875,-0.10165653992295265,0.01567746160328388,-0.21317769045196472
1789740871807369000,5.679368896484375,-0.09656827687323093,-0.00466682276725769,-0.20309209403898565
1789740871817447200,5.689447265625,-0.108769002276659,0.01657762531340122,-0.1486797093798872
1789740871827525000,5.699525146484375,-0.10814005672335623,0.03663432491421699,-0.09872892550583928
1789740871837603000,5.70960302734375,-0.11798515891134738,0.018359832555055616,-0.07762982244631275
1789740871847680000,5.719679931640625,-0.13398644564151763,0.01849427258968353,-0.04228043190925382
1789740871857758000,5.729758056640625,-0.16169906682297586,0.02252864267230034,-0.007612504847312811
1789740871867836000,5.7398359375,-0.19453999080359935,0.017643208718299865,0.002323118318477645
1789740871877913000,5.7499130859375,-0.16112243597880005,0.035035657545924186,0.000022896818397566674
1789740871887991300,5.7599912109375,-0.13697569058537482,0.059012160938978195,0.020269652798329478
1789740871898069200,5.7700693359375,-0.1759114243097603,0.03835983353257179,0.09623409474911168
1789740871908146200,5.780146240234375,-0.16803835284709928,0.04494681070744991,0.12284195129275322
1789740871918224100,5.79022412109375,-0.18590134179592133,0.045398061606287954,0.11622056952477432
1789740871928302000,5.800302001953125,-0.20378551966324449,0.051987961390614505,0.10788646555477753
1789740871938380000,5.810380126953125,-0.21604294368997215,0.029583237358927726,0.10358445751192047
1789740871948457000,5.82045703125,-0.2493460783548653,0.017793430843949316,0.14247458939575589
1789740871958535200,5.83053515625,-0.2247403371475637,0.01620294678211212,0.17840446496820075
1789740871968613000,5.840613037109375,-0.19695275103375315,0.05799976902604103,0.1762927883101627
1789740871978690000,5.85068994140625,-0.19317220958173273,0.06596095716357231,0.17390921764187514
1789740871988768000,5.86076806640625,-0.18078516782596707,0.053557402664422986,0.18193229203447697
1789740871998846000,5.870845947265625,-0.19476283977404235,0.059386839470267294,0.15841383460722863
1789740872008923100,5.880923095703125,-0.2303882799066603,0.028868951609730718,0.15084413000531494
1789740872019001000,5.8910009765625,-0.2248166172541678,-0.01841594665646553,0.13593259300692007
1789740872029079300,5.901079345703125,-0.22689342352822423,0.006177811852097511,0.15809961755890398
1789740872039157200,5.9111572265625,-0.18514204786121843,0.060548868986964224,0.1818061814367771
1789740872049234200,5.921234130859375,-0.1388636962890625,0.09393675932586193,0.2223609311977401
1789740872059312000,5.93131201171875,-0.1010749406427145,0.10020458754897117,0.2403753478486091
1789740872069390000,5.94139013671875,-0.0839763601951301,0.08148761211931704,0.2337560210403986
1789740872079467000,5.951467041015625,-0.14266484213769434,0.015495675295591354,0.2025948485739529
1789740872089545000,5.961544921875,-0.1579302158087492,-0.019202713119983672,0.21975182641157878
1789740872099623000,5.971622802734375,-0.13581483011245726,-0.036865211060643194,0.2484215656547807
1789740872109700000,5.9817001953125,-0.1654771240569651,-0.036272505864500995,0.25821170451883224
1789740872119778000,5.991778076171875,-0.16412746301367878,-0.007979308316111565,0.21551937647359445
1789740872129856000,6.00185595703125,-0.12942381390109658,0.04156301348805427,0.14971978388419374
1789740872139933200,6.01193310546875,-0.08421104573383927,0.10174889438152313,0.10950166393276303
1789740872150011100,6.02201123046875,-0.0792325266689062,0.11015665724277496,0.15140125243142247
1789740872160089000,6.032089111328125,-0.08935761484205722,0.10671616140007972,0.19137058525355533
1789740872170167000,6.0421669921875,-0.13020517353713512,0.04252981269359588,0.2047780012993142
1789740872180244000,6.052243896484375,-0.1257826809197664,0.010227379503846168,0.17893851704597472
1789740872190322200,6.062322265625,-0.17475334031581877,-0.03330255014300346,0.1340316638895776
1789740872200400100,6.072400146484375,-0.14676716288998723,-0.03671206632554531,0.15116366254957392
1789740872210477000,6.08247705078125,-0.09166530726253985,-0.008676642930507659,0.14749112978298215
1789740872220555000,6.092554931640625,-0.06282748144343495,0.03972235405743122,0.13673441090909763
1789740872230633000,6.102633056640625,0.0043960430018603796,0.04139642474949359,0.15161750726429746
1789740872240711000,6.1127109375,0.06418167253136635,0.07713117047548293,0.35247276389561594
1789740872250788000,6.1227880859375,0.002985007160156965,0.09367840065062046,0.33737931272536514
1789740872260866000,6.132865966796875,0.09607318683266639,0.06338730728328228,0.04576130542811006
1789740872270944000,6.142944091796875,-0.0013733341798186302,-0.0069493807464838025,0.04235630102390423
1789740872281021200,6.153021240234375,0.3439011157095432,-0.00008417115211486816,-0.47784299155697224
1789740872291099100,6.16309912109375,0.622570757573843,0.40581718139648437,-1.60284684593454
1789740872301177000,6.173177001953125,-0.18627368223965166,-0.6324643750786781,-1.5968747857876122
1789740872311254000,6.18325390625,-0.05971051846668124,-0.32200667928755283,-0.34812735510244963
1789740872321332000,6.19333203125,-0.18189692846015096,-0.3654559449136257,0.7432818343177438
1789740872331410200,6.20341015625,0.8752554788321256,0.03969371248483657,0.6059036638787015
1789740872341488000,6.213488037109375,0.37887013776004314,0.4255108929038047,-0.1139685071485117
1789740872351565000,6.22356494140625,0.5341279194891453,0.6262286955595016,-1.7380464667581021
1789740872361643000,6.23364306640625,0.49719212741032237,0.25935645410716535,-1.1656465381503105
1789740872371721000,6.243720947265625,0.024650895523279905,-0.22729776654541492,-0.21904163231560958
1789740872381798100,6.253798095703125,0.08121405587494372,-0.31640929767191406,-0.14601649065315722
1789740872391876000,6.2638759765625,-0.0616815262787044,-0.6176040750771761,-0.7876661888368427
1789740872401954000,6.2739541015625,0.029378070175647735,-0.3705874625831842,-1.1854920061532408
1789740872412031200,6.28403125,0.31770109104812144,0.0405249026119709,-1.0532036696664988
1789740872422109200,6.294109130859375,0.47647652550935743,0.18552490969896315,-0.39289866311252114
1789740872432187100,6.304187255859375,0.6127507898271084,0.2441378421872854,-0.11808041771305725
1789740872442265000,6.31426513671875,0.7146212647616863,0.3998866223037243,-0.5278253852788358
1789740872452342000,6.324342041015625,0.2446210956595838,0.024022680622339247,-1.238809681777656
1789740872462420000,6.334419921875,0.08432093584910035,-0.14557517662644384,-1.4049442468300462
1789740872472498200,6.344498291015625,0.12321136912703513,-0.23284546380043028,-1.0392219060651957
1789740872482575000,6.3545751953125,-0.05890884669497609,-0.3483142559766769,-0.6048515244772658
1789740872492653000,6.364653076171875,-0.10175576251372695,-0.2524292851924896,-0.6036272799119353
1789740872502731000,6.37473095703125,0.15674129828512667,0.07539806307256221,-0.8194300581704824
1789740872512808200,6.38480810546875,0.12019742813333868,0.1656248619645834,-1.0605077821347861
1789740872522886100,6.39488623046875,0.19654782349467276,0.20612872178852557,-0.8350205721426754
1789740872532964000,6.404964111328125,0.2606241359554231,0.13106208262741564,-0.38099377885051067
1789740872543042300,6.415042236328125,0.10030424853116274,-0.05194704485833645,-0.2562699228012934
1789740872553119200,6.425119140625,0.004711100300401449,-0.0745318016320467,-0.4135534016717225
1789740872563197200,6.435197265625,0.035424802993983026,-0.13795534927248954,-0.5869421025708318
1789740872573275100,6.445275146484375,-0.0848532891601324,-0.17303075430691242,-0.6755838972937316
1789740872583352000,6.45535205078125,-0.16997151286676526,-0.0863128403186798,-0.6123035209836438
1789740872593430000,6.465429931640625,0.034957331612706186,0.06655892305672169,-0.5620758107312024
1789740872603508000,6.475508056640625,0.08107610870897769,0.14089140272438525,-0.6808825882237404
1789740872613585000,6.4855849609375,0.06020327041968703,0.10774901157915591,-0.7429615163221955
1789740872623663000,6.4956630859375,0.06579363777264952,0.023435820645093915,-0.515841334833391
1789740872633741000,6.505740966796875,0.009925766208767891,-0.1316045189410448,-0.17566782481223345
1789740872643819000,6.515819091796875,0.0249701906055212,-0.14448971947729586,0.007319748428836465
1789740872653896200,6.525896240234375,0.07034048742204904,-0.07761983077526093,-0.09592491920208558
1789740872663974100,6.53597412109375,0.07761500846967101,-0.006398176604509353,-0.3377496073424816
1789740872674052000,6.546052001953125,0.06363733652159571,-0.0010942249774932862,-0.42323092874046414
1789740872684129000,6.55612890625,0.2144885538548231,0.04697276357710361,-0.3406260030290112
1789740872694207200,6.566207275390625,0.27336145245358345,-0.03984568817615509,-0.01356867102207616
1789740872704285200,6.57628515625,0.6103600952982902,-0.17733634254634378,0.4297621206074953
1789740872714363100,6.586363037109375,-0.14744170115068553,0.11991232758164405,1.094353499243781
1789740872724440000,6.596440185546875,-0.0772949827350676,0.10746551846265792,-0.25877554894667115
1789740872734518000,6.60651806640625,-0.46348625716343517,-0.283900528255105,-1.671547018803656
1789740872744596000,6.616595947265625,-0.8992622312329709,-0.2247229476213455,-2.698866451759636
1789740872754673000,6.6266728515625,-0.6537509087353944,-0.062218848025798794,-2.4273244698181746
1789740872764751000,6.636751220703125,-0.6282745221734046,-0.0078033672273159025,-1.073827501630783
1789740872774829000,6.6468291015625,-0.20731895448639986,0.44999768390655515,-0.34371713744476434
1789740872784906200,6.65690625,-0.37507761360928416,0.2936176201492548,-0.5054298674669117
1789740872794984200,6.666984130859375,-0.5185165088593959,0.11979133155047893,-0.9286228388171642
1789740872805062100,6.677062255859375,-0.5411936200916767,-0.027978140249848363,-0.762786599124223
1789740872815140000,6.68714013671875,-0.535743537992239,0.015180617997050285,-0.5707356121247634
1789740872825217000,6.697217041015625,-0.7045734796084463,-0.19478548999726772,-0.13087098050210624
1789740872835295200,6.707295166015625,-0.6655915686547755,-0.0847965905368328,0.09882438523694873
1789740872845373200,6.717373291015625,-0.7318494629383087,-0.037355624926090236,0.0752521517958492
1789740872855450000,6.7274501953125,-0.6899930194616317,0.019660978281497953,0.08499196697846055
1789740872865528000,6.737528076171875,-0.5046798528172075,0.22391923002302647,0.14002934253495186
1789740872875606000,6.74760595703125,-0.49267888776957985,0.22714754441976545,-0.12409184175599365
1789740872885684000,6.75768408203125,-0.6705753484167158,0.054933367192745206,-0.43083815234117206
1789740872895761000,6.767760986328125,-0.7344220899052918,0.0779214440703392,-0.492947183316946
1789740872905838800,6.7778388671875,-0.7994045574255287,0.06913608006834983,-0.3031943537246436
1789740872915917000,6.7879169921875,-0.7743591096267104,0.03323942177891731,-0.11974069734178483
1789740872925994200,6.797994140625,-0.7974861565835774,0.03742167589962482,0.09427220182530581
1789740872936072200,6.808072265625,-0.7351876674503087,0.17404899143874644,0.13233005673661827
1789740872946150100,6.818150146484375,-0.6123889707773924,0.14562252289950847,0.08293181957826018
1789740872956227000,6.82822705078125,-0.5748189724482595,0.10171265402436255,0.01998904119208455
1789740872966305000,6.838304931640625,-0.6402504989102482,0.10046002361476421,-0.006838467717915773
1789740872976383000,6.848383056640625,-0.7320031921952962,-0.03370353215932846,-0.14276822944693265
1789740872986461200,6.858461181640625,-0.7286199794977903,0.06478548364341259,-0.2181090093743056
1789740872996538000,6.8685380859375,-0.7171884849011898,0.08776888434588909,-0.2328624149352312
1789740873006616000,6.878615966796875,-0.7166584696777164,0.04123392766416072,-0.12542962969839572
1789740873016694000,6.888694091796875,-0.5900847845107317,0.08635843302607536,0.06955554758943618
1789740873026771000,6.89877099609375,-0.4573300726212561,0.134427759668231,0.1725891480192542
1789740873036849000,6.908848876953125,-0.44599078635275363,0.20082418563961982,0.11906287114545702
1789740873046926800,6.9189267578125,-0.3752819040097296,0.34256139153838155,-0.024018004447221755
1789740873057004000,6.929004150390625,-0.44312195291817186,0.2931897501260042,-0.19328984461203216
1789740873067082200,6.939082275390625,-0.5950820082761347,0.20217676929235456,-0.2568039200801402
1789740873077160200,6.94916015625,-0.654078971645981,0.10002630837261677,-0.18973222519569097
1789740873087238100,6.959238037109375,-0.7364268538564444,-0.10335165340304374,-0.09734861359596252
1789740873097315000,6.969315185546875,-0.748998604529351,-0.17755962990820406,-0.04811791502423584
1789740873107393000,6.97939306640625,-0.6878203515976667,-0.1304933428287506,-0.09395977487526834
1789740873117471000,6.989470947265625,-0.7623731960177421,0.16015315255522727,-0.150844495331496
1789740873127548000,6.9995478515625,-0.25078838611766696,-0.751755940413475,0.16134075490459798
1789740873137626000,7.009626220703125,0.8353957621306181,-0.08637304607331753,-0.6348121072486043
1789740873147704000,7.0197041015625,0.1788081686645746,-1.3123381515860557,-0.5301766976453364
1789740873157782000,7.029781982421875,2.5347593008816243,0.742218296739459,-0.5917473839607089
1789740873167859200,7.039859130859375,1.1699597251743077,0.303563260102272,-0.16680099307186902
1789740873177937200,7.049937255859375,1.072977022281289,1.109419039493799,-0.3396547103114426
1789740873188015000,7.06001513671875,0.2687916603200137,0.6150917999953032,0.5001613524794578
1789740873198092000,7.070092041015625,-0.41292262948751446,0.25891046390533445,0.6572533638983965
1789740873208170200,7.080170166015625,-0.41198622542023655,-0.47088498911261556,0.5931251751199365
1789740873218248200,7.090248291015625,-0.34431451881602404,-0.5409609803795814,0.5087465907994657
1789740873228326100,7.100326171875,-0.45176220936104655,-0.8833055142968893,0.8418721916031092
1789740873238403000,7.110403076171875,-0.24242694661617278,-0.8416501463502645,1.5293771205760538
1789740873248481000,7.12048095703125,0.37637598285675045,-0.12074760936200618,1.6836194416522978
1789740873258559000,7.13055908203125,0.5189724359333515,0.5374696311324835,1.2568395517259836
1789740873268636000,7.140635986328125,0.28402795402705666,0.9866618438750505,0.544820943743363
1789740873278714000,7.150714111328125,0.034023411763459445,1.0910212130159138,0.22841113461479542
1789740873288792000,7.1607919921875,-0.4375140499085188,0.7822206367820501,0.8514645611390471
1789740873298869200,7.170869140625,-1.1809217025630174,0.2049906576693058,1.637169532905519
1789740873308947200,7.180947265625,-1.3878491735137999,-0.261744226026535,1.8532386339500546
1789740873319025200,7.191025146484375,-1.357121880686283,-0.5470616353422403,1.6769561843708156
1789740873329103000,7.20110302734375,-1.2783267225213348,-0.5031383224636315,1.279061904928088
1789740873339180000,7.211179931640625,-1.1292249792039393,-0.1445405728816986,0.8661628024466336
1789740873349258200,7.22125830078125,-0.6805866009518504,0.34491350762248035,0.5429005701400339
1789740873359337000,7.2313369140625,-0.44084144076555964,0.8412117549329996,0.46567806811928747
1789740873369414000,7.241413818359375,-0.6088432609945535,0.9758283151715993,0.31077742926478386
1789740873379491800,7.251491943359375,-0.8300567391902208,0.6774865891098976,0.2511168874196708
1789740873389569800,7.26156982421875,-1.14099198936522,0.22899463359117506,0.3670198332294822
1789740873399647700,7.271647705078125,-1.4715994698680936,-0.21233342164754868,0.5205361050534993
1789740873409724700,7.281724609375,-1.4081658392250538,-0.37209786714613435,0.33089506527259943
1789740873419802600,7.291802734375,-1.1162161522880196,-0.17382161242365837,0.03975077643431723
1789740873429880800,7.301880859375,-0.7844161009997129,0.0936374841183424,-0.33247473567947744
1789740873439957800,7.311957763671875,-0.35315322044044734,0.4034142119079828,-0.929201150161773
1789740873450035700,7.32203564453125,-0.36896541433930397,0.44123044008314605,-1.1337669334825127
1789740873460113700,7.33211376953125,-0.3622182781666517,0.3970873469740152,-1.0572837055217474
1789740873470191600,7.342191650390625,-0.3363300959333777,0.31601357635259625,-0.7630566482372582
1789740873480268800,7.352268798828125,-0.64193962104097,0.2516366735100746,-0.2752923474509269
1789740873490346800,7.3623466796875,-0.7243249126523733,0.06083762280046939,-0.089782781451568
1789740873500425000,7.372425048828125,-0.5118126273065805,-0.07925006232559681,-0.21043489454984662
1789740873510502000,7.382501953125,-0.5238122771799564,-0.3058119158118963,-0.5082392257992178
1789740873520579800,7.392579833984375,-0.390631010441482,-0.2516103700250387,-0.758266272155568
1789740873530657800,7.40265771484375,-0.08759528134465216,0.029545243436098097,-0.907662833701074
1789740873540735700,7.41273583984375,0.713782475849986,0.2039835264533758,-1.1671770356532185
1789740873550812700,7.422812744140625,0.2938309706389904,0.20009996301829813,-1.4108946796670556
1789740873560890600,7.432890625,0.21856997794955968,-0.017899813827872275,-1.689451216545701
1789740873570968800,7.44296875,0.5699667101114988,0.257840788847208,-1.7949179624065756
1789740873581045800,7.453045654296875,0.4169597760491073,0.11102759485840796,-1.7868441076748072
1789740873591123700,7.463123779296875,0.42703649503588675,0.1584317355901003,-1.4982055911123753
1789740873601201700,7.47320166015625,0.12194237210452556,-0.07230886488556862,-0.8292934997327626
1789740873611279600,7.483279541015625,0.17503624891042707,-0.1633183385878801,0.08454042381867766
1789740873621356800,7.493356689453125,0.010527239233255386,0.047478375011682505,0.8255269137408584
1789740873631434800,7.503434814453125,-0.14588161222711205,-0.06198971544504165,1.2711696903735399
1789740873641512700,7.5135126953125,-0.4511687735125422,-0.05215864178240299,1.6848118663072584
1789740873651589600,7.523589599609375,-0.5675234086126089,-0.029538813695311545,2.156978419663012
1789740873661667800,7.533667724609375,-0.24961320485845206,0.1340221014767885,2.228125839553773
1789740873671745800,7.543745849609375,0.16251374420672654,-0.030804888108372685,1.9963404062002896
1789740873681823700,7.55382373046875,0.593255669631809,-0.02169511445760727,1.359109108980745
1789740873691900700,7.563900634765625,0.5894580309145152,0.08678864113688468,0.713020332371071
1789740873701978600,7.573978515625,0.44100393785089254,0.13521978682875632,0.5805430491834879
1789740873712056600,7.584056640625,0.3203533591225743,0.11636486423313618,0.8482526864204555
1789740873722133800,7.5941337890625,0.18325345763564108,-0.04166355125308036,1.1072128346864134
1789740873732211700,7.604211669921875,0.05126943785771727,-0.45332770511209963,1.0715982812739908
1789740873742289700,7.61428955078125,0.1758323677241802,-0.5074544320970773,0.7027420994628221
1789740873752367600,7.62436767578125,0.5778177158728242,-0.32822306958436964,0.09401705802045762
1789740873762444800,7.63444482421875,1.1150766268640755,-0.34273557906150814,-0.7726913225449621
1789740873772522800,7.644522705078125,1.4147028397783636,-0.3504541906148195,-1.5263419906638562
1789740873782600700,7.6546005859375,1.3293565064042805,-0.34087153875529763,-1.9593673508509992
1789740873792677600,7.664677734375,1.6529530852317809,-0.187017194083333,-2.0247852871790526
1789740873802755800,7.674755859375,1.700615000116825,-0.05367489156424999,-1.5820029414787888
1789740873812833800,7.684833740234375,1.4947171644747257,-0.0319067118704319,-1.1690049086675047
1789740873822911700,7.694911865234375,1.4536357970237732,-0.5316466240674257,-1.066768523029983
1789740873832988700,7.70498876953125,1.3466225523732602,-0.41797699026763435,-1.614819169409573
1789740873843066600,7.715066650390625,0.735948130428791,-0.17161738037765026,-1.696484914574772
1789740873853144600,7.72514453125,1.2589289252206683,0.22632746020853517,-1.6476561478674412
1789740873863221800,7.7352216796875,0.4740726792380213,0.0479798947930336,-1.55479476268813
1789740873873299700,7.7452998046875,0.7610612366363406,-0.10616261917054652,-0.8746101666659116
1789740873883377700,7.755377685546875,1.9365312496647238,0.463101495629549,-0.676672642378509
1789740873893455600,7.76545556640625,0.1799199292987585,-0.8769049996048212,-0.25736973726935686
1789740873903532800,7.77553271484375,-0.05115560221970081,-0.9756588038235903,-0.17796572649106382
1789740873913610800,7.78561083984375,1.0289935036480427,0.6654308251351118,0.04379530258476734
1789740873923688700,7.795688720703125,0.10396890851855277,0.01799801350533962,-0.2992558452319354
1789740873933765600,7.805765625,0.7720151768490672,0.20191724157333374,-0.9347973627336322
1789740873943843800,7.81584375,0.22385376357138156,0.2646785259127617,-0.987583196503669
1789740873953921800,7.825921875,-0.07532762818485499,-0.09268003726303577,-0.8161678415041417
1789740873963999700,7.835999755859375,0.2728621246293187,-0.08117664647400379,-0.3074639938678592
1789740873974076700,7.84607666015625,-0.011527648447453975,-0.517608161842823,0.38270774316154416
1789740873984154600,7.856154541015625,-0.6657178253829479,-0.859105723541975,0.768377185672894
1789740873994232600,7.866232666015625,-0.6273021700099111,-0.3273176451772451,0.45317076098471876
1789740874004309800,7.876309814453125,-0.425527259516716,-0.17408756988346577,0.007319894559308886
1789740874014388000,7.886387939453125,-0.3843734113514423,0.8971335486412048,-1.2300247561670838
1789740874024466000,7.8964658203125,-2.351662202851474,0.5855751981317997,-1.4936010199263692
1789740874034543900,7.9065439453125,-0.851422913954407,1.2059522450536488,-0.9612803690548986
1789740874044620800,7.916620849609375,-1.3781813275888561,-0.23834406121671198,-0.21570750119052826
1789740874054698800,7.92669873046875,-1.0482552534788847,-2.24330382720232,-0.7828020899318158
1789740874064776700,7.936776611328125,1.3239403265744447,-0.967386065518856,-1.4804761654153464
1789740874074853600,7.946853515625,2.897653870874643,1.0749854394942522,-1.4461181148700415
1789740874084931800,7.956931884765625,2.1310066507995127,0.2694102306097746,-1.35902070004493
1789740874095009800,7.967009765625,-2.2864859663248063,3.0705466780155897,0.4622590534560382
1789740874105087700,7.977087646484375,-2.2308912126138805,0.9345160615742206,0.9586552081830799
1789740874115164700,7.98716455078125,-1.9529174440592527,-1.4732675492107867,0.4808405659377575
1789740874125242600,7.99724267578125,-0.1281529171824455,-0.7166688449412584,-0.09657762922346591
1789740874135320600,8.007320556640625,-0.7764324087694287,-0.7034960596352815,-0.5356685730598867
1789740874145397800,8.017397705078125,-1.7793951068431137,-0.15061141722798346,-0.04386763716861605
1789740874155476000,8.02747607421875,-1.5643459964960813,0.16490999169349668,0.8593963770516216
1789740874165554000,8.037553955078126,-0.6748433811247349,0.3590811491847038,0.9663581837758421
1789740874175632000,8.0476318359375,-0.44125937391668557,0.624948592621088,0.5912779398180544
1789740874185708800,8.057708740234375,-0.5566068778008222,0.4407715903997421,-0.2106811243958771
1789740874195786800,8.067786865234375,-0.4926452777609229,0.47074996455609797,-0.6753932700924575
1789740874205864700,8.07786474609375,-0.7729188476905227,0.41644028221964835,-0.4107869326330721
1789740874215941600,8.087941650390626,-1.184187280230224,0.6620750849664211,0.11104103886187076
1789740874226019800,8.098019775390625,-1.3682178597182035,0.43809915632009505,0.241538765604794
1789740874236097800,8.108097900390625,-0.9683682084240018,0.0279635272026062,-0.1790875701278448
1789740874246175700,8.11817578125,-1.1273219220615922,0.11797756012678146,-0.7737959227859973
1789740874256252700,8.128252685546874,-1.0971962483890354,0.21048282534480095,-1.0697503153197467
1789740874266330600,8.13833056640625,-0.3689772509075701,0.29192075310349463,-0.6954537690855562
1789740874276408600,8.14840869140625,-0.12703063515424728,0.5073416193723679,-0.011001432616263627
1789740874286486800,8.15848681640625,-0.5948667580902576,0.6905237653374672,0.544222758654505
1789740874296564000,8.16856396484375,-0.6204694013804197,0.4014899658471346,1.289729721675813
1789740874306642000,8.178641845703124,-0.48130642988383765,0.052232876062393185,1.876117697495222
1789740874316719900,8.188719970703126,-1.1283218928843737,0.06373392876386642,2.1352578785032033
1789740874326796800,8.198796875,-1.528178120049834,-0.012310030996799469,1.648118796943128
1789740874336874800,8.208874755859375,-1.3208623804338275,-0.05756546926200389,1.2663776337914168
1789740874346952700,8.21895263671875,-1.0865922906577588,0.19235270989239214,1.367530461975932
1789740874357030100,8.229030029296876,-0.7993333918854594,0.6122527771770954,2.1424964514546097
1789740874367107000,8.239107177734375,-0.7428425661176443,0.8486012806624174,3.126423463538289
1789740874377185000,8.24918505859375,-1.0674088667601347,0.6221060626715421,3.959377093213796
1789740874387263200,8.25926318359375,-1.3521861778497695,-0.05506780722737312,3.2807571161597964
1789740874397340400,8.26934033203125,-1.7479922528415917,-0.5228285268396139,2.425680502003431
1789740874407418400,8.27941845703125,-2.041177911314368,-0.45958676550686356,1.6983448632277547
1789740874417496300,8.289496337890625,-1.6804980947613715,-0.11969137830734253,1.305931207153201
1789740874427574300,8.29957421875,-1.53172909052968,0.1405231539338827,1.0561365082480012
1789740874437651200,8.309651123046875,-1.5380099243648349,0.41505028916597364,0.8013039613060653
1789740874447729200,8.319729248046874,-1.7109461322560906,0.596276040366292,0.5570797560095787
1789740874457807400,8.329807373046876,-1.8126129013121126,0.7181605448037386,0.3498169156245887
1789740874467884300,8.33988427734375,-2.067050165326148,0.7597066071569919,0.4491213394634425
1789740874477962200,8.349962158203125,-2.141415232089162,0.5220622186422348,0.7108288867413998
1789740874488040200,8.360040283203125,-1.9477631300359963,0.08728197761178016,0.7124256544135511
1789740874498118100,8.3701181640625,-1.7562351805299519,0.10801496903896331,0.24780381734892726
1789740874508195000,8.380195068359376,-1.9540555081784725,0.05885667811632156,-0.4796479951523244
1789740874518273000,8.39027294921875,-1.8760358644306658,0.42674014243781566,-1.1980416180595754
1789740874528351200,8.400351318359375,-1.5376011974334716,0.6405979971736669,-1.3862205493986606
1789740874538429200,8.41042919921875,-1.8388715242929756,0.7165811666578054,-1.1949340074330568
1789740874548506400,8.42050634765625,-2.2025041993021963,0.6161515381813049,-0.9575783727318048
1789740874558584300,8.430584228515626,-2.3133716351628304,0.6065735624969005,-0.6451271650359034
1789740874568662300,8.440662353515625,-2.3437346247226,0.6007897183984517,-0.5824255019292235
1789740874578739200,8.4507392578125,-2.0389093818604946,0.5303694437384605,-0.5941026418499649
1789740874588817200,8.460817138671874,-1.942754361963272,0.39528585051000115,-0.7671775275595486
1789740874598895400,8.470895263671874,-1.536291283878684,0.23084756798148154,-1.1981791268341242
1789740874608973300,8.480973388671876,-1.1882520454511045,-0.05612228471636772,-1.5521796117536724
1789740874619050200,8.49105029296875,-1.152679066158086,-0.09922726694941521,-1.6085238686576484
1789740874629128200,8.501128173828125,-0.9039210168242454,0.1040466499298811,-1.4159521091870964
1789740874639206100,8.5112060546875,-0.8979355126738547,0.2408224340289831,-1.1255153110310434
1789740874649284000,8.5212841796875,-0.9163982210814953,0.24561375995874404,-0.8039591519899666
1789740874659361000,8.531361083984375,-0.4412549900025129,0.4725877013772726,-0.46158970282711087
1789740874669439200,8.541439208984375,-0.7663809703543781,0.7424661340206861,-0.25579372012428936
1789740874679517200,8.55151708984375,-0.2137581937536597,0.530215714481473,-0.2900429765328765
1789740874689594400,8.561594482421874,-0.44117447211220856,0.03351648515462875,-0.6917202085804194
1789740874699672300,8.57167236328125,-0.48050972654819485,-0.049289808347821235,-0.8780902638666331
1789740874709750300,8.581750244140625,-0.08307897296398878,0.31751579760909077,-0.715992553114891
1789740874719828200,8.591828125,0.25221096626669165,0.6954331646889448,-0.06455693558454513
1789740874729905200,8.6019052734375,-0.10206541298478841,0.1054097549766302,0.8281941601887345
1789740874739983400,8.6119833984375,-0.4634384724989533,-0.252126502853632,1.2919646411210297
1789740874750061300,8.622061279296876,-0.3854876562036574,-0.28606442829072476,1.5235162657186387
1789740874760139300,8.63213916015625,-0.6481057424552739,-0.051958735296130175,1.268788786586374
1789740874770216200,8.64221630859375,-0.8849553273305296,0.1548193903118372,0.865138135574013
1789740874780294100,8.652294189453125,-0.860409207355976,0.2120779855817556,0.6169875506140291
1789740874790372000,8.6623720703125,-0.5494869627930223,0.29182781412303443,0.2837898344222456
1789740874800449000,8.672448974609376,-0.409161815649271,0.0008674304842948913,0.09714585756547749
1789740874810527200,8.68252734375,-0.5250836122900248,-0.19939736770689487,0.04924699211940169
1789740874820605200,8.692605224609375,-0.36252222954928875,-0.1947071640640497,0.3735833564635366
1789740874830683100,8.70268310546875,0.16198855128884315,0.1749392182767391,0.6134175831727683
1789740874840760300,8.71276025390625,0.14956497691497206,0.3669108198970556,0.5915426551688462
1789740874850838300,8.72283837890625,-0.11104571503698825,0.33949089805185795,0.0719557405989617
1789740874860916200,8.732916259765625,-0.4731441662162542,-0.19471943902373312,-0.5477219989471137
1789740874870994200,8.742994140625,-0.547243129388988,-0.2753518956184387,-0.6903522812280803
1789740874881071000,8.753071044921874,-0.24332827937006948,-0.022419921600818633,-0.22469700946249066
1789740874891149300,8.7631494140625,-0.18723755883574486,-0.12238602421879767,0.32228176990188656
1789740874901227300,8.773227294921876,-0.09604103812873363,-0.08166647581756115,0.5598455674611031
1789740874911304200,8.78330419921875,-0.2786754870831966,-0.0027560207098722457,0.4569198843851685
1789740874921382100,8.793382080078125,-0.5874392384380102,0.12842179725170136,0.2843007796190679
1789740874931460000,8.803460205078125,-1.077788806477189,-0.0031219314128160475,0.12150412681773304
1789740874941538000,8.8135380859375,-1.2069636140532791,-0.3315829014062881,-0.16008848982118068
1789740874951615000,8.823614990234375,-1.1783324167221785,0.117944826900959,-0.5733341407179832
1789740874961693200,8.833693115234375,-1.013740989458561,0.3280670022398233,-1.0614278195891529
1789740874971771100,8.843771240234375,-0.7116578849114478,0.2556575995892286,-1.2396607456490396
1789740874981849000,8.85384912109375,-0.5121206703424453,0.37053251752555366,-0.9541177839491516
1789740874991926300,8.86392626953125,-0.6850368583589792,0.5699766469836235,-0.6187142282761633
1789740875002004200,8.874004150390626,-0.7913171125598252,0.25414018076360223,-0.33132775760143995
1789740875012082200,8.884082275390625,-1.023393783944845,-0.21413725619912147,-0.06530417375527323
1789740875022159000,8.8941591796875,-1.3220062897719442,-0.4922913497567177,-0.008765928649157284
1789740875032237300,8.9042373046875,-1.021695163333416,0.13657237048149107,-0.08920242428034543
1789740875042315300,8.914315185546876,-0.8249224450416862,0.33945699578225613,-0.19981836959794164
1789740875052393200,8.924393310546876,-0.6250239959448576,0.1514157193481922,-0.42413025220036504
1789740875062470100,8.93447021484375,-0.689157883811742,0.3880693432599306,-0.46996619376726445
1789740875072548000,8.944548095703125,-1.0158050823815166,0.08067571121454238,-0.23199827238656578
1789740875082626000,8.9546259765625,-1.0627819376118481,-0.15255495251119136,0.2561700060907751
1789740875092704300,8.964704345703124,-1.1146109090484677,-0.1655500431627035,0.9534752482619137
1789740875102781200,8.97478125,-1.1218081270761788,0.026582886499166486,1.2523697128355502
1789740875112859100,8.984859130859375,-0.8722505979277193,0.5052677357077598,1.374141989070177
1789740875122937000,8.99493701171875,-0.844129688206315,0.28748773909211156,1.231898002693057
1789740875133014300,9.00501416015625,-0.7599408543042838,0.25754560529291626,0.8779507823307067
1789740875143092200,9.01509228515625,-0.6693167266577482,0.578922169983387,0.6701785311188548
1789740875153170200,9.025170166015625,-0.860037305303663,0.3090945907443762,0.4724218798236921
1789740875163248400,9.035248291015625,-1.0083592964202166,0.13226035250127316,0.4200924480516463
1789740875173325300,9.0453251953125,-1.0421372089900076,-0.0915285291403532,0.8275998475573957
1789740875183403300,9.0554033203125,-1.239075493106991,-0.2789981431663036,1.297963881535828
1789740875193481200,9.065481201171876,-1.3211599020756781,0.20837445488870143,1.7118426427043973
1789740875203559200,9.07555908203125,-0.9516068971067666,0.5419809710770845,1.9375000946968792
1789740875213636000,9.085635986328125,-0.7572036844253539,0.5982002864271402,1.744354773122072
1789740875223714000,9.095714111328125,-1.1566723735779523,0.19666297430694102,1.422577810937166
1789740875233792300,9.105792236328124,-1.039633409475535,0.015320903250575064,1.054430288852006
1789740875243870200,9.1158701171875,-1.0540326678365468,0.07402268306612968,0.9206453571319579
1789740875253947100,9.125947021484375,-0.9969773400537669,-0.5288163690775632,0.8846412929452955
1789740875264025000,9.136025146484375,-0.7282990769803523,-0.14419745853245258,0.8869291116215288
1789740875274103000,9.14610302734375,-0.37117213060334325,-0.0303337634652853,1.027815253648907
1789740875284181000,9.156180908203124,-0.42516441755369305,0.21218553760945796,0.9169710525333881
1789740875294258200,9.166258056640626,-0.09405848600938915,0.5874485907882452,1.0155332797028123
1789740875304336400,9.17633642578125,-0.19606734650135038,0.48571664754152294,0.981758728133887
1789740875314414300,9.186414306640625,-0.620751287061721,-0.0913496654421091,0.8356046556409448
1789740875324491300,9.1964912109375,-0.8344932603329419,-0.3954804962992668,0.6310524624541402
1789740875334569200,9.2065693359375,-0.8228133439332246,-0.42626784875094886,0.32455599844418465
1789740875344647200,9.216647216796876,-0.46473289622366426,-0.048593058255314826,0.07366130240783095
1789740875354725000,9.22672509765625,-0.36826106546223164,-0.22823241704702377,-0.05497165337651968
1789740875364803000,9.236802978515625,-0.14099486309885978,0.16626432891190052,-0.1555250178305432
1789740875374881000,9.246881103515625,-0.23914134907424447,0.17017068870067595,0.11265273010851815
1789740875384959000,9.256958984375,-0.5468745883375405,-0.6042495034635067,0.3960813482692465
1789740875395037000,9.267036865234376,-0.19124577156379818,0.09067220457196234,0.46071569647155697
1789740875405113900,9.27711376953125,0.0899934285275638,0.21894845587313175,0.512409570286423
1789740875415191800,9.28719189453125,-0.1552509135968983,-0.1431909118384123,0.09878750555897131
1789740875425269800,9.297269775390625,-0.07975275115072726,0.35300270605385303,0.01111772507284768
1789740875435348000,9.307347900390624,-0.11677578312158583,-0.6897913594096898,0.4586405341653153
1789740875445425200,9.317425048828126,-0.1947071640640497,-0.3368652257233858,0.761445048322156
1789740875455503000,9.327503173828125,-0.3495439439021051,0.239850958648324,0.8943740207999944
1789740875465581000,9.3375810546875,-0.30907837026193735,0.028633389288187025,0.8872392735492437
1789740875475658000,9.347657958984374,-0.7449376387007534,0.13061375433802605,0.8114484848320483
1789740875485736000,9.35773583984375,-0.3320505189180374,0.22270926971137522,0.6698599666889756
1789740875495814000,9.36781396484375,0.15181377875506877,0.11346680470407008,0.2324877364039421
1789740875505892000,9.37789208984375,0.8530904087752104,0.29357202744185923,-0.13729530532802453
1789740875515969000,9.387968994140625,0.634467531594634,0.11500643536150455,-0.3741255005162209
1789740875526047000,9.398046875,0.045009208419173954,-0.2821592375457287,-0.2414223909498192
1789740875536125000,9.408125,0.15357538160011172,-0.22398995717167852,-0.03372016363372095
1789740875546203000,9.418202880859376,0.3584757306374609,0.11471300537288188,0.303302289344836
1789740875556279800,9.42827978515625,0.24292905091941355,-0.23151041580438614,0.3394224724581465
1789740875566357800,9.438357666015625,0.5685429609186947,0.30003274788856504,0.29337946401182563
1789740875576436000,9.44843603515625,1.0608340184144676,-0.017083821269869803,0.500574171064049
1789740875586514000,9.458513916015624,0.7898987701945006,-0.46838908064365387,0.657266004184261
1789740875596591000,9.468591064453125,0.23967896308228373,-0.39589316875338554,0.548632866714336
1789740875606669000,9.4786689453125,0.5986624971114098,-0.3385147464960813,0.6849439193785191
1789740875616747000,9.4887470703125,-0.0038438159465789793,-0.3529530216932297,0.6206961958736181
1789740875626825000,9.498824951171875,-0.08147533715963363,-0.1285983228623867,0.8645206612627953
1789740875636902000,9.50890185546875,-0.3736313603237271,-0.30159575942158695,1.169898788767308
1789740875646980000,9.51897998046875,-0.5137972252525389,0.08534428754746913,1.3974009918436407
1789740875657058000,9.52905810546875,-0.04387713564932346,0.503697125390172,1.3902574036993085
1789740875667136000,9.539135986328125,0.47356838297769427,0.644269963684678,1.2165453891299665
1789740875677213000,9.549212890625,0.3428915002755821,0.8021908271431922,0.8522937785048037
1789740875687291000,9.559290771484376,0.29162323146164415,-0.10128946017622947,0.5509034785274416
1789740875697368800,9.569368896484375,0.2148490577302873,-0.48587037679851053,0.3911991291856393
1789740875707445800,9.57944580078125,-0.2769144687600434,-0.8264987544476985,0.1870345836095512
1789740875717524000,9.58952392578125,-0.1906092272259295,-0.6769026517421006,-0.32610819632224736
1789740875727602000,9.599601806640624,-0.001241670624166727,-0.10412614490687847,-0.6253962633233517
1789740875737680000,9.609679931640626,-0.08740940338373183,0.17881985910236833,-0.6211006850212812
1789740875747757000,9.619757080078125,-0.08904781824052334,0.34207273123860354,-0.5796995840966701
1789740875757835000,9.6298349609375,0.4160369621157646,0.7763321632653475,-0.7065791203424334
1789740875767913000,9.639912841796875,0.20024726253449915,0.4274643650591373,-0.9130337130844592
1789740875777991200,9.6499912109375,0.048750879165530205,-0.12215279998481272,-0.997223789095506
1789740875788068000,9.660068115234376,-0.03450082001686096,-0.7924497698515653,-1.1870187042638658
1789740875798146000,9.67014599609375,0.18798750042021273,-0.4077759142488241,-1.2393660004861653
1789740875808224000,9.68022412109375,0.4403068954974413,0.11618307792544365,-1.15279275566563
1789740875818302000,9.690302001953125,0.6870294934809208,0.38427170454263687,-1.18052751561366
1789740875828379000,9.70037890625,0.4004512704491615,0.23638065218925475,-1.1755530151367186
1789740875838456800,9.710456787109376,-0.08512699153497814,-0.5859872860640287,-1.1192710098139942
1789740875848535000,9.72053515625,0.03086553225442767,-0.2729571094363928,-1.0716776301205158
1789740875858613000,9.730613037109375,0.07035188559889793,0.3014373539894819,-0.9621033028103411
1789740875868690000,9.74068994140625,0.22989245921373366,0.10772270809412002,-0.9551027763985097
1789740875878767900,9.750767822265624,0.03984042747914791,0.19015081593394279,-0.8372326221689581
1789740875888845800,9.760845703125,-0.31947862211465833,-0.2976613425821066,-0.7621338343039155
1789740875898923800,9.770923828125,-0.11014102128222585,-0.5036269827634096,-1.0291963327437639
1789740875909001000,9.7810009765625,-0.24337737920880317,-0.20652093597650525,-1.2689023299634457
1789740875919079200,9.7910791015625,-0.26030937091782685,0.2312538106948137,-1.3670866637311876
1789740875929157000,9.8011572265625,0.07570069928094744,0.4093827649235725,-1.3541476871810854
1789740875939234000,9.811234130859376,-0.036031682845950125,0.46210137867629525,-1.2682618401028216
1789740875949312000,9.82131201171875,-0.21901056132391095,0.23674305576086044,-1.0956463155332952
1789740875959390000,9.831389892578125,-0.2569055538237095,-0.15609306350946425,-0.8758125281929969
1789740875969468000,9.841468017578125,-0.6887229995258152,-0.17041618789434432,-0.959405222832784
1789740875979544800,9.851544921875,-0.22406492210403084,-0.06852583921551704,-0.7591307069651783
1789740875989623000,9.861623046875,-0.37815526748895645,-0.043029578909277916,-0.6915722514770924
1789740875999701000,9.871700927734375,-0.37471594069004055,0.11460369977951049,-0.6662413378003984
1789740876009779000,9.881779052734375,-0.4088843138821423,0.25720249094367026,-0.6798935041211545
1789740876019856000,9.89185595703125,-0.7348012984812259,-0.10396598590910434,-0.780518582104519
1789740876029933800,9.901933837890626,-0.7002427569277584,0.061356093716621395,-0.8284026883728802
1789740876040011800,9.91201171875,-0.5772273487642408,-0.019437106397747993,-0.5811460200453177
1789740876050090000,9.922090087890625,-0.9079029260672629,-0.13548515976667402,-0.48542705347780135
1789740876060167200,9.932167236328125,-0.6071576459951699,0.3910311156749725,-0.46625795036647466
1789740876070245000,9.9422451171875,-0.5818864266164601,0.27998832324743267,-0.2722735110864043
1789740876080323000,9.952322998046874,-0.8169858068235218,0.2618096924781799,-0.3708195177733898
1789740876090401000,9.962401123046876,-0.8742584306187927,0.2591308286577463,-0.29348639498502016
1789740876100478000,9.97247802734375,-1.234323330143839,-0.8220973046183586,-0.468157281181775
1789740876110556000,9.982555908203125,-0.9158535928107797,-0.3994371249705553,-0.7703189673904329
1789740876120633900,9.9926337890625,-0.7643541407018899,0.24947803417146205,-0.5796373690480366
1789740876130712000,10.002712158203124,-0.26011165638864037,0.6200339325726032,-0.5236292122306302
1789740876140789000,10.0127890625,-0.3621520810626447,0.9188654879778623,-0.09227415987588465
1789740876150867000,10.022866943359375,-1.1180704018525778,-0.23889994153380392,0.18816680250987408
1789740876160945000,10.03294482421875,-1.0065390952557325,0.16773907763957976,-0.101770339028351
1789740876171022800,10.04302294921875,-0.538228778936714,0.5688432590395212,0.043558388556353744
1789740876181099800,10.053099853515626,-0.832978764116764,0.002699322086572647,-0.08510613141003996
1789740876191177700,10.063177734375,-1.1705103447943925,-0.11817746661305427,0.08511442431434989
1789740876201256000,10.073255859375,-0.799779674348235,-0.04951543379724026,0.25198044544644654
1789740876211334000,10.083333984375,-0.7951800715982914,-0.06579553746879101,0.18460794098451733
1789740876221411000,10.0934111328125,-0.4882524496294558,0.07406243055462837,0.20028744841441512
1789740876231489000,10.103489013671876,-0.4245253889977932,0.5025689981430769,0.1435265004683286
1789740876241567000,10.11356689453125,-0.7959042942196131,0.3706114279806614,0.19151638693241402
1789740876251645000,10.12364501953125,-0.5585369690805674,0.38591070392131804,0.28988804169949145
1789740876261721900,10.133721923828125,-0.5008095872551203,0.6710960112899541,0.34871227885093536
1789740876271800000,10.143800048828124,-0.6762520788788795,0.44369653793573377,0.1985125111637637
1789740876281878000,10.1538779296875,-0.8521353000074624,0.19578619147241114,0.001181939793564379
1789740876291956000,10.1639560546875,-1.2542970276363192,-0.45475978374183174,0.14382256080545483
1789740876302033000,10.174032958984375,-0.9721037416905164,-0.3012023761898279,0.22379918383993208
1789740876312110800,10.18411083984375,-0.5741185690939427,1.3573691334456204,0.25167021045349536
1789740876322188800,10.194188720703124,-0.11317279019355773,1.4801251600205898,0.5885759143177419
1789740876332267000,10.20426708984375,-0.575076600471139,-0.5701414821565151,0.7084406033653765
1789740876342344000,10.214343994140625,-1.7850434879936277,-2.231478364852071,0.6650367112509906
1789740876352422000,10.224421875,-1.9158928046531973,-1.57292736235857,0.47559119404219086
1789740876362499800,10.234499755859375,-1.8471647208638489,-0.7635475004941225,0.44813758912310003
1789740876372577800,10.244577880859374,-1.2679758627682924,-0.5404530308574438,0.691328798110038
1789740876382654700,10.25465478515625,-0.6636497869372368,0.6451654512196778,0.6880832403175532
1789740876392732700,10.264732666015625,-0.1903885702125728,1.7760966498196125,0.3625109775029123
1789740876402811000,10.274810791015625,0.31223186585679646,2.5381746622830628,0.10012529350137338
1789740876412888800,10.284888916015625,0.017897914131730794,1.6861825701385735,0.10467250847695395
1789740876422965800,10.2949658203125,-0.5233756393283605,0.2772176894903183,0.33473409544620664
1789740876433043700,10.305043701171876,-1.4507223937951028,-1.1008394271969795,0.639892040861398
1789740876443121700,10.31512158203125,-2.123316680818796,-1.8540122486710546,0.8298314060017467
1789740876453198600,10.325198486328125,-2.0765951155237854,-1.6647370465278624,0.98749968293868
1789740876463276500,10.335276611328124,-1.5867587577037512,-0.8201794882982969,0.8979745295099913
1789740876473354800,10.345354736328124,-0.2562454824797809,0.9896522578626871,0.830969323990494
1789740876483432700,10.3554326171875,-0.16140592909529805,1.5610294192939995,0.7927033062212169
1789740876493510000,10.365510009765625,0.051205871102213855,1.460018191537261,0.8073707870643585
1789740876503587800,10.375587890625,-0.6301673501826822,1.2154764447242021,0.7997725139550864
1789740876513665800,10.385665771484375,-0.9533698151260613,-0.22992460791766642,0.796147236130014
1789740876523743700,10.39574365234375,-1.2152855983272195,-0.524055438286066,0.6366133845169096
1789740876533821700,10.40582177734375,-1.470558436382562,-0.337183790153265,0.8899969747595489
1789740876543899000,10.41589892578125,-1.5724123985737561,-0.8351637069404124,1.0707884992610663
1789740876553976800,10.425976806640625,-0.958571037030965,-0.4750882860213518,1.117750887574628
1789740876564054800,10.4360546875,-0.20438684655725955,1.1212427482783793,1.0286992699418216
1789740876574131700,10.446131591796876,-0.10891703244522213,1.3073679619580507,0.829979509235546
1789740876584209700,10.456209716796875,-0.6582992196895182,0.32492870421409603,0.5756472764985635
1789740876594287600,10.46628759765625,-0.8821680346995592,0.2711369082719087,0.6536285244647413
1789740876604365800,10.47636572265625,-1.0937024149239063,-0.15707213767468928,0.7495449863657355
1789740876614442800,10.48644287109375,-1.0727848607100545,0.22388766584098338,0.5678861409777775
1789740876624520700,10.496520751953126,-0.8594640354603529,0.057550271692872045,0.6311905557505786
1789740876634598700,10.5065986328125,-0.7513590500503778,-0.18484160360991952,0.4652010617246851
1789740876644676600,10.516676513671875,-0.5524836603909731,0.34375030906200404,0.3894365764925256
1789740876654753800,10.52675390625,-0.05664309372007847,0.9411316803216934,0.2731362288629636
1789740876664831700,10.536831787109374,-0.4160487986840308,0.46228433402776714,0.005183576650358736
1789740876674909700,10.54690966796875,-0.7713309939771891,-0.10449147108793258,0.07033920878041536
1789740876684988000,10.55698779296875,-1.3562084191031754,-0.37092297814786435,0.23293569936715064
1789740876695065900,10.56706591796875,-1.202314326942712,-0.39393151329159737,0.4068015162587166
1789740876705142800,10.577142822265625,-0.9070973087728023,0.0830453629553318,0.252751393286325
1789740876715220700,10.587220703125,-0.5557499687105417,0.08077040376067161,0.1918495096106082
1789740876725298700,10.597298583984376,-0.0022061317421495914,0.6981283951222896,0.11656334594730287
1789740876735376600,10.607376708984376,0.09361220354661345,0.6223293500334024,0.31731859453655775
1789740876745453600,10.61745361328125,-0.22102891540899872,0.4799707973659038,0.09934596142563969
1789740876755531800,10.62753173828125,-0.2505167295694351,-0.0704272889226675,-0.01687350298743695
1789740876765609700,10.637609619140624,-0.859379864308238,-0.5884919623613357,-0.21588884910680353
1789740876775687700,10.647687744140624,-1.0635673889011144,-0.3760696933865547,-0.22409323488306254
1789740876785764600,10.6577646484375,-0.2915519197911024,0.2680272518187761,-0.1011843558339402
1789740876795842600,10.667842529296875,-0.16276538088023662,0.37062487198412414,-0.21656751555334774
1789740876805920500,10.67792041015625,-0.005370587122440338,0.2883966706305742,-0.4023680638559162
1789740876815998700,10.687998779296874,-0.061505877450853584,-0.08090309022963046,-0.4480479015456512
1789740876826076000,10.698075927734376,0.14451660748422146,0.2625286544024944,-0.30535737697742876
1789740876836153900,10.70815380859375,-0.2879379670776427,-0.18678864602446554,-0.20379341070875523
1789740876846231800,10.718231689453125,-0.16953253692761064,-0.4321276806950569,-0.427124977036938
1789740876856309800,10.728309814453125,-0.7389841371238232,-0.6516261716663837,-0.4916559013973921
1789740876866386700,10.73838671875,-0.388067735824734,0.03955459627509117,-0.6622221652869135
1789740876876464600,10.748464599609376,0.11969941548332572,0.42210488385260103,-0.5960891394920647
1789740876886542800,10.75854296875,0.24880977952107786,0.8239613449245691,-0.6722716309405863
1789740876896620800,10.768620849609375,0.026803543512523172,0.5607903009653091,-0.4827107437238097
1789740876906697700,10.77869775390625,-0.38177594220414757,0.03345043418109417,-0.2856658574271947
1789740876916775700,10.788775634765624,0.6511874879881739,-0.309148951280117,-0.5361131019569934
1789740876926853600,10.798853515625,1.2909643780373037,0.5594429780095815,-0.7333424049098044
1789740876936931600,10.808931640625,-0.4248289019890129,-0.15346096144020557,-0.49141982761919495
1789740876947008500,10.819008544921875,-0.6689386871255933,-0.27001345719993114,-0.31701939239427446
1789740876957086700,10.829086669921875,-0.9641302785933017,-1.2181184836655854,0.07964216691572219
1789740876967164700,10.83916455078125,-1.1413533700235188,-1.5270488237589597,-0.11227646240834147
1789740876977242600,10.84924267578125,-0.6288837401129305,0.8688292451769113,-0.2000321584790945
1789740876987319800,10.85931982421875,0.10052198293507099,1.6133265927642584,-0.27381785445157436
1789740876997397800,10.869397705078125,0.6429565429985523,0.6521773758083581,-0.3745488404948264
1789740877007475700,10.879475830078125,0.37164500881209966,-0.02282791787981987,-0.15825915550217032
1789740877017554000,10.889553955078124,0.20867139200866222,-0.05729600467085838,-0.1105661148265004
1789740877027630800,10.899630859375,0.9078197778284549,-0.25199966160356996,-0.22476225671842692
1789740877037708800,10.909708740234375,0.48697716899663207,-0.42815702349841595,-0.34539197532180693
1789740877047786800,10.919786865234375,0.22691899636089802,-0.399497330725193,-0.48583285779971624
1789740877057864700,10.92986474609375,0.16169088351652025,0.05940729773640632,-0.37224034435674547
1789740877067941600,10.939941650390624,0.05627732914760709,0.16417174054682254,-0.003946801397018134
1789740877078019600,10.95001953125,0.018042437168955802,0.5311930350810289,-0.03015292700566351
1789740877088097800,10.960097900390625,-0.12369257677271961,-0.1636643755465746,-0.18186792156137524
1789740877098175700,10.97017578125,-0.5808424705214799,-1.4636089095056055,-0.2442586920879781
1789740877108252700,10.980252685546875,0.05678966258391738,-0.13125322128534317,0.02522862234599888
1789740877118330600,10.99033056640625,0.6281453428357839,0.8273118243962526,0.5414388270244002
1789740877128408600,11.00040869140625,0.6043722530603408,-0.000685059654712677,0.5852490714499726
1789740877138486500,11.010486572265625,0.14918854481801389,0.040435470762848855,0.5325690361419693
1789740877148564700,11.020564697265625,-0.21396906002536414,0.41673546577394005,0.4901515977816656
1789740877158642000,11.030641845703125,-0.3920853009030223,0.021603344520926476,0.4340989442354068
1789740877168720000,11.040719970703124,-0.599103372746706,-0.38752164624929425,0.5350424039855599
1789740877178797800,11.0507978515625,-0.5355810409069061,-0.07844459116160869,0.5504517161719501
1789740877188875800,11.060875732421875,-0.1234406478382647,0.376596932131052,0.7691644635930657
1789740877198952700,11.07095263671875,0.34318390735089777,0.3722521809250116,0.8282011744514107
1789740877209030700,11.08103076171875,0.45252223394811153,0.5993611469000577,0.9849543093048035
1789740877219108900,11.09110888671875,-0.5037305892683566,0.07361001061201095,1.1101457463331519
1789740877229186800,11.101186767578126,-0.6603713497884571,-0.33045769676864145,0.9557220773406326
1789740877239263700,11.111263671875,-0.6404286319561302,0.302330503436923,0.932275954497233
1789740877249341700,11.121341796875,-1.2536750963456929,-0.3240162655442953,1.0120808011613787
1789740877259419600,11.131419677734375,-1.1952836976535617,-1.047377886122465,0.9730014211826026
1789740877269497600,11.14149755859375,-0.4779945288568735,-0.5086380889236927,1.0970252026710658
1789740877279574500,11.151574462890625,0.26954583968818185,0.7286918756902218,1.163623069498688
1789740877289652700,11.16165283203125,0.5927944818608463,0.7557032167345284,1.4413210898518563
1789740877299730700,11.171730712890625,0.1240698856525123,0.5180173271656036,1.5122247641146183
1789740877309808600,11.18180859375,-0.14104177098050713,0.716900900131464,1.371094584198296
1789740877319885800,11.1918857421875,-0.3929213133357465,0.25867490158379075,0.8269752128530293
1789740877329963800,11.2019638671875,-0.7632382884144783,-0.13662439292967318,0.3811252962756902
1789740877340041700,11.212041748046875,-1.083109709239006,-0.1243634617716074,0.3090042090471834
1789740877350119700,11.22211962890625,-0.4819708851419389,-0.2018751559972763,0.5094871069684624
1789740877360196400,11.2321962890625,0.3702611532382667,0.6629822629392147,0.744824533715099
1789740877370274600,11.242274658203126,0.531537902995944,0.8405605975478887,0.9364329280462116
1789740877380352500,11.2523525390625,0.30071532332524653,0.5725204862475395,0.8203461501020938
1789740877390430500,11.262430419921875,0.27384149105548855,0.7074696394413709,0.8058247997313738
1789740877400508400,11.27250830078125,-0.6967549148119986,0.2856698760151863,0.9000407413247972
1789740877410585300,11.28258544921875,-1.3716981030493973,-0.6713339116990565,0.8194477399576455
1789740877420663300,11.292663330078126,-1.306145726686716,-0.7051677922397852,0.3933336204636842
1789740877430741500,11.302741455078126,-1.3717653230667113,-0.3940472486257553,0.14499869191274045
1789740877440819500,11.3128193359375,-0.8136815045811235,-0.19947218650877474,-0.027230171426758168
1789740877450896400,11.322896484375,-0.3533050500012934,0.27141864782273767,0.11863317449130117
1789740877460974300,11.332974365234374,-0.08865560405254364,0.4406014945298433,0.44973501438237723
1789740877471052300,11.34305224609375,-0.05695742036625743,0.9336147288203239,0.5699021204426884
1789740877481130200,11.353130126953126,-0.2444381403081119,0.7448778713375329,0.7071339046809821
1789740877491207400,11.36320751953125,-0.695028091019392,-0.059526540201902386,0.48057438928224144
1789740877501285600,11.37328564453125,-1.1579461929060517,-0.11486673462986946,0.3244778917066753
1789740877511363600,11.383363525390624,-1.203168313423544,-0.25841771195232865,0.3373636036995798
1789740877521441500,11.393441650390624,-1.2702591513998807,-0.8583376617789268,0.12583112317137418
1789740877531518500,11.4035185546875,-0.8351227904081344,-0.38560441445112226,-0.06740969466716051
1789740877541596400,11.413596435546875,-0.4493808671824634,0.20005612387657165,-0.08156075042076408
1789740877551674400,11.42367431640625,0.23471403415128586,1.0920604929357767,-0.06638327422887086
1789740877561752600,11.433752685546875,-0.051717912277579305,1.0316659377276898,0.18850407164022326
1789740877571829500,11.44382958984375,-0.35439795980453487,0.31376492064297196,0.15397862863875925
1789740877581907500,11.453907470703125,-0.7676426608532667,0.09008826720416545,0.06466726409122348
1789740877591985400,11.4639853515625,-1.015213984620571,-0.6114063894808291,0.041055940748751164
1789740877602063400,11.4740634765625,-1.1496055039316415,-1.0451327375441788,-0.08623685247302054
1789740877612140500,11.484140625,-0.949886649185419,-0.9121686206877231,0.05066591900661587
1789740877622218500,11.494218505859376,-0.6123932085610926,-0.4504091873168945,0.27718714822158214
1789740877632296400,11.50429638671875,-0.28360709826648234,0.04248948068320751,0.303507803587988
1789740877642374400,11.51437451171875,-0.05791852048337459,1.1774123792678117,0.33006665162444115
1789740877652452400,11.524452392578125,-0.15243059547916055,1.2699948013752698,0.5688473506927489
1789740877662529500,11.534529541015624,-0.015284809023886918,1.5109224493443965,0.49934265650771553
1789740877672607500,11.544607421875,-0.3713568395204842,0.9086819476157426,0.7279088355537503
1789740877682685400,11.554685546875,-1.2942442764908075,-0.4742296233654022,0.6865056888025254
1789740877692763600,11.564763671875,-1.2491397910036146,-1.1724094564139842,0.4625337787441909
1789740877702840600,11.574840576171875,-0.8170821068048477,-0.03023264117836952,0.30782647050470113
1789740877712918500,11.58491845703125,-1.062071451254934,-0.5432569823622703,0.25065197332166134
1789740877722996500,11.59499658203125,-0.7160254324711859,-0.07684007857441902,0.06185140295289456
1789740877733074400,11.605074462890625,-0.03442775478065014,1.5442746838480232,0.26560258195511993
1789740877743151400,11.6151513671875,-0.2584955994941294,0.6724561937272548,0.34128472266606985
1789740877753229300,11.625229248046875,-0.35842721532061694,0.6081348204642534,0.16960421392433345
1789740877763307500,11.6353076171875,0.05767872037813067,0.4412076437294483,0.45716487212218343
1789740877773385500,11.645385498046876,-0.6251959915108979,-0.2604512636065483,0.21064130384214222
1789740877783463400,11.65546337890625,-0.6735616707511246,-0.8111012788295745,0.034006606759130954
1789740877793540400,11.665540283203125,-0.5403719284452497,-0.6089104810118675,-0.18536489683166146
1789740877803618300,11.675618408203125,-0.9744910752184689,-0.1852998687714338,-0.45566367377899586
1789740877813696500,11.685696533203124,-0.6578788023203611,0.07261515435576439,-0.6849965263485908
1789740877823774500,11.6957744140625,0.006695844376832246,0.7145078675150871,-0.8776676545403898
1789740877833851600,11.7058515625,-0.555426728105545,0.24703297910690306,-0.8414129765935242
1789740877843929600,11.7159296875,-0.0025340485222637653,0.25998189252912995,-0.8022329857844859
1789740877854007600,11.726007568359375,-0.15679448977708815,0.015675123515725135,-0.5584180919412524
1789740877864085500,11.73608544921875,-0.6928546925030649,-1.132140574389696,-0.7195300795912742
1789740877874162400,11.746162353515626,-0.2294884084574878,-0.47530748172998427,-0.9355060955248773
1789740877884240400,11.756240478515625,-0.2622118435382843,0.1492068111270666,-0.858171365301311
1789740877894318300,11.766318359375,0.23107436247467994,0.6408259607106447,-1.0429472832638769
1789740877904396500,11.776396484375,0.6017547640383243,1.7438544223845005,-0.7942139299798756
1789740877914473500,11.786473388671874,0.6225070446878671,1.8256214359670877,-0.9195372497595846
1789740877924551400,11.796551513671876,0.4415009275875985,1.0535913538098334,-1.0206424394100904
1789740877934629400,11.80662939453125,-0.5281590742126107,-0.7962725430101156,-0.8099369112253189
1789740877944707300,11.816707275390625,-0.970028688982129,-1.4391945992171764,-0.8319589195497333
1789740877954785300,11.826785400390625,-1.8474084664918482,-2.4459061284303663,-0.31739001580495385
1789740877964862500,11.836862548828124,-1.529238588888198,-2.0284131222873927,-0.23009634775537996
1789740877974940400,11.8469404296875,-0.2922983542442322,0.6355301923900842,-0.1127500347368419
1789740877985018400,11.857018310546875,0.2959342265285551,1.2988053007960318,-0.06711063865534961
1789740877995096300,11.867096435546875,1.0584260804899037,1.7720704630434512,-0.2571328232409432
1789740878005173500,11.877173583984375,0.6188906077563763,1.4141197791934013,-0.012961919034272431
1789740878015251500,11.88725146484375,0.20645123174116015,0.18423136275708674,-0.050207507714629174
1789740878025329400,11.897329345703126,-0.12845818373933435,-0.550115177693963,-0.06410195835866034
1789740878035407600,11.90740771484375,-1.2462642355673015,-1.7037760944962501,0.021130137518607078
1789740878045484500,11.917484619140625,-0.48179625922739505,-1.034222051951289,-0.16350940418057142
1789740878055562500,11.9275625,-0.11185177072286605,-0.47551323343515395,-0.0061302829159423705
1789740878065640400,11.937640380859374,0.05499021194651722,-0.5631178671300411,-0.3176075310131535
1789740878075718400,11.947718505859376,1.150389932307601,1.1301473547458647,-0.48252347752340136
1789740878085795300,11.95779541015625,1.2162532743155956,1.3603443498641252,-0.2277802528327331
1789740878095873300,11.967873291015625,0.8316308566391467,0.8953045796483755,-0.2582054574411362
1789740878105951500,11.977951416015625,0.13693711214065551,0.14709844067096708,-0.1365833302669227
1789740878116029400,11.988029541015624,-0.2982207300305366,-0.6765057613790035,-0.3170568748604506
1789740878126107400,11.998107421875,-0.9877496391117572,-1.3550345530182122,-0.46139615301638837
1789740878136184600,12.0081845703125,-1.0671278578616679,-1.5317857891529798,-0.3348495019868016
1789740878146262500,12.018262451171875,-0.22235563396811484,-0.08603694598674774,-0.34199878921955823
1789740878156340500,12.028340576171875,0.7086221704773604,1.1037567759484053,-0.17834604931185022
1789740878166418400,12.03841845703125,1.1020591782502829,1.4397925651103258,-0.281265193049144
1789740878176495600,12.04849560546875,1.2183616447716952,2.012757287994027,-0.31344014566801487
1789740878186573600,12.058573486328125,0.05274374819397926,0.7581950335502624,-0.2566659363815561
1789740878196651500,12.068651611328125,-0.8985884236246346,-0.9499415942430496,-0.24741708305366336
1789740878206729500,12.0787294921875,-1.6396499515444038,-1.8194705121219157,-0.11203079881789162
1789740878216806400,12.088806396484374,-1.4062942001342773,-1.7407073565304279,-0.29177409290811046
1789740878226884400,12.09888427734375,0.32716450044214723,0.26911504705548284,-0.5362109363082797
1789740878236962600,12.108962646484375,0.7249240475893021,0.5863432598948478,-0.2149002764608711
1789740878247040500,12.11904052734375,0.5128679815784096,-0.024682021313905716,-0.48301352606266734
1789740878257118500,12.129118408203125,1.3173900281481443,1.3607804031938313,-0.48556956722103056
1789740878267195400,12.1391953125,0.08528218209668993,0.5892372277706861,-0.10235668754894285
1789740878277273300,12.1492734375,-1.1600976718515157,-1.3390414495944976,-0.22162271658368407
1789740878287351300,12.159351318359375,-0.498376222628355,-0.13140636602044103,-0.4192793415704742
1789740878297429500,12.169429443359375,-0.5603150846689939,0.8086299202799797,-0.30418588551264253
1789740878307506700,12.179506591796875,-0.19544132355749605,0.38808337178528307,-0.521488035483472
1789740878317584600,12.189584716796874,0.7738711799792944,1.4432634560912847,-0.5207125210663304
1789740878327662600,12.19966259765625,0.47880569910928605,1.3498551045536995,-0.30018128951378165
1789740878337740500,12.209740478515625,-0.5463176851071417,-0.8984148206233977,-0.5228909976165741
1789740878347817500,12.2198173828125,-1.3234370532274244,-1.4749322675526142,-0.6732369688414037
1789740878357895400,12.2298955078125,-1.8951580596603452,-1.2785568780153989,-0.43384668650738895
1789740878367973600,12.2399736328125,-2.0884845830209553,-1.492612885671854,-0.6505907642040402
1789740878378051600,12.250051513671876,-1.062670001669973,-0.3979103537946939,-0.8708503757409751
1789740878388129800,12.2601298828125,-0.3469203174002468,0.5212596700876951,-0.8650455619197338
1789740878398206700,12.270206787109375,0.010756225683540106,0.903144187232852,-1.1040972599491476
1789740878408284700,12.28028466796875,0.6129368139185011,1.207283785918355,-1.150969047369808
1789740878418362600,12.290362548828124,0.2034089414358139,1.0800865620255469,-0.9564027530811726
1789740878428440600,12.300440673828126,-0.6253269244141876,-0.09342296458482742,-0.8899676755998283
1789740878438517500,12.310517578125,-0.9205648392416537,-0.8945330107539892,-1.0749563595302403
1789740878448595500,12.320595458984375,-1.7148242888636887,-1.319357674959302,-1.0515687619410454
1789740878458673700,12.330673583984375,-1.3863896223552523,-0.9793915606111288,-1.2322475467830896
1789740878468751600,12.340751708984374,-0.524386423806101,0.15287760859429836,-1.1380826777897775
1789740878478829600,12.35082958984375,-0.05479790424481034,0.4920926123142242,-0.9459474100403487
1789740878488906500,12.360906494140625,0.5906318969994783,1.3053402555227278,-0.8234860555630177
1789740878498984400,12.370984375,0.5362139319829643,1.422893452757597,-0.38421990129016337
1789740878509062700,12.381062744140625,-0.08889525802731514,0.35940146718025207,-0.18915091817639768
1789740878519140600,12.391140625,-0.5260289303161203,-0.17283318590819835,-0.2251271445080638
1789740878529217800,12.4012177734375,-1.2635465020187198,-0.4735071543097496,-0.06025818807785399
1789740878539295700,12.411295654296875,-1.4629250188946723,-1.1534428901374338,-0.12968615463171154
1789740878549373700,12.421373779296875,-0.9243781139194965,0.0640530777156353,-0.3184629422660917
1789740878559451600,12.43145166015625,-0.05946238892450929,1.1901695695102215,-0.14349232420409097
1789740878569528600,12.441528564453124,0.3719536363698542,1.2666238636374474,-0.22819210330294443
1789740878579606500,12.4516064453125,0.4029645684443414,1.3892980571478604,-0.11372243256610817
1789740878589684700,12.461684814453125,-0.18244506386220455,0.8912894987881184,0.13831420004698447
1789740878599762700,12.4717626953125,-0.9993192270047963,-0.8361825285941362,0.22410021261312066
1789740878609840600,12.481840576171875,-1.6061733600087462,-1.758807076844573,0.0969137658426538
1789740878619917600,12.49191748046875,-1.2773079008676111,-1.17553197234869,0.20395232759751378
1789740878629995500,12.50199560546875,-0.7223328620523214,-0.20923604015409944,0.1751233426719904
1789740878640073500,12.512073486328125,0.481474626057595,1.1254980676352977,0.42551140436045826
1789740878650151700,12.522151611328125,1.162091914408654,2.0656366452664137,0.8113632907666265
1789740878660228600,12.532228515625,0.8110847660861908,1.3203881870508194,1.0003917516071348
1789740878670306600,12.542306640625,-0.006042348904162645,0.3724561790645122,0.9303494434140622
1789740878680384500,12.552384521484376,-0.870832693953812,-0.7707990790575743,1.0352954533364622
1789740878690462500,12.56246240234375,-1.5271062530346213,-1.4528291568160057,0.9647252488117665
1789740878700540400,12.57254052734375,-1.4756190807729959,-1.434403857809305,0.9843203222502023
