time,seconds_elapsed,z,y,x
1790958008812465700,0.066465576171875,8.503516899132729,4.462501679413021,-1.9866209762185811
1790958008822545000,0.076544921875,8.493435065579414,4.482445274028182,-1.9848514823280274
1790958008832623600,0.08662353515625,8.481718908822536,4.50352371789217,-1.9872341396808624
1790958008842702600,0.09670263671875,8.4661577670753,4.529698608112335,-1.9940866359241305
1790958008852781800,0.10678173828125,8.446055474767089,4.565443290710449,-1.9978141320146618
1790958008862860800,0.11686083984375,8.423159167826174,4.611887646499276,-1.987780229256302
1790958008872939800,0.126939697265625,8.39797445768714,4.667162666736543,-1.9651981028310954
1790958008883018800,0.137018798828125,8.370306698560714,4.72955219515413,-1.933826666881144
1790958008893097700,0.14709765625,8.339435174956916,4.797588497287035,-1.8993031966410576
1790958008903176000,0.157176025390625,8.304707560446857,4.870636197841167,-1.8652404757805168
1790958008913254700,0.167254638671875,8.26623023801446,4.948592713224888,-1.8306439403042196
1790958008923333600,0.177333740234375,8.223479476046561,5.033073661941289,-1.7924670621231198
1790958008933412900,0.187412841796875,8.177596261271834,5.120158071154355,-1.7553578131735323
1790958008943491600,0.19749169921875,8.130541080108285,5.203586295947432,-1.7284046320572495
1790958008953570800,0.20757080078125,8.0825810590595,5.283159598878026,-1.7118683616675436
1790958008963649800,0.21764990234375,8.032896113914251,5.362719457805157,-1.6982938636928795
1790958008973728800,0.227728759765625,7.981226132431626,5.443576955327392,-1.6846043610364199
1790958008983807700,0.237807861328125,7.925665573251247,5.53024576947689,-1.6645068910337983
1790958008993886700,0.24788671875,7.864296620053053,5.627881967842579,-1.627934817700833
1790958009003965700,0.257965576171875,7.7941504861593245,5.7401884965956205,-1.572209569478035
1790958009014044700,0.268044677734375,7.712233250451088,5.866336503696441,-1.5092830115742981
1790958009024123600,0.27812353515625,7.6176500099152324,6.003039222559332,-1.4509690620325504
1790958009034203000,0.288202880859375,7.51049019640088,6.1476400011956684,-1.403367645163089
1790958009044280800,0.29828076171875,7.392064307984709,6.298410992899536,-1.3630086006373165
1790958009054359600,0.308359619140625,7.264096099719405,6.453791524225473,-1.323582745308429
1790958009064438800,0.318438720703125,7.126476850533485,6.614779958561062,-1.2760894649885595
1790958009074517800,0.328517822265625,6.981138989794254,6.77989336387217,-1.2112504245270044
1790958009084596700,0.3385966796875,6.832870336300134,6.942496832188963,-1.1331357959721238
1790958009094675700,0.34867578125,6.683688659614324,7.099702240854501,-1.045423829445243
1790958009104754700,0.358754638671875,6.537167142048478,7.248558338847756,-0.9456367366559802
1790958009114834000,0.368833984375,6.396538774174451,7.386008661207557,-0.8375880845431238
1790958009124912600,0.37891259765625,6.266110313275456,7.508194778940081,-0.7302446580901741
1790958009134991600,0.38899169921875,6.152043789112567,7.61067900185883,-0.6326993528783321
1790958009145070800,0.39907080078125,6.057951546964049,7.6921338807523245,-0.550179621232301
1790958009155149800,0.40914990234375,5.983650046956539,7.754622777891159,-0.48181478126477445
1790958009165228800,0.419228759765625,5.926086331260204,7.801920535638928,-0.42653771520089356
1790958009175306800,0.429306640625,5.882938678929209,7.83667971433103,-0.38453386261016126
1790958009185385700,0.4393857421875,5.85175502063632,7.861445322275161,-0.35358288056198506
1790958009195464700,0.449464599609375,5.830273841190338,7.878538495895266,-0.32699586587697266
1790958009205543700,0.459543701171875,5.8146507401227945,7.891198655503988,-0.2986800181053579
1790958009215622700,0.46962255859375,5.802718894788622,7.901139619281888,-0.26614112754492086
1790958009225702000,0.479701904296875,5.794525066938996,7.908219348409771,-0.23224154309052972
1790958009235780600,0.489780517578125,5.788038043007254,7.913782827755808,-0.20261618362292647
1790958009245859600,0.499859619140625,5.781348774501681,7.919251030033826,-0.17848653549477456
1790958009255938800,0.509938720703125,5.772384546801447,7.926307378286123,-0.1536606669970788
1790958009266017800,0.520017822265625,5.759075567895174,7.936549370837211,-0.12086505259606055
1790958009276096800,0.5300966796875,5.740882324078679,7.950259916281699,-0.0775832250919193
1790958009286175700,0.54017578125,5.718671661314368,7.966586781704425,-0.02597915301893372
1790958009296254700,0.550254638671875,5.6914481388241045,7.986034409496187,0.03255822773185791
1790958009306333700,0.560333740234375,5.655846664088964,8.010748579514026,0.09847325197802856
1790958009316411600,0.57041162109375,5.609007171502709,8.042423236194253,0.16989382625436408
1790958009326490600,0.58049072265625,5.551589586278796,8.080412482848763,0.23909705327479167
1790958009336569900,0.59056982421875,5.488084790095686,8.121723567402363,0.2981904079575091
1790958009346648600,0.600648681640625,5.421928018099069,8.16415401137471,0.34594811136722564
1790958009356726800,0.610726806640625,5.353449525156617,8.207409800255299,0.3865046146938577
1790958009366806000,0.620805908203125,5.282383353808522,8.251592640852929,0.4219380028530955
1790958009376885000,0.630885009765625,5.209440282672643,8.29620042886436,0.452963584507443
1790958009386964000,0.6409638671875,5.134783393356204,8.341001693621278,0.48174317733328786
1790958009397043000,0.65104296875,5.059488790658116,8.385304361206293,0.5085435425080359
1790958009407122000,0.661121826171875,4.983033912009001,8.429469081625342,0.532738072565943
1790958009417201200,0.671201171875,4.90507681210339,8.473868779844045,0.5515067051175981
1790958009427280000,0.68127978515625,4.829203532734513,8.516955641898512,0.5573589017445221
1790958009437358800,0.69135888671875,4.7602770037636155,8.556262400892376,0.5481862189253792
1790958009447437000,0.70143701171875,4.70153956811279,8.5899548271358,0.5277998489787802
1790958009457516000,0.71151611328125,4.654105616764724,8.617395207247137,0.5001781940164044
1790958009467594800,0.7215947265625,4.618707263386249,8.638291864803433,0.4667318514885381
1790958009477674000,0.731674072265625,4.594811716274917,8.652894975173473,0.43069560206532476
1790958009487753000,0.7417529296875,4.578473160414397,8.663171454516053,0.3967655311411246
1790958009497832000,0.75183203125,4.564848539687693,8.671574541202187,0.36924108947552736
1790958009507911000,0.761910888671875,4.548206909227371,8.680981251972913,0.35322146337106824
1790958009517990000,0.771989990234375,4.524080768230557,8.693731427952647,0.34943865689672526
1790958009528069000,0.782069091796875,4.492168211141228,8.710068230247497,0.35430586107429113
1790958009538147800,0.79214794921875,4.4537756443828345,8.729412397664785,0.36281788802761583
1790958009548226800,0.802226806640625,4.4125770802929996,8.750102718994022,0.3677733915431425
1790958009558306000,0.81230615234375,4.369254655916989,8.771862130859494,0.36664661600291726
1790958009568384800,0.822384765625,4.32090212841928,8.795994117075205,0.3614902561530471
1790958009578464000,0.832464111328125,4.264370678380131,8.823732018828391,0.3567514641281217
1790958009588542000,0.8425419921875,4.1993931792959565,8.85482624527216,0.35712986898645754
1790958009598621000,0.852620849609375,4.12631566812545,8.88872851487398,0.36662550014965234
1790958009608700200,0.8627001953125,4.046125402340293,8.92455503053665,0.38931145227551456
1790958009618779000,0.87277880859375,3.961465297664702,8.960854424408078,0.4245817222949117
1790958009628857900,0.88285791015625,3.8770670587956904,8.995494360634684,0.4688447154566645
1790958009638937000,0.89293701171875,3.7972131853580473,9.02694514543116,0.515593168758601
1790958009649015800,0.903015869140625,3.7240152626782654,9.054905750024318,0.5574691206533462
1790958009659095000,0.913094970703125,3.6575083620697257,9.079821580094098,0.5914789788154885
1790958009669174000,0.923174072265625,3.5966873981431124,9.102332102587818,0.6178870567370206
1790958009679252700,0.933252685546875,3.5409234253451225,9.122817256733775,0.6375298417747021
1790958009689332000,0.94333203125,3.49146819730252,9.140833974939584,0.6520668281059712
1790958009699411000,0.953410888671875,3.4473750808149575,9.156569304209947,0.6657566230233758
1790958009709490000,0.963489990234375,3.40893282969594,9.169888804510235,0.6802220054231584
1790958009719568100,0.973568115234375,3.377192122042179,9.180698367816209,0.6926354967944324
1790958009729646800,0.983646728515625,3.3503070377260444,9.1898180783391,0.702177889708802
1790958009739725800,0.993725830078125,3.323789033156633,9.198757756119965,0.711104488812387
1790958009749805000,1.00380517578125,3.2954818070828913,9.20815043836534,0.7212158407211303
1790958009759883800,1.0138837890625,3.262741859258711,9.21877996892929,0.7341604432944208
1790958009769963000,1.023962890625,3.2248446748018265,9.230779618802666,0.7506469562582672
1790958009780042000,1.0340419921875,3.182609168879688,9.243946558889746,0.7686603865284473
1790958009790121000,1.044120849609375,3.1381606630831955,9.257364843389391,0.7896428957372903
1790958009800200000,1.054199951171875,3.095316085352003,9.269592456799746,0.8149087813537568
1790958009810279000,1.06427880859375,3.0546535278350113,9.280398512974381,0.844799623357132
1790958009820358100,1.074358154296875,3.0163758196279407,9.289619345784187,0.8802408660292624
1790958009830436900,1.084436767578125,2.9763009988710283,9.298466084584593,0.9222572493080049
1790958009840515800,1.094515869140625,2.929932046405971,9.308304172509908,0.970225892054662
1790958009850594000,1.104593994140625,2.876117161849141,9.319686567267775,1.0206650165680795
1790958009860673000,1.114673095703125,2.817145332920551,9.332145651346444,1.0701054123677314
1790958009870751700,1.124751708984375,2.7566958326548336,9.34474034450352,1.116615161542967
1790958009880831000,1.1348310546875,2.6993068890035152,9.356180022406578,1.160179943307489
1790958009890910000,1.144909912109375,2.6456273212641475,9.36637700677216,1.200838263040781
1790958009900989000,1.154989013671875,2.5899533648371693,9.376506771120429,1.2424356171898543
1790958009911068000,1.16506787109375,2.5242583651334045,9.388243386143445,1.2881728476226328
1790958009921147000,1.17514697265625,2.447749418209493,9.40169908004403,1.3367675133131445
1790958009931226000,1.18522607421875,2.365340891852975,9.416085917314886,1.3830711454570292
1790958009941304800,1.195304931640625,2.2840892804466186,9.430230178001523,1.4227017295777797
1790958009951383800,1.2053837890625,2.207584425175935,9.443324637374282,1.4562185069933533
1790958009961463000,1.215463134765625,2.1341111926861105,9.45556043409109,1.4860389141090213
1790958009971541800,1.225541748046875,2.0591338392436502,9.46807446322739,1.5119216895148158
1790958009981621000,1.23562109375,1.982988172674179,9.480819378510118,1.5336904537305236
1790958009991699000,1.245698974609375,1.9065650043375788,9.493310611292719,1.5532123158022761
1790958010001778000,1.25577783203125,1.831862960705161,9.505127890336514,1.5707374510988592
1790958010011857200,1.265857177734375,1.7611482331432402,9.516321484524012,1.5837876329384744
1790958010021935900,1.275935791015625,1.6944561852261424,9.527603926038742,1.58870536172688
1790958010032014800,1.286014892578125,1.6300788439922034,9.539131866747141,1.5868877909108996
1790958010042094000,1.296093994140625,1.566527870579809,9.550020340508222,1.5853995981797575
1790958010052172800,1.3061728515625,1.5015101856157183,9.559899929487704,1.588761183567345
1790958010062252000,1.316251953125,1.4372206687957048,9.568848959618807,1.5943297774799168
1790958010072331000,1.3263310546875,1.3790334143735468,9.577257891523837,1.5952371015831828
1790958010082410000,1.336409912109375,1.32823407824561,9.585528291741014,1.5886562618881463
1790958010092489000,1.346489013671875,1.282407269833237,9.593305355483293,1.5793378139227627
1790958010102568000,1.35656787109375,1.2387800172917545,9.600010990601778,1.5734024325244127
1790958010112646000,1.36664599609375,1.1965746873121708,9.605559272378683,1.5722078159123658
1790958010122725000,1.37672509765625,1.1600155465260147,9.610119127640127,1.5717359606169163
1790958010132803800,1.386803955078125,1.1306338961537927,9.61438613743484,1.5670441495388745
1790958010142882800,1.3968828125,1.1017515736058354,9.619209027546644,1.5579919512942433
1790958010152962000,1.406962158203125,1.0673834400579332,9.624952539634704,1.5464014667436479
1790958010163040800,1.417040771484375,1.0333367935493587,9.630286301878094,1.5362851463988423
1790958010173120000,1.4271201171875,1.0042220504850148,9.634149407047033,1.5313608417391775
1790958010183199000,1.437198974609375,0.9829572902686894,9.636467620861529,1.5305768517546354
1790958010193278000,1.44727783203125,0.9694769733835011,9.63823813766539,1.5280264366194605
1790958010203357000,1.45735693359375,0.9601026305124163,9.640319035592675,1.5207970698878168
1790958010213436000,1.467435791015625,0.9518948472026735,9.642738956215977,1.51058050403893
1790958010223515100,1.47751513671875,0.9435886450197547,9.645561027899383,1.497720291813463
1790958010233593900,1.48759375,0.9328525853414088,9.64905471523404,1.481853591248393
1790958010243671800,1.497671875,0.9202008282348513,9.653134678024053,1.4630778713688253
1790958010253751000,1.5077509765625,0.9082140378430485,9.657339143976568,1.442676888374984
1790958010263830000,1.517830078125,0.8963133182995021,9.66143722694516,1.4225477080598472
1790958010273908700,1.52790869140625,0.8847243681188672,9.665214991918205,1.4040183641567825
1790958010283988000,1.537988037109375,0.8735103887304663,9.66875076482892,1.3865873368844388
1790958010294067000,1.54806689453125,0.8625411048181354,9.672076109859347,1.3701638792194426
1790958010304146200,1.558146240234375,0.8497446785438806,9.675545831796526,1.3535606810733676
1790958010314225000,1.568224853515625,0.8320693941868841,9.679525256821513,1.3359785548925398
1790958010324304000,1.578303955078125,0.808343066162616,9.683816232013703,1.3193405776940286
1790958010334383000,1.588383056640625,0.7789997750394045,9.688194885489343,1.3047554413720965
1790958010344461800,1.5984619140625,0.7465477042458951,9.692571200877428,1.291165161306411
1790958010354540800,1.608540771484375,0.7114723722767085,9.697064420643448,1.2771562174372375
1790958010364620800,1.618620849609375,0.6744728673119098,9.701803139603138,1.2611485009662806
1790958010374698800,1.62869873046875,0.6375384634725749,9.706848148033023,1.2413764635257423
1790958010384778000,1.638778076171875,0.6005621201876551,9.712285370650887,1.2170637869808822
1790958010394857000,1.64885693359375,0.5645343463318422,9.718163322773576,1.1870022645857183
1790958010404936000,1.65893603515625,0.5303873812539502,9.724133044832945,1.1534067228455096
1790958010415015000,1.669014892578125,0.4937074636323377,9.729881817618011,1.1207384520180523
1790958010425094000,1.679093994140625,0.4542584466235712,9.73499404606521,1.0926592625465243
1790958010435173000,1.689173095703125,0.41800526651404796,9.739066994592546,1.0706337470907716
1790958010445251800,1.699251953125,0.3875361862313002,9.742350838568806,1.0520431745197623
1790958010455330800,1.709330810546875,0.3636386663585901,9.74521558035016,1.033881714081019
1790958010465410000,1.71941015625,0.3451952837059274,9.747800920668244,1.0156661853674798
1790958010475489000,1.729489013671875,0.3368635086903348,9.749723997685313,0.9998993649803102
1790958010485568000,1.739568115234375,0.3396467827333137,9.75083049762249,0.9881069281168281
1790958010495646000,1.74964599609375,0.34684020136874166,9.751472887179254,0.979219711175561
1790958010505725000,1.759724853515625,0.36334015833605077,9.751358905410767,0.9743479404207318
1790958010515804200,1.76980419921875,0.3811560202075168,9.750239545992017,0.9787379190079867
1790958010525883000,1.7798828125,0.4061105383198708,9.747609197488426,0.9947660206798463
1790958010535961900,1.7899619140625,0.43804373633842913,9.743661336645484,1.0195875965949148
1790958010546041000,1.800041015625,0.468046039359644,9.738917941510676,1.0510930341880769
1790958010556119800,1.810119873046875,0.49123051559217273,9.734291450753808,1.0828918287046254
1790958010566198800,1.82019873046875,0.5119650048566982,9.730362294611334,1.1083027488149702
1790958010576278000,1.830278076171875,0.5263780725473538,9.727173727703095,1.1293453907132147
1790958010586357000,1.84035693359375,0.5352930908109993,9.72391794077754,1.1529431239217518
1790958010596436000,1.85043603515625,0.5413740912251174,9.720715929865836,1.176844808512926
1790958010606515000,1.860514892578125,0.5263273287408053,9.719028415170312,1.1974472323630005
1790958010616593000,1.870593017578125,0.491367512910068,9.720032039254903,1.2041412501089275
1790958010626672000,1.880672119140625,0.4481338262634352,9.723582425212859,1.1922719486169517
1790958010636750800,1.890750732421875,0.4064185082904994,9.72740461384952,1.1759313469298183
1790958010646829800,1.900829833984375,0.3706924573276192,9.731168350297212,1.156439733865857
1790958010656909000,1.910908935546875,0.341461869331263,9.734635149624943,1.136074479772523
1790958010666987800,1.92098779296875,0.3156063472585752,9.737534962719678,1.1185635191317647
1790958010677067000,1.93106689453125,0.2956678489436395,9.73952701331973,1.1066006941374391
1790958010687146000,1.94114599609375,0.2820361774216406,9.740673845267295,1.1000608440399169
1790958010697225000,1.951224853515625,0.2729479945481755,9.741275318291782,1.097019649713114
1790958010707304000,1.961303955078125,0.2670043202455155,9.741745273891091,1.0943012575998903
1790958010717383000,1.9713828125,0.26270651345374063,9.742257315066457,1.0907767367355525
1790958010727462100,1.981462158203125,0.2592345995594747,9.74294120567739,1.0854932433746753
1790958010737540900,1.991540771484375,0.25710706774517894,9.743843122953177,1.0778642828661948
1790958010747618800,2.001618896484375,0.2563949191541411,9.744750885447859,1.069807598464936
1790958010757697800,2.01169775390625,0.2577720892588608,9.745641696807741,1.0613326155863703
1790958010767777000,2.021777099609375,0.2608677719855681,9.746529585558175,1.0523745984312147
1790958010777856000,2.03185595703125,0.26380095762694256,9.747443193271756,1.0431349147904663
1790958010787935000,2.04193505859375,0.26542917988328263,9.7482171002537,1.0354775319050997
1790958010798014000,2.052013916015625,0.2645889844657853,9.748792854315042,1.0302434306439012
1790958010808093000,2.062093017578125,0.2601194013036787,9.749277422961592,1.0267910982329398
1790958010818172000,2.072171875,0.252987046939414,9.749695940634608,1.024594903362915
1790958010828251000,2.0822509765625,0.24692904380839317,9.750167649799584,1.0215885611537843
1790958010838330000,2.092330078125,0.24434216912034898,9.750771460911631,1.0164340279348194
1790958010848408800,2.102408935546875,0.24497608310971408,9.751546536937356,1.0088286674976348
1790958010858487800,2.11248779296875,0.24882492229128256,9.75257997163832,0.9978172980092466
1790958010868566000,2.12256591796875,0.25583266389518977,9.753855398401617,0.9834900819711386
1790958010878645000,2.13264501953125,0.2627342782435007,9.75506185158193,0.9696101713091134
1790958010888724000,2.142723876953125,0.26550942377895115,9.755838096651434,0.9610083471804857
1790958010898803000,2.152802978515625,0.2640524116373621,9.756130357596277,0.9584293635379523
1790958010908882000,2.1628818359375,0.24093685418888924,9.756291685637832,0.9628708531167358
1790958010918961200,2.172961181640625,0.1954139606265351,9.756258952412008,0.9734534027338028
1790958010929040000,2.183039794921875,0.1697469833958894,9.755785489681363,0.9829635008137673
1790958010939118800,2.193118896484375,0.17138368121962994,9.75564286634028,0.9841007612153887
1790958010949198000,2.203197998046875,0.183210805804003,9.755284554421902,0.9855004719454794
1790958010959276800,2.21327685546875,0.19279888275731355,9.754816352388263,0.988318963432312
1790958010969355800,2.223355712890625,0.20203577165277672,9.754406018021703,0.9905242914568633
1790958010979435000,2.23343505859375,0.21736683097118512,9.753764797508715,0.9935860171150416
1790958010989513000,2.243512939453125,0.23605642520356923,9.752821379178762,0.9985732309430837
1790958010999592000,2.253592041015625,0.252785003294982,9.751775669518112,1.0046700865134597
1790958011009671000,2.2636708984375,0.26404937943005935,9.750714177766442,1.012053913154453
1790958011019750000,2.27375,0.2712019728647545,9.749687172806262,1.0200147359658032
1790958011029829000,2.2838291015625,0.27608525139428675,9.748905082517862,1.0261536040470003
1790958011039907800,2.293907958984375,0.2791076496890746,9.748631526273488,1.0279473555959762
1790958011049986800,2.30398681640625,0.2826048076224513,9.748732064038515,1.026032534950599
1790958011060066000,2.314066162109375,0.28511322851311416,9.74904127611816,1.0223905251864343
1790958011070144800,2.324144775390625,0.2791499361945316,9.749396080905198,1.0206536183912307
1790958011080224000,2.33422412109375,0.26505398989534,9.749588973128795,1.0225739189293235
1790958011090303000,2.344302978515625,0.25307576640248297,9.749498372235893,1.0264615009523927
1790958011100382000,2.3543818359375,0.2464590699427761,9.748933139568567,1.0334220606800169
1790958011110460200,2.364460205078125,0.24589986515743656,9.74790028938949,1.0432472891237585
1790958011120539000,2.374538818359375,0.25157075040070337,9.746831198853254,1.0518359615098685
1790958011130617900,2.384617919921875,0.2606840129164979,9.746556473565102,1.0521730845097452
1790958011140697000,2.394697021484375,0.2695996339683421,9.747664142546057,1.039588985811919
1790958011150775800,2.40477587890625,0.2747311881705187,9.749585465997457,1.020044838843122
1790958011160855000,2.41485498046875,0.2713816402805969,9.751621940261124,1.0013007562108338
1790958011170934000,2.42493408203125,0.26605686506126075,9.753799868822098,0.9813236246522515
1790958011181013000,2.435012939453125,0.2649394236049615,9.756472887423634,0.9546766599409282
1790958011191092000,2.445092041015625,0.26511636934075505,9.759733935046196,0.9206997907329351
1790958011201171000,2.4551708984375,0.26267622791333123,9.763125331050157,0.8847507446691394
1790958011211250000,2.46525,0.252675825565774,9.766336109790206,0.8515964438904077
1790958011221329000,2.475328857421875,0.233853891924303,9.769072256755829,0.8251767851289361
1790958011231406800,2.48540673828125,0.2118516294799745,9.771168936774133,0.8060778246443718
1790958011241485800,2.49548583984375,0.19060193896861746,9.772644270023703,0.7933959646604954
1790958011251565000,2.50556494140625,0.17288656006325034,9.773598794269562,0.7856548490144312
1790958011261643800,2.515643798828125,0.15976424456918611,9.774110835444926,0.7820547056306153
1790958011271723000,2.525722900390625,0.15268807737156748,9.774270409920812,0.7814712797194718
1790958011281802000,2.535802001953125,0.15207820184491574,9.774280931314825,0.7814720834370702
1790958011291881000,2.545880859375,0.15456388118080794,9.774219556516409,0.7817548459012061
1790958011301960000,2.5559599609375,0.15724044344630092,9.774146491280197,0.7821457449149339
1790958011312039000,2.566038818359375,0.15951017847657203,9.774132462754846,0.7818434009674936
1790958011322118100,2.5761181640625,0.16429595144838094,9.773991592979431,0.7826041562069207
1790958011332196900,2.58619677734375,0.17436488898750394,9.773598794269562,0.7853441756300628
1790958011342274800,2.59627490234375,0.19204273062776772,9.773080907875299,0.7876379856556653
1790958011352354000,2.60635400390625,0.21552794337254016,9.772299402108787,0.7912628981545567
1790958011362432800,2.616432861328125,0.23839918893743306,9.771111069107056,0.7993223590347915
1790958011372511700,2.62651171875,0.26132156190136446,9.769392574751377,0.8130665144879371
1790958011382590700,2.6365908203125,0.28441684374678877,9.766973823171853,0.8341020690582692
1790958011392670000,2.646669921875,0.30676749950367954,9.763704592242837,0.8639290520451962
1790958011402749000,2.6567490234375,0.32601229819972066,9.75953928925693,0.9030524903614073
1790958011412827600,2.66682763671875,0.34087179448362437,9.754530521184206,0.9504301814775913
1790958011422907000,2.676906982421875,0.3547403800340369,9.748774734136461,1.002966132139787
1790958011432985900,2.68698583984375,0.37069063069671393,9.74210241676569,1.0603886857997626
1790958011443064800,2.69706494140625,0.39095465290527787,9.734158764284848,1.1241343780666588
1790958011453143800,2.707143798828125,0.40136239394471046,9.72772376280129,1.1750221231304108
1790958011463221800,2.7172216796875,0.3744828260539099,9.727922500243782,1.1822376074671745
1790958011473300700,2.72730078125,0.3327000688679516,9.731296945112943,1.1668492650035769
1790958011483380000,2.7373798828125,0.3028322058813646,9.732845343598722,1.1620722598601132
1790958011493458700,2.747458740234375,0.3010257227149792,9.73271967139244,1.1635830297492444
1790958011503538000,2.757537841796875,0.3082172964531928,9.73240402957201,1.1643368437912314
1790958011513617000,2.767616943359375,0.30801961845662446,9.732387078437208,1.1645417187135665
1790958011523695600,2.777695556640625,0.3044983307289891,9.732446699669957,1.1649733881291002
1790958011533774800,2.78777490234375,0.3038636860872619,9.732504567337035,1.1646418180871754
1790958011543853800,2.797853759765625,0.30524520357353613,9.732547237434982,1.1639406840804964
1790958011553932800,2.807932861328125,0.30651900463532655,9.732574709963798,1.1633679256938396
1790958011564011800,2.81801171875,0.3080868750065565,9.732595752751827,1.1627851573698222
1790958011574090800,2.8280908203125,0.3104941918766126,9.732599844405055,1.1621055045425892
1790958011584169000,2.8381689453125,0.3127954910889268,9.732575879007577,1.161682310694456
1790958011594248000,2.848248046875,0.31394363821074367,9.732598675361276,1.1611788912169634
1790958011604326700,2.85832666015625,0.3139815590683371,9.732734284439683,1.1600408270977436
1790958011614406000,2.868406005859375,0.31367296804320066,9.732829561507701,1.1593184311073272
1790958011624484900,2.87848486328125,0.31354393483605236,9.73296166345477,1.1582513863977044
1790958011634563800,2.888563720703125,0.3126889254419133,9.733145787850022,1.1569336548626423
1790958011644642800,2.898642822265625,0.31076785771884025,9.733274382665753,1.156372806109488
1790958011654721800,2.9087216796875,0.3092319168558344,9.733333419376612,1.1562847624998538
1790958011664800800,2.91880078125,0.30815336437150836,9.733315299198031,1.1567231539171188
1790958011674879700,2.928879638671875,0.3067516808800399,9.733325820592045,1.157007012359798
1790958011684958700,2.938958740234375,0.30639725968549025,9.7333170527637,1.157170605423674
1790958011695038000,2.949037841796875,0.3061151000095531,9.733299517107008,1.157397619112581
1790958011705116000,2.959115966796875,0.3058923058380373,9.733356215730309,1.1569801243528723
1790958011715194600,2.969194580078125,0.3052382075771689,9.733395963218808,1.1568089325044304
1790958011725273900,2.97927392578125,0.3036364714689553,9.733405315569042,1.1571523391146212
1790958011735352800,2.989352783203125,0.2977471577020362,9.733860658121108,1.1548619631551205
1790958011745431800,2.999431884765625,0.2899490329054184,9.734581373611093,1.150755623814836
1790958011755510800,3.0095107421875,0.2859377331711352,9.734610015183687,1.1515238317083567
1790958011765589800,3.01958984375,0.2806757757886313,9.735214995339513,1.1476881990682333
1790958011775668700,3.029668701171875,0.2720367249221541,9.736195238548516,1.1414403907198458
1790958011785747700,3.039747802734375,0.26325682254657146,9.736967391964793,1.136907642661035
1790958011795827000,3.049826904296875,0.2561959807822481,9.73762673265636,1.1328656737938523
1790958011805906000,3.059906005859375,0.24883279507048425,9.73827847456336,1.128885225855559
1790958011815984600,3.069984619140625,0.23809556634835896,9.738646723353861,1.1280232021987437
1790958011826062800,3.080062744140625,0.22739249562416225,9.738429865732789,1.1320973197698592
1790958011836141800,3.090141845703125,0.22306407449841498,9.737784553566575,1.1384912585906684
1790958011846220800,3.100220703125,0.22928881249846889,9.736948687264322,1.1443912764146924
1790958011856299800,3.1102998046875,0.2450399603924714,9.735818806451558,1.1507271283727138
1790958011866378800,3.120378662109375,0.2530759125329554,9.7352553273499,1.1537567053269595
1790958011876458000,3.1304580078125,0.24902517583742736,9.735243636912108,1.154738044514507
1790958011886537000,3.140536865234375,0.24223173457132652,9.73551719315648,1.1538809162285177
1790958011896615700,3.15061572265625,0.23909867897629736,9.735639942753314,1.1534851949092
1790958011906695000,3.16069482421875,0.2376478773797862,9.735632928490638,1.1538361272387205
1790958011916774000,3.17077392578125,0.23423202278800306,9.735694887810945,1.1540308460932225
1790958011926852600,3.1808525390625,0.2307055656949058,9.735733466255665,1.1543961722742766
1790958011936930800,3.190930908203125,0.22908123416239395,9.735749832868576,1.1545870186712592
1790958011947009800,3.201009765625,0.22911994047127662,9.735858553940057,1.15366683508642
1790958011957088800,3.2110888671875,0.23077689563175663,9.736054368773102,1.1516861826632172
1790958011967167700,3.221167724609375,0.2323068634117022,9.736381116509436,1.1486007838685064
1790958011977246700,3.231246826171875,0.23234843753110615,9.736827106711267,1.1448211191993205
1790958011987326000,3.241325927734375,0.2315788961970247,9.737301738485693,1.1409320028062908
1790958011997405000,3.251405029296875,0.23074374228082595,9.737726685899496,1.1374629384562374
1790958012007483600,3.261483642578125,0.22978938243174923,9.738064539551734,1.1347702653061598
1790958012017563000,3.27156298828125,0.22854962977003304,9.738291918566823,1.1330552780818193
1790958012027641900,3.281641845703125,0.22783848582599311,9.73850176192522,1.131388148587197
1790958012037720800,3.291720947265625,0.22829828535746782,9.738727387374638,1.12936862545833
1790958012047798800,3.301798828125,0.2293617681368254,9.738972302046417,1.1270336797047407
1790958012057877800,3.311877685546875,0.23060774960992855,9.73924819637835,1.12439120237194
1790958012067957000,3.32195703125,0.23209132096488028,9.739498371747136,1.121910126145929
1790958012078035700,3.33203564453125,0.23358495705612004,9.739739779287577,1.1195025535475462
1790958012088114700,3.34211474609375,0.23471734035322442,9.740024441447854,1.1167824078686535
1790958012098194000,3.35219384765625,0.23544293294772503,9.740352942749857,1.1137672247659414
1790958012108273000,3.36227294921875,0.2361001547474414,9.74064578821659,1.1110556277196855
1790958012118351600,3.3723515625,0.2371477458379231,9.74088719575703,1.1087085531368852
1790958012128430800,3.382430908203125,0.23860422825654967,9.741083010590076,1.1066877878990025
1790958012138509800,3.392509765625,0.24011348204202948,9.74124258506596,1.1049483238205313
1790958012148588800,3.4025888671875,0.24151786894723773,9.741389884582162,1.1033532366488128
1790958012158667800,3.412667724609375,0.2422843780740164,9.74148633069396,1.1023345611255615
1790958012168745700,3.422745849609375,0.24185669071385635,9.741590375590324,1.1015101660653948
1790958012178825000,3.432824951171875,0.24070805040169505,9.7417107870996,1.1006889128103852
1790958012188904000,3.442904052734375,0.23931181027032433,9.741855164006353,1.099723355713859
1790958012198982700,3.452982666015625,0.237528927175235,9.74197089934051,1.099070737024024
1790958012209062000,3.463061767578125,0.2355532979870215,9.742105923897027,1.0983039904352276
1790958012219140900,3.473140869140625,0.23369102951278908,9.742279526898264,1.0971658532507718
1790958012229219800,3.4832197265625,0.23254399663582442,9.742458975118398,1.0958014330297707
1790958012239298800,3.493298828125,0.23181186470268292,9.742597506806254,1.0947228440128267
1790958012249377800,3.503377685546875,0.23140222445586694,9.742745975366233,1.0935039697423576
1790958012259456800,3.513456787109375,0.2310457574347034,9.74286580235362,1.0925047295719386
1790958012269535700,3.52353564453125,0.22996298543298616,9.742993228125572,1.0915933868806809
1790958012279615000,3.533614990234375,0.22803919602986425,9.743097857543825,1.091059718395397
1790958012289693000,3.54369287109375,0.22588179880026726,9.743252171322704,1.0901403385281563
1790958012299772000,3.55377197265625,0.22395340628726407,9.743477796772122,1.0885095224559307
1790958012309851000,3.563850830078125,0.2224616333595477,9.74376012084484,1.0862850513394922
1790958012319929900,3.573929931640625,0.2214406380150467,9.74415525764227,1.0829632865056396
1790958012330008800,3.5840087890625,0.2210457934785634,9.74454513374269,1.0795198680534959
1790958012340087800,3.594087890625,0.22121121317334472,9.744912798011303,1.076169607777521
1790958012350166800,3.604166748046875,0.2214335324208252,9.745238961225747,1.073167576417327
1790958012360245200,3.614245361328125,0.22107558582862838,9.745544666174053,1.070449111238867
1790958012370324500,3.624324462890625,0.220359089856036,9.7458708293885,1.0676171026833354
1790958012380403200,3.6344033203125,0.2200136922181584,9.746207513996959,1.0646124409746378
1790958012390482400,3.644482421875,0.22106594121744855,9.746574009221792,1.0610517528183758
1790958012400560400,3.654560302734375,0.2230663760533556,9.746904848611354,1.0575689522039144
1790958012410639400,3.664639404296875,0.22480624199062585,9.747270174792408,1.0538316653717308
1790958012420718300,3.67471826171875,0.22596114764679223,9.74773370065093,1.0492824045695364
1790958012430797300,3.68479736328125,0.2277075529227033,9.748325821325182,1.0434003607936202
1790958012440876300,3.694876220703125,0.2310386153078638,9.749028416636586,1.0360770321682096
1790958012450955300,3.704955322265625,0.23601932632988318,9.749855515110491,1.027134577908367
1790958012461034200,3.7150341796875,0.2420379655648954,9.750646957749128,1.0181696195557712
1790958012471113200,3.72511328125,0.24770254893153903,9.751441907519101,1.0091537347335369
1790958012481192400,3.7351923828125,0.252497016666457,9.752231596592068,1.000301662170887
1790958012491271200,3.745271240234375,0.25802473057936876,9.752935360947252,0.9919910030085592
1790958012501350400,3.755350341796875,0.26408174732970074,9.753566644588112,0.9841551948163658
1790958012511428400,3.765428466796875,0.27030864075422284,9.754140645083785,0.9767636232603341
1790958012521507300,3.77550732421875,0.2744674044014886,9.754771344202757,0.9692727560482919
1790958012531586300,3.78558642578125,0.276250652822759,9.755366387486458,0.962763154958561
1790958012541665300,3.795665283203125,0.27648429718185213,9.755849202567338,0.9577898235253989
1790958012551744300,3.805744140625,0.2763339654583484,9.756270642849802,0.9535267592534422
1790958012561823500,3.815823486328125,0.2770394103139639,9.756624278593062,0.9496879848081617
1790958012571902200,3.825902099609375,0.28049665636206045,9.756907187187672,0.9457684002116322
1790958012581981400,3.8359814453125,0.2876613238270394,9.757193602913617,0.9406511302631347
1790958012592060400,3.846060302734375,0.2969089533122256,9.757588155189156,0.9336373790435493
1790958012602139100,3.85613916015625,0.3049658569091931,9.758179106819629,0.9248395208861678
1790958012612218400,3.86621826171875,0.31018476060125977,9.758984577983616,0.9145288470130413
1790958012622296300,3.87629638671875,0.31334000976178794,9.75982044428587,0.9044985244512558
1790958012632375300,3.886375244140625,0.3156810564626008,9.760451143404842,0.8968426759358495
1790958012642454300,3.896454345703125,0.31790925390608604,9.760859139683841,0.8915865089733153
1790958012652533200,3.906533203125,0.3204439600154757,9.761119836446642,0.8878166350457817
1790958012662612200,3.9166123046875,0.32316867227163165,9.761331433370708,0.8845029073879123
1790958012672691500,3.92669140625,0.326333675641194,9.76142378782928,0.8823290704801678
1790958012682770200,3.936770263671875,0.3286454231822863,9.761436647310852,0.8813283690050244
1790958012692849400,3.946849365234375,0.3294271481445059,9.761433140179514,0.8810777552448212
1790958012702928400,3.956928466796875,0.3295642915928736,9.761336694067715,0.8820725384358317
1790958012713007000,3.967007080078125,0.33029954706486314,9.761033911728859,0.8851703583206981
1790958012723086300,3.97708642578125,0.3305250263838097,9.760703656861185,0.8887139492116868
1790958012733165300,3.987165283203125,0.32934111382886766,9.760430100616812,0.8921533490758389
1790958012743243300,3.9972431640625,0.3263871593941003,9.76028455466628,0.894812996739149
1790958012753322200,4.007322265625,0.3219513323711231,9.76032021050155,0.8960296059872954
1790958012763401200,4.017401123046875,0.31767822162918746,9.760374571037293,0.8969516162030399
1790958012773480400,4.02748046875,0.3147548084631562,9.760386261475086,0.8978682195913046
1790958012783559400,4.037559326171875,0.3140406323118135,9.760293907016516,0.8991142010644078
1790958012793638100,4.04763818359375,0.3156639957299456,9.760003399637341,0.9017070671018212
1790958012803717400,4.05771728515625,0.31616273903232067,9.75979881697595,0.9037355772547423
1790958012813796400,4.06779638671875,0.31281649734433736,9.759735688611865,0.9055843469265847
1790958012823875300,4.077875244140625,0.30790640387311574,9.759730427914857,0.907315189307183
1790958012833954300,4.087954345703125,0.30332804484060033,9.759641580587624,0.9098113900370896
1790958012844033300,4.098033203125,0.2981965271710418,9.759532859516144,0.9126912563223392
1790958012854111200,4.108111328125,0.2925764222669415,9.759452780017256,0.9153480544414371
1790958012864190500,4.1181904296875,0.2877015827721916,9.759510647684335,0.9162711606357246
1790958012874269200,4.128269287109375,0.2852748670819215,9.759559747523069,0.9164966399546712
1790958012884348400,4.138348388671875,0.28636958524975925,9.7593709469527,0.9181840815849601
1790958012894427400,4.148427490234375,0.2887581791530363,9.759176885685324,0.9195004248805344
1790958012904506000,4.158506103515625,0.2894964850986376,9.75925696518421,0.9184097070343792
1790958012914585300,4.16858544921875,0.2894353842948563,9.759391405218839,0.9169931912999599
1790958012924664300,4.178664306640625,0.28941130929952485,9.75946388593316,0.916230390233919
1790958012934743300,4.188743408203125,0.2891096229392104,9.759493696549534,0.9160082719158381
1790958012944822300,4.198822265625,0.288176525073871,9.759418293225764,0.9171146257225423
1790958012954901200,4.2089013671875,0.28723906156066803,9.759382637390495,0.9177869720261543
1790958012964979500,4.2189794921875,0.2871485337330028,9.759403680178522,0.9175944451287388
1790958012975058400,4.229058349609375,0.2877374760694802,9.759397834959625,0.9174608818769454
1790958012985137200,4.23913720703125,0.28894058651523663,9.759318924504518,0.9179208275388926
1790958012995216400,4.24921630859375,0.29015131401186806,9.759357502949237,0.9171397601637988
1790958013005295400,4.25929541015625,0.2912518591322936,9.759505971509217,0.9151992936205119
1790958013015374300,4.269374267578125,0.29212842277111484,9.759606509274244,0.9138413031402974
1790958013025453300,4.279453369140625,0.29221699610371143,9.759713476780057,0.9126845343206077
1790958013035532300,4.2895322265625,0.2912983834214508,9.75985668464303,0.9114459324363618
1790958013045611300,4.299611328125,0.2906066200313158,9.760026780512929,0.9098512105908244
1790958013055690200,4.309690185546875,0.2907644226752221,9.760182263335585,0.9081194183621555
1790958013065769200,4.319769287109375,0.2905140098444186,9.76043243870437,0.9055217300191521
1790958013075847400,4.329847412109375,0.29076431307736783,9.760684952160716,0.9027155134920031
1790958013085926400,4.339926513671875,0.29242468403764066,9.760910577610135,0.8997305793970822
1790958013096005000,4.350005126953125,0.2953407358811237,9.761129188796877,0.8963950052335857
1790958013106084400,4.36008447265625,0.2989184665037319,9.761345461896061,0.892830956076458
1790958013116163300,4.370163330078125,0.3025713995207101,9.76153426246643,0.8895261423774063
1790958013126242300,4.3802421875,0.30693021578472107,9.76168156198263,0.8864161936633288
1790958013136321300,4.3903212890625,0.31154461424499746,9.761803142535685,0.8834813823204487
1790958013146400300,4.400400146484375,0.3154442154994234,9.761929399263858,0.8806806456860155
1790958013156479200,4.410479248046875,0.31819026280455287,9.76213047479391,0.8774619759004563
1790958013166558200,4.42055810546875,0.31948680542111396,9.762330381280183,0.8747774129915982
1790958013176637400,4.430637451171875,0.32052396644912656,9.76250573784709,0.8724445130646228
1790958013186715400,4.44071533203125,0.3221969411626458,9.762685186067223,0.8697895415764302
1790958013196794400,4.45079443359375,0.32458306911420076,9.762903797253966,0.8664437382798641
1790958013206873300,4.460873291015625,0.3282452814161777,9.763183783239125,0.8618969616957008
1790958013216952300,4.470952392578125,0.3334222091300413,9.763497086971997,0.8563628545746207
1790958013227031300,4.48103125,0.33911318731326606,9.763944246217608,0.8489762514546513
1790958013237110300,4.4911103515625,0.34381438727416097,9.764534028804302,0.8402711130820214
1790958013247189200,4.501189208984375,0.34627770864777263,9.765126734000443,0.8323402470175176
1790958013257268500,4.5112685546875,0.3486461913447827,9.765614809778333,0.8255893114525824
1790958013267347500,4.521347412109375,0.3516706171998754,9.766070152330398,0.8189069841444492
1790958013277426200,4.53142626953125,0.3548103765303269,9.766568749502301,0.8115654622752219
1790958013287504100,4.541504150390625,0.3577141351478174,9.767142165476082,0.803339266525954
1790958013297583400,4.551583251953125,0.36059637605324385,9.767703891012072,0.7951838709905743
1790958013307662300,4.561662353515625,0.36427181316297497,9.768239313063026,0.786874380872026
1790958013317741300,4.5717412109375,0.36801110928915437,9.768806883817911,0.7780469312939793
1790958013327820300,4.5818203125,0.3720104811236262,9.769389067620038,0.7687810172334313
1790958013337899300,4.591899169921875,0.37671423836778845,9.769877143397927,0.7602267585735768
1790958013347978200,4.601978271484375,0.38021464770417657,9.770323133599758,0.7527151408344507
1790958013358057200,4.61205712890625,0.38257944060675797,9.770812378421425,0.7451332343380898
1790958013368136700,4.62213671875,0.3851604700759053,9.771336694556474,0.7368920602153987
1790958013378215400,4.63221533203125,0.3880411035461351,9.771849320253729,0.7285423111516982
1790958013388294400,4.64229443359375,0.39164303702823816,9.772271345058083,0.7209162732526659
1790958013398372600,4.65237255859375,0.39572584936246274,9.772524443036318,0.7152387390729039
1790958013408451600,4.66245166015625,0.39919312361422926,9.772663559246062,0.7113930234301835
1790958013418530600,4.672530517578125,0.40476938937660306,9.77266589733362,0.7082040181305259
1790958013428609500,4.682609619140625,0.41359150519240645,9.772387664914131,0.7069347288470715
1790958013438688500,4.6926884765625,0.41922056058794255,9.772188927471637,0.7063686924621463
1790958013448767700,4.702767822265625,0.420634701702185,9.771987851941585,0.7083223107479513
1790958013458846500,4.712846435546875,0.4213618834655732,9.77162720193565,0.7128322624530643
1790958013468925400,4.722925537109375,0.4221596827797591,9.77112217502296,0.719267629262805
1790958013479004700,4.733004638671875,0.42143129543997343,9.770570386359095,0.7271401892688125
1790958013489083600,4.743083740234375,0.4205527955723926,9.770120304504037,0.7336637458186597
1790958013499162600,4.75316259765625,0.4202069778094068,9.769861945828795,0.7373126237150281
1790958013509240600,4.763240478515625,0.41711156907733526,9.76966613099575,0.74165927461721
1790958013519319600,4.773319580078125,0.411541038936004,9.769513570782541,0.7467538212772459
1790958013529398800,4.783398681640625,0.406592695813626,9.7693516582191,0.7515678704954684
1790958013539477500,4.7934775390625,0.4033987220779061,9.769165780258177,0.7556807857070118
1790958013549556500,4.803556396484375,0.40116924599278714,9.76897522612214,0.7593160004042089
1790958013559635700,4.8136357421875,0.39857024247553197,9.768821496865153,0.7626663337454199
1790958013569714400,4.82371435546875,0.39518074616771187,9.768675366392731,0.766302936682105
1790958013579793400,4.83379345703125,0.392440799809806,9.768521052613854,0.7696565579589456
1790958013589872600,4.84387255859375,0.391223277246207,9.76832173064947,0.7727936138756573
1790958013599951600,4.85395166015625,0.3920119068732485,9.768135268166661,0.7747654254052787
1790958013610030600,4.864030517578125,0.39384449259527027,9.768051681536436,0.7748832065660506
1790958013620108500,4.874108642578125,0.3953751362286508,9.768088506415486,0.7736545415539294
1790958013630187500,4.8841875,0.3968660689061507,9.768200734618306,0.7714310202855617
1790958013640266800,4.894266845703125,0.39908337962944057,9.76828373672664,0.7692444700267166
1790958013650345500,4.904345458984375,0.4007875166662037,9.76837901379466,0.7671569231629372
1790958013660424400,4.914424560546875,0.4021684130979702,9.768483058691023,0.765107589417696
1790958013670503700,4.924503662109375,0.40356516468599435,9.768594702371955,0.7629385748155415
1790958013680582400,4.93458251953125,0.40489729007259007,9.768725050753355,0.7605645391605794
1790958013690661600,4.94466162109375,0.4063766419101506,9.76884546226263,0.7582328082773834
1790958013700740600,4.95474072265625,0.40725853931121525,9.769009712913633,0.7556376772176474
1790958013710819600,4.964819580078125,0.40804632868804036,9.769209619399904,0.7526264396376907
1790958013720897800,4.974897705078125,0.40886254044175147,9.769471485206484,0.7487694719485938
1790958013730976500,4.9849765625,0.40939449189398436,9.769750302147864,0.7448330823477357
1790958013741055500,4.995055419921875,0.4093325325736776,9.770026781001686,0.7412061240222305
1790958013751134700,5.005134765625,0.40923784002754837,9.770292153939604,0.7377532070893794
1790958013761213400,5.01521337890625,0.4090920748813078,9.770520117476583,0.7348188341379165
1790958013771292400,5.02529248046875,0.4090896637285128,9.770721777528523,0.7321428929269314
1790958013781371600,5.03537158203125,0.40943635827433317,9.770900056704878,0.7295666857633739
1790958013791450600,5.04545068359375,0.4103155157290399,9.771073075184226,0.7267649262156337
1790958013801529600,5.055529541015625,0.4122315419508144,9.771247847229242,0.7233052872810513
1790958013811608600,5.065608642578125,0.41386012953333556,9.77145710606575,0.7195457155518233
1790958013821687600,5.0756875,0.41480661660321055,9.771711957609654,0.7155304154958576
1790958013831765800,5.085765869140625,0.4160052518032491,9.771947519931196,0.7116103925079107
1790958013841844500,5.095844482421875,0.41719194083716715,9.772169638249277,0.7078411031022668
1790958013851923500,5.10592333984375,0.41773719016239047,9.772395848220587,0.7043918394312262
1790958013862002700,5.116002685546875,0.41877566636465485,9.772577634528279,0.7012409011196344
1790958013872081400,5.126081298828125,0.4198088818699121,9.77274422326684,0.698296299035102
1790958013882160600,5.13616064453125,0.42063287507127967,9.772900875133276,0.6955964654918759
1790958013892239600,5.146239501953125,0.4215431583166122,9.773046421083807,0.6929902285162359
1790958013902318600,5.156318603515625,0.4224839828306809,9.773173846855759,0.6906159736655653
1790958013912397600,5.1663974609375,0.42333427951708436,9.773278476274013,0.6886116481058299
1790958013922476500,5.1764765625,0.42455625906009226,9.773344527247547,0.6869173383433371
1790958013932555800,5.1865556640625,0.4262289049800485,9.773415838918089,0.6848618671182543
1790958013942633700,5.1966337890625,0.42739999458603556,9.773498841026425,0.6829486539080739
1790958013952712400,5.20671240234375,0.42829690689314154,9.773589441919325,0.6810838829495013
1790958013962791700,5.216791748046875,0.42970607957132156,9.773647894108295,0.679392861122638
1790958013972870700,5.22687060546875,0.4307732704114169,9.773691733250022,0.6780440768621862
1790958013982949400,5.236949462890625,0.43154863869808613,9.773740248566865,0.6768737179085612
1790958013993028600,5.247028564453125,0.43193117174226786,9.773819159021974,0.6754807291802019
1790958014003107600,5.257107666015625,0.43161238811668007,9.774006790548562,0.672966042945534
1790958014013186600,5.2671865234375,0.4300245344033465,9.774343475157021,0.6690827717714011
1790958014023265500,5.277265625,0.42927123181801286,9.774743288129567,0.6636968409493565
1790958014033344500,5.287344482421875,0.4312847635975107,9.774951377922296,0.6593261515844613
1790958014043422500,5.29742236328125,0.4315899570891633,9.775030288377403,0.6579443418372422
1790958014053501700,5.307501708984375,0.43001876224968577,9.775105691701173,0.6578383972447365
1790958014063580400,5.317580322265625,0.4303638858929276,9.774998139673471,0.6592311667773872
1790958014073659600,5.32765966796875,0.4322180989248678,9.774815184322,0.6607214784003794
1790958014083738600,5.337738525390625,0.4341456329213455,9.774616446879506,0.6624055590298027
1790958014093817600,5.347817626953125,0.4355241547329351,9.774453365272283,0.6638917059343308
1790958014103896600,5.357896484375,0.43553938883468507,9.77438322264552,0.6649361734859645
1790958014113975600,5.3679755859375,0.43430031202640385,9.774406018999219,0.6653884472981095
1790958014124054800,5.3780546875,0.43383941651638597,9.774521754333376,0.6640005000710487
1790958014134133500,5.388133544921875,0.43392943288739766,9.774563839909433,0.6633180707648396
1790958014144212500,5.39821240234375,0.43304085001721976,9.774691265681385,0.6620306613028049
1790958014154290700,5.408290771484375,0.43151502868942915,9.774788296315073,0.6616010377138852
1790958014164369700,5.41836962890625,0.42998409279510375,9.774840903285146,0.6617956835031509
1790958014174448400,5.428448486328125,0.4287960885869339,9.774894679298995,0.6617850159786641
1790958014184527600,5.438527587890625,0.42828956383690236,9.77487129842341,0.6624601387612521
1790958014194606600,5.448606689453125,0.4274153382856399,9.774844410416483,0.6633992462422699
1790958014204685600,5.458685546875,0.42603904496375467,9.774834473544358,0.6644448097724467
1790958014214764500,5.4687646484375,0.42487149902172383,9.774839149719476,0.6651287734486162
1790958014224843500,5.478843505859375,0.42463816518988456,9.774853762766718,0.665069444476813
1790958014234922800,5.4889228515625,0.4260261489495635,9.774802324840426,0.6649437722705305
1790958014245001500,5.49900146484375,0.4263657927000895,9.774766669005155,0.6652309917140752
1790958014255079400,5.509079345703125,0.42499848640225824,9.774801740318535,0.665574398324266
1790958014265158700,5.51915869140625,0.42378929327558723,9.774852593722938,0.6656169222917407
1790958014275237600,5.529237548828125,0.42332547515612096,9.774866037726401,0.6657309771254658
1790958014285316400,5.53931640625,0.42300702032409604,9.774923320871592,0.6650633069969714
1790958014295395600,5.5493955078125,0.42188707638345657,9.775054253774881,0.6638563423600048
1790958014305474600,5.559474609375,0.420853751280345,9.775177003371715,0.6626965778656303
1790958014315553800,5.5695537109375,0.42035807671789077,9.775283386355637,0.6614708354629576
1790958014325632500,5.579632568359375,0.42007988083101805,9.775419579955935,0.6596040917430073
1790958014335711500,5.58971142578125,0.419940180099383,9.775563956862687,0.6575543196063488
1790958014345790700,5.599790771484375,0.4192395210167393,9.775687290981411,0.6561524169191718
1790958014355868700,5.60986865234375,0.4182187996668741,9.775731130123138,0.6561690027277917
1790958014365947100,5.619947021484375,0.4172216053230688,9.77570774924755,0.6571636397883296
1790958014376025900,5.63002587890625,0.41622305927239356,9.77565046610236,0.6586231178816407
1790958014386105000,5.64010498046875,0.4156146815830841,9.775538237899541,0.6606739859968424
1790958014396184000,5.65018408203125,0.4161674566276371,9.775357620635628,0.6630046209014951
1790958014406262800,5.6602626953125,0.41722065547499804,9.775133164229988,0.665660688368231
1790958014416342000,5.670342041015625,0.418195893715322,9.774946701747178,0.6677684743024408
1790958014426421000,5.6804208984375,0.41903544981200247,9.774854931810498,0.6685740185316652
1790958014436500000,5.6905,0.4203155527504161,9.774860777029394,0.6677038115683943
1790958014446579000,5.700578857421875,0.42201610959060487,9.774881819817423,0.6663027856640518
1790958014456658000,5.710657958984375,0.42338579050861297,9.774984695670009,0.6639155982665718
1790958014466736000,5.720736083984375,0.4243652665326372,9.775174080762266,0.6605028672136366
1790958014476815000,5.730815185546875,0.4255833370855078,9.775509596326946,0.6547190231151878
1790958014486893800,5.740893798828125,0.42778241803236305,9.775924606868625,0.6470400129199028
1790958014496973000,5.75097314453125,0.4307182522885501,9.776460613441467,0.6369484616901725
1790958014507052000,5.761052001953125,0.4330814377559349,9.777119369611144,0.6251233646661043
1790958014517131000,5.771131103515625,0.4349014927899465,9.777869895717501,0.6119644617550075
1790958014527210000,5.7812099609375,0.4358764387693256,9.778702839410304,0.5978005465198308
1790958014537289000,5.7912890625,0.43677137831505386,9.779449858385323,0.5847983685404062
1790958014547368000,5.801367919921875,0.4371314072664827,9.779983526870607,0.5755149918884038
1790958014557447000,5.811447021484375,0.4368697606556117,9.780388016018271,0.5687865604162216
1790958014567524900,5.82152490234375,0.43630617195609955,9.780758602896332,0.5628408768195658
1790958014577604000,5.83160400390625,0.4363012765852734,9.781056124538182,0.5576533546464517
1790958014587683000,5.84168310546875,0.43713158992957324,9.781261876243352,0.5533835683727637
1790958014597761800,5.85176171875,0.4384815432338044,9.781386963927746,0.5500580406792461
1790958014607841000,5.861841064453125,0.4405656925641,9.781463536295295,0.5470697455834597
1790958014617920000,5.871919921875,0.4426671948879957,9.781510882568359,0.5444924424413591
1790958014627999000,5.8819990234375,0.44340588442608714,9.781547707447409,0.5432384237922728
1790958014638078000,5.892077880859375,0.44212209169324485,9.781616096508502,0.5430647842584178
1790958014648157000,5.902156982421875,0.4398500551080331,9.781706112879514,0.5432803997704759
1790958014658236000,5.91223583984375,0.4378864999501034,9.781828277954459,0.5426506870321929
1790958014668315000,5.92231494140625,0.4369210524514317,9.781960379901529,0.5410301731582731
1790958014678392800,5.932392822265625,0.4351007416890934,9.782219907620549,0.537833386410959
1790958014688472000,5.94247216796875,0.43322055396568027,9.782505738824606,0.5341436285149306
1790958014698551000,5.952551025390625,0.4310656774867326,9.782819627079368,0.5301125463679432
1790958014708630000,5.962630126953125,0.43003556725401426,9.783054020357131,0.5266279921878129
1790958014718709000,5.972708984375,0.42990178480651225,9.783261525627971,0.5228297324160114
1790958014728788000,5.9827880859375,0.43122203709222373,9.783474291595816,0.5177566304028034
1790958014738867000,5.992866943359375,0.4334024498712271,9.783734403836727,0.5109539646506309
1790958014748946000,6.00294580078125,0.43560887387432157,9.784013805299997,0.503685033093579
1790958014759025200,6.013025146484375,0.43842816907875237,9.78423066292107,0.4969814803343266
1790958014769104100,6.023104248046875,0.4413042725043371,9.784380885046719,0.4914290703715756
1790958014779182000,6.03318212890625,0.4438146478900686,9.784462133589386,0.487576011672616
1790958014789260800,6.0432607421875,0.4464617648653686,9.784534029781819,0.4836873702036217
1790958014799340000,6.053340087890625,0.4507137962866574,9.78451123342812,0.48016105924099683
1790958014809419000,6.0634189453125,0.4557894190505147,9.784406604009867,0.4775432414254173
1790958014819498000,6.073498046875,0.46148364863675084,9.784352243474125,0.47313364482223985
1790958014829577000,6.083576904296875,0.4664191322775557,9.78437854695916,0.46774110159631815
1790958014839656000,6.093656005859375,0.4700634801292792,9.784486683508753,0.46179070529192684
1790958014849735000,6.10373486328125,0.47225828675981607,9.784610602149368,0.4569226608641445
1790958014859814000,6.11381396484375,0.4731621402643621,9.784709970870614,0.45382476791404186
1790958014869893000,6.12389306640625,0.474014336646907,9.784798818197846,0.45099834884908047
1790958014879971000,6.13397119140625,0.4750514246096834,9.784933258232474,0.4470020457545295
1790958014890050000,6.144050048828125,0.47525885681528596,9.785117967149615,0.44268513240348545
1790958014900129000,6.15412890625,0.4753222043750807,9.785258252403139,0.43953401142880316
1790958014910208000,6.1642080078125,0.47559784297868607,9.785333655726909,0.4375209180407226
1790958014920287000,6.174286865234375,0.4762850215252489,9.78538918530643,0.43551071072947234
1790958014930366000,6.184365966796875,0.47788493100255724,9.785434193491936,0.43274767575692386
1790958014940445000,6.19444482421875,0.47911827218979597,9.785551097869872,0.4287402302138507
1790958014950524200,6.204524169921875,0.4794461159046739,9.78573989844024,0.4240641281615942
1790958014960603000,6.214602783203125,0.4791485577302053,9.785933959707616,0.4198891440318897
1790958014970681900,6.224681884765625,0.4801036299653351,9.786010532075165,0.4169780058255419
1790958014980760000,6.234760009765625,0.48287813617996866,9.786009363031386,0.41379594172332435
1790958014990839000,6.244839111328125,0.4875293229866773,9.785936882317065,0.4100065959103405
1790958015000918000,6.25491796875,0.4946984839636832,9.785733468699455,0.4063016039125621
1790958015010997000,6.2649970703125,0.5026934282403439,9.785461666020751,0.403026125905849
1790958015021076000,6.275075927734375,0.5108265754112974,9.785161806291342,0.4000628191208467
1790958015031155000,6.285155029296875,0.5181240754757076,9.78490286309421,0.3969747534450143
1790958015041234000,6.29523388671875,0.5230232456941157,9.78473393626809,0.3947304816495627
1790958015051313000,6.30531298828125,0.526331018535234,9.784636321112513,0.3927391617018729
1790958015061392100,6.31539208984375,0.5291367966709658,9.784578453445434,0.390397055555135
1790958015071470800,6.325470947265625,0.5332843448044732,9.784446351498366,0.38805231905989346
1790958015081549800,6.3355498046875,0.5385151215974241,9.784245860490202,0.3859029224736616
1790958015091628000,6.3456279296875,0.5453047086723148,9.78395009241402,0.3838879293894395
1790958015101707000,6.35570703125,0.5517545058662071,9.783725051486492,0.3803098882395774
1790958015111786000,6.365785888671875,0.5564692959610372,9.783640295812488,0.3756646197170019
1790958015121865000,6.375864990234375,0.5570700383331626,9.783713945570588,0.37286497906111177
1790958015131944000,6.38594384765625,0.5535367861730978,9.783899239009617,0.3731999101039022
1790958015142023200,6.396023193359375,0.5504416697019711,9.784054137310385,0.37370048003718254
1790958015152102000,6.406101806640625,0.5520886697240174,9.78398925538063,0.373040079899691
1790958015162180900,6.416180908203125,0.5566144765853881,9.78372797409594,0.3731210361814126
1790958015172260000,6.426260009765625,0.5617494648536667,9.783445065501331,0.3728611431362107
1790958015182339000,6.436339111328125,0.5681617065161466,9.7830955214113,0.37233901895824817
1790958015192417000,6.4464169921875,0.5742064665731043,9.782768773674965,0.3716437667030841
1790958015202496000,6.45649609375,0.5782620986394584,9.782458392551542,0.3734828917637467
1790958015212575000,6.466574951171875,0.5814862483177333,9.78219711126685,0.37534492277596143
1790958015222654000,6.476654052734375,0.5846296974426135,9.781951027551292,0.3768697942556813
1790958015232733000,6.48673291015625,0.5882783561432734,9.781712542620301,0.3773659072095528
1790958015242812000,6.49681201171875,0.5937517460530624,9.781436648288368,0.37596626954469825
1790958015252891100,6.50689111328125,0.5997232216781004,9.781075413760542,0.37588900305740536
1790958015262969900,6.516969970703125,0.6054391151068732,9.780658065131306,0.3775550365734845
1790958015273048800,6.527048828125,0.6100275388756766,9.780302675822377,0.3793952941453084
1790958015283128000,6.537128173828125,0.6137414082996547,9.77997885069549,0.3817454374680295
1790958015293206000,6.5472060546875,0.6169657041084021,9.779694773057102,0.38382133042663336
1790958015303285000,6.557284912109375,0.6200850051727146,9.779460964301228,0.38474016230460256
1790958015313364000,6.567364013671875,0.6231704770326614,9.77925053642094,0.3850834958495572
1790958015323443000,6.57744287109375,0.6260963744167238,9.779038939496875,0.3857185058174655
1790958015333522200,6.587522216796875,0.626367446443066,9.778997438442707,0.38635483095962553
1790958015343601000,6.597600830078125,0.6259035552583635,9.778956521910429,0.38813371373303235
1790958015353680000,6.607679931640625,0.6274596255939453,9.778754277336597,0.3906852248467505
1790958015363758800,6.6177587890625,0.628845453929156,9.778576582682133,0.3929147374644875
1790958015373837800,6.627837890625,0.6290106544282287,9.778482474657892,0.39499033816214646
1790958015383916800,6.637916748046875,0.6292324074201285,9.778350957232712,0.3978927816053852
1790958015393994800,6.647994873046875,0.6291255860447883,9.778192551800608,0.40193387368973343
1790958015404073700,6.65807373046875,0.628403190054372,9.777958743044733,0.4086474729189649
1790958015414153000,6.668153076171875,0.6272386032544076,9.777694539150595,0.4166999926017597
1790958015424231700,6.678231689453125,0.6298061887200921,9.777271929824352,0.42270193643029774
1790958015434311000,6.688310791015625,0.6370493647813796,9.776526079893111,0.4290575160020962
1790958015444390000,6.698389892578125,0.6472829548303037,9.775492060670256,0.4372191586151719
1790958015454468600,6.708468505859375,0.6583788607969879,9.774336460894345,0.44638811510726806
1790958015464547800,6.7185478515625,0.668107789259404,9.773266785836219,0.45526725833993403
1790958015474626800,6.728626708984375,0.6730453917920589,9.772610952275992,0.4620540324032306
1790958015484706000,6.7387060546875,0.6734487118959427,9.77236954473555,0.4665313604803756
1790958015494784000,6.748783935546875,0.6712253367580473,9.772364284038543,0.4698380738755688
1790958015504862700,6.75886279296875,0.6682775928683579,9.772377143520115,0.47373942869566377
1790958015514942000,6.76894189453125,0.6635487377155572,9.772540225127338,0.4770394566217437
1790958015525021000,6.77902099609375,0.6573983253270387,9.772807351630926,0.4800254501625895
1790958015535099600,6.789099609375,0.6501750230100005,9.773124162495135,0.48341808827556665
1790958015545179000,6.799178955078125,0.6409029714696108,9.773499425548314,0.48820630893278866
1790958015555257900,6.8092578125,0.6288195157703012,9.773892224258184,0.4959607224518433
1790958015565336800,6.8193369140625,0.6151332279842346,9.774113758054375,0.5086338876726105
1790958015575415800,6.829415771484375,0.5994408976053819,9.77419559111893,0.5255194829566404
1790958015585494800,6.839494873046875,0.5815917910514399,9.774350489419698,0.542402228696458
1790958015595572700,6.84957275390625,0.5635703601378947,9.774809923624991,0.5530321976518258
1790958015605652000,6.85965185546875,0.5488811789195984,9.775355867069958,0.5581588199505582
1790958015615730700,6.869730712890625,0.5388234934268519,9.775758018130064,0.5608819613041356
1790958015625810000,6.879809814453125,0.5328626853263005,9.776038588637112,0.5617117266591638
1790958015635889000,6.889888916015625,0.5294943779369816,9.776329096016287,0.559845859722048
1790958015645967600,6.899967529296875,0.5265708917057141,9.77667630201876,0.5565081301340833
1790958015656046800,6.910046875,0.5237492949463427,9.77708663638532,0.5519460098503157
1790958015666125800,6.920125732421875,0.5209704778827726,9.777594585907458,0.5455628481518476
1790958015676204800,6.930204833984375,0.519084189212136,9.778146959093213,0.537375194314681
1790958015686283800,6.94028369140625,0.521658167885989,9.778485981789231,0.5286328292042016
1790958015696361700,6.95036181640625,0.525762278736569,9.778516376927495,0.523990264095366
1790958015706441000,6.96044091796875,0.525335979615897,9.778646725308894,0.5219806413060054
1790958015716520000,6.97052001953125,0.5221940648609772,9.778960613563656,0.5192604225618764
1790958015726598700,6.9805986328125,0.5198530546927824,9.779231831720471,0.516490117598325
1790958015736678000,6.990677978515625,0.5233247493913397,9.779106159514189,0.5153649860259145
1790958015746756900,7.0007568359375,0.5310243274506181,9.778705177497864,0.5150877765197307
1790958015756835600,7.010835693359375,0.5374479672899469,9.778294258609414,0.5162387731857597
1790958015766914800,7.020914794921875,0.540849592426978,9.777978616788984,0.5186615798858926
1790958015776993800,7.030993896484375,0.5420588586188853,9.777858789801597,0.5196713414503261
1790958015787073000,7.041072998046875,0.5436146001609042,9.777754160383344,0.5199844259874895
1790958015797151000,7.05115087890625,0.5472716978963464,9.777586402601003,0.5192899774499238
1790958015807229700,7.061229736328125,0.5513229460485279,9.77740578533709,0.5184085915055126
1790958015817309000,7.071308837890625,0.5549631657144054,9.777250302514433,0.5174510350523516
1790958015827388000,7.081387939453125,0.5579755358055234,9.77709072803855,0.5172362963231281
1790958015837466600,7.091466552734375,0.5612305555460975,9.776879131114482,0.5177233126550913
1790958015847545900,7.1015458984375,0.5638048630135134,9.776658181840181,0.5191026747168973
1790958015857624800,7.111624755859375,0.5663263077825308,9.776425542128086,0.5207610363831743
1790958015867703800,7.121703857421875,0.5671998757466673,9.776298700878023,0.5221522715458646
1790958015877782800,7.13178271484375,0.5672934723142534,9.77624960103929,0.5229691774193197
1790958015887860700,7.14186083984375,0.5674938537245616,9.776220374944806,0.523289860741049
1790958015897940000,7.15193994140625,0.566993210726045,9.776224466598034,0.5237628485476598
1790958015908019000,7.16201904296875,0.5646923864377662,9.776299869921804,0.5248698234088719
1790958015918097700,7.17209765625,0.5598069524837658,9.776526079893111,0.525866981220059
1790958015928177000,7.182177001953125,0.5566462234305217,9.776672210365533,0.5265302309017628
1790958015938256000,7.192255859375,0.5567166948508471,9.77662077243924,0.5273903913950547
1790958015948334800,7.2023349609375,0.5568642866279929,9.776575764253735,0.5280772411480545
1790958015958413800,7.212413818359375,0.5565532479174434,9.776576348775624,0.5284088842552155
1790958015968492800,7.222492919921875,0.5568919783525168,9.776559982162713,0.5283256994837895
1790958015978571800,7.23257177734375,0.5590974890401587,9.776432556390763,0.5283703788757323
1790958015988650800,7.242650634765625,0.5631967410525307,9.776167767974734,0.5288881191395223
1790958015998728700,7.252728759765625,0.5660526419403031,9.775959678182005,0.5296785023322329
1790958016008808000,7.262807861328125,0.5680802022451534,9.775796012052894,0.5305576597869396
1790958016018887000,7.272886962890625,0.5696951266285032,9.77565221966803,0.5314368537742644
1790958016028965600,7.282965576171875,0.5713404461501166,9.77550258206427,0.5324190332120284
1790958016039044900,7.293044921875,0.5737392143875361,9.775321380278468,0.533179605788365
1790958016049123800,7.303123779296875,0.5769554730203003,9.77511270596385,0.5335642942570149
1790958016059202800,7.313202880859375,0.58248804577142,9.77479414153397,0.5333654472166672
1790958016069281800,7.32328173828125,0.5883935069555416,9.774473239016533,0.532775518499501
1790958016079360800,7.33336083984375,0.5936263661077246,9.774173963809012,0.5324499398069455
1790958016089439700,7.343439697265625,0.5950334198940544,9.774056474909186,0.5330502803202718
1790958016099517700,7.353517578125,0.5969653378047048,9.773893977823853,0.5338605007246137
1790958016109596700,7.3635966796875,0.598161050395295,9.7737496009171,0.5351820681845769
1790958016119676000,7.373676025390625,0.600774886155501,9.773491242241859,0.5369476165523752
1790958016129755000,7.3837548828125,0.6015001682227477,9.773324653503298,0.5391577668825164
1790958016139833900,7.393833740234375,0.6010834041154012,9.773195474165677,0.5419633623551577
1790958016149912800,7.403912841796875,0.6021717838739976,9.773030638992786,0.5437294952448457
1790958016159991800,7.41399169921875,0.6036725072931498,9.772909058439732,0.5442520212816074
1790958016170070800,7.42407080078125,0.6055267933903261,9.772805598065256,0.5440599327756092
1790958016180149800,7.434149658203125,0.6057710870075971,9.772751822051406,0.5447416314294562
1790958016190228700,7.444228759765625,0.6062345398008823,9.77266881994307,0.5457078095804899
1790958016200307000,7.454306884765625,0.6062353435184806,9.77261153679788,0.5467268504299223
1790958016210386000,7.464385986328125,0.6068652389198541,9.772582310703395,0.5465658511819318
1790958016220464600,7.474464599609375,0.6078688995370641,9.772582310703395,0.5454677537469192
1790958016230544000,7.4845439453125,0.6086845998341217,9.772547823911905,0.5451574822213501
1790958016240622800,7.494622802734375,0.6095378921952098,9.772396432742475,0.5469338807767257
1790958016250701800,7.504701904296875,0.6097928168043494,9.772230428525805,0.5495723029889166
1790958016260780800,7.51478076171875,0.6103571361562237,9.772065008831024,0.5518970561420544
1790958016270859800,7.52485986328125,0.6107038672346622,9.771906603398918,0.5543035692945122
1790958016280938800,7.534938720703125,0.6110592565435916,9.771765149101615,0.5564094189999624
1790958016291017700,7.545017822265625,0.6116829413998872,9.771584531837702,0.5588889608560129
1790958016301095700,7.555095703125,0.6115280430991202,9.771447169193625,0.5614728033367544
1790958016311175000,7.5651748046875,0.6121690444163977,9.77127122810483,0.5638264172581956
1790958016321254000,7.57525390625,0.6136270612049848,9.771117498847842,0.5648980285450815
1790958016331332900,7.585332763671875,0.6155483846563845,9.770955586284398,0.5656104511307553
1790958016341411800,7.595411865234375,0.6170134157076478,9.770819977205992,0.5663591871388256
1790958016351490800,7.60549072265625,0.6178490628141909,9.770676184821129,0.5679369943821803
1790958016361569800,7.61556982421875,0.6185091341581195,9.770524793651699,0.5698209084326401
1790958016371649500,7.6256494140625,0.6193677237488329,9.770382170310615,0.5713147637195884
1790958016381728800,7.635728759765625,0.6194513834442943,9.770275787326693,0.5730570042770355
1790958016391807500,7.645807373046875,0.6188619661837816,9.77018693999946,0.5751755673335864
1790958016401885400,7.655885498046875,0.6188757755134254,9.770030288133025,0.5778198347646742
1790958016411964700,7.665964599609375,0.6187270877577364,9.76990929210186,0.5800435752287507
1790958016422043600,7.676043701171875,0.6194979990649968,9.769753224757313,0.5818269149815664
1790958016432122400,7.686122314453125,0.6204104377347975,9.769620538288354,0.5830950717538594
1790958016442201600,7.69620166015625,0.6212786719366907,9.769529937395452,0.583657053018175
1790958016452280600,7.706280517578125,0.6204815302096307,9.769581375321746,0.5836772190233692
1790958016462359600,7.716359619140625,0.6183988787166774,9.76979589485526,0.5822794810546562
1790958016472438500,7.7264384765625,0.6179607795603573,9.769857269653677,0.5817171344641596
1790958016482517500,7.736517578125,0.6181961957514286,9.769898770707846,0.5807791594943031
1790958016492596700,7.7465966796875,0.6183309280470013,9.769935595586896,0.5800195367660373
1790958016502675500,7.756675537109375,0.617684812163189,9.769992294210194,0.5797363724431023
1790958016512753400,7.76675341796875,0.6171962249286472,9.770042563092709,0.5794183560024947
1790958016522832600,7.77683251953125,0.6169804632861167,9.77015011512041,0.5778157796440646
1790958016532911600,7.78691162109375,0.6176804282490164,9.770172326952219,0.5766854239072651
1790958016542990300,7.796990234375,0.6197944977935403,9.770099261716007,0.5756577613599598
1790958016553069600,7.807069580078125,0.6212032686129212,9.770109198588132,0.5739827773524447
1790958016563148500,7.8171484375,0.6221200911968946,9.770088740321993,0.5733490825587884
1790958016573227500,7.8272275390625,0.6238644506461918,9.770013921520114,0.5727211233861744
1790958016583306500,7.837306396484375,0.6254118262186646,9.76992682775855,0.5725086862118914
1790958016593385500,7.847385498046875,0.6269983647577464,9.76981343051195,0.5727065468715503
1790958016603464700,7.857464599609375,0.6284211641024797,9.769631059682368,0.5742675491105764
1790958016613542700,7.867542724609375,0.6290463102634996,9.769557994446158,0.5748323433864861
1790958016623621400,7.877621337890625,0.628473917203024,9.769767253282666,0.5719035599255934
1790958016633700600,7.88770068359375,0.6264334974166006,9.77020681374371,0.5666023847775533
1790958016643779600,7.897779541015625,0.6223020236350596,9.76985200895667,0.5771651702482253
1790958016653858600,7.907858642578125,0.6181398624543101,9.769061735361815,0.5947540549634024
1790958016663937500,7.9179375,0.6167910051286221,9.768495918172597,0.6053352894062176
1790958016674016500,7.9280166015625,0.6166024237539619,9.768199565574527,0.6102904275955632
1790958016684095700,7.938095703125,0.6168479960128664,9.767964003252983,0.613809432034567
1790958016694174500,7.948174560546875,0.6185687553908675,9.767598677071929,0.6178782889086752
1790958016704253700,7.958253662109375,0.6198818107508123,9.767232181847096,0.6223396522317082
1790958016714331600,7.96833154296875,0.6216555424250662,9.76683061530888,0.6268464621316642
1790958016724410600,7.97841064453125,0.6221542857274412,9.766500944963097,0.6314857393048703
1790958016734489600,7.988489501953125,0.623513810577616,9.7661607532233,0.6353885188970715
1790958016744568600,7.998568603515625,0.6235869488790631,9.765943311080337,0.6386549002818763
1790958016754647600,8.0086474609375,0.6209786660768092,9.765938634905218,0.6412634022798389
1790958016764726500,8.0187265625,0.6180369135364889,9.765943895602225,0.6440220533382147
1790958016774805500,8.028805419921875,0.6142013539616018,9.765881936281918,0.6485994442563504
1790958016784884500,8.038884521484375,0.6104308589795604,9.765727037981152,0.6544731585953384
1790958016794963700,8.048963623046875,0.6080451694194227,9.765513687491417,0.6598517098285257
1790958016805042400,8.05904248046875,0.6073350483886897,9.765285723954438,0.6638558309033513
1790958016815120400,8.069120361328125,0.6056467665081844,9.76516940409839,0.6671165862649678
1790958016825199600,8.07919970703125,0.6009505349833518,9.765210905152559,0.6707371148496866
1790958016835278600,8.089278564453124,0.5975904839657247,9.765063021114468,0.675874843064323
1790958016845357600,8.099357666015624,0.5954099981214851,9.764749717381596,0.6822907745212317
1790958016855436500,8.1094365234375,0.592667202219367,9.764358672237396,0.6902366920243949
1790958016865515500,8.119515625,0.5887944524392486,9.763917942732572,0.699710622812435
1790958016875594500,8.129594482421876,0.5826298653949051,9.763499425059557,0.7106444700852036
1790958016885673500,8.139673583984376,0.57495220690649,9.763165663060546,0.7213914164837449
1790958016895752700,8.149752685546876,0.5676093333303928,9.762837161758542,0.7315771488029509
1790958016905830700,8.15983056640625,0.5622011176113039,9.762378312075137,0.7418165110055357
1790958016915909600,8.16990966796875,0.5582954519422725,9.761734168952703,0.7531596697315573
1790958016925988600,8.179988525390625,0.5541445062752812,9.760888365778326,0.7670340274356305
1790958016936067600,8.190067626953125,0.5486382004765793,9.759850839424132,0.7840215487241744
1790958016946146600,8.200146484375,0.5418122999792918,9.75877298105955,0.8019974965281784
1790958016956225500,8.2102255859375,0.5333145572796464,9.757705059567094,0.8204621776971965
1790958016966304500,8.220304443359375,0.5239693674378096,9.756711956876515,0.8381031944584101
1790958016976383500,8.230383544921875,0.5073738046089187,9.756261875021456,0.8534184716857969
1790958016986462700,8.240462646484374,0.498415056801401,9.755307350775599,0.8694492037061602
1790958016996541400,8.25054150390625,0.49532534715775395,9.754144152215122,0.884142038186267
1790958017006619400,8.260619384765626,0.49315410406589505,9.752949973994493,0.8984172317761927
1790958017016698600,8.27069873046875,0.4898091044869274,9.75172189350426,0.9134511347789317
1790958017026777600,8.280777587890626,0.4837289808556437,9.750668000537157,0.9278288388952612
1790958017036856600,8.290856689453125,0.47600525473579763,9.749573775559663,0.943192923700437
1790958017046935600,8.300935546875,0.468901012221165,9.74836556881368,0.9591079934518784
1790958017057014500,8.3110146484375,0.4626118489490822,9.747124044319987,0.9746496998462826
1790958017067093500,8.321093505859375,0.4558748688442632,9.746030988386273,0.9886457842338829
1790958017077172500,8.33117236328125,0.44750583055820314,9.74525240522921,1.0000786670699715
1790958017087251700,8.341251708984375,0.4362660226088017,9.74480466146171,1.0093813329443335
1790958017097330700,8.35133056640625,0.42285592141561207,9.744605339497328,1.016974199226126
1790958017107408600,8.36140869140625,0.4098297049734741,9.744484927988053,1.0234371116299181
1790958017117487600,8.371487548828124,0.3982134283944964,9.744367439088224,1.0291387573376298
1790958017127566600,8.381566650390624,0.3885512450253591,9.744239428794383,1.0340176154203713
1790958017137645600,8.3916455078125,0.3827850096488371,9.74398457725048,1.0385712601367383
1790958017147724500,8.401724609375,0.3823057016992941,9.743504100257157,1.0432365485340356
1790958017157803500,8.411803466796876,0.384742062000744,9.742895612969994,1.0480084391109645
1790958017167882800,8.4218828125,0.3853203368127346,9.742225750884414,1.0540236077472567
1790958017177961500,8.43196142578125,0.38390009475126863,9.741749950066207,1.0589197092257439
1790958017188040400,8.44204052734375,0.3830671510584652,9.741396898844837,1.062473821510747
1790958017198119700,8.45211962890625,0.3824473021270707,9.74118530192077,1.0646429091781378
1790958017208197600,8.46219775390625,0.3810425864282995,9.741137371125816,1.0655606085449456
1790958017218276600,8.472276611328125,0.37954690451044587,9.741146138954162,1.0660110557261855
1790958017228355600,8.48235546875,0.37949627030175176,9.741067813020944,1.0667478455681354
1790958017238434600,8.4924345703125,0.38102041112910956,9.740910576632619,1.0676428216464817
1790958017248513500,8.502513427734375,0.38247400747090576,9.740765615203976,1.0684458085924387
1790958017258592500,8.512592529296874,0.38469073367230594,9.740278123947977,1.0720903025746344
1790958017268671500,8.52267138671875,0.38674339188579465,9.739723997196554,1.0763701718509198
1790958017278750700,8.532750732421874,0.389149393581599,9.73915291931033,1.0806627544783056
1790958017288829400,8.542829345703124,0.3935823345277458,9.738626265087722,1.0838055094834416
1790958017298907400,8.552907470703126,0.39861945191211995,9.738024792063236,1.0873572106156497
1790958017308986600,8.562986572265626,0.4029592712147161,9.737561850726603,1.0899012690752743
1790958017319065600,8.573065673828125,0.4061190504198894,9.737197693589328,1.0919820939373224
1790958017329144600,8.58314453125,0.407597744670324,9.736911277863383,1.093977870864421
1790958017339223600,8.5932236328125,0.40597233542557803,9.736825937667488,1.0953521548923104
1790958017349302500,8.603302490234375,0.4022502461625263,9.736677469107509,1.0980520615007727
1790958017359381800,8.6133818359375,0.39825357774179426,9.736446582961081,1.1015425339650362
1790958017369460200,8.623460205078125,0.3966552391670644,9.736061383035779,1.1055215205986053
1790958017379539200,8.633539306640625,0.3953869727969169,9.735631759446859,1.1097427915554492
1790958017389618400,8.643618408203125,0.39285266854632644,9.735233700039982,1.1141193992044776
1790958017399696400,8.6536962890625,0.390683325150609,9.734816935932635,1.1185163189891725
1790958017409775400,8.663775390625,0.39006544898059214,9.734346980333328,1.1228085362903772
1790958017419854300,8.673854248046876,0.3897485650511458,9.73383786176741,1.1273247716058046
1790958017429933300,8.683933349609376,0.38886414689943194,9.733218853086232,1.1329555440343915
1790958017440012300,8.69401220703125,0.3871223812660202,9.73253203986585,1.1394381840519607
1790958017450091300,8.70409130859375,0.385153419280611,9.73174994957745,1.1467662619177252
1790958017460170200,8.714170166015625,0.38278194090891626,9.730900054749846,1.1547566030845045
1790958017470249500,8.72424951171875,0.379048234273307,9.730007489824294,1.1634815421361475
1790958017480328400,8.734328369140625,0.37453061071839183,9.729066409581899,1.172767695267126
1790958017490406400,8.744406494140625,0.3699441231783479,9.728071553325652,1.1824293306469917
1790958017500485400,8.7544853515625,0.365954067161493,9.726993110439182,1.1925080223951487
1790958017510564400,8.764564453125,0.36331177249178287,9.725831080922484,1.2027421239007263
1790958017520643300,8.774643310546875,0.3613169819453731,9.72468132636547,1.212593217438087
1790958017530722300,8.784722412109375,0.35967827482763676,9.72365841305852,1.221252690038085
1790958017540801300,8.79480126953125,0.35884054536186155,9.722616795051097,1.2297754575811326
1790958017550880500,8.804880615234374,0.3583366144277155,9.721467625015974,1.2389651646003126
1790958017560959200,8.814959228515624,0.35840569760855284,9.720212071996926,1.248754152686894
1790958017571038200,8.8250380859375,0.3589101399993524,9.71889923583269,1.2587939006641506
1790958017581116200,8.8351162109375,0.3592686711134389,9.717575293752551,1.2688709119118748
1790958017591195400,8.8451953125,0.3586151391081512,9.716247260019182,1.2791818780459463
1790958017601274400,8.8552744140625,0.3574857697520405,9.71504256040454,1.2886181071721017
1790958017611353300,8.865353271484375,0.3563726208783686,9.71403367562294,1.296508275900036
1790958017621432300,8.875432373046875,0.3548720070570707,9.71332465057075,1.3022178857184945
1790958017631511300,8.88551123046875,0.3530391290741041,9.71280208800137,1.3066085218928754
1790958017641590300,8.89559033203125,0.3520484740689397,9.712252637425065,1.3109579492740333
1790958017651669200,8.905669189453125,0.35175190227515996,9.711651748922467,1.315480249004066
1790958017661748500,8.91574853515625,0.35111539446990936,9.710988901099562,1.3205280339129268
1790958017671827200,8.9258271484375,0.3500267955156043,9.710261171346902,1.3261683778874576
1790958017681905200,8.9359052734375,0.34817075585275886,9.709595985436438,1.3314998020432889
1790958017691984400,8.945984375,0.3448955701069906,9.709018477809428,1.3365553318671881
1790958017702063400,8.9560634765625,0.3412377051865682,9.708422265481948,1.3418110604383051
1790958017712142300,8.966142333984376,0.3380999916827306,9.707835405504703,1.3468413096904754
1790958017722221300,8.97622119140625,0.33407968665808435,9.707317519110441,1.3515788596063851
1790958017732300300,8.98630029296875,0.33053952983319757,9.706749948355554,1.3565180695742367
1790958017742379500,8.996379638671876,0.32663064929377283,9.706112234973906,1.3620095065973699
1790958017752458200,9.006458251953125,0.32333602819517254,9.70539561113715,1.367892281025648
1790958017762537200,9.016537109375,0.321006525801681,9.704601245889068,1.374059133092314
1790958017772615200,9.026615234375,0.3187398229787126,9.703833184126019,1.380002843927592
1790958017782694400,9.0366943359375,0.3161873254843056,9.703054016447068,1.3860522070944308
1790958017792773000,9.046773193359375,0.31448238472994416,9.702220488232374,1.392267720608413
1790958017802852400,9.056852294921875,0.312434439224191,9.70131272573769,1.399037945395708
1790958017812931300,9.066931396484375,0.31113256284538654,9.700296826693416,1.4063441767558456
1790958017823010300,9.07701025390625,0.3102050362043082,9.699285603824258,1.4135194752126932
1790958017833089300,9.08708935546875,0.3086596333932131,9.69831120583415,1.4205141564056276
1790958017843168300,9.097168212890624,0.3074334525991231,9.6974127956897,1.4269004964418708
1790958017853247500,9.10724755859375,0.3069413217006251,9.696592711478472,1.4325706510327756
1790958017863325400,9.117325439453126,0.30715346661396326,9.69586790433526,1.4374256898485123
1790958017873404200,9.127404052734375,0.3069110361602157,9.695217331472039,1.441860311295092
1790958017883483400,9.1374833984375,0.3079999273754656,9.694611182272434,1.445700327849388
1790958017893562400,9.147562255859375,0.30970731581524014,9.694030752035975,1.449228063584119
1790958017903641300,9.157641357421875,0.31070122222341595,9.69344213849306,1.4529295484505593
1790958017913720300,9.16772021484375,0.31267778299339116,9.692779875192045,1.4569189103476703
1790958017923799300,9.17779931640625,0.31522651762813325,9.692035194304585,1.4613288357444107
1790958017933878500,9.18787841796875,0.31679420533627267,9.691267717063427,1.4660738383144138
1790958017943957200,9.197957275390625,0.31871742848381396,9.690490302950144,1.470783038918674
1790958017954035200,9.20803515625,0.3212713507503271,9.689723994752764,1.4752695366829633
1790958017964114400,9.218114501953124,0.3225122541895136,9.68904419579506,1.4794604125015436
1790958017974193400,9.228193359375,0.32236214166171845,9.688525140357017,1.4828805962085723
1790958017984272100,9.238272216796876,0.3221326072221622,9.688170920091867,1.4852495172969995
1790958017994351400,9.248351318359376,0.3236856818830594,9.687955231514573,1.4863110090486704
1790958018004430300,9.258430419921876,0.32619729937780645,9.687917237591742,1.486015240972489
1790958018014509300,9.26850927734375,0.3283592997172847,9.688007253962754,1.4849556489169597
1790958018024588300,9.27858837890625,0.3300385945737362,9.687997901612519,1.4846398609660565
1790958018034667300,9.288667236328125,0.3316439839437604,9.687800917735695,1.4855607752032578
1790958018044745200,9.2987451171875,0.33303737453091886,9.687311672914028,1.4884334080301225
1790958018054824400,9.308824462890625,0.33281565807163715,9.68654068854153,1.4935010666832327
1790958018064903200,9.318903076171875,0.332398674768582,9.685588502383231,1.4997586657732724
1790958018074982400,9.328982421875,0.33217772549428043,9.684598906823993,1.5061854839503763
1790958018085061400,9.339061279296875,0.3306694398231804,9.683734983471036,1.512066650943458
1790958018095140000,9.34914013671875,0.32801731787919997,9.682958738401531,1.5175991506293416
1790958018105219300,9.35921923828125,0.3251061066076159,9.682187169507145,1.5231443636663258
1790958018115298300,9.36929833984375,0.322184885398671,9.681349549639224,1.5290696620620787
1790958018125377500,9.37937744140625,0.31869580117389557,9.68037222903967,1.5359734501011668
1790958018135455500,9.38945556640625,0.3149681954855099,9.679159346118569,1.5443639695666729
1790958018145534200,9.3995341796875,0.3117496718304232,9.677669984343648,1.554307125301659
1790958018155613400,9.409613525390625,0.30835721638053654,9.675960842338204,1.5655955581657588
1790958018165692400,9.4196923828125,0.3058734367407858,9.674072836634517,1.5777001297183333
1790958018175771100,9.429771240234375,0.3036496962767094,9.67214625248611,1.58989413312003
1790958018185850400,9.439850341796875,0.30157972160223867,9.670207977899908,1.6020286614194512
1790958018195929300,9.449929443359375,0.3000787972536869,9.668238139131665,1.6141618745446205
1790958018206008300,9.46000830078125,0.29879663022235037,9.666260117056964,1.626195718948543
1790958018216086300,9.470086181640625,0.2979099470483139,9.664248777234553,1.6382739870160816
1790958018226165200,9.480165283203124,0.2973674011368304,9.662197689923644,1.6504196212314068
1790958018236244200,9.490244140625,0.29769529965063557,9.66013315860927,1.662404804188013
1790958018246323500,9.500323486328124,0.2994798084472306,9.658055183291435,1.674115407986939
1790958018256402200,9.510402099609376,0.302929711439088,9.655988898411392,1.6853708153642712
1790958018266481400,9.5204814453125,0.3076669325614348,9.653958853888511,1.6961131586529314
1790958018276560400,9.530560302734376,0.31327604114748536,9.652101827844977,1.7056290288865565
1790958018286639000,9.54063916015625,0.3194187816862017,9.650402622711658,1.714084430281818
1790958018296718300,9.55071826171875,0.3258249954666942,9.648744334110617,1.7221885340213774
1790958018306796300,9.56079638671875,0.3316294804943725,9.64708078481257,1.7303860151328145
1790958018316875300,9.570875244140625,0.33665695326756684,9.645532386326789,1.7380366760164498
1790958018326954200,9.580954345703125,0.3415300757292658,9.644158175364137,1.7446980336017905
1790958018337033200,9.591033203125,0.3463477051440626,9.64295464479327,1.7503838241532443
1790958018347112400,9.601112548828125,0.3514040021529421,9.641690323945879,1.7563288501627743
1790958018357191400,9.61119140625,0.35577158624529837,9.64028980949819,1.7631278626531361
1790958018367270700,9.621270751953125,0.3592883256619796,9.63874258005619,1.7708515887729823
1790958018377349600,9.631349609375,0.36258035294469443,9.637150926950573,1.7788336735680699
1790958018387427800,9.641427734375,0.36513040275368835,9.63551426565945,1.7871534658849237
1790958018397506800,9.6515068359375,0.3669074223635718,9.633945993429421,1.795229366443306
1790958018407585500,9.66158544921875,0.3681431016383692,9.632528527846931,1.8025671619854866
1790958018417664800,9.671664794921876,0.3685600484088063,9.63132149014473,1.8089181384474038
1790958018427743700,9.68174365234375,0.3691091336589306,9.630280456659197,1.8143446935407817
1790958018437822500,9.691822509765625,0.3693702688131481,9.629205520904064,1.8199841607324778
1790958018447901700,9.701901611328125,0.36852125076837833,9.628103112620115,1.8259804785378275
1790958018457980700,9.711980712890625,0.36868838749621063,9.626978492504358,1.8318651526622474
1790958018468060000,9.722059814453125,0.37024734390862285,9.625997080251574,1.836700756125152
1790958018478137900,9.732137939453125,0.3704847328610718,9.624915714755653,1.8423150888755917
1790958018488216600,9.742216552734375,0.3706876350220293,9.623717444881796,1.848520227126032
1790958018498295800,9.7522958984375,0.36994748417921364,9.622578211718798,1.8545887333847582
1790958018508374800,9.762374755859375,0.3702590708790347,9.621731239500642,1.858914195368439
1790958018518453500,9.77245361328125,0.37095421353634445,9.62134370148778,1.8607910951562225
1790958018528532700,9.78253271484375,0.3719439186934381,9.621162499701976,1.8615236472144723
1790958018538611700,9.79261181640625,0.37314653594885017,9.620569209983945,1.8643527331605552
1790958018548690700,9.802690673828126,0.37394630802441386,9.619331777143477,1.8705619630642234
1790958018558768600,9.8127685546875,0.37621816194653507,9.617828386843204,1.8778196791075168
1790958018568847600,9.82284765625,0.3789696891443804,9.616514966157078,1.883984923738986
1790958018578926800,9.8329267578125,0.38203283957466483,9.615627661928533,1.8878889454402028
1790958018589005800,9.843005859375,0.38508853735085574,9.61516998128891,1.88960071779415
1790958018599084500,9.85308447265625,0.3872916734183207,9.61492448209524,1.890403704740107
1790958018609163800,9.863163818359375,0.3879525484798476,9.614605333143473,1.8918813760772346
1790958018619242800,9.87324267578125,0.38863344341609624,9.613969373327492,1.8949755427002906
1790958018629321500,9.883321533203125,0.3882430558590218,9.613009588384628,1.899916798494756
1790958018639399700,9.893399658203125,0.3883077185930684,9.611823593470454,1.9059002568185328
1790958018649478700,9.903478759765624,0.38993166653309014,9.610622985509037,1.911614250551164
1790958018659557600,9.9135576171875,0.3916326252320781,9.609635728037357,1.916220867563784
1790958018669636600,9.92363671875,0.3933865196947008,9.608871173405646,1.9196919046752154
1790958018679715600,9.933715576171876,0.39600148796606804,9.608242227852344,1.9223085169143974
1790958018689794800,9.943794921875,0.3984367522889748,9.607684593969584,1.9245805534996092
1790958018699873800,9.953873779296876,0.3990896997723728,9.607134558871389,1.9271993576958775
1790958018709952500,9.963952392578125,0.40147173607069997,9.606654666399955,1.9290860482253134
1790958018720030700,9.97403076171875,0.4010778779149055,9.606227380898595,1.9312940796636044
1790958018730109700,9.984109619140625,0.40272327050175516,9.605594343692063,1.9341069451272486
1790958018740188700,9.994188720703125,0.4024547922912985,9.604974750488996,1.9372296071924269
1790958018750267600,10.004267578125,0.40163277185130863,9.604409517821669,1.9402026316538452
1790958018760346600,10.0143466796875,0.40196229606661943,9.603854806548357,1.9428755041249095
1790958018770425900,10.02442578125,0.401188937073946,9.603518121939898,1.9447034502044318
1790958018780504600,10.034504638671875,0.4010355731431395,9.603423429393768,1.9452002938106654
1790958018790583600,10.04458349609375,0.40223782507237044,9.603511107677221,1.9445137728512285
1790958018800661800,10.054661865234374,0.40388456936608996,9.603684710678458,1.9433176949344575
1790958018810740700,10.06474072265625,0.4050173727883026,9.603954175269603,1.9417511762700974
1790958018820819700,10.07481982421875,0.40718101709559557,9.604213702988623,1.9400195301719008
1790958018830898700,10.084898681640626,0.40866617761943486,9.604497780627012,1.9382979670763014
1790958018840977700,10.094977783203126,0.40990291634015735,9.604776013046502,1.936660282871872
1790958018851056600,10.105056640625,0.41117074431888756,9.60516998080015,1.9344364693425595
1790958018861135600,10.115135498046875,0.41127062449678775,9.605599019867181,1.9322753457859156
1790958018871214600,10.125214599609375,0.4113890997773036,9.606024551802873,1.9301381876267492
1790958018881292500,10.13529248046875,0.4112740585628897,9.606425533819198,1.9281668875537812
1790958018891371800,10.145371826171875,0.4114901489989832,9.60674000659585,1.9265477619193494
1790958018901450800,10.15545068359375,0.41148255021441726,9.606993689095974,1.9252922089003026
1790958018911529700,10.16552978515625,0.4140233207384124,9.607245033508539,1.923482529129833
1790958018921608700,10.175608642578124,0.41509062117636203,9.607581718116998,1.9215692428544162
1790958018931687700,10.185687744140624,0.4176080838900059,9.607929508641362,1.919286977136135
1790958018941766700,10.1957666015625,0.4204772461181506,9.608240474286674,1.9171068566180764
1790958018951844600,10.2058447265625,0.42313229067157954,9.608478374695776,1.9153313713781535
1790958018961923600,10.215923583984376,0.42573640875536944,9.608537995928526,1.9144503507599233
1790958018972002800,10.2260029296875,0.42882224594149737,9.608517537662387,1.9138573533028362
1790958018982081500,10.23608154296875,0.4305089569194242,9.608428105813264,1.913934510192275
1790958018992160800,10.246160888671875,0.4331521283719688,9.608214755323528,1.9144050503134726
1790958019002239700,10.25623974609375,0.43663361381217836,9.608023616665601,1.9145837678812443
1790958019012318700,10.266318603515625,0.43965383841618894,9.607883331412076,1.9145953121885657
1790958019022397700,10.276397705078125,0.4426845113489777,9.607668227356672,1.914975982069224
1790958019032475600,10.2864755859375,0.4459582723226398,9.6074455245167,1.9153359014227984
1790958019042554600,10.2965546875,0.45022177498601373,9.607145664787291,1.9158416589878497
1790958019052633900,10.3066337890625,0.4540465574385598,9.606821839660405,1.91655915960744
1790958019062712600,10.316712646484374,0.4571426602903753,9.606449499216675,1.917692693682015
1790958019072791600,10.32679150390625,0.461115984368138,9.605995325708388,1.9190188277192413
1790958019082870800,10.336870849609374,0.4639448511185124,9.60559960438907,1.9203148588791488
1790958019092949500,10.346949462890626,0.4656400011312216,9.605204467591642,1.921875532324612
1790958019103028700,10.35702880859375,0.46758576490413395,9.604775428524613,1.9235503336690365
1790958019113106700,10.367106689453125,0.47026930489968505,9.604362171548605,1.9249599082060158
1790958019123185700,10.377185546875,0.4735141320398077,9.604038930943608,1.9257683019794523
1790958019133265000,10.387264892578125,0.47739374995212996,9.603764790177344,1.9261768827803432
1790958019143343600,10.397343505859375,0.483160350654833,9.603581250303984,1.925653443428129
1790958019153422600,10.407422607421875,0.48781661549545824,9.603470191144943,1.9250347270078956
1790958019163501800,10.417501708984375,0.4914768550360575,9.60354910160005,1.9237192604951558
1790958019173580500,10.42758056640625,0.49438759138360616,9.603765959221125,1.9218918989375233
1790958019183658500,10.437658447265624,0.49494442154876883,9.603986908495425,1.9206435063116252
1790958019193737700,10.44773779296875,0.4981763161420822,9.604059973731637,1.9194336921304462
1790958019203816700,10.457816650390624,0.5018181067105383,9.604317747884988,1.9171958500757813
1790958019213895700,10.467895751953124,0.5029006047176197,9.604797055834531,1.9145064648613332
1790958019223974700,10.477974609375,0.5042288576466962,9.60524538412392,1.9119100186273454
1790958019234053600,10.4880537109375,0.5074395633215084,9.605970191267133,1.907417237252742
1790958019244132900,10.4981328125,0.5103301336638629,9.607344986751675,1.8997028634831308
1790958019254211600,10.508211669921875,0.5122361499482766,9.60893839342296,1.8911143372274934
1790958019264289500,10.51828955078125,0.5146634136278182,9.610482700255513,1.8825887932054697
1790958019274368800,10.52836865234375,0.5131988575005904,9.612074353361129,1.874841978470981
1790958019284447700,10.53844775390625,0.5127092838853597,9.613575990095734,1.8672594143874943
1790958019294526500,10.5485263671875,0.512566916272603,9.615278117838502,1.8585123365692793
1790958019304605700,10.558605712890625,0.5066605417730287,9.617546062770485,1.8483688359566033
1790958019314684700,10.5686845703125,0.499704987014085,9.619895840767025,1.8380077470704912
1790958019324763600,10.578763671875,0.49441674441285427,9.621573418590426,1.830650662305951
1790958019334842600,10.588842529296874,0.4900047366568818,9.623527475267649,1.821536212480068
1790958019344920600,10.598920654296874,0.48581532214302564,9.626734162354468,1.8056433545604347
1790958019354999800,10.608999755859376,0.48110915374606844,9.630092240610718,1.7889242749497294
1790958019365078800,10.619078857421876,0.47519466900527474,9.633436290341615,1.7724255600914358
1790958019375157000,10.629156982421875,0.4702874616108835,9.636592124024032,1.7565046451210975
1790958019385236200,10.639236328125,0.46936110401358455,9.63969125908315,1.7396696840457617
1790958019395315200,10.649315185546875,0.47040027433559295,9.642891516429186,1.7215584194242952
1790958019405394200,10.659394287109375,0.4693689585264772,9.646509706926345,1.7014491128534077
1790958019415472400,10.669472412109375,0.4678318851523101,9.65064169216454,1.6782734044492245
1790958019425551000,10.679551025390625,0.4678003575028851,9.654844404551387,1.653941950138658
1790958019435630000,10.689630126953125,0.46576154515165835,9.659171620100736,1.6290629449479281
1790958019445709300,10.699709228515625,0.4661794417701661,9.663314711254834,1.6041870084971188
1790958019455788000,10.7097880859375,0.46745435707680877,9.667475338065623,1.5785490016326307
1790958019465867300,10.7198671875,0.4672733014214784,9.67154887111485,1.5534430558182297
1790958019475946200,10.7299462890625,0.4705003737092018,9.675497316479682,1.5276640330478548
1790958019486025200,10.740025146484374,0.47213787525054063,9.679559159091115,1.501197174143791
1790958019496103200,10.750103271484376,0.4731227215694263,9.683847211673855,1.472975142135471
1790958019506182100,10.76018212890625,0.470929157047905,9.688329910045862,1.4439070146918296
1790958019516261000,10.77026123046875,0.4659712058469653,9.69275298718512,1.415548935213685
1790958019526340400,10.78034033203125,0.46361645941436286,9.69702525767684,1.3867781832814217
1790958019536419000,10.790419189453125,0.464360592312552,9.701231477195025,1.356785049947351
1790958019546498300,10.800498291015625,0.46132772742267697,9.705527713084221,1.3267569914303718
1790958019556577300,10.810577392578125,0.4551093278318643,9.709695354157686,1.2981073816597462
1790958019566655200,10.8206552734375,0.45508598348889495,9.713215929499269,1.2714995068497954
1790958019576734200,10.830734130859375,0.45342784101832656,9.716355396568774,1.2478954900309442
1790958019586813200,10.840813232421874,0.4519151349004358,9.71925637870729,1.2256578661944717
1790958019596892200,10.85089208984375,0.45156997472457583,9.72236778872609,1.2008473231300711
1790958019606971100,10.86097119140625,0.4369209428535774,9.725843355882168,1.1779033776551484
1790958019617050000,10.871050048828126,0.43378070859909057,9.728609897986054,1.1560142019301651
1790958019627129000,10.881129150390626,0.44140086474660783,9.73098305685818,1.1329264640703796
1790958019637207300,10.891207275390625,0.4399603470820933,9.73378291670978,1.1091795316495001
1790958019647286300,10.901286376953125,0.43500718165412544,9.73667630006373,1.0854782650012522
1790958019657365000,10.911364990234375,0.4285538042636588,9.739412447029352,1.0632814115665852
1790958019667444200,10.9214443359375,0.4184733954824507,9.742077282324432,1.042694258350879
1790958019677523200,10.931523193359375,0.40736594520844516,9.744426475799083,1.0249871175508947
1790958019687602200,10.941602294921875,0.40178204412888735,9.746292854192852,1.0093187160369008
1790958019697681200,10.95168115234375,0.39927152261268345,9.748092597091198,0.9927996159777045
1790958019707760000,10.961760009765625,0.3934490635368973,9.750276955392955,0.9734943192660808
1790958019717838300,10.97183837890625,0.3832379045154899,9.752868725451826,0.9513668047405779
1790958019727917300,10.981917236328124,0.37357093537338076,9.755819391950965,0.9245778742752969
1790958019737996000,10.99199609375,0.3666660148231312,9.759007374337315,0.8931468170925975
1790958019748075300,11.0020751953125,0.3589820361917838,9.762218153077363,0.8605964004911482
1790958019758154200,11.012154296875,0.35229959928579624,9.765252990728616,0.8283237048525363
1790958019768233200,11.022233154296876,0.35415078011043366,9.767885677319764,0.7958677616015076
1790958019778312200,11.032312255859376,0.35976416301280256,9.770390938138961,0.7618550173625349
1790958019788390100,11.04239013671875,0.3663705390078947,9.772886262086033,0.725840724042803
1790958019798469400,11.052469482421875,0.373629241431877,9.775387431252001,0.6874605783745646
1790958019808548000,11.062548095703125,0.38031566039323805,9.777854698148369,0.6475424825493246
1790958019818627000,11.072626953125,0.38150932715721425,9.78042659446299,0.606717208751291
1790958019828706300,11.082706298828125,0.37690307547077534,9.782994983646272,0.5668571267236023
1790958019838785300,11.092785400390625,0.3696725762279704,9.785395615047216,0.5289243594966828
1790958019848864000,11.102864013671875,0.3697105336181819,9.787285958838462,0.4926718004416674
1790958019858943200,11.112943115234375,0.37219453245364126,9.78893255700171,0.45678237561061974
1790958019869021200,11.123021240234374,0.3692812388228252,9.79077613904178,0.4180185643870383
1790958019879100200,11.13310009765625,0.36739257553201166,9.792463069215417,0.3782642442887649
1790958019889179100,11.14317919921875,0.3665019103026017,9.793937233421206,0.33893026849441227
1790958019899258000,11.153258056640626,0.3691669647933915,9.79530793725252,0.29329529285971073
1790958019909337300,11.16333740234375,0.3789894167581573,9.796493347644805,0.23547363861324264
1790958019919416000,11.173416015625,0.3871164995145052,9.797475344419478,0.17316734976600853
1790958019929495000,11.1834951171875,0.3938150838376954,9.798062204396723,0.11527475830833427
1790958019939573200,11.1935732421875,0.41122948876880105,9.797840086078644,0.060161842430755494
1790958019949652200,11.20365234375,0.42969490059018134,9.79722926070392,0.00735636153286614
1790958019959731200,11.213731201171875,0.4431565127748996,9.796537186786532,-0.04326520516290329
1790958019969810200,11.22381005859375,0.44906274114400146,9.795953833940624,-0.08943386754919774
1790958019979889200,11.23388916015625,0.46037667377553876,9.794870130357145,-0.13773216237532906
1790958019989968400,11.243968505859375,0.47144050410352645,9.793490074175596,-0.18884448257572947
1790958020000047000,11.254047119140624,0.4829498862419277,9.791758720338343,-0.24209221650278195
1790958020010126000,11.2641259765625,0.49813627639263863,9.789482007578014,-0.2971037817645818
1790958020020204300,11.274204345703126,0.5132926732638851,9.786891406562924,-0.35164654220454394
1790958020030283300,11.284283203125,0.5344509043658152,9.783662507644294,-0.4058255108334124
1790958020040362200,11.2943623046875,0.5576987281581387,9.779931504422425,-0.4607797381510958
1790958020050441200,11.304441162109375,0.5808830947928131,9.776131527617574,-0.5101105726290494
1790958020060520200,11.314520263671875,0.6062829820524901,9.772187758427858,-0.5542288235578686
1790958020070599200,11.32459912109375,0.6245498756270855,9.768909759670496,-0.5905482007713988
1790958020080678100,11.33467822265625,0.6298301541175693,9.766825354611873,-0.6187143744066357
1790958020090756000,11.344756103515625,0.6382013112954795,9.764796479132771,-0.6417428563598543
1790958020100835000,11.3548349609375,0.6451610673055053,9.763217100986838,-0.6586009060498327
1790958020110914300,11.364914306640625,0.6498037785448133,9.761780346181988,-0.6751166451081633
1790958020120993000,11.374992919921874,0.6526157672256231,9.76030384388864,-0.6935039501920343
1790958020131072300,11.385072265625,0.6580233253575861,9.758505270034075,-0.7134057514920831
1790958020141151200,11.395151123046874,0.6666357439454644,9.756364750874042,-0.7343838767867535
1790958020151230200,11.405230224609374,0.6738505706951021,9.754087453591824,-0.7576828462444245
1790958020161309200,11.41530908203125,0.6785053376983851,9.751535431021452,-0.7858498601298779
1790958020171387100,11.42538720703125,0.683887542193383,9.749028416636586,-0.8118641529608518
1790958020181466000,11.435466064453125,0.7027288746550678,9.745946817234158,-0.8325002598848193
1790958020191545300,11.44554541015625,0.7206547727722674,9.742841252434253,-0.8532817666288465
1790958020201624000,11.4556240234375,0.7286950174953788,9.740524792185425,-0.8726765682548284
1790958020211703300,11.465703369140625,0.7368375535491853,9.738440387126802,-0.8889416935529559
1790958020221782300,11.4757822265625,0.7435714649140834,9.736607326480746,-0.9033080725576728
1790958020231861000,11.485861083984375,0.7488318696603179,9.7349040296942,-0.9172178669013082
1790958020241939200,11.495939208984375,0.7550137001004069,9.733211254301667,-0.9300178733721375
1790958020252018200,11.50601806640625,0.761218034633249,9.7314693790704,-0.9430967698495835
1790958020262097200,11.51609716796875,0.7738154312040656,9.729138305774331,-0.9567916062682866
1790958020272176400,11.52617626953125,0.779901692315191,9.727345577138662,-0.9700009972576051
1790958020282255000,11.536255126953124,0.7795205109778791,9.725936294862628,-0.9843241947077214
1790958020292334000,11.546333984375,0.7853068392943591,9.723834938669205,-1.0003631830997763
1790958020302413300,11.556413330078126,0.8007312029194086,9.720700732296704,-1.0184307547099887
1790958020312492000,11.566491943359376,0.8061722979947924,9.71839537796378,-1.0359855544924736
1790958020322570000,11.576570068359375,0.8054967368207872,9.716580437496305,-1.0533823872342705
1790958020332649200,11.586649169921875,0.8250423450943082,9.712339146664737,-1.0771137567598372
1790958020342728200,11.596728271484375,0.851091270847246,9.706880296736955,-1.1056672857448457
1790958020352807200,11.60680712890625,0.8740778133548796,9.70112801682055,-1.13775636844486
1790958020362886100,11.61688623046875,0.8901760576535016,9.695560445821284,-1.1722097691234201
1790958020372966000,11.6269658203125,0.9015377018842846,9.690517190957069,-1.2047743603806942
1790958020383044900,11.637044921875,0.9127460552494973,9.686042091369629,-1.2320208984203636
1790958020393122800,11.647122802734375,0.9175896958883851,9.683191378113627,-1.2506854130104184
1790958020403201800,11.657201904296874,0.9261106368005275,9.68079659193158,-1.2628832158043979
1790958020413281000,11.667281005859374,0.931611572304368,9.67891560049057,-1.2732165399007498
1790958020423359700,11.67735986328125,0.9285271964229643,9.677996147558092,-1.2824154531396925
1790958020433438700,11.687438720703126,0.9201964443206787,9.678023620086908,-1.288210987675935
1790958020443518000,11.69751806640625,0.9135782682899385,9.677757078105211,-1.2949020097471773
1790958020453597000,11.707596923828126,0.9104625474222003,9.676725981491803,-1.3047550029806791
1790958020463675600,11.717675537109375,0.9111119512416422,9.675209147188067,-1.3155138590127229
1790958020473753900,11.72775390625,0.9131212452374399,9.674798228299617,-1.3171443828240037
1790958020483832800,11.737832763671875,0.9115361680030822,9.676049689665437,-1.3090278579942882
1790958020493911800,11.747911865234375,0.9136457075029611,9.67684405491352,-1.3016671199679375
1790958020503990800,11.75799072265625,0.91490681347996,9.677239191710948,-1.2978323641106486
1790958020514069800,11.76806982421875,0.9069421912763267,9.678622755023836,-1.2930943758033215
1790958020524149000,11.77814892578125,0.9077521924849599,9.679243517270685,-1.2878643661953508
1790958020534228000,11.78822802734375,0.919057357288152,9.678606972932815,-1.2846348827548324
1790958020544306000,11.798305908203124,0.9111629507765173,9.680074707397818,-1.279191814918071
1790958020554385000,11.808385009765624,0.890850303653255,9.683366734680533,-1.2685296972587703
1790958020564463900,11.8184638671875,0.8822308708027005,9.685635264134406,-1.257182519944757
1790958020574542800,11.82854296875,0.8565069392204284,9.689999889084696,-1.2412373473159968
1790958020584621800,11.838621826171876,0.8266702385570853,9.695053665342927,-1.2218524094969034
1790958020594700800,11.84870068359375,0.8081061156015843,9.698965870350598,-1.2030860419675706
1790958020604780000,11.858780029296875,0.790638117319718,9.70226374285221,-1.1880017970170824
1790958020614858800,11.868858642578125,0.77187686435692,9.70500690408051,-1.1779043275032193
1790958020624936700,11.878936767578125,0.7562974563006312,9.707772861662507,-1.1651387347586453
1790958020635016000,11.889015869140625,0.7475629457030445,9.710907068035006,-1.1444641955204307
1790958020645095000,11.899094970703125,0.7446816911783068,9.713447984689473,-1.1246238420840353
1790958020655174000,11.909173828125,0.7467365048162639,9.715450556683539,-1.1057996799528598
1790958020665252900,11.9192529296875,0.7478530877560376,9.717495214253663,-1.086906398108229
1790958020675331800,11.929331787109374,0.7385847625426948,9.720473353281617,-1.0664357108790428
1790958020685410800,11.939410888671874,0.720423813560605,9.724546301808953,-1.0414313257429748
1790958020695489000,11.949489013671876,0.7199377105440944,9.72740402932763,-1.0147385491285472
1790958020705567700,11.959567626953126,0.7183618395294994,9.73016531073451,-0.9890488120768218
1790958020715646700,11.969646728515626,0.6960532693486661,9.734325937545298,-0.9637377721443772
1790958020725726000,11.979725830078126,0.6663006667722016,9.738941906908154,-0.9377946448534726
1790958020735804700,11.9898046875,0.6438157171111554,9.743084998062253,-0.9100381114650518
1790958020745884000,11.9998837890625,0.6280023541685193,9.746716048040986,-0.8817619381166995
1790958020755963000,12.009962890625,0.6121878952473402,9.749868959113956,-0.8577199682720005
1790958020766040800,12.020040771484375,0.5891289450906216,9.75295581921339,-0.8385648936860263
1790958020776120000,12.0301201171875,0.5624078922297805,9.755951493898033,-0.8218903108041733
1790958020786198800,12.04019873046875,0.5480461163349449,9.758654323115945,-0.799200851546973
1790958020796277800,12.05027783203125,0.5375531812300905,9.762526196113228,-0.7579539182707666
1790958020806357000,12.06035693359375,0.5208088941128924,9.767201786708831,-0.7077575164720415
1790958020816435700,12.070435791015624,0.5128308644384145,9.771075997793673,-0.6583703852295875
1790958020826515000,12.080514892578124,0.5021082487635314,9.774877143642305,-0.6083173008916899
1790958020836593000,12.090593017578126,0.4784014291573316,9.779273332774638,-0.554382516282238
1790958020846672000,12.100671875,0.467167831753008,9.782745977321266,-0.5000269855100661
1790958020856750800,12.110750732421875,0.46520730880238115,9.785449975582956,-0.4460321412764489
1790958020866829800,12.120829833984375,0.44704427746105935,9.788675951892136,-0.39036454152502115
1790958020876908800,12.13090869140625,0.4091316031740978,9.792556008195877,-0.32989535017814486
1790958020886988000,12.140988037109375,0.37396632789913564,9.795955587506294,-0.2641566026641987
1790958020897066800,12.151066650390625,0.3598607187224552,9.798117733976245,-0.19434054097505285
1790958020907145700,12.161145751953125,0.35741007416732606,9.799291453930735,-0.12858135346127672
1790958020917224000,12.171223876953125,0.34544542254209515,9.800329564806818,-0.06786785479739774
1790958020927303000,12.181302978515625,0.3194379978433251,9.80144307900667,-0.006771728332858765
1790958020937381600,12.191381591796874,0.30397854463858526,9.80176105891466,0.05902265036695171
1790958020947460900,12.2014609375,0.30271026000212875,9.801156663280725,0.12679443351188674
1790958020957539800,12.211539794921874,0.30208091259002684,9.800134919017554,0.19097740295119583
1790958020967618800,12.221618896484374,0.3041727703027427,9.798675367859005,0.25266334967669096
1790958020977697800,12.23169775390625,0.29878643762189894,9.79719302034676,0.31001331302449103
1790958020987775700,12.241775634765625,0.28189923490267244,9.795599029153585,0.3703592433178797
1790958020997855000,12.25185498046875,0.27574624696457756,9.793224701237678,0.4325495593689382
1790958021007934000,12.261933837890625,0.2749548956574872,9.790357621368765,0.4936215023819357
1790958021018012700,12.2720126953125,0.26933411489995196,9.787425659570097,0.5514825205244124
1790958021028092000,12.282091796875,0.2744865840259939,9.784140646550059,0.6046583034601062
1790958021038171000,12.2921708984375,0.2773481657358818,9.781012285396455,0.6521274722520262
1790958021048249900,12.302249755859375,0.2634343345379457,9.777911981293558,0.702423608098179
1790958021058327800,12.312327880859375,0.25580320033868775,9.774262811136245,0.7541333370693027
1790958021068406800,12.32240673828125,0.2782347210457548,9.770383923876285,0.7953294169411063
1790958021078486000,12.332486083984374,0.2991102262161672,9.766822432002424,0.8307109653152525
1790958021088565000,12.34256494140625,0.2904034621420316,9.76431307953,0.8626952724665403
1790958021098643700,12.352643798828124,0.26027207111474127,9.761910694563388,0.8987564736679196
1790958021108723000,12.362722900390626,0.2525829231179319,9.757922501710057,0.9431373941209167
1790958021118802000,12.372802001953126,0.27631801897054536,9.752927762162685,0.9871227393850683
1790958021128880600,12.382880615234376,0.29711760936053466,9.748567228865623,1.0234889148823916
1790958021138958800,12.392958740234375,0.3025176235068589,9.746137955892085,1.0448212604422122
1790958021149037800,12.403037841796875,0.29217754087615755,9.744852007734774,1.059669723875448
1790958021159116800,12.41311669921875,0.26303243920616803,9.74281144181788,1.0857248601734637
1790958021169195800,12.42319580078125,0.26825879555232823,9.73919325132072,1.1164805753778666
1790958021179274800,12.433274658203125,0.31014936049431563,9.73512673253417,1.1408332186069339
1790958021189354000,12.44335400390625,0.3315070596911013,9.731840550470352,1.1626456758338957
1790958021199433000,12.453432861328125,0.3315751930238679,9.72941829175949,1.182737154487148
1790958021209511000,12.463510986328124,0.33662820209711786,9.726495682311057,1.205130261146277
1790958021219590000,12.47358984375,0.35022630014307793,9.72309902561009,1.2284525384142995
1790958021229668900,12.4836689453125,0.35871176788304,9.720571552959084,1.2458785972505808
1790958021239747800,12.493747802734376,0.345732678518258,9.718560797658562,1.2650694738022983
1790958021249826800,12.503826904296876,0.3452527129815891,9.715529467138648,1.2882836145207286
1790958021259905800,12.51390576171875,0.3564055732998997,9.711763392603396,1.3133926290750502
1790958021269985000,12.523985107421876,0.357200705732964,9.708706927642226,1.335589701705426
1790958021280063000,12.53406298828125,0.3527348854305222,9.706132693240045,1.3553542864918708
1790958021290141700,12.5441416015625,0.3454663557322696,9.703388947489858,1.3766875818997621
1790958021300221000,12.554220947265625,0.3399331253940239,9.700392688283324,1.3990041892565785
1790958021310300000,12.5642998046875,0.3475392164835706,9.697073188471794,1.419985456356406
1790958021320379000,12.57437890625,0.35959962010085583,9.694267483401298,1.4360614157579839
1790958021330457900,12.584457763671875,0.361652789770998,9.69202701099813,1.4505806472368536
1790958021340536800,12.594536865234375,0.3650234352478757,9.689684831786154,1.46530723785609
1790958021350615800,12.60461572265625,0.38054464684352274,9.687167296007274,1.4779637442030011
1790958021360694000,12.614694091796874,0.3902330240998417,9.684894090378284,1.4902774284616112
1790958021370772700,12.624772705078126,0.3977246584968641,9.682053898516298,1.50665938507244
1790958021380851700,12.634851806640626,0.41749779191594566,9.678440384194253,1.5244196442991493
1790958021390931000,12.644930908203126,0.43964105199985204,9.674389647498726,1.5437845622435211
1790958021401010000,12.655010009765626,0.45087187292519953,9.670799514052272,1.5629165482148528
1790958021411089000,12.6650888671875,0.43710842824969437,9.667439097708463,1.5874261355713009
1790958021421167900,12.67516796875,0.4360535123692825,9.662822543823719,1.6155790478661656
1790958021431245800,12.685245849609375,0.4551471756242215,9.657798578181863,1.6401692992433905
1790958021441325000,12.695324951171875,0.44420379333812743,9.654899349609018,1.6601177161641418
1790958021451403800,12.70540380859375,0.42272542690373954,9.651939330759644,1.6827831369586288
1790958021461482800,12.715482666015625,0.4369737324867397,9.6476740745306,1.7034784267239271
1790958021471562000,12.72556201171875,0.45973662230633194,9.643664254367351,1.7201032521799207
1790958021481640700,12.735640625,0.4693038208683952,9.639892919135093,1.7385609921514986
1790958021491720000,12.745719970703124,0.480303901777789,9.63568377700746,1.7587715671397746
1790958021501798000,12.7557978515625,0.49607718843836335,9.63126362247765,1.7784993270471692
1790958021511876900,12.765876953125,0.5207726902883499,9.62693699145019,1.794788198547065
1790958021521955800,12.775955810546876,0.523248980741389,9.6239722964257,1.8099026194401084
1790958021532034800,12.786034912109375,0.5202260892562568,9.620939796862006,1.8268243820160626
1790958021542113800,12.79611376953125,0.5294886423159391,9.617125207009911,1.8441643700040875
1790958021552193000,12.806193115234375,0.5206077820502222,9.61378875606358,1.8639822924129663
1790958021562271700,12.816271728515625,0.5012505359556526,9.610663317519426,1.8852806626379488
1790958021572349700,12.826349609375,0.48848180140592157,9.606506782361864,1.9096587325692176
1790958021582429000,12.836428955078125,0.4884680651415139,9.602050387474893,1.931951374528557
1790958021592508000,12.8465078125,0.48989517533518373,9.59842226010561,1.949536423318833
1790958021602586600,12.856586669921874,0.47435357853863386,9.595373393929004,1.9682916849322616
1790958021612665900,12.866665771484374,0.47705074520073826,9.591583353996276,1.986033531719446
1790958021622744800,12.876744873046874,0.49880862269625065,9.589344050636887,1.9914958887785672
1790958021632824000,12.886823974609374,0.5003251647390425,9.58918915233612,1.9918581462197005
1790958021642902800,12.89690283203125,0.48869869555961337,9.58961877592504,1.9926823220841585
1790958021652980700,12.906980712890626,0.491326961703971,9.589510639375447,1.9925569421388207
1790958021663060000,12.91706005859375,0.48681704653147606,9.58971054586172,1.992701172915101
1790958021673139000,12.927138916015625,0.48192894569635386,9.589501871547103,1.9948864079996942
1790958021683217700,12.9372177734375,0.483549569168128,9.589142975106835,1.9962252553880213
1790958021693297000,12.947296875,0.4715888265330344,9.589490765631199,1.997410373519361
1790958021703376000,12.9573759765625,0.45423649052008985,9.589850831115244,1.999705352588743
1790958021713454800,12.967454833984375,0.44658447792958467,9.588870587906241,2.0061185806319117
1790958021723532800,12.97753271484375,0.45249899920299647,9.587187164863943,2.0128246541418133
1790958021733611800,12.98761181640625,0.45286889196131375,9.587687515601516,2.010352418809384
1790958021743691000,12.99769091796875,0.44338991967197505,9.587943536189197,2.011248636996746
1790958021753770000,13.00777001953125,0.456551635594666,9.58721054573953,2.011796918529272
1790958021763848700,13.0178486328125,0.47811782644297923,9.588103110665083,2.0025163183562458
