time,seconds_elapsed,z,y,x
1790958008797347800,0.051347900390625,0.023374564945697784,-0.07250296324491501,0.22222746908664703
1790958008807426800,0.0614267578125,0.03816629573702812,-0.03531404957175255,0.22167514264583588
1790958008817505800,0.071505859375,0.048293497413396835,0.009430252946913242,0.22111107409000397
1790958008827583700,0.081583740234375,0.07294930517673492,0.06966722756624222,0.22553618252277374
1790958008837662700,0.091662841796875,0.15235838294029236,0.17592176795005798,0.2693651616573334
1790958008847742000,0.101741943359375,0.27256521582603455,0.20743681490421295,0.34994256496429443
1790958008857820700,0.111820556640625,0.4061877131462097,0.10101822763681412,0.44714686274528503
1790958008867899600,0.121899658203125,0.46305420994758606,-0.002438656520098448,0.5444318652153015
1790958008877979000,0.131978759765625,0.48947781324386597,-0.09647780656814575,0.6248081922531128
1790958008888057600,0.1420576171875,0.5159403085708618,-0.1143028736114502,0.6886987686157227
1790958008898136600,0.152136474609375,0.5696573257446289,-0.06885363161563873,0.7424296736717224
1790958008908215800,0.1622158203125,0.617099940776825,-0.040231041610240936,0.792907178401947
1790958008918294800,0.172294677734375,0.6562175154685974,-0.05951179563999176,0.8766228556632996
1790958008928373800,0.182373779296875,0.7347419261932373,0.0036189695820212364,0.9014222025871277
1790958008938452700,0.19245263671875,0.818009614944458,0.19578947126865387,0.8392744660377502
1790958008948531700,0.20253173828125,0.851337730884552,0.3609355688095093,0.7890472412109375
1790958008958610700,0.212610595703125,0.859994649887085,0.40416398644447327,0.7998306155204773
1790958008968688600,0.222688720703125,0.8317962884902954,0.4041315019130707,0.819055438041687
1790958008978767600,0.232767578125,0.8632359504699707,0.3577333688735962,0.8954724669456482
1790958008988846800,0.242846923828125,0.9237887859344482,0.20332036912441254,1.0309629440307617
1790958008998925600,0.252925537109375,1.00885009765625,0.01840590499341488,1.2167338132858276
1790958009009004800,0.2630048828125,1.0815755128860474,-0.0021081583108752966,1.4023483991622925
1790958009019083800,0.273083740234375,1.0725932121276855,0.07500553131103516,1.5647701025009155
1790958009029162800,0.283162841796875,1.0286129713058472,0.2130158692598343,1.7029849290847778
1790958009039241700,0.29324169921875,1.0202354192733765,0.32424306869506836,1.819301724433899
1790958009049320700,0.30332080078125,1.064483642578125,0.4054130017757416,1.9069703817367554
1790958009059400000,0.31339990234375,1.1115520000457764,0.3708193600177765,2.0160417556762695
1790958009069478700,0.323478759765625,1.1597129106521606,0.1856233924627304,2.1263890266418457
1790958009079557600,0.3335576171875,1.2173104286193848,0.0877642035484314,2.1303563117980957
1790958009089636900,0.343636962890625,1.2641868591308594,0.036306075751781464,2.105349540710449
1790958009099715600,0.353715576171875,1.2990806102752686,-0.0856456607580185,2.042952060699463
1790958009109793500,0.36379345703125,1.2969235181808472,-0.19435350596904755,1.934507131576538
1790958009119872800,0.373872802734375,1.2597957849502563,-0.20359466969966888,1.7648528814315796
1790958009129951700,0.38395166015625,1.1782972812652588,-0.12244974821805954,1.5094906091690063
1790958009140030700,0.39403076171875,1.0499041080474854,-0.01455630548298359,1.2199312448501587
1790958009150109700,0.404109619140625,0.9137545228004456,0.05398653447628021,0.9468736052513123
1790958009160188700,0.414188720703125,0.7861382365226746,0.11038802564144135,0.7260003685951233
1790958009170268000,0.424267822265625,0.6554049849510193,0.17010915279388428,0.5366743803024292
1790958009180346600,0.4343466796875,0.5530679821968079,0.2313903421163559,0.3825465738773346
1790958009190425600,0.444425537109375,0.5054783821105957,0.24225284159183502,0.25540727376937866
1790958009200504800,0.4545048828125,0.5002023577690125,0.20131340622901917,0.18739306926727295
1790958009210583800,0.464583740234375,0.5094254016876221,0.13646677136421204,0.14674577116966248
1790958009220662800,0.474662841796875,0.556568443775177,0.1801668405532837,0.09328120946884155
1790958009230741800,0.48474169921875,0.5231931805610657,0.20955349504947662,0.07370138168334961
1790958009240820700,0.49482080078125,0.4675573408603668,0.2384357452392578,0.07544176280498505
1790958009250899000,0.50489892578125,0.4481314420700073,0.20466871559619904,0.10719622671604156
1790958009260977700,0.514977783203125,0.4832255244255066,0.10899679362773895,0.16521398723125458
1790958009271056600,0.525056640625,0.5487123727798462,0.012472914531826973,0.22680890560150146
1790958009281135900,0.535135986328125,0.6249778270721436,-0.02082831598818302,0.2756957709789276
1790958009291214600,0.545214599609375,0.7088732719421387,-0.020597953349351883,0.33551862835884094
1790958009301293600,0.55529345703125,0.777434229850769,-0.05314577743411064,0.43686628341674805
1790958009311372800,0.565372802734375,0.8119913935661316,-0.10684016346931458,0.5763847827911377
1790958009321451800,0.57545166015625,0.7800934314727783,-0.10699329525232315,0.7080985903739929
1790958009331530800,0.58553076171875,0.7179206013679504,-0.0028716865926980972,0.7800135016441345
1790958009341609700,0.595609619140625,0.6389426589012146,0.09824028611183167,0.8091412782669067
1790958009351688700,0.605688720703125,0.5610891580581665,0.11237980425357819,0.8343784809112549
1790958009361767200,0.61576708984375,0.48074692487716675,0.08692345023155212,0.8622862696647644
1790958009371846000,0.625845947265625,0.39842167496681213,0.05152284726500511,0.8767634630203247
1790958009381923800,0.635923828125,0.3273211419582367,-0.019241338595747948,0.8906731605529785
1790958009392002800,0.6460029296875,0.27317214012145996,-0.06976363807916641,0.886442244052887
1790958009402082000,0.65608203125,0.22849655151367188,-0.09335950762033463,0.8946359753608704
1790958009412160800,0.666160888671875,0.1558505892753601,-0.11699452996253967,0.9115001559257507
1790958009422240000,0.676239990234375,0.035825375467538834,-0.05181339755654335,0.8861843943595886
1790958009432319000,0.686319091796875,-0.08944465965032578,0.042215630412101746,0.8067817687988281
1790958009442398000,0.69639794921875,-0.18845300376415253,0.09900274872779846,0.6871961951255798
1790958009452477000,0.706476806640625,-0.253924161195755,0.12726899981498718,0.5548794865608215
1790958009462556000,0.716555908203125,-0.29718640446662903,0.17364422976970673,0.4173849821090698
1790958009472635100,0.72663525390625,-0.31064414978027344,0.20712921023368835,0.280190646648407
1790958009482713900,0.7367138671875,-0.28711485862731934,0.2048223912715912,0.19196970760822296
1790958009492792800,0.746792724609375,-0.2221747487783432,0.19110843539237976,0.1603236347436905
1790958009502872000,0.7568720703125,-0.12197037786245346,0.12520478665828705,0.19168901443481445
1790958009512950800,0.76695068359375,-0.014155765995383263,0.05692586675286293,0.2783229649066925
1790958009523028700,0.77702880859375,0.05939381942152977,0.009485380724072456,0.3630865812301636
1790958009533108000,0.78710791015625,0.08861801773309708,-0.021804364398121834,0.4375653564929962
1790958009543187000,0.79718701171875,0.058404721319675446,0.004664526786655188,0.4669218957424164
1790958009553266200,0.80726611328125,0.0057441722601652145,0.0452529639005661,0.49041125178337097
1790958009563345000,0.817344970703125,-0.021348698064684868,0.08897008746862411,0.5465046167373657
1790958009573423900,0.827423828125,-0.011817511171102524,0.09858676046133041,0.6398404240608215
1790958009583503000,0.837503173828125,0.041607365012168884,0.08897487819194794,0.7331405282020569
1790958009593581800,0.847581787109375,0.11813010275363922,0.039263781160116196,0.8191068768501282
1790958009603660800,0.857660888671875,0.22776338458061218,-0.05074546858668327,0.8921049237251282
1790958009613740000,0.867739990234375,0.3355218172073364,-0.12046676129102707,0.9370193481445312
1790958009623818800,0.87781884765625,0.41307467222213745,-0.17713455855846405,0.9262809753417969
1790958009633898000,0.88789794921875,0.44025513529777527,-0.1803165078163147,0.869488000869751
1790958009643977000,0.89797705078125,0.4018683433532715,-0.13920262455940247,0.7932515740394592
1790958009654055000,0.908054931640625,0.33560889959335327,-0.0852440595626831,0.7200620174407959
1790958009664134100,0.918134033203125,0.2722048759460449,-0.032097216695547104,0.6586335301399231
1790958009674212900,0.928212890625,0.21385397017002106,0.0062272693030536175,0.6085983514785767
1790958009684291800,0.938291748046875,0.17171156406402588,0.05122164264321327,0.5385153889656067
1790958009694371000,0.94837109375,0.16184481978416443,0.045101698487997055,0.48080602288246155
1790958009704449800,0.95844970703125,0.1573944240808487,0.00023382554354611784,0.4170640707015991
1790958009714529000,0.968529052734375,0.12905599176883698,-0.011635617353022099,0.3423152565956116
1790958009724608000,0.97860791015625,0.09421944618225098,-0.013287043198943138,0.2860722243785858
1790958009734687000,0.98868701171875,0.07391683757305145,-0.054719436913728714,0.2824726998806
1790958009744766000,0.998765869140625,0.07731182873249054,-0.07822449505329132,0.2959429621696472
1790958009754845000,1.008844970703125,0.09820326417684555,-0.10383451730012894,0.34344151616096497
1790958009764924200,1.018924072265625,0.1349295824766159,-0.12487348914146423,0.39756786823272705
1790958009775003000,1.0290029296875,0.15166862308979034,-0.1061709076166153,0.44631651043891907
1790958009785080800,1.039080810546875,0.18174129724502563,-0.1161271408200264,0.47168150544166565
1790958009795160000,1.04916015625,0.22334600985050201,-0.13286830484867096,0.4475628733634949
1790958009805239000,1.059239013671875,0.26077407598495483,-0.16773919761180878,0.42072033882141113
1790958009815317800,1.06931787109375,0.31188759207725525,-0.19699615240097046,0.3851284980773926
1790958009825397000,1.07939697265625,0.3622783124446869,-0.2608547508716583,0.3992549777030945
1790958009835476000,1.08947607421875,0.4056002199649811,-0.3328040540218353,0.45859554409980774
1790958009845555000,1.099554931640625,0.42364659905433655,-0.3687039911746979,0.5349238514900208
1790958009855634000,1.109634033203125,0.41934001445770264,-0.3528376817703247,0.5890454053878784
1790958009865713000,1.119712890625,0.39242076873779297,-0.33388397097587585,0.6071450710296631
1790958009875792100,1.129792236328125,0.37662798166275024,-0.28883418440818787,0.5744656920433044
1790958009885870800,1.139870849609375,0.35700100660324097,-0.239078089594841,0.534828782081604
1790958009895949800,1.14994970703125,0.35564786195755005,-0.28916096687316895,0.5449402928352356
1790958009906029000,1.160029052734375,0.3773219883441925,-0.3842256963253021,0.6434426307678223
1790958009916107000,1.17010693359375,0.394584059715271,-0.45516273379325867,0.7480220198631287
1790958009926185700,1.180185791015625,0.37638163566589355,-0.4405424892902374,0.8097959160804749
1790958009936265000,1.190264892578125,0.3304293155670166,-0.34485697746276855,0.8043670654296875
1790958009946344000,1.200343994140625,0.2864786386489868,-0.26560530066490173,0.7625466585159302
1790958009956423200,1.210423095703125,0.25873568654060364,-0.2291916459798813,0.7293639183044434
1790958009966502000,1.220501953125,0.22173292934894562,-0.21375755965709686,0.7509307265281677
1790958009976580900,1.230580810546875,0.18807163834571838,-0.17020049691200256,0.7688548564910889
1790958009986660000,1.24066015625,0.1742871105670929,-0.13758023083209991,0.777807891368866
1790958009996738800,1.25073876953125,0.16123522818088531,-0.10716719925403595,0.7639200091362
1790958010006818000,1.260818115234375,0.12185506522655487,-0.08083172887563705,0.72333824634552
1790958010016897000,1.27089697265625,0.046110767871141434,-0.014339790679514408,0.6906706094741821
1790958010026975700,1.280975830078125,-0.022776152938604355,0.018724951893091202,0.6732867956161499
1790958010037055000,1.291054931640625,-0.014612765051424503,0.025655828416347504,0.662004292011261
1790958010047133000,1.3011328125,0.03205673769116402,-0.03436170145869255,0.6706742644309998
1790958010057212000,1.3112119140625,0.05221393704414368,-0.07459807395935059,0.658491849899292
1790958010067291100,1.321291015625,0.008891762234270573,-0.011361044831573963,0.6008429527282715
1790958010077369900,1.331369873046875,-0.06113233044743538,0.08799749612808228,0.5379689335823059
1790958010087448800,1.34144873046875,-0.0827084630727768,0.1420719176530838,0.49617940187454224
1790958010097528000,1.351528076171875,-0.047502804547548294,0.120193250477314,0.4685323238372803
1790958010107606800,1.361606689453125,-0.005169728305190802,0.04049895703792572,0.44598519802093506
1790958010117686000,1.37168603515625,-0.0007185208378359675,0.002560895634815097,0.3794187009334564
1790958010127765000,1.381764892578125,-0.04742370918393135,0.016444753855466843,0.3006677031517029
1790958010137844000,1.391843994140625,-0.09500960260629654,-0.006848052144050598,0.2894214391708374
1790958010147923000,1.4019228515625,-0.1286860704421997,-0.05831417441368103,0.3492402732372284
1790958010158002000,1.412001953125,-0.11234118789434433,-0.03922063857316971,0.3460783064365387
1790958010168081200,1.4220810546875,-0.060735251754522324,-0.08636045455932617,0.2896435260772705
1790958010178159000,1.4321591796875,-0.017891649156808853,-0.1302402913570404,0.19738684594631195
1790958010188237800,1.44223779296875,-0.03491777181625366,-0.09241648018360138,0.12071815878152847
1790958010198317000,1.452317138671875,-0.08100217580795288,-0.04593180492520332,0.08567788451910019
1790958010208396000,1.46239599609375,-0.10843566060066223,-0.01840190961956978,0.07969802618026733
1790958010218474800,1.472474853515625,-0.1353279948234558,-0.021642711013555527,0.07827989012002945
1790958010228554000,1.482553955078125,-0.1690787672996521,-0.05633890628814697,0.10176844149827957
1790958010238633000,1.492633056640625,-0.20452117919921875,-0.0989830419421196,0.11637134850025177
1790958010248712000,1.5027119140625,-0.21979840099811554,-0.08556763082742691,0.10596158355474472
1790958010258791000,1.512791015625,-0.2149709016084671,-0.0666770339012146,0.11239524930715561
1790958010268870000,1.522869873046875,-0.1962323635816574,-0.06519711017608643,0.10816215723752975
1790958010278949000,1.53294921875,-0.18700210750102997,-0.06450362503528595,0.10450749844312668
1790958010289027800,1.54302783203125,-0.17352065443992615,-0.06030062586069107,0.10124965757131577
1790958010299106800,1.55310693359375,-0.17535504698753357,-0.06072966009378433,0.11847072094678879
1790958010309185000,1.56318505859375,-0.1914173662662506,-0.09163351356983185,0.1661767214536667
1790958010319264000,1.573263916015625,-0.184085413813591,-0.13307122886180878,0.2238682508468628
1790958010329342700,1.5833427734375,-0.1622096747159958,-0.170563742518425,0.2790795862674713
1790958010339422000,1.593421875,-0.15231762826442719,-0.17279280722141266,0.30774742364883423
1790958010349501000,1.6035009765625,-0.15791985392570496,-0.18031011521816254,0.3335694372653961
1790958010359581000,1.613580810546875,-0.17541415989398956,-0.17990611493587494,0.35613226890563965
1790958010369660000,1.623659912109375,-0.2142433226108551,-0.1726205050945282,0.3541935086250305
1790958010379739100,1.6337392578125,-0.2590949535369873,-0.177866131067276,0.3549990952014923
1790958010389817900,1.64381787109375,-0.32024911046028137,-0.1763923466205597,0.3459611237049103
1790958010399896800,1.653896728515625,-0.35355353355407715,-0.128605917096138,0.3267988860607147
1790958010409976000,1.66397607421875,-0.3408353626728058,-0.10562975704669952,0.3615363538265228
1790958010420055000,1.674054931640625,-0.29555070400238037,-0.14418433606624603,0.3910122215747833
1790958010430133800,1.6841337890625,-0.231191948056221,-0.17783817648887634,0.34997132420539856
1790958010440212000,1.6942119140625,-0.1962728351354599,-0.19957196712493896,0.2891244888305664
1790958010450291000,1.704291015625,-0.1911366730928421,-0.1654917597770691,0.22674739360809326
1790958010460370000,1.714369873046875,-0.19182881712913513,-0.03885019198060036,0.18497490882873535
1790958010470449000,1.724448974609375,-0.16288505494594574,0.0021427792962640524,0.08626298606395721
1790958010480528000,1.73452783203125,-0.12323085218667984,-0.07503749430179596,-0.04102173447608948
1790958010490607000,1.744607177734375,-0.1001572236418724,-0.19434045255184174,-0.07968497276306152
1790958010500685800,1.754685791015625,-0.06017518788576126,-0.1712721437215805,-0.19476628303527832
1790958010510764800,1.764764892578125,0.031211715191602707,-0.26153919100761414,-0.19980765879154205
1790958010520844000,1.774843994140625,0.15244174003601074,-0.3397791385650635,-0.28959667682647705
1790958010530923000,1.784923095703125,0.23664556443691254,-0.36125805974006653,-0.3675796091556549
1790958010541002000,1.795001953125,0.3091849982738495,-0.3228800594806671,-0.3441283404827118
1790958010551081000,1.8050810546875,0.31026437878608704,-0.3044368624687195,-0.2632633149623871
1790958010561159000,1.815158935546875,0.24751313030719757,-0.1781364530324936,-0.23412248492240906
1790958010571238100,1.825238037109375,0.1987897902727127,-0.1702447086572647,-0.1688918173313141
1790958010581316900,1.83531689453125,0.24143312871456146,-0.06931968778371811,-0.0925200805068016
1790958010591395800,1.845395751953125,0.24264273047447205,-0.012679842300713062,-0.0795438289642334
1790958010601475000,1.85547509765625,0.21959494054317474,0.05836104601621628,0.16400624811649323
1790958010611553800,1.8655537109375,0.08158008009195328,0.1389397829771042,0.37996330857276917
1790958010621633000,1.875633056640625,-0.1321961134672165,0.19589920341968536,0.4739300310611725
1790958010631712000,1.8857119140625,-0.15605272352695465,0.1425347775220871,0.44434070587158203
1790958010641791000,1.895791015625,-0.1972358375787735,0.11530821770429611,0.3779265284538269
1790958010651870000,1.905869873046875,-0.20968425273895264,0.10129093378782272,0.30792081356048584
1790958010661949000,1.915948974609375,-0.1770259141921997,0.11990270018577576,0.2801317870616913
1790958010672028000,1.92602783203125,-0.11758068948984146,0.10091862082481384,0.2158321589231491
1790958010682106000,1.936106201171875,-0.06456460803747177,0.07055379450321198,0.14497129619121552
1790958010692184800,1.946184814453125,-0.027935760095715523,0.055506933480501175,0.09685304015874863
1790958010702263800,1.956263916015625,-0.02648540399968624,0.053476009517908096,0.06497234106063843
1790958010712343000,1.966343017578125,-0.034685809165239334,0.04929457977414131,0.049076732248067856
1790958010722421800,1.976421875,-0.052570801228284836,0.07189176976680756,0.043718986213207245
1790958010732501000,1.9865009765625,-0.07845166325569153,0.0815124362707138,0.030349116772413254
1790958010742580000,1.996580078125,-0.07779226452112198,0.09325084835290909,0.018821092322468758
1790958010752659000,2.006658935546875,-0.08471062779426575,0.10658662766218185,-0.0033835461363196373
1790958010762738000,2.016738037109375,-0.08948247879743576,0.10738024860620499,-0.020738568156957626
1790958010772817000,2.02681689453125,-0.0939994677901268,0.08594686537981033,-0.021084245294332504
1790958010782896000,2.036896240234375,-0.07703512907028198,0.04325346276164055,-0.01375362928956747
1790958010792974800,2.046974853515625,-0.050945740193128586,-0.0031401331070810556,0.007418768014758825
1790958010803052800,2.057052734375,-0.036309003829956055,-0.05283312126994133,0.03885472193360329
1790958010813132000,2.067132080078125,-0.023061908781528473,-0.09465167671442032,0.06358030438423157
1790958010823211000,2.0772109375,-0.03298325091600418,-0.12905173003673553,0.04848790541291237
1790958010833290000,2.0872900390625,-0.057489924132823944,-0.16713573038578033,0.007288539316505194
1790958010843369000,2.097368896484375,-0.08395987749099731,-0.2505885362625122,-0.0316532664000988
1790958010853448000,2.107447998046875,-0.1197008341550827,-0.28493425250053406,-0.06847546249628067
1790958010863527000,2.11752685546875,-0.15481647849082947,-0.283740371465683,-0.10265553742647171
1790958010873606000,2.12760595703125,-0.14856603741645813,-0.24853098392486572,-0.09832364320755005
1790958010883684900,2.137684814453125,-0.09561999887228012,-0.292253702878952,-0.055566322058439255
1790958010893764000,2.14776416015625,-0.039019837975502014,-0.36046603322029114,-0.02237801067531109
1790958010903842800,2.1578427734375,0.06766266375780106,0.16106238961219788,0.22657935321331024
1790958010913921800,2.167921875,0.11967314034700394,-0.08869924396276474,0.4762434959411621
1790958010924000000,2.178,0.10280946642160416,0.01792520470917225,0.2698562443256378
1790958010934079000,2.188078857421875,0.002112419344484806,0.04908818379044533,-0.02713388204574585
1790958010944158000,2.198157958984375,0.017183247953653336,0.07335411012172699,-0.12395124137401581
1790958010954237000,2.20823681640625,0.031320106238126755,0.07193145155906677,-0.08954239636659622
1790958010964316000,2.21831591796875,0.020851219072937965,0.05097449943423271,-0.07795791327953339
1790958010974395100,2.22839501953125,0.03273744136095047,0.09793135523796082,-0.15021054446697235
1790958010984473900,2.238473876953125,0.05468135327100754,0.11051931977272034,-0.18419088423252106
1790958010994552800,2.248552734375,0.0644354447722435,0.09894788265228271,-0.16359318792819977
1790958011004632000,2.258632080078125,0.07717601209878922,0.08825822174549103,-0.10505983978509903
1790958011014710800,2.268710693359375,0.08359503000974655,0.07535573840141296,-0.0650852620601654
1790958011024790000,2.2787900390625,0.06571243703365326,0.05349598079919815,-0.045276932418346405
1790958011034869000,2.288868896484375,0.018258633092045784,0.039505597203969955,-0.023603063076734543
1790958011044947000,2.298947021484375,-0.017462613061070442,0.0417005755007267,-0.031792815774679184
1790958011055026200,2.309026123046875,-0.03645947575569153,0.07398927211761475,-0.025073660537600517
1790958011065105000,2.31910498046875,-0.01678483933210373,0.10982050746679306,0.07411231100559235
1790958011075183900,2.329183837890625,0.02515595406293869,0.09679471701383591,0.16232739388942719
1790958011085263000,2.33926318359375,0.03815457597374916,0.014397847466170788,0.1189386397600174
1790958011095341800,2.349341796875,0.06917427480220795,-0.034805651754140854,0.06499338150024414
1790958011105420800,2.3594208984375,0.10128108412027359,-0.07170374691486359,0.00049108691746369
1790958011115500000,2.3695,0.09089715033769608,-0.043163981288671494,-0.06358643621206284
1790958011125579000,2.3795791015625,0.007849933579564095,0.01227770559489727,-0.09430199861526489
1790958011135658000,2.389657958984375,-0.13099557161331177,0.0709117203950882,-0.08435429632663727
1790958011145737000,2.399737060546875,-0.20161008834838867,0.08013345301151276,-0.0498700886964798
1790958011155816000,2.40981591796875,-0.18546919524669647,0.07664364576339722,0.04706737771630287
1790958011165895000,2.41989501953125,-0.19924546778202057,0.04705006629228592,0.06289294362068176
1790958011175972900,2.429972900390625,-0.2689124345779419,0.04084410145878792,0.011245463974773884
1790958011186051800,2.4400517578125,-0.34755876660346985,0.08299422264099121,0.003493002150207758
1790958011196131000,2.450131103515625,-0.3655766546726227,0.1105470135807991,0.03145432844758034
1790958011206209800,2.460209716796875,-0.3383125364780426,0.09773082286119461,0.1078665480017662
1790958011216289000,2.4702890625,-0.2665664553642273,0.07339245826005936,0.2023259401321411
1790958011226368000,2.480367919921875,-0.19156277179718018,0.065005362033844,0.2312294989824295
1790958011236447000,2.490447021484375,-0.12695474922657013,0.03471377119421959,0.2206444889307022
1790958011246526000,2.50052587890625,-0.07817097008228302,0.026921097189188004,0.1810731142759323
1790958011256605000,2.51060498046875,-0.03645627945661545,0.0041617220267653465,0.1349538266658783
1790958011266684200,2.52068408203125,-0.005605155136436224,-0.025181518867611885,0.07057616859674454
1790958011276763000,2.530762939453125,-0.0023643544409424067,-0.02654079720377922,0.0016349145444110036
1790958011286840800,2.5408408203125,0.00310497940517962,-0.0414518341422081,-0.029031917452812195
1790958011296919800,2.550919921875,0.005075718741863966,-0.07156366854906082,-0.03328871354460716
1790958011306999000,2.5609990234375,-0.004740693140774965,-0.09101885557174683,-0.02785959467291832
1790958011317077800,2.571077880859375,0.005282646510750055,-0.06385195255279541,-0.05393274128437042
1790958011327157000,2.581156982421875,0.02931021898984909,-0.04013250395655632,-0.10474718362092972
1790958011337236000,2.591236083984375,0.022104769945144653,0.0060946443118155,-0.17996177077293396
1790958011347315000,2.60131494140625,0.03485891595482826,0.02154151163995266,-0.24180783331394196
1790958011357394000,2.611393798828125,0.08153773844242096,0.08075503259897232,-0.22228632867336273
1790958011367473000,2.621472900390625,0.13775040209293365,0.04204092547297478,-0.23047102987766266
1790958011377552000,2.6315517578125,0.213224396109581,0.03317340090870857,-0.23171685636043549
1790958011387630600,2.641630615234375,0.30444031953811646,0.031562719494104385,-0.22836047410964966
1790958011397709800,2.651709716796875,0.39741554856300354,0.021635254845023155,-0.1952083706855774
1790958011407787800,2.661787841796875,0.48424631357192993,0.028835110366344452,-0.14337074756622314
1790958011417866800,2.67186669921875,0.5367635488510132,0.03616732358932495,-0.13490642607212067
1790958011427945700,2.68194580078125,0.5844056606292725,0.05402808263897896,-0.15419062972068787
1790958011438024700,2.692024658203125,0.6544579863548279,0.04658427834510803,-0.20591428875923157
1790958011448104000,2.70210400390625,0.5268810987472534,-0.16739006340503693,-0.16394898295402527
1790958011458183000,2.712182861328125,0.043114978820085526,-0.27556926012039185,0.2689574360847473
1790958011468261600,2.72226171875,-0.18792596459388733,-0.17006973922252655,0.42126360535621643
1790958011478340900,2.7323408203125,-0.050034672021865845,-0.2158460021018982,0.29497039318084717
1790958011488419800,2.742419921875,0.017004549503326416,-0.0594465471804142,-0.009276589378714561
1790958011498498800,2.752498779296875,0.0062219430692493916,-0.04777071624994278,-0.08893706649541855
1790958011508577800,2.762577880859375,-0.0009925601771101356,-0.06004256382584572,-0.0011105381418019533
1790958011518656800,2.77265673828125,0.0025305356830358505,-0.07350244373083115,0.029825273901224136
1790958011528735000,2.78273486328125,-0.006876548286527395,-0.06986457109451294,-0.004561196081340313
1790958011538814000,2.79281396484375,-0.011058510281145573,-0.07398181408643723,-0.02544277533888817
1790958011548892700,2.802892578125,-0.009695237502455711,-0.078714519739151,-0.021351894363760948
1790958011558972000,2.812971923828125,-0.01047341339290142,-0.07705004513263702,-0.025829998776316643
1790958011569051000,2.82305078125,-0.010989533737301826,-0.08170498162508011,-0.03623869642615318
1790958011579129600,2.833129638671875,-0.008370847441256046,-0.08697404712438583,-0.034322552382946014
1790958011589208800,2.843208740234375,-0.009914948605000973,-0.08712051808834076,-0.02154151163995266
1790958011599287800,2.853287841796875,-0.017794709652662277,-0.08333536982536316,-0.010552509687840939
1790958011609366800,2.86336669921875,-0.008171909488737583,-0.08334682136774063,-0.00603525573387742
1790958011619445800,2.87344580078125,-0.014591192826628685,-0.08043811470270157,-0.008990298956632614
1790958011629524700,2.883524658203125,-0.016894826665520668,-0.07619889825582504,-0.002027997048571706
1790958011639603000,2.89360302734375,-0.006874950136989355,-0.07586467266082764,0.011818842962384224
1790958011649682000,2.903681884765625,-0.004911934491246939,-0.07107870280742645,0.006892793346196413
1790958011659760600,2.9137607421875,0.002353435382246971,-0.06850981712341309,0.0014583469601348042
1790958011669840000,2.92383984375,0.0007621967233717442,-0.060985855758190155,0.008530104532837868
1790958011679918800,2.9339189453125,0.00017603494052309543,-0.04881627485156059,-0.0033774208277463913
1790958011689997800,2.943997802734375,0.0003757720405701548,-0.042884085327386856,-0.0020178770646452904
1790958011700076800,2.954076904296875,-0.008056062273681164,-0.027587685734033585,-0.0014612764352932572
1790958011710155800,2.96415576171875,-0.004492220003157854,-0.017016800120472908,0.004627508576959372
1790958011720234800,2.97423486328125,0.004001665860414505,-0.007921839132905006,0.015605058521032333
1790958011730313700,2.984313720703125,-0.016386430710554123,-0.030662572011351585,0.046493466943502426
1790958011740393000,2.99439306640625,-0.053580403327941895,0.013320332393050194,0.07509768009185791
1790958011750472000,3.004471923828125,0.015978166833519936,-0.0002479403046891093,0.039202794432640076
1790958011760550000,3.0145498046875,-0.04288381710648537,0.013251889497041702,0.0502578429877758
1790958011770628900,3.02462890625,-0.06786160171031952,-0.024159397929906845,0.08632450550794601
1790958011780707800,3.034707763671875,-0.04685352370142937,-0.016801349818706512,0.09000605344772339
1790958011790786800,3.044786865234375,-0.04158153012394905,-0.01967596635222435,0.06675692647695541
1790958011800865800,3.05486572265625,-0.045463886111974716,-0.052250687032938004,0.06796200573444366
1790958011810944800,3.06494482421875,-0.01392806600779295,-0.1256767064332962,0.09555448591709137
1790958011821023700,3.075023681640625,0.038717303425073624,-0.08036887645721436,0.10158921033143997
1790958011831103000,3.08510302734375,0.06673801690340042,-0.017420269548892975,0.04716165363788605
1790958011841181700,3.095181640625,0.056718938052654266,0.05992405489087105,-0.04962987080216408
1790958011851261000,3.105260986328125,0.07145047932863235,0.08130843937397003,-0.16782495379447937
1790958011861340000,3.11533984375,0.0302034430205822,0.04375653713941574,-0.08018910884857178
1790958011871418600,3.125418701171875,0.012620720081031322,0.016320116817951202,0.05106770992279053
1790958011881496800,3.135496826171875,-0.011355718597769737,-0.006479470990598202,0.07183370739221573
1790958011891575800,3.145575927734375,-0.004887699615210295,-0.01007979828864336,0.027760257944464684
1790958011901654800,3.15565478515625,0.003180879633873701,-0.00845447089523077,0.010521883144974709
1790958011911733800,3.165733642578125,-0.00105328019708395,-0.030857514590024948,0.03333691880106926
1790958011921812700,3.175812744140625,0.0018876485992223024,-0.0509454719722271,0.0311691053211689
1790958011931892000,3.18589208984375,0.0017915084026753902,-0.04422498494386673,0.01025769766420126
1790958011941971000,3.195970947265625,-0.011284345760941505,-0.04898565262556076,-0.0062483083456754684
1790958011952049700,3.206049560546875,-0.02100781351327896,-0.04791106656193733,-0.02491147443652153
1790958011962129000,3.21612890625,-0.034009899944067,-0.04541488736867905,-0.022554844617843628
1790958011972207900,3.226207763671875,-0.04117166996002197,-0.0507233664393425,-0.005750829819589853
1790958011982286800,3.236286865234375,-0.04074662923812866,-0.05485685542225838,0.0016106797847896814
1790958011992364800,3.24636474609375,-0.03688850998878479,-0.05777967721223831,0.0012341088149696589
1790958012002443800,3.25644384765625,-0.030248982831835747,-0.05678977817296982,0.0020655477419495583
1790958012012522800,3.266522705078125,-0.018076205626130104,-0.05866331234574318,0.005034173373132944
1790958012022601700,3.276601806640625,-0.017421068623661995,-0.0521223247051239,0.0012002866715192795
1790958012032680700,3.2866806640625,-0.0222104974091053,-0.046117428690195084,-0.011170895770192146
1790958012042760000,3.296760009765625,-0.024330640211701393,-0.03567570447921753,-0.015719307586550713
1790958012052839000,3.3068388671875,-0.027404192835092545,-0.02677462249994278,-0.015836486592888832
1790958012062917600,3.316917724609375,-0.025542911142110825,-0.012263057753443718,-0.017610685899853706
1790958012072996900,3.326996826171875,-0.024582307785749435,0.0024493092205375433,-0.01540798507630825
1790958012083075800,3.337075927734375,-0.02762177400290966,0.01859365776181221,-0.00996315199881792
1790958012093154800,3.34715478515625,-0.030609840527176857,0.037519145756959915,-0.0041529336012899876
1790958012103233800,3.35723388671875,-0.02617647685110569,0.043787162750959396,-0.0024229439441114664
1790958012113311700,3.367311767578125,-0.023619575425982475,0.05241420492529869,-0.005788912996649742
1790958012123391000,3.377390869140625,-0.020976388826966286,0.05697433650493622,-0.009438775479793549
1790958012133469700,3.3874697265625,-0.016517989337444305,0.0622284859418869,-0.00830000825226307
1790958012143548700,3.397548583984375,-0.015593074262142181,0.06410202383995056,-0.007096791639924049
1790958012153628000,3.4076279296875,-0.00881133507937193,0.0671289712190628,-0.0009206547983922064
1790958012163707000,3.417706787109375,-0.007382016163319349,0.06936602294445038,0.01188249234110117
1790958012173785900,3.427785888671875,-0.006700779777020216,0.06932447850704193,0.020018981769680977
1790958012183864800,3.43786474609375,-0.009937585331499577,0.07298313081264496,0.022643260657787323
1790958012193943800,3.44794384765625,-0.005073055624961853,0.07709451764822006,0.02744840271770954
1790958012204022800,3.458022705078125,-0.006364422384649515,0.07432669401168823,0.028306739404797554
1790958012214101800,3.468101806640625,-0.01065131276845932,0.06984299421310425,0.02762150764465332
1790958012224180700,3.4781806640625,-0.013785053975880146,0.06770634651184082,0.019340675324201584
1790958012234259000,3.488259033203125,-0.008466188795864582,0.05958077311515808,0.014092116616666317
1790958012244338000,3.498337890625,-0.012296613305807114,0.04957474395632744,0.00920068845152855
1790958012254416600,3.508416748046875,-0.009897371754050255,0.03947789967060089,0.006808104924857616
1790958012264495900,3.518495849609375,-0.010399910621345043,0.02280917577445507,0.01284868735820055
1790958012274574800,3.528574951171875,-0.003817108692601323,0.013803962618112564,0.021518342196941376
1790958012284653800,3.53865380859375,-0.008579906076192856,0.004067179746925831,0.02203472889959812
1790958012294732800,3.54873291015625,-0.015745939686894417,0.004237888380885124,0.019464777782559395
1790958012304811800,3.558811767578125,-0.021573202684521675,-0.0018077536951750517,0.013785586692392826
1790958012314890800,3.568890869140625,-0.03518887981772423,0.0008910936885513365,0.01002147514373064
1790958012324969700,3.5789697265625,-0.04095888510346413,-0.0008705873624421656,0.0007776430575177073
1790958012335047700,3.589047607421875,-0.038727421313524246,-0.007256847806274891,-0.003546265186741948
1790958012345127000,3.599126953125,-0.03447408601641655,-0.012425243854522705,-0.001845038030296564
1790958012355206000,3.609205810546875,-0.030664967373013496,-0.02214338444173336,0.004545749630779028
1790958012365284000,3.6192841796875,-0.03455717861652374,-0.01980273239314556,0.0059835901483893394
1790958012375363300,3.62936328125,-0.03490632027387619,-0.01870790682733059,0.0027510453946888447
1790958012385442300,3.6394423828125,-0.04253867268562317,-0.010999388061463833,-0.012684369459748268
1790958012395521300,3.649521240234375,-0.04080575332045555,-0.00788668543100357,-0.01943335309624672
1790958012405600300,3.659600341796875,-0.04404176026582718,0.000966727442573756,-0.017537182196974754
1790958012415679200,3.66967919921875,-0.05038115009665489,0.015301192179322243,-0.00818096473813057
1790958012425758500,3.679758544921875,-0.0638522133231163,0.037275731563568115,-0.00845633540302515
1790958012435837200,3.689837158203125,-0.07714538276195526,0.0673564001917839,-0.020306337624788284
1790958012445916400,3.69991650390625,-0.09014960378408432,0.08323949575424194,-0.042276084423065186
1790958012455994400,3.709994384765625,-0.08795089274644852,0.08793678134679794,-0.05245335400104523
1790958012466073300,3.7200732421875,-0.08987955749034882,0.08202189952135086,-0.04975210875272751
1790958012476152300,3.73015234375,-0.08870430290699005,0.08150790631771088,-0.03789971023797989
1790958012486231300,3.740231201171875,-0.08170764893293381,0.07232852280139923,-0.049978744238615036
1790958012496310300,3.750310302734375,-0.07734458893537521,0.07641913741827011,-0.05192897841334343
1790958012506389500,3.760389404296875,-0.07304278761148453,0.07113196700811386,-0.05781110003590584
1790958012516468200,3.77046826171875,-0.07729186117649078,0.05795251578092575,-0.03592444583773613
1790958012526547500,3.78054736328125,-0.06674254685640335,0.03864086791872978,-0.013741645030677319
1790958012536626400,3.79062646484375,-0.0485592782497406,0.02509150467813015,0.0008042746339924634
1790958012546705200,3.800705078125,-0.04086194559931755,0.03286314010620117,0.005623264703899622
1790958012556784400,3.810784423828125,-0.03706614300608635,0.0399351641535759,-0.0011994877131655812
1790958012566862300,3.8208623046875,-0.0370112806558609,0.05988011136651039,-0.027894748374819756
1790958012576941300,3.83094140625,-0.048720136284828186,0.06539791822433472,-0.06664161384105682
1790958012587020300,3.841020263671875,-0.06944672018289566,0.049801379442214966,-0.09231847524642944
1790958012597099300,3.851099365234375,-0.08884544670581818,0.01798805594444275,-0.0819939374923706
1790958012607178200,3.86117822265625,-0.1074654757976532,-0.01197783276438713,-0.053160157054662704
1790958012617257500,3.871257568359375,-0.10558021813631058,-0.016809340566396713,-0.03347913175821304
1790958012627336200,3.881336181640625,-0.07759252935647964,-0.020379839465022087,-0.02497432567179203
1790958012637415400,3.89141552734375,-0.05266081541776657,-0.008508533239364624,-0.023908793926239014
1790958012647494400,3.901494384765625,-0.03796043246984482,0.004899683874100447,-0.026265691965818405
1790958012657573000,3.911572998046875,-0.03356008976697922,0.019463179633021355,-0.025358885526657104
1790958012667652400,3.92165234375,-0.022460835054516792,0.020349746569991112,-0.032459672540426254
1790958012677731300,3.9317314453125,-0.010330667719244957,0.014247379265725613,-0.02148212306201458
1790958012687809300,3.941809326171875,-0.0008660599705763161,0.011721637099981308,-0.005890646018087864
1790958012697888300,3.95188818359375,0.008820922113955021,0.008084291592240334,0.0013078784104436636
1790958012707967200,3.96196728515625,0.033481527119874954,0.008467254228889942,-0.007959389127790928
1790958012718046500,3.97204638671875,0.03621206805109978,0.005278651602566242,-0.002286856295540929
1790958012728125400,3.98212548828125,0.03536944091320038,-0.004382231738418341,0.010912569239735603
1790958012738204200,3.9922041015625,0.027363980188965797,-0.009592173621058464,0.02773522399365902
1790958012748283400,4.002283447265625,0.009823868982493877,-0.01010749489068985,0.045219942927360535
1790958012758362400,4.0123623046875,0.007363373879343271,-0.008579373359680176,0.04321351647377014
1790958012768441000,4.022441162109375,0.011607387103140354,-0.000009054747351910919,0.03548422455787659
1790958012778520300,4.032520263671875,0.013657488860189915,0.008843558840453625,0.010684868320822716
1790958012788599300,4.042599365234375,0.03339603915810585,0.004539890680462122,-0.01972843147814274
1790958012798677200,4.05267724609375,0.018871160224080086,0.010692325420677662,-0.006419549696147442
1790958012808756200,4.062756103515625,0.016740897670388222,-0.005197691265493631,0.0383809432387352
1790958012818835200,4.072835205078125,0.014368019998073578,-0.015488678589463234,0.052795037627220154
1790958012828914400,4.08291455078125,0.021395303308963776,-0.027730431407690048,0.04787750914692879
1790958012838993400,4.092993408203125,0.028056668117642403,-0.0307517871260643,0.05112496763467789
1790958012849072000,4.103072021484375,0.028018850833177567,-0.023840351030230522,0.05355830118060112
1790958012859151400,4.1131513671875,0.007420365698635578,-0.009241701103746891,0.04326944425702095
1790958012869230300,4.123230224609375,0.008330101147294044,0.0000250337143370416,0.017365673556923866
1790958012879309300,4.133309326171875,0.019306054338812828,0.005035505164414644,-0.00481419637799263
1790958012889388300,4.14338818359375,0.01985599659383297,0.0037233654875308275,-0.009888051077723503
1790958012899467300,4.15346728515625,-0.010941597633063793,0.007358047645539045,0.00012410330236889422
1790958012909545500,4.16354541015625,-0.009485913440585136,-0.0003581951605156064,-0.00012490226072259247
1790958012919624400,4.17362451171875,-0.0015931029338389635,-0.003034405643120408,0.0038535939529538155
1790958012929703200,4.183703125,-0.00047377636656165123,-0.004277835600078106,0.007812383119016886
1790958012939782400,4.193782470703125,0.007269897032529116,-0.001323857344686985,0.009257947094738483
1790958012949861400,4.203861328125,0.008714129216969013,0.002543052425608039,0.007543670013546944
1790958012959940000,4.213940185546875,0.004717523697763681,0.002843989757820964,-0.0013409015955403447
1790958012970019300,4.224019287109375,0.0007062703371047974,0.009399893693625927,-0.001169127761386335
1790958012980098300,4.234098388671875,-0.005511411931365728,0.01695900969207287,-0.0017382452497258782
1790958012990177300,4.24417724609375,-0.012912869453430176,0.0232283566147089,-0.005772401578724384
1790958013000256300,4.25425634765625,-0.01685674488544464,0.0345798134803772,-0.0021044297609478235
1790958013010335200,4.264335205078125,-0.015558985993266106,0.021564681082963943,-0.0009890979854390025
1790958013020413400,4.274413330078125,-0.00987340323626995,0.022833943367004395,0.008511729538440704
1790958013030492400,4.284492431640625,-0.012325641699135303,0.029377330094575882,0.019759323447942734
1790958013040571100,4.294571044921875,-0.01643063873052597,0.03719956800341606,0.0144095653668046
1790958013050650400,4.304650390625,-0.015324894338846207,0.03280321881175041,0.004311923868954182
1790958013060729300,4.314729248046875,-0.025975940749049187,0.029579464346170425,0.011774101294577122
1790958013070808300,4.324808349609375,-0.02918398380279541,0.027150927111506462,0.005318066570907831
1790958013080887300,4.33488720703125,-0.03148016333580017,0.0255730040371418,-0.008168980479240417
1790958013090966300,4.34496630859375,-0.03362027928233147,0.028072914108633995,-0.01906690187752247
1790958013101045200,4.355045166015625,-0.03574015572667122,0.021096229553222656,-0.028146149590611458
1790958013111124200,4.365124267578125,-0.0362783782184124,0.015732357278466225,-0.027114974334836006
1790958013121202200,4.3752021484375,-0.03554627671837807,0.01187876332551241,-0.04056766629219055
1790958013131281400,4.385281494140625,-0.0327393040060997,0.002416286151856184,-0.045227400958538055
1790958013141360400,4.3953603515625,-0.03482535853981972,-0.008105862885713577,-0.035768117755651474
1790958013151439400,4.405439453125,-0.03929121419787407,-0.025286447256803513,-0.028653748333454132
1790958013161518300,4.415518310546875,-0.032275646924972534,-0.04147526994347572,-0.015960324555635452
1790958013171597300,4.425597412109375,-0.029623406007885933,-0.04555017501115799,-0.014345383271574974
1790958013181676300,4.43567626953125,-0.03338831663131714,-0.04474829509854317,-0.02040114626288414
1790958013191755300,4.44575537109375,-0.04224332794547081,-0.032832514494657516,-0.026095250621438026
1790958013201834200,4.455834228515625,-0.047328900545835495,-0.01883680373430252,-0.0394081249833107
1790958013211913500,4.46591357421875,-0.056225989013910294,-0.005616340320557356,-0.054790545254945755
1790958013221992200,4.4759921875,-0.07552378624677658,-0.01703810505568981,-0.06118878722190857
1790958013232071400,4.486071533203125,-0.0914367064833641,-0.021889586001634598,-0.051188353449106216
1790958013242149400,4.4961494140625,-0.08242563158273697,-0.04096687585115433,-0.027405258268117905
1790958013252228400,4.506228271484375,-0.06785760819911957,-0.0351388119161129,-0.028071582317352295
1790958013262307300,4.516307373046875,-0.07025818526744843,-0.04783623293042183,-0.03455611318349838
1790958013272386300,4.52638623046875,-0.07644417136907578,-0.05113908275961876,-0.036726322025060654
1790958013282465300,4.53646533203125,-0.08719801902770996,-0.0728829950094223,-0.03551138937473297
1790958013292544300,4.546544189453125,-0.08513113856315613,-0.07233545184135437,-0.034569427371025085
1790958013302623200,4.556623291015625,-0.08708883076906204,-0.07348460704088211,-0.044257208704948425
1790958013312702500,4.566702392578125,-0.09222899377346039,-0.09523863345384598,-0.04767005145549774
1790958013322781400,4.576781494140625,-0.09739340096712112,-0.05505526065826416,-0.04562794044613838
1790958013332860200,4.586860107421875,-0.0916135385632515,-0.08274334669113159,-0.05596393346786499
1790958013342938400,4.5969384765625,-0.07825858891010284,-0.076071597635746,-0.04078817740082741
1790958013353017300,4.607017333984375,-0.07949242740869522,-0.0654517114162445,-0.026018816977739334
1790958013363096600,4.6170966796875,-0.08679960668087006,-0.05217532068490982,-0.02991395629942417
1790958013373175600,4.627175537109375,-0.08773943781852722,-0.025414546951651573,-0.031002391129732132
1790958013383254500,4.637254638671875,-0.07949695736169815,0.011632154695689678,-0.03735829144716263
1790958013393333800,4.647333740234375,-0.058648400008678436,0.024094417691230774,-0.04199458658695221
1790958013403412500,4.65741259765625,-0.03512603044509888,0.05305496230721474,-0.028611671179533005
1790958013413491500,4.667491455078125,-0.030364563688635826,0.11412577331066132,-0.04575124382972717
1790958013423570700,4.67757080078125,-0.0067758806981146336,0.11534097045660019,-0.08757565170526505
1790958013433649700,4.687649658203125,-0.004486627411097288,0.1129734218120575,-0.04988100752234459
1790958013443728400,4.697728271484375,0.0246701929718256,0.0976858139038086,-0.004818723537027836
1790958013453806600,4.707806640625,0.0506511926651001,0.09202659875154495,-0.0007829693495295942
1790958013463885600,4.717885498046875,0.06781606376171112,0.06658861041069031,-0.0051686628721654415
1790958013473964500,4.727964599609375,0.0839790552854538,0.07396024465560913,0.014565360732376575
1790958013484043500,4.73804345703125,0.07385238260030746,0.09441571682691574,0.01703091524541378
1790958013494122500,4.74812255859375,0.03758678957819939,0.08104025572538376,0.005864547099918127
1790958013504201700,4.75820166015625,0.04616989195346832,0.05483555048704147,0.03693085163831711
1790958013514280400,4.768280517578125,0.052743371576070786,0.031869783997535706,0.06211823225021362
1790958013524359400,4.778359375,0.051003795117139816,0.03522350266575813,0.0519939586520195
1790958013534438700,4.788438720703125,0.043434027582407,0.036799028515815735,0.034338533878326416
1790958013544517600,4.798517578125,0.03792314603924751,0.0379636287689209,0.02448430471122265
1790958013554595600,4.808595703125,0.03404398635029793,0.030167756602168083,0.027966121211647987
1790958013564674600,4.818674560546875,0.03820570930838585,0.013718741945922375,0.03855032101273537
1790958013574753500,4.82875341796875,0.03297366201877594,0.00018482338055036962,0.02847292087972164
1790958013584832800,4.838832763671875,0.032046351581811905,-0.015624766238033772,0.010823086835443974
1790958013594911500,4.848911376953125,0.018063422292470932,-0.029984263703227043,-0.011577027849853039
1790958013604990500,4.858990478515625,-0.002275138394907117,-0.041555434465408325,-0.022994264960289
1790958013615069700,4.869069580078125,-0.015218634158372879,-0.06042339652776718,-0.020110594108700752
1790958013625148400,4.8791484375,-0.025721607729792595,-0.050943873822689056,-0.01788073033094406
1790958013635227600,4.8892275390625,-0.024752750992774963,-0.04746072739362717,-0.027580494061112404
1790958013645306600,4.899306640625,-0.023314377292990685,-0.05264217406511307,-0.02110927924513817
1790958013655385600,4.909385498046875,-0.02280384860932827,-0.04939737543463707,-0.018511898815631866
1790958013665463600,4.919463623046875,-0.024990571662783623,-0.04945037513971329,-0.017402958124876022
1790958013675542500,4.92954248046875,-0.027224430814385414,-0.049909502267837524,-0.01587750017642975
1790958013685621500,4.93962158203125,-0.02652828022837639,-0.048582982271909714,-0.01992683671414852
1790958013695700700,4.94970068359375,-0.0284058079123497,-0.04584551975131035,-0.012268916703760624
1790958013705779500,4.959779541015625,-0.03074193373322487,-0.050281547009944916,-0.012269715778529644
1790958013715858400,4.9698583984375,-0.041374605149030685,-0.05146319046616554,-0.011329620145261288
1790958013725937700,4.979937744140625,-0.042565036565065384,-0.04941894859075546,-0.00996128749102354
1790958013736016400,4.990016357421875,-0.038362570106983185,-0.046727024018764496,-0.0011920308461412787
1790958013746095600,5.000095703125,-0.03680168837308884,-0.04169684648513794,-0.001939580193720758
1790958013756174600,5.010174560546875,-0.03033100813627243,-0.034986481070518494,-0.0007153250626288354
1790958013766253600,5.020253662109375,-0.02863723784685135,-0.02678154595196247,-0.000993891735561192
1790958013776331800,5.030331787109375,-0.02672242373228073,-0.02045414224267006,-0.004005394410341978
1790958013786410500,5.040410400390625,-0.027780763804912567,-0.012826049700379372,-0.006164685357362032
1790958013796489500,5.050489501953125,-0.036366529762744904,-0.009156480431556702,-0.019716447219252586
1790958013806568700,5.060568603515625,-0.0393625870347023,-0.00714712543413043,-0.01721786893904209
1790958013816647400,5.0706474609375,-0.04201136529445648,-0.004822718445211649,-0.007899468764662743
1790958013826726700,5.0807265625,-0.04002225026488304,0.0006852313526906073,-0.011582886800169945
1790958013836805600,5.0908056640625,-0.03910639137029648,0.0035896748304367065,-0.012686233967542648
1790958013846884600,5.100884521484375,-0.034806184470653534,0.005803560372442007,-0.004470914602279663
1790958013856963600,5.110963623046875,-0.03429858386516571,0.012985839508473873,-0.009036904200911522
1790958013867042600,5.12104248046875,-0.0303973201662302,0.013462278991937637,-0.008011853322386742
1790958013877121500,5.13112158203125,-0.02828037366271019,0.019641345366835594,-0.004315652418881655
1790958013887199700,5.14119970703125,-0.026429742574691772,0.02094256691634655,-0.002257561543956399
1790958013897278500,5.151278564453125,-0.022408902645111084,0.024715732783079147,0.0001424791116733104
1790958013907357400,5.161357421875,-0.019601929932832718,0.023962590843439102,-0.0035422705113887787
1790958013917436700,5.171436767578125,-0.013916081748902798,0.02135455794632435,-0.006770288106054068
1790958013927515400,5.181515380859375,-0.019755061715841293,0.022713301703333855,-0.01007713470607996
1790958013937594600,5.1915947265625,-0.017480457201600075,0.02413729391992092,-0.007400125730782747
1790958013947673600,5.201673583984375,-0.015603194013237953,0.020493824034929276,-0.002912166528403759
1790958013957752600,5.211752685546875,-0.013401559554040432,0.01834491826593876,-0.005874134600162506
1790958013967831600,5.22183154296875,-0.008980978280305862,0.018442124128341675,-0.0036458675749599934
1790958013977910500,5.23191064453125,-0.005240035708993673,0.02015533484518528,-0.00437956815585494
1790958013987988500,5.241988525390625,-0.009005745872855186,0.020320983603596687,-0.00017230652156285942
1790958013998067700,5.252067626953125,-0.01882908120751381,0.02155456133186817,0.0057194046676158905
1790958014008146400,5.262146484375,-0.037814222276210785,0.007210508454591036,0.020674917846918106
1790958014018225700,5.2722255859375,-0.04896194860339165,0.030054038390517235,0.018969163298606873
1790958014028304600,5.2823046875,-0.04279380291700363,0.026859311386942863,-0.016957677900791168
1790958014038383400,5.29238330078125,-0.007159908767789602,0.0049521480686962605,-0.0004293015517760068
1790958014048462600,5.302462646484375,0.005426723510026932,-0.00797137338668108,0.023665914312005043
1790958014058541600,5.31254150390625,0.019695406779646873,-0.005560946650803089,-0.0003371562052052468
1790958014068620800,5.322620849609375,0.01841815561056137,0.0024668860714882612,-0.015835687518119812
1790958014078699500,5.332699462890625,0.02004028670489788,0.0014421016676351428,-0.015692943707108498
1790958014088778500,5.342778564453125,0.01648310199379921,-0.005340170580893755,-0.00920521654188633
1790958014098856400,5.3528564453125,0.013161075301468372,-0.010787666775286198,0.0030386666767299175
1790958014108935700,5.362935791015625,0.009758621454238892,-0.009860886260867119,0.003454386256635189
1790958014119014400,5.373014404296875,-0.000990962260402739,-0.002823483431711793,0.013538178987801075
1790958014129093600,5.38309375,-0.002956375014036894,0.002287655370309949,0.015424496494233608
1790958014139172600,5.393172607421875,-0.005243231542408466,0.005976133514195681,0.006423810962587595
1790958014149251600,5.40325146484375,-0.0006450176006183028,0.004256796557456255,0.013186109252274036
1790958014159330600,5.41333056640625,0.003984089009463787,-0.000931307440623641,0.018678080290555954
1790958014169409500,5.423409423828125,-0.000054861116950633004,0.010366354137659073,0.016510533168911934
1790958014179488800,5.43348876953125,0.005306348204612732,0.016651414334774017,0.007979363203048706
1790958014189567500,5.4435673828125,0.011257980950176716,0.02118757739663124,0.011031878180801868
1790958014199645400,5.4536455078125,0.011923771351575851,0.02135482244193554,0.016619456931948662
1790958014209724700,5.463724609375,0.012557070702314377,0.03135845437645912,0.01666286587715149
1790958014219803600,5.4738037109375,0.005096757784485817,0.05170926824212074,0.007865113206207752
1790958014229882400,5.48388232421875,0.004553472623229027,0.049257293343544006,-0.00871945545077324
1790958014239961600,5.493961669921875,0.01128061767667532,0.044370926916599274,0.005152684170752764
1790958014250040600,5.50404052734375,0.010494452901184559,0.05329384654760361,0.02195936068892479
1790958014260119600,5.51411962890625,0.013220197521150112,0.05856264382600784,0.016806943342089653
1790958014270198500,5.524198486328125,0.013335512951016426,0.05222298949956894,0.013880128972232342
1790958014280277500,5.534277587890625,0.0025390577502548695,0.05270315706729889,0.011410313658416271
1790958014290356700,5.544356689453125,-0.00436065997928381,0.0474892221391201,0.018704712390899658
1790958014300435500,5.554435546875,-0.007377754896879196,0.0399993471801281,0.014010624028742313
1790958014310513400,5.564513427734375,-0.007510913070291281,0.03259282931685448,0.0049529471434652805
1790958014320592600,5.574592529296875,-0.013102752156555653,0.024885907769203186,0.009761816821992397
1790958014330671600,5.584671630859375,-0.01775103434920311,0.030824225395917892,0.012022840790450573
1790958014340750300,5.594750244140625,-0.012083826586604118,0.02479908987879753,0.010834272019565105
1790958014350829600,5.60482958984375,0.001930525409989059,0.021281853318214417,0.012328837998211384
1790958014360908500,5.614908447265625,0.009272327646613121,0.024415859952569008,0.015979498624801636
1790958014370987000,5.624987060546875,0.011690744198858738,0.027876105159521103,0.014401842840015888
1790958014381066000,5.63506591796875,0.020680245012044907,0.024170849472284317,0.008408132009208202
1790958014391145000,5.64514501953125,0.02406885102391243,0.023058447986841202,-0.00407383730635047
1790958014401224000,5.655223876953125,0.02636050060391426,0.01624022237956524,-0.0070888022892177105
1790958014411302100,5.66530224609375,0.01829618215560913,0.0010671286145225167,-0.009209743700921535
1790958014421381000,5.675381103515625,0.006734068971127272,-0.003718571737408638,-0.008388424292206764
1790958014431459800,5.6854599609375,-0.012684902176260948,-0.012252405285835266,-0.01170406024903059
1790958014441539000,5.6955390625,-0.016922257840633392,-0.013077985495328903,-0.01685434766113758
1790958014451618000,5.7056181640625,-0.02925216034054756,-0.019115637987852097,-0.014169082045555115
1790958014461696800,5.71569677734375,-0.03900092840194702,-0.02292608842253685,-0.011200723238289356
1790958014471776000,5.72577587890625,-0.06773830205202103,-0.027888089418411255,-0.01583169400691986
1790958014481855000,5.73585498046875,-0.08487441390752792,-0.042812712490558624,-0.025441709905862808
1790958014491934000,5.745933837890625,-0.11589091271162033,-0.06927654147148132,-0.034146253019571304
1790958014502013000,5.756012939453125,-0.1363210827112198,-0.08857060968875885,-0.02743695117533207
1790958014512092000,5.766091796875,-0.13765878975391388,-0.10327126085758209,-0.02690192125737667
1790958014522170000,5.776170166015625,-0.15028271079063416,-0.12441063672304153,-0.018920959904789925
1790958014532249000,5.7862490234375,-0.14187058806419373,-0.14810983836650848,-0.02155456133186817
1790958014542327800,5.796327880859375,-0.09948530793190002,-0.1426950991153717,-0.013656689785420895
1790958014552407000,5.806406982421875,-0.07337994128465652,-0.1379200518131256,-0.0056954361498355865
1790958014562486000,5.816486083984375,-0.06819183379411697,-0.11406105756759644,-0.0005185174522921443
1790958014572565000,5.82656494140625,-0.05799299478530884,-0.09278639405965805,-0.004546015989035368
1790958014582644000,5.83664404296875,-0.04525882378220558,-0.06494118273258209,-0.010996724478900433
1790958014592723000,5.846722900390625,-0.03462029621005058,-0.04439356178045273,-0.014682539738714695
1790958014602802000,5.856802001953125,-0.03266366943717003,-0.03742939606308937,-0.023690415546298027
1790958014612881000,5.866880859375,-0.028742698952555656,-0.03170280158519745,-0.025359950959682465
1790958014622958800,5.876958740234375,-0.014455371536314487,-0.0341971181333065,-0.010006827302277088
1790958014633038000,5.8870380859375,-0.002234658459201455,-0.02852272056043148,0.012149873189628124
1790958014643117000,5.897116943359375,0.0022687469609081745,-0.03436702862381935,0.021134579554200172
1790958014653196000,5.907196044921875,-0.008531169965863228,-0.0360858328640461,0.017846375703811646
1790958014663275000,5.91727490234375,-0.015978433191776276,-0.05465179309248924,0.0031902005430310965
1790958014673354000,5.92735400390625,-0.039509858936071396,-0.0752904936671257,0.016023973003029823
1790958014683433000,5.937432861328125,-0.04074476659297943,-0.07436265051364899,0.011808455921709538
1790958014693512000,5.947511962890625,-0.04454909265041351,-0.06452466547489166,0.02022590860724449
1790958014703591000,5.9575908203125,-0.036203011870384216,-0.04021186754107475,0.005198223982006311
1790958014713670000,5.967669921875,-0.03840384632349014,-0.023094134405255318,-0.0016399745363742113
1790958014723748000,5.977748046875,-0.05343472957611084,-0.030916903167963028,-0.018279938027262688
1790958014733826800,5.987826904296875,-0.07303053140640259,-0.042102180421352386,-0.025547970086336136
1790958014743906000,5.997906005859375,-0.07599463313817978,-0.05049246922135353,-0.023072296753525734
1790958014753985000,6.007985107421875,-0.07141639292240143,-0.06580138206481934,-0.03393053635954857
1790958014764064000,6.01806396484375,-0.06078318879008293,-0.0691164880990982,-0.03527596592903137
1790958014774143000,6.02814306640625,-0.04189631715416908,-0.05770457535982132,-0.029675602912902832
1790958014784222000,6.038221923828125,-0.044925395399332047,-0.07682473957538605,-0.028239892795681953
1790958014794301000,6.048301025390625,-0.04364654794335365,-0.1435776650905609,-0.05356362462043762
1790958014804380000,6.0583798828125,-0.032474584877491,-0.18411578238010406,-0.06205351650714874
1790958014814459100,6.068459228515625,-0.057672083377838135,-0.20612733066082,-0.07039959728717804
1790958014824538000,6.0785380859375,-0.06353530287742615,-0.16909608244895935,-0.05843561142683029
1790958014834616000,6.088615966796875,-0.06807252764701843,-0.1297992765903473,-0.042400721460580826
1790958014844695000,6.098695068359375,-0.05387468263506889,-0.07270296663045883,-0.02419162169098854
1790958014854774000,6.10877392578125,-0.03298777714371681,-0.04441593214869499,-0.008568720892071724
1790958014864853000,6.11885302734375,-0.02863350883126259,-0.029445240274071693,-0.01076982356607914
1790958014874932000,6.128931884765625,-0.04336771368980408,-0.037759363651275635,-0.014179734513163567
1790958014885011000,6.139010986328125,-0.045760829001665115,-0.022223014384508133,-0.0029401297215372324
1790958014895090000,6.14908984375,-0.0323542095720768,-0.00939003936946392,-0.002046639332547784
1790958014905169000,6.1591689453125,-0.01931137964129448,0.011450527235865593,-0.002239984693005681
1790958014915247900,6.169247802734375,-0.01872255466878414,0.0356978103518486,-0.005244829226285219
1790958014925327000,6.1793271484375,-0.02653440460562706,0.023381488397717476,-0.020983045920729637
1790958014935405000,6.189405029296875,-0.04084969684481621,0.015968047082424164,-0.014210627414286137
1790958014945484000,6.199484130859375,-0.05053587630391121,-0.02153272181749344,-0.0035931370221078396
1790958014955563000,6.20956298828125,-0.046125415712594986,-0.03075791336596012,0.0023070964962244034
1790958014965642000,6.21964208984375,-0.03129161149263382,-0.05584568902850151,-0.013501428067684174
1790958014975721000,6.229720947265625,-0.03683364763855934,-0.08338703215122223,-0.03219282254576683
1790958014985800000,6.239800048828125,-0.04490382596850395,-0.10258682817220688,-0.04956036061048508
1790958014995879000,6.24987890625,-0.04369581490755081,-0.11246342957019806,-0.08095290511846542
1790958015005958100,6.259958251953125,-0.038604382425546646,-0.11434122174978256,-0.088055819272995
1790958015016036900,6.270036865234375,-0.0363934263586998,-0.13483265042304993,-0.08738097548484802
1790958015026115800,6.28011572265625,-0.04115888848900795,-0.1338411569595337,-0.07879015058279037
1790958015036194000,6.290194091796875,-0.030072415247559547,-0.13206402957439423,-0.05387148633599281
1790958015046273000,6.30027294921875,-0.02726224809885025,-0.13604173064231873,-0.03940519690513611
1790958015056352000,6.31035205078125,-0.03067721799015999,-0.11693833768367767,-0.03166551887989044
1790958015066431000,6.320430908203125,-0.028861476108431816,-0.11136060953140259,-0.050213903188705444
1790958015076510000,6.330510009765625,-0.027402596548199654,-0.10171996802091599,-0.057984475046396255
1790958015086589200,6.340589111328125,-0.02550695836544037,-0.12240979820489883,-0.07871265709400177
1790958015096668000,6.35066796875,-0.04313202574849129,-0.12371741235256195,-0.07093116641044617
1790958015106747000,6.360746826171875,-0.05608164519071579,-0.11221043020486832,-0.05161286145448685
1790958015116826000,6.370826171875,-0.03599341958761215,-0.09591960161924362,-0.007906125858426094
1790958015126905000,6.380905029296875,0.0024567660875618458,-0.03860917687416077,0.03623390570282936
1790958015136983000,6.390983154296875,0.007123156916350126,0.01453100610524416,0.03678464516997337
1790958015147062000,6.40106201171875,-0.0075974659994244576,0.028618594631552696,-0.016574183478951454
1790958015157141000,6.41114111328125,0.001425057533197105,0.014280668459832668,-0.047086287289857864
1790958015167220000,6.421219970703125,-0.005889580585062504,-0.021462947130203247,-0.05247226357460022
1790958015177299000,6.431298828125,-0.0046448190696537495,-0.03398912400007248,-0.07076418399810791
1790958015187378000,6.4413779296875,-0.01136770285665989,-0.002772616920992732,-0.064751036465168
1790958015197457200,6.45145703125,0.02449788525700569,0.03922995924949646,-0.038415297865867615
1790958015207535900,6.461535888671875,0.01835264265537262,0.005864280741661787,-0.03202344477176666
1790958015217614800,6.47161474609375,0.014099573716521263,-0.002269812161102891,-0.027956800535321236
1790958015227694000,6.481694091796875,0.0038567897863686085,-0.02616768889129162,-0.0335686132311821
1790958015237772000,6.49177197265625,-0.018744392320513725,-0.041078727692365646,-0.0616694875061512
1790958015247851000,6.50185107421875,-0.0015193333383649588,-0.005239236634224653,-0.06048518046736717
1790958015257930000,6.511929931640625,0.016996027901768684,-0.003999002743512392,-0.05856291204690933
1790958015268009000,6.522009033203125,0.01769111305475235,0.006128466222435236,-0.04562660679221153
1790958015278088200,6.532088134765625,0.024578580632805824,0.008709335699677467,-0.0371798574924469
1790958015288167000,6.5421669921875,0.02316577360033989,0.022169483825564384,-0.031385086476802826
1790958015298246000,6.552245849609375,0.010428139939904213,0.030892135575413704,-0.031861525028944016
1790958015308325000,6.5623251953125,0.0034501252230256796,0.022714100778102875,-0.02979438006877899
1790958015318403800,6.57240380859375,0.006124737672507763,0.011775166727602482,-0.030007965862751007
1790958015328482800,6.58248291015625,0.009440373629331589,0.020442690700292587,-0.0036157737486064434
1790958015338562000,6.59256201171875,0.025794845074415207,0.037761494517326355,0.009858223609626293
1790958015348640000,6.602639892578125,0.031069768592715263,0.05519481375813484,-0.012084092944860458
1790958015358719000,6.612718994140625,0.031256191432476044,0.0440518781542778,-0.011079016141593456
1790958015368797700,6.622797607421875,0.02490135468542576,0.04156182333827019,0.0035177695099264383
1790958015378877000,6.632876953125,0.03063966892659664,0.03725602477788925,-0.0008660599705763161
1790958015388956000,6.642955810546875,0.04116528108716011,0.039573509246110916,0.0013510215794667602
1790958015399034600,6.65303466796875,0.071794293820858,0.06492254137992859,0.008522914722561836
1790958015409113900,6.66311376953125,0.08939246088266373,0.08092973381280899,0.020230436697602272
1790958015419192800,6.67319287109375,0.061043914407491684,0.060934990644454956,-0.02251303195953369
1790958015429271800,6.683271728515625,0.06939931213855743,0.0795438289642334,-0.07152345031499863
1790958015439350000,6.69335009765625,0.0884515717625618,0.06962541490793228,-0.10472720861434937
1790958015449428700,6.7034287109375,0.09819260984659195,0.08416654169559479,-0.11155103147029877
1790958015459507700,6.7135078125,0.09552466124296188,0.06479630619287491,-0.0999673455953598
1790958015469587000,6.7235869140625,0.07028667628765106,0.035950277000665665,-0.04771186038851738
1790958015479665700,6.733665771484375,0.045824747532606125,0.020721789449453354,-0.0016471651615574956
1790958015489745000,6.743744873046875,0.03291879966855049,0.039153262972831726,0.026667563244700432
1790958015499823900,6.753823974609375,0.04250271990895271,0.018934009596705437,0.02991475537419319
1790958015509902600,6.763902587890625,0.0297339279204607,-0.026161296293139458,0.04761305823922157
1790958015519981800,6.77398193359375,0.026022279635071754,-0.04284892976284027,0.06070968508720398
1790958015530060800,6.784060791015625,0.03027268499135971,-0.04252908378839493,0.07129655033349991
1790958015540138800,6.794138671875,0.043303798884153366,-0.039913326501846313,0.09124389290809631
1790958015550218000,6.804218017578125,0.07255968451499939,-0.035112980753183365,0.12266333401203156
1790958015560296700,6.814296630859375,0.1276855170726776,-0.01359517127275467,0.13690458238124847
1790958015570376000,6.8243759765625,0.17428657412528992,0.009503223933279514,0.15891800820827484
1790958015580455000,6.834454833984375,0.17565970122814178,0.0010527475969865918,0.1831895262002945
1790958015590533600,6.84453369140625,0.10395356267690659,-0.02377057634294033,0.1859392374753952
1790958015600612900,6.85461279296875,0.04831746593117714,-0.029952306300401688,0.14795245230197906
1790958015610691800,6.86469189453125,0.026097115129232407,-0.004619519226253033,0.10059797763824463
1790958015620770800,6.874770751953125,0.009403355419635773,0.003962517250329256,0.06049423664808273
1790958015630849800,6.884849853515625,-0.01950659044086933,0.012416722252964973,0.03500938415527344
1790958015640927700,6.894927734375,-0.03382587432861328,0.004787298385053873,0.028308337554335594
1790958015651006700,6.9050068359375,-0.04676297679543495,0.011347729712724686,0.027966387569904327
1790958015661086000,6.9150859375,-0.0661047175526619,0.004957207944244146,0.02919144183397293
1790958015671164700,6.92516455078125,-0.08319661766290665,0.0088789789006114,0.021808093413710594
1790958015681244000,6.935243896484375,-0.09145215153694153,0.04213520139455795,-0.027645742520689964
1790958015691323000,6.945322998046875,-0.04459702968597412,0.019893281161785126,-0.04758536070585251
1790958015701401600,6.955401611328125,-0.018027735874056816,-0.004555869847536087,0.0057407100684940815
1790958015711480800,6.965480712890625,-0.029517145827412605,-0.007257113698869944,0.035170771181583405
1790958015721559800,6.975559814453125,-0.029168538749217987,-0.00884915143251419,0.02346724271774292
1790958015731638800,6.985638671875,-0.012824186123907566,-0.06489404290914536,-0.0421740859746933
1790958015741716700,6.995716796875,-0.005270395893603563,0.004166249185800552,-0.07910946756601334
1790958015751795700,7.005795654296875,0.01116157416254282,-0.021931663155555725,-0.06926322728395462
1790958015761875000,7.015875,0.028543761000037193,-0.0036551884841173887,-0.034438133239746094
1790958015771954000,7.025953857421875,0.0056829191744327545,-0.016094014048576355,-0.008519718423485756
1790958015782032600,7.03603271484375,0.002121474128216505,0.0020748688839375973,-0.011653726920485497
1790958015792111900,7.04611181640625,-0.009127718396484852,0.016872722655534744,-0.03931251913309097
1790958015802190800,7.05619091796875,-0.00746137835085392,0.024892566725611687,-0.03899240493774414
1790958015812269800,7.066269775390625,-0.008791361004114151,0.03550313413143158,-0.03700701892375946
1790958015822348800,7.076348876953125,-0.00025832661776803434,0.04909510910511017,-0.027299530804157257
1790958015832427800,7.086427734375,0.004986769054085016,0.05253910645842552,-0.03206073120236397
1790958015842506000,7.096506103515625,0.01678164303302765,0.05944707989692688,-0.023624636232852936
1790958015852585000,7.1065849609375,0.020369719713926315,0.06283222883939743,-0.016033828258514404
1790958015862663700,7.11666357421875,0.017798172309994698,0.05968703329563141,-0.0062453788705170155
1790958015872743000,7.126742919921875,0.01022760383784771,0.04848764091730118,0.003312173532322049
1790958015882822000,7.13682177734375,0.004464789759367704,0.04932413995265961,-0.00045859633246436715
1790958015892900600,7.146900634765625,0.00637827068567276,0.06327670812606812,0.007382815238088369
1790958015902979800,7.156979736328125,0.01546710729598999,0.06936442852020264,0.026133066043257713
1790958015913058800,7.167058837890625,0.014784006401896477,0.07761702686548233,0.05817196145653725
1790958015923137800,7.1771376953125,0.009156746789813042,0.06740487366914749,0.03586985170841217
1790958015933216800,7.187216796875,0.012819924391806126,0.06545837223529816,-0.0002466087171342224
1790958015943294700,7.197294677734375,0.011388209648430347,0.06276191771030426,0.0017907095607370138
1790958015953374000,7.2073740234375,0.006177734583616257,0.06311239302158356,0.007463775109499693
1790958015963453000,7.217452880859375,0.0005872269975952804,0.05710482969880104,-0.0005075985100120306
1790958015973531600,7.22753173828125,0.003510579001158476,0.04640025645494461,-0.02087545394897461
1790958015983611000,7.23761083984375,0.008057926781475544,0.036854419857263565,-0.04346784949302673
1790958015993689900,7.24768994140625,0.010879545472562313,0.04011332988739014,-0.023564714938402176
1790958016003768800,7.257768798828125,0.011344533413648605,0.036255743354558945,-0.01991591788828373
1790958016013847800,7.267847900390625,0.010264355689287186,0.031492412090301514,-0.016214922070503235
1790958016023926800,7.2779267578125,0.011298727244138718,0.026556510478258133,-0.014880678616464138
1790958016034005800,7.288005859375,0.008498147130012512,0.02401798404753208,-0.022906647995114326
1790958016044083700,7.298083740234375,0.004349474795162678,0.017643442377448082,-0.03122503124177456
1790958016054162700,7.30816259765625,-0.0018373148050159216,0.02347310073673725,-0.055986568331718445
1790958016064242000,7.318241943359375,-0.006155097857117653,0.047692954540252686,-0.05296707898378372
1790958016074321000,7.32832080078125,0.0016831178218126297,0.07783248275518417,-0.0573868602514267
1790958016084399600,7.338399658203125,0.013687049970030785,0.09120581299066544,-0.0012114719720557332
1790958016094478800,7.348478759765625,0.010720288380980492,0.08579346537590027,-0.02034042589366436
1790958016104557800,7.358557861328125,0.015389076434075832,0.04927700012922287,-0.0037774275988340378
1790958016114636800,7.36863671875,0.01841096580028534,0.030431142076849937,-0.02966521680355072
1790958016124715800,7.3787158203125,0.02317775785923004,0.02304939366877079,-0.00566986994817853
1790958016134794800,7.388794677734375,0.03026389516890049,0.0292391125112772,0.0067809405736625195
1790958016144873000,7.398873046875,0.025890186429023743,0.03965979442000389,-0.00401604687795043
1790958016154952000,7.408951904296875,0.023260315880179405,0.041303232312202454,0.00016831177345011383
1790958016165030700,7.41903076171875,0.008854477666318417,0.03548369184136391,-0.005203017964959145
1790958016175110000,7.42910986328125,0.007041131611913443,0.027545075863599777,0.0032858080230653286
1790958016185188900,7.43918896484375,-0.0012239888310432434,0.027846811339259148,-0.0018351842882111669
1790958016195267800,7.449267822265625,0.0020532971248030663,0.033373937010765076,0.00031558459158986807
1790958016205346800,7.459346923828125,-0.0030399984680116177,0.026006832718849182,0.0026844663079828024
1790958016215425800,7.46942578125,-0.006680007092654705,0.014570420607924461,-0.0005038700764998794
1790958016225504800,7.4795048828125,-0.00202267081476748,-0.0014122743159532547,-0.007939948700368404
1790958016235583700,7.489583740234375,0.015127287246286869,-0.007786550559103489,-0.0034048515371978283
1790958016245663000,7.4996630859375,0.014606373384594917,-0.01840377412736416,-0.0002865561400540173
1790958016255741000,7.509740966796875,0.015238873660564423,-0.016619723290205002,-0.003506850451231003
1790958016265820000,7.51981982421875,0.019842414185404778,-0.00945049338042736,-0.002712962217628956
1790958016275898600,7.529898681640625,0.02257455140352249,-0.002513757674023509,0.000218645524000749
1790958016285977900,7.539977783203125,0.02514476701617241,0.008507734164595604,-0.0028972530271857977
1790958016296056800,7.550056884765625,0.02389574609696865,0.01438080333173275,0.007926632650196552
1790958016306135800,7.5601357421875,0.023151125758886337,0.015734754502773285,-0.0039012646302580833
1790958016316214800,7.57021484375,0.01321300771087408,0.019844012334942818,-0.008792692795395851
1790958016326293800,7.580293701171875,0.009425725787878036,0.020986774936318398,-0.013517140410840511
1790958016336372700,7.590372802734375,0.011334680020809174,0.01829671487212181,-0.008309861645102501
1790958016346451700,7.60045166015625,0.02256789244711399,0.010230799205601215,-0.0006420881254598498
1790958016356529700,7.61052978515625,0.0235894825309515,0.005615008994936943,0.00006151902198325843
1790958016366609700,7.620609619140625,0.01751214824616909,0.00729466462507844,-0.005921006202697754
1790958016376688400,7.6306884765625,0.02045227773487568,0.010553575120866299,0.00754926260560751
1790958016386767600,7.640767578125,0.02310638502240181,0.021629927679896355,0.011166634038090706
1790958016396846600,7.6508466796875,0.026163693517446518,0.036432310938835144,0.002814162289723754
1790958016406925600,7.660925537109375,0.02467045933008194,0.04037698358297348,0.009316802956163883
1790958016417004500,7.671004638671875,0.022298380732536316,0.04878298565745354,-0.0028431906830519438
1790958016427083500,7.68108349609375,0.01853160560131073,0.05104294419288635,0.001327053178101778
1790958016437162800,7.691162841796875,0.0023694143164902925,0.054255515336990356,0.0015550197567790747
1790958016447241500,7.701241455078125,0.002002697205170989,0.04537467285990715,0.012928581796586514
1790958016457319400,7.7113193359375,-0.01617790386080742,0.018065553158521652,0.0362703911960125
1790958016467398700,7.721398681640625,0.0016133430181071162,0.0075846826657652855,0.013835654594004154
1790958016477477600,7.7314775390625,-0.002296710154041648,-0.004311125259846449,0.0021726067643612623
1790958016487556400,7.741556396484375,-0.009892844595015049,-0.007455253042280674,0.00678253872320056
1790958016497635600,7.751635498046875,-0.00333267985843122,-0.00765951769426465,0.008713862858712673
1790958016507714600,7.761714599609375,-0.0013382384786382318,-0.003084739437326789,0.009729859419167042
1790958016517793500,7.77179345703125,-0.01775023527443409,-0.009010273031890392,0.009270995855331421
1790958016527872500,7.78187255859375,-0.0225583054125309,-0.006842725910246372,0.0038043255917727947
1790958016537951500,7.791951416015625,-0.0248427651822567,0.0017129451734945178,-0.006385195069015026
1790958016548030700,7.80203076171875,-0.021107681095600128,0.016083095222711563,-0.01882988028228283
1790958016558108700,7.812108642578125,-0.017356352880597115,0.008933041244745255,-0.008840629830956459
1790958016568187400,7.8221875,-0.010133327916264534,-0.007750065065920353,-0.009939449839293957
1790958016578266600,7.8322666015625,-0.003510579001158476,-0.026072880253195763,-0.010059557855129242
1790958016588345600,7.842345703125,-0.003608583239838481,-0.034079939126968384,-0.011955728754401207
1790958016598424600,7.852424560546875,0.00993172638118267,-0.03532976284623146,-0.014385064132511616
1790958016608503600,7.862503662109375,0.002141980454325676,-0.03446316719055176,-0.003037601476535201
1790958016618582500,7.87258251953125,-0.030701719224452972,-0.04434669017791748,0.00467651104554534
1790958016628661800,7.882661865234375,-0.06434276700019836,-0.06361386179924011,0.021465077996253967
1790958016638740500,7.892740478515625,0.12027181684970856,-0.10675494372844696,0.046358443796634674
1790958016648819500,7.9028193359375,0.17169852554798126,-0.07665589451789856,0.037152960896492004
1790958016658897700,7.912897705078125,0.10352186113595963,-0.04844955727458,0.00920441746711731
1790958016668976600,7.9229765625,0.04355200380086899,-0.025076057761907578,-0.00493244081735611
1790958016679055400,7.933055419921875,0.03538089245557785,-0.025902437046170235,0.0005531385540962219
1790958016689134600,7.943134521484375,0.03886856883764267,-0.023870445787906647,-0.0219670832157135
1790958016699213600,7.953213623046875,0.04054742678999901,-0.055685900151729584,-0.014303571544587612
1790958016709292500,7.96329248046875,0.040880054235458374,-0.0796801820397377,-0.023514380678534508
1790958016719371500,7.97337158203125,0.03958415985107422,-0.12236958742141724,-0.010157829150557518
1790958016729450500,7.983450439453125,0.03009558469057083,-0.127057284116745,-0.02371864579617977
1790958016739529700,7.99352978515625,0.025411084294319153,-0.10915258526802063,-0.010066748596727848
1790958016749608400,8.0036083984375,0.01950445957481861,-0.08998128771781921,0.02256016992032528
1790958016759686400,8.013686279296875,0.02377057634294033,-0.06048118695616722,0.0231119766831398
1790958016769765600,8.023765625,0.04192508012056351,-0.06932953745126724,0.03423120826482773
1790958016779844600,8.0338447265625,0.05344538018107414,-0.11069056391716003,0.030529147014021873
1790958016789923600,8.043923583984375,0.04735792800784111,-0.13437165319919586,0.014240721240639687
1790958016800002600,8.05400244140625,0.028258003294467926,-0.15291523933410645,-0.005274656694382429
1790958016810081500,8.06408154296875,0.02093750610947609,-0.18150827288627625,0.001166198286227882
1790958016820160500,8.074160400390625,0.022957779467105865,-0.22392790019512177,0.03772420808672905
1790958016830239500,8.084239501953125,0.03663710504770279,-0.24758343398571014,0.01625353842973709
1790958016840318700,8.094318603515624,0.04736405238509178,-0.2642897069454193,0.002638659905642271
1790958016850397700,8.104397705078124,0.06458564847707748,-0.28205034136772156,0.007482417393475771
1790958016860475600,8.1144755859375,0.07883515954017639,-0.27240410447120667,0.017315607517957687
1790958016870554400,8.124554443359376,0.09406444430351257,-0.27689337730407715,0.04216130077838898
1790958016880633600,8.134633544921876,0.0900297611951828,-0.29673659801483154,0.056841179728507996
1790958016890712600,8.144712646484376,0.08469464629888535,-0.311646044254303,0.05163629725575447
1790958016900791600,8.15479150390625,0.08490850031375885,-0.32596293091773987,0.029141107574105263
1790958016910870500,8.16487060546875,0.09554143249988556,-0.33872053027153015,0.011842810548841953
1790958016920949500,8.174949462890625,0.12023213505744934,-0.3540331721305847,0.01380928885191679
1790958016931028500,8.185028564453125,0.1545773297548294,-0.3665175437927246,0.027226028963923454
1790958016941107500,8.195107421875,0.16169622540473938,-0.3606269061565399,0.03971225768327713
1790958016951186700,8.205186767578125,0.1702961027622223,-0.3325880765914917,0.06052859127521515
1790958016961264600,8.2152646484375,0.176202192902565,-0.28082528710365295,0.04036899283528328
1790958016971343600,8.225343505859374,0.14687120914459229,-0.25377875566482544,0.163408100605011
1790958016981422600,8.235422607421874,0.15856248140335083,-0.1962994784116745,0.06674174219369888
1790958016991501600,8.24550146484375,0.13909690082073212,-0.15543405711650848,0.01480557769536972
1790958017001580500,8.25558056640625,0.13743935525417328,-0.10922449082136154,0.011946940794587135
1790958017011659500,8.265659423828126,0.15154850482940674,-0.0846610888838768,0.024167388677597046
1790958017021738500,8.275738525390626,0.13674134016036987,-0.10072101652622223,0.05301927402615547
1790958017031817700,8.285817626953126,0.15170590579509735,-0.10607051104307175,0.06851301342248917
1790958017041896700,8.295896728515626,0.15814223885536194,-0.1066548079252243,0.062250323593616486
1790958017051975400,8.305975341796875,0.15370780229568481,-0.10691659897565842,0.05217292159795761
1790958017062053600,8.3160537109375,0.136751189827919,-0.0979800894856453,0.05788034200668335
1790958017072132600,8.326132568359375,0.11114490032196045,-0.07468249648809433,0.07523137331008911
1790958017082211600,8.336211669921875,0.09308387339115143,-0.046970970928668976,0.10898853838443756
1790958017092290600,8.34629052734375,0.07441138476133347,-0.03357553854584694,0.13561615347862244
1790958017102369500,8.35636962890625,0.06331106275320053,-0.03478780761361122,0.12945012748241425
1790958017112448500,8.366448486328125,0.05662998929619789,-0.052713543176651,0.11363229155540466
1790958017122527500,8.376527587890624,0.044382110238075256,-0.07887111604213715,0.09172885119915009
1790958017132606500,8.3866064453125,0.03900385648012161,-0.10868493467569351,0.049684200435876846
1790958017142685700,8.396685791015624,0.044428449124097824,-0.11871999502182007,-0.008792959153652191
1790958017152763600,8.406763671875,0.04193573072552681,-0.10510857403278351,-0.04224732145667076
1790958017162842600,8.416842529296876,0.06013550981879234,-0.09985415637493134,-0.01785995624959469
1790958017172921600,8.426921630859376,0.044860150665044785,-0.07928577065467834,0.005914081819355488
1790958017183000600,8.43700048828125,0.03370603173971176,-0.06054456904530525,-0.0009672601008787751
1790958017193079600,8.44707958984375,0.021436316892504692,-0.042990077286958694,-0.000391218374716118
1790958017203158500,8.457158447265625,0.00646615494042635,-0.041608963161706924,0.007966846227645874
1790958017213237500,8.467237548828125,0.0008721852791495621,-0.04519730433821678,0.00948005449026823
1790958017223316700,8.477316650390625,0.005505552981048822,-0.03629196062684059,-0.004394215997308493
1790958017233395500,8.4873955078125,0.009706422686576843,-0.02358495444059372,-0.021770808845758438
1790958017243474400,8.497474365234375,0.002083390951156616,-0.0027169568929821253,-0.013591974973678589
1790958017253552600,8.507552734375,0.04068617522716522,0.005928729195147753,-0.0230557844042778
1790958017263631600,8.517631591796874,0.04306384548544884,0.018806710839271545,-0.017889784649014473
1790958017273710600,8.527710693359374,0.04538452625274658,0.017883392050862312,-0.020928984507918358
1790958017283789600,8.53778955078125,0.027280889451503754,0.022654445841908455,-0.04505642503499985
1790958017293868500,8.54786865234375,0.03969920799136162,0.013199958018958569,-0.05053640902042389
1790958017303947500,8.557947509765626,0.024642761796712875,0.007829959504306316,-0.043895818293094635
1790958017314026500,8.568026611328126,0.021142836660146713,0.0008178567513823509,-0.03309616819024086
1790958017324105500,8.57810546875,0.019450662657618523,-0.0038655782118439674,-0.015484151430428028
1790958017334184700,8.588184814453125,0.02563425712287426,-0.03909866511821747,-0.0008428904693573713
1790958017344262700,8.5982626953125,0.03230467811226845,-0.06291904300451279,0.01967197097837925
1790958017354341600,8.608341552734375,0.030530745163559914,-0.08759083598852158,0.012893960811197758
1790958017364420600,8.618420654296875,0.036979854106903076,-0.10383372008800507,0.0016676714876666665
1790958017374499300,8.628499267578125,0.037332192063331604,-0.11933465301990509,-0.004367584362626076
1790958017384578300,8.638578369140625,0.0389505960047245,-0.12615181505680084,0.010215619578957558
1790958017394657300,8.6486572265625,0.03984115645289421,-0.12305402010679245,0.00812344066798687
1790958017404736300,8.658736328125,0.03700622171163559,-0.11868297308683395,-0.010211891494691372
1790958017414815500,8.6688154296875,0.0393010675907135,-0.12063347548246384,-0.013449762016534805
1790958017424894200,8.678894287109374,0.05377880856394768,-0.12876276671886444,-0.006392385344952345
1790958017434973200,8.68897314453125,0.059783171862363815,-0.1408785581588745,0.001383245806209743
1790958017445051400,8.699051513671876,0.0681990310549736,-0.14847229421138763,0.00044474788592197
1790958017455130400,8.70913037109375,0.07634776830673218,-0.14392255246639252,0.003320695599541068
1790958017465209300,8.719209228515625,0.0837409719824791,-0.13487659394741058,0.021993715316057205
1790958017475288300,8.729288330078125,0.08918739855289459,-0.12096264213323593,0.03195979818701744
1790958017485367300,8.7393671875,0.09413821995258331,-0.09889062494039536,0.033786993473768234
1790958017495446300,8.7494462890625,0.10089465975761414,-0.06928985565900803,0.030584806576371193
1790958017505525200,8.759525146484375,0.10337459295988083,-0.030460970476269722,0.019630426540970802
1790958017515604200,8.769604248046875,0.10198974609375,0.0038421424105763435,0.019723370671272278
1790958017525683500,8.779683349609375,0.08828405290842056,0.04181775450706482,0.022937007248401642
1790958017535761400,8.789761474609374,0.08846674859523773,0.06590178608894348,0.015023424290120602
1790958017545840400,8.79984033203125,0.09723307937383652,0.08474843949079514,0.015732357278466225
1790958017555919400,8.80991943359375,0.10330881178379059,0.10436182469129562,0.01209607720375061
1790958017565998300,8.819998291015626,0.10803326219320297,0.12460558116436005,0.009499762207269669
1790958017576077300,8.830077392578126,0.10813365876674652,0.14606240391731262,0.0121839614585042
1790958017586156300,8.84015625,0.11220110952854156,0.15412698686122894,0.026460103690624237
1790958017596235300,8.8502353515625,0.10300973802804947,0.15054424107074738,0.030971230939030647
1790958017606314500,8.860314453125,0.08694874495267868,0.13793496787548065,0.027889154851436615
1790958017616393200,8.870393310546875,0.0615597665309906,0.12368705123662949,0.029744047671556473
1790958017626472200,8.88047216796875,0.04771825298666954,0.10796481370925903,0.03201039880514145
1790958017636550400,8.89055029296875,0.04802025482058525,0.08498040586709976,0.020972926169633865
1790958017646629400,8.90062939453125,0.047144874930381775,0.0617416612803936,0.009299492463469505
1790958017656708400,8.910708251953125,0.052142564207315445,0.03429938480257988,0.009661948308348656
1790958017666787300,8.920787353515625,0.05884414166212082,-0.003498328384011984,0.009937052614986897
1790958017676866300,8.9308662109375,0.052031509578228,-0.032463133335113525,0.013218866661190987
1790958017686945300,8.9409453125,0.0477755106985569,-0.05579748377203941,0.025433721020817757
1790958017697024300,8.951024169921874,0.04978007450699806,-0.07612832635641098,0.026789803057909012
1790958017707103200,8.961103271484374,0.04759255424141884,-0.08240672200918198,0.01665913686156273
1790958017717182500,8.971182373046876,0.045470546931028366,-0.09090939909219742,0.02949477545917034
1790958017727260400,8.981260498046876,0.04687562957406044,-0.09574650228023529,0.018918298184871674
1790958017737339100,8.991339111328125,0.05192365124821663,-0.09891512989997864,0.0277450792491436
1790958017747418400,9.00141845703125,0.056058742105960846,-0.09430280327796936,0.02100248634815216
1790958017757497300,9.011497314453125,0.06144338846206665,-0.08322511613368988,0.010355701670050621
1790958017767576300,9.021576416015625,0.05673119053244591,-0.06779848784208298,0.01028592698276043
1790958017777655300,9.0316552734375,0.05946359410881996,-0.06151928752660751,0.018368886783719063
1790958017787734300,9.041734375,0.06190118566155434,-0.044803157448768616,0.009688845835626125
1790958017797813500,9.0518134765625,0.06790341436862946,-0.03873194754123688,0.016497483476996422
1790958017807892200,9.061892333984375,0.07533709704875946,-0.02082645148038864,0.008170844055712223
1790958017817970200,9.07197021484375,0.07204063981771469,-0.0018570221727713943,0.006970557849854231
1790958017828049400,9.08204931640625,0.07168803364038467,0.01375442836433649,0.018704712390899658
1790958017838128400,9.09212841796875,0.06702643632888794,0.029590649530291557,0.01594541035592556
1790958017848207400,9.102207275390626,0.06107959896326065,0.04732011258602142,0.010628143325448036
1790958017858286300,9.112286376953126,0.05043068155646324,0.0655079036951065,0.0046722497791051865
1790958017868365300,9.122365234375,0.04785114526748657,0.07583537697792053,0.014878015965223312
1790958017878444300,9.1324443359375,0.04241030663251877,0.08381900191307068,-0.001919073867611587
1790958017888523300,9.142523193359375,0.038511972874403,0.08715008199214935,-0.007255249656736851
1790958017898602200,9.152602294921875,0.03945766016840935,0.07192771881818771,0.00022929816623218358
1790958017908680200,9.16268017578125,0.04248514398932457,0.05258464813232422,-0.01589054986834526
1790958017918759400,9.172759521484375,0.046774428337812424,0.03970719873905182,-0.024355141445994377
1790958017928838100,9.182838134765625,0.0488615483045578,0.02371944487094879,-0.012234295718371868
1790958017938917400,9.19291748046875,0.048880189657211304,0.01962323673069477,-0.01708045043051243
1790958017948996400,9.202996337890625,0.0472404807806015,0.03268497437238693,-0.02454475685954094
1790958017959075300,9.213075439453124,0.044850561767816544,0.04314587265253067,-0.006732204928994179
1790958017969154300,9.223154296875,0.03624588996171951,0.052856821566820145,0.009636115282773972
1790958017979233300,9.2332333984375,0.02485741302371025,0.03741395100951195,0.008953015320003033
1790958017989312500,9.2433125,0.011788216419517994,0.01942482963204384,-0.013717676512897015
1790958017999390500,9.253390380859376,-0.003111371072009206,-0.0028820729348808527,-0.02797757275402546
1790958018009469200,9.26346923828125,-0.013953632675111294,-0.01954946666955948,-0.025473933666944504
1790958018019548400,9.27354833984375,-0.005363340023905039,-0.03729304298758507,-0.023245668038725853
1790958018029627400,9.28362744140625,0.006229133810847998,-0.04446946457028389,-0.023023560643196106
1790958018039706000,9.2937060546875,0.02720578759908676,-0.047505468130111694,-0.021266672760248184
1790958018049785300,9.303785400390625,0.05168130248785019,-0.05447762459516525,-0.004328702110797167
1790958018059864300,9.3138642578125,0.06353343278169632,-0.04896567761898041,-0.004151601810008287
1790958018069943600,9.323943603515625,0.06469670683145523,-0.036494895815849304,-0.005589708685874939
1790958018080022300,9.334022216796875,0.05946492403745651,-0.016161659732460976,0.012621519155800343
1790958018090100200,9.344100341796874,0.056354619562625885,-0.001702026231214404,0.026820961385965347
1790958018100179200,9.35417919921875,0.05686940625309944,0.0073319487273693085,0.029677201062440872
1790958018110258400,9.364258544921874,0.06120982766151428,0.02016492374241352,0.030432207509875298
1790958018120337200,9.374337158203126,0.06940863281488419,0.024054735898971558,0.03778865933418274
1790958018130416400,9.38441650390625,0.08619773387908936,0.025711221620440483,0.04192161560058594
1790958018140495400,9.394495361328126,0.10316260159015656,0.027459055185317993,0.03314730152487755
1790958018150574000,9.404573974609375,0.1160709485411644,0.023556724190711975,0.03698624670505524
1790958018160653300,9.4146533203125,0.12489266693592072,0.023470439016819,0.0261841993778944
1790958018170732300,9.424732177734375,0.12584741413593292,0.0331459678709507,0.027604728937149048
1790958018180810200,9.434810302734375,0.1255834847688675,0.06251957267522812,0.030471889302134514
1790958018190889500,9.444889404296875,0.12679602205753326,0.09801870584487915,0.029043368995189667
1790958018200968200,9.45496826171875,0.12661892175674438,0.14232732355594635,0.036726854741573334
1790958018211047400,9.46504736328125,0.12835264205932617,0.18342308700084686,0.037950579077005386
1790958018221126400,9.47512646484375,0.1316230148077011,0.21641992032527924,0.041495777666568756
1790958018231205000,9.485205078125,0.130753755569458,0.24424302577972412,0.038913045078516006
1790958018241284400,9.495284423828124,0.12891323864459991,0.27862682938575745,0.028607409447431564
1790958018251363300,9.50536328125,0.12574274837970734,0.3154711425304413,0.017826667055487633
1790958018261441300,9.515441162109376,0.12280821055173874,0.35852113366127014,0.013510216027498245
1790958018271520300,9.525520263671876,0.11078936606645584,0.41123682260513306,0.01128221582621336
1790958018281599200,9.53559912109375,0.0999700054526329,0.4624403417110443,0.014633537270128727
1790958018291678500,9.545678466796875,0.09719499200582504,0.5014473795890808,0.01948768086731434
1790958018301757400,9.55575732421875,0.1021018698811531,0.5195617079734802,0.030414631590247154
1790958018311836200,9.565836181640625,0.09774919599294662,0.5127911567687988,0.038111165165901184
1790958018321915400,9.575915283203125,0.08703822642564774,0.48572224378585815,0.03455877676606178
1790958018331994400,9.585994384765625,0.07383986562490463,0.44958287477493286,0.03250494599342346
1790958018342073000,9.596072998046875,0.07727295160293579,0.420169860124588,0.021046962589025497
1790958018352151300,9.6061513671875,0.08311405777931213,0.39391854405403137,0.024439029395580292
1790958018362230300,9.616230224609374,0.09298986196517944,0.3624458312988281,0.029866818338632584
1790958018372309800,9.626309814453125,0.09345218539237976,0.3323635756969452,0.023075491189956665
1790958018382388500,9.636388427734374,0.09651295840740204,0.3056400716304779,0.027653465047478676
1790958018392467700,9.6464677734375,0.0933174267411232,0.2760382294654846,0.03358379378914833
1790958018402546700,9.656546630859374,0.08561263978481293,0.2528804540634155,0.031870048493146896
1790958018412625700,9.666625732421876,0.07464227825403214,0.23053307831287384,0.038011033087968826
1790958018422704600,9.67670458984375,0.06318403035402298,0.2124696522951126,0.03236166760325432
1790958018432782600,9.686782470703125,0.06653322279453278,0.1974496841430664,0.03273424506187439
1790958018442861800,9.69686181640625,0.06746639311313629,0.17490629851818085,0.044987715780735016
1790958018452940800,9.70694091796875,0.06809595972299576,0.1660640686750412,0.031977906823158264
1790958018463019500,9.71701953125,0.05361609160900116,0.16994962096214294,0.011635350994765759
1790958018473098800,9.7270986328125,0.06490682810544968,0.16833601891994476,0.03236992284655571
1790958018483177700,9.737177734375,0.06868106126785278,0.1748325228691101,0.027087276801466942
1790958018493256700,9.747256591796875,0.06731059402227402,0.16169914603233337,0.039621446281671524
1790958018503335700,9.757335693359375,0.05022455379366875,0.13779515027999878,0.023336214944720268
1790958018513413600,9.76741357421875,0.02634904906153679,0.12849299609661102,0.01661519519984722
1790958018523492600,9.77749267578125,0.01124972477555275,0.1297084540128708,0.013737649656832218
1790958018533571800,9.78757177734375,0.03247831389307976,0.1329825520515442,0.011593805626034737
1790958018543650600,9.797650634765626,0.07214370369911194,0.12141431123018265,0.016174709424376488
1790958018553729800,9.807729736328126,0.08006234467029572,0.10412746667861938,-0.006897587329149246
1790958018563808800,9.817808837890626,0.0652618259191513,0.07670090347528458,-0.013263341039419174
1790958018573887500,9.827887451171875,0.043644681572914124,0.07151253521442413,-0.017775269225239754
1790958018583966700,9.837966796875,0.019216038286685944,0.08922655135393143,-0.014213557355105877
1790958018594044700,9.848044677734375,0.010529340244829655,0.11816072463989258,-0.0004146541759837419
1790958018604123600,9.85812353515625,0.020600084215402603,0.1315963715314865,0.020773721858859062
1790958018614202600,9.86820263671875,0.03753006458282471,0.13008689880371094,0.01561145018786192
1790958018624281600,9.878281494140625,0.05570267513394356,0.12249208986759186,0.02979464642703533
1790958018634360800,9.88836083984375,0.06551109999418259,0.11275237798690796,0.021568141877651215
1790958018644439800,9.898439697265625,0.06420508772134781,0.1154182031750679,0.004196343012154102
1790958018654518500,9.9085185546875,0.05167890712618828,0.12733478844165802,0.007015032693743706
1790958018664597800,9.91859765625,0.039864324033260345,0.13390427827835083,0.009383647702634335
1790958018674676700,9.9286767578125,0.03310229256749153,0.14197976887226105,0.0010807107901200652
1790958018684754700,9.938754638671876,0.026937074959278107,0.1454823613166809,-0.0008681904873810709
1790958018694833700,9.948833740234376,0.03257099166512489,0.12706686556339264,0.024567395448684692
1790958018704912600,9.95891259765625,0.023062974214553833,0.12301886826753616,-0.01116556953638792
1790958018714991600,9.96899169921875,0.0270121768116951,0.1056705042719841,0.03459686040878296
1790958018725070600,9.979070556640625,0.03177177906036377,0.11393748968839645,-0.0026194851379841566
1790958018735149600,9.989149658203125,0.036321256309747696,0.11165915429592133,0.027608457952737808
1790958018745228800,9.999228759765625,0.03490765020251274,0.10815789550542831,0.030438600108027458
1790958018755306800,10.009306640625,0.030551251024007797,0.10512961447238922,0.012885970994830132
1790958018765385700,10.0193857421875,0.021337779238820076,0.09674385190010071,0.02911367639899254
1790958018775464700,10.029464599609375,0.010092315264046192,0.10402093827724457,0.024397484958171844
1790958018785543700,10.039543701171874,-0.004451473709195852,0.10394158214330673,0.008027300238609314
1790958018795622700,10.04962255859375,-0.0070587084628641605,0.10982849448919296,0.0036703685764223337
1790958018805701600,10.05970166015625,-0.010684868320822716,0.10212396830320358,0.010965033434331417
1790958018815780600,10.069780517578126,-0.014839932322502136,0.10067307949066162,-0.005659749731421471
1790958018825859800,10.07985986328125,-0.01546684093773365,0.0900270938873291,0.0032951291650533676
1790958018835937800,10.089937744140625,-0.011805260553956032,0.07838694751262665,0.0027861990965902805
1790958018846016800,10.100016845703125,-0.020436830818653107,0.074586883187294,-0.000520647969096899
1790958018856095700,10.110095703125,-0.019218435510993004,0.06742911040782928,0.014742461033165455
1790958018866174700,10.1201748046875,-0.019828831776976585,0.06524904072284698,0.009588445536792278
1790958018876253700,10.130253662109375,-0.01836436055600643,0.06952794641256332,0.014710502699017525
1790958018886332700,10.140332763671875,-0.012662265449762344,0.08271511644124985,0.011409780941903591
1790958018896411600,10.15041162109375,-0.007928763516247272,0.09137012809515,0.022427543997764587
1790958018906491000,10.160490966796875,-0.015663914382457733,0.11998499184846878,-0.009795638732612133
1790958018916568800,10.17056884765625,-0.01372060552239418,0.13321052491664886,0.021924739703536034
1790958018926647600,10.1806474609375,-0.01703224703669548,0.1545991599559784,-0.0003856257244478911
1790958018936726500,10.1907265625,-0.0143533730879426,0.1704913079738617,0.0047849016264081
1790958018946805800,10.2008056640625,-0.012413259595632553,0.18379274010658264,0.006761766038835049
1790958018956884700,10.210884765625,0.0005733785801567137,0.19530664384365082,0.012503008358180523
1790958018966963700,10.220963623046876,0.0022485069930553436,0.2169746607542038,0.006968161091208458
1790958018977042700,10.231042724609376,0.009211075492203236,0.22976182401180267,0.027584223076701164
1790958018987121700,10.24112158203125,0.016470320522785187,0.23993723094463348,0.017496434971690178
1790958018997200000,10.251199951171875,0.014069479890167713,0.25421205163002014,0.012625779956579208
1790958019007278600,10.261278564453125,0.010941597633063793,0.2660788297653198,0.02137026935815811
1790958019017357600,10.271357666015625,0.017359815537929535,0.2675619423389435,0.021258683875203133
1790958019027436800,10.281436767578125,0.01576564647257328,0.2708147168159485,0.019237609580159187
1790958019037515500,10.291515625,0.01678430661559105,0.2723385691642761,0.007633951026946306
1790958019047594800,10.3015947265625,0.017469272017478943,0.26812678575515747,0.01275813952088356
1790958019057673700,10.311673828125,0.022550582885742188,0.25591006875038147,0.019955864176154137
1790958019067751700,10.321751708984374,0.025052355602383614,0.2529262602329254,0.004585164599120617
1790958019077831000,10.331830810546874,0.025560753419995308,0.262294203042984,0.02004827745258808
1790958019087909600,10.34190966796875,0.029278259724378586,0.26788684725761414,0.03522110357880592
1790958019097988600,10.351988525390626,0.030521957203745842,0.2750086784362793,0.032829318195581436
1790958019108067800,10.36206787109375,0.02791205793619156,0.28918492794036865,0.02738475240767002
1790958019118146600,10.372146484375,0.02177267335355282,0.2977326214313507,0.024705879390239716
1790958019128225800,10.382225830078125,0.019942283630371094,0.30816155672073364,0.02527100220322609
1790958019138304800,10.3923046875,0.006992129608988762,0.3288109004497528,0.0012000204296782613
1790958019148382700,10.4023828125,0.01272777933627367,0.3433038294315338,0.021275194361805916
1790958019158461700,10.412461669921875,0.00532552320510149,0.3537079989910126,0.03428659960627556
1790958019168540700,10.422540771484375,-0.002133458387106657,0.3630916476249695,0.037458427250385284
1790958019178619600,10.43261962890625,0.00443922309204936,0.3493231236934662,0.07048002630472183
1790958019188699000,10.442698974609375,0.005167864263057709,0.33731889724731445,0.02972194366157055
1790958019198777600,10.452777587890624,-0.006717291194945574,0.3451821506023407,0.026457173749804497
1790958019208856600,10.462856689453124,-0.013368003070354462,0.34156718850135803,0.056059274822473526
1790958019218935800,10.472935791015624,-0.009944243356585503,0.357634037733078,0.054783355444669724
1790958019229013800,10.483013671875,-0.025523735210299492,0.3494964838027954,0.034214962273836136
1790958019239092500,10.493092529296876,-0.06700939685106277,0.3501875698566437,0.03730449452996254
1790958019249171700,10.503171630859375,-0.07453442364931107,0.3239905834197998,0.045218609273433685
1790958019259250700,10.513250732421875,-0.07034207135438919,0.3160077631473541,0.028310200199484825
1790958019269329700,10.52332958984375,-0.06494277715682983,0.28358644247055054,0.0753253772854805
1790958019279408600,10.53340869140625,-0.06350227445363998,0.2651975750923157,0.05535806342959404
1790958019289487600,10.543487548828125,-0.07724551856517792,0.2530570328235626,0.04092159867286682
1790958019299565800,10.55356591796875,-0.09456991404294968,0.21973155438899994,0.1061682477593422
1790958019309644800,10.563644775390625,-0.09944749623537064,0.203754723072052,0.1079283282160759
1790958019319723500,10.5737236328125,-0.0622151717543602,0.21052154898643494,0.09089954942464828
1790958019329802800,10.583802734375,-0.08360780775547028,0.17808717489242554,0.07788574695587158
1790958019339881700,10.5938818359375,-0.16411863267421722,0.15113678574562073,0.07245609164237976
1790958019349960700,10.603960693359374,-0.16567765176296234,0.12562210857868195,0.07051438093185425
1790958019360039700,10.614039794921876,-0.1705845147371292,0.07519914954900742,0.07474108040332794
1790958019370118100,10.6241181640625,-0.16018567979335785,0.025309616699814796,0.05510479584336281
1790958019380196000,10.634196044921875,-0.174238383769989,-0.01776088774204254,0.0025720810517668724
1790958019390275300,10.644275390625,-0.18929588794708252,-0.03826216608285904,-0.020972926169633865
1790958019400354000,10.65435400390625,-0.20643146336078644,-0.054661113768815994,-0.0009494169498793781
1790958019410433300,10.664433349609375,-0.24377590417861938,-0.07180734723806381,0.0027273432351648808
1790958019420512300,10.67451220703125,-0.2546256184577942,-0.08200618624687195,-0.01865144819021225
1790958019430591200,10.68459130859375,-0.2615501284599304,-0.0923411175608635,0.0078531289473176
1790958019440670200,10.694670166015625,-0.2596457004547119,-0.10277671366930008,-0.024391358718276024
1790958019450748200,10.704748046875,-0.27168503403663635,-0.08960631489753723,-0.03367513790726662
1790958019460827100,10.7148271484375,-0.2597791254520416,-0.08550504595041275,-0.008066981099545956
1790958019470906400,10.72490625,-0.26950711011886597,-0.0496293380856514,-0.050220560282468796
1790958019480985000,10.734985107421876,-0.2730690836906433,-0.025293905287981033,-0.02075614407658577
1790958019491064000,10.74506396484375,-0.289940744638443,0.013005813583731651,-0.014065219089388847
1790958019501143300,10.755143310546876,-0.29678720235824585,0.041320011019706726,0.027848143130540848
1790958019511222000,10.765221923828125,-0.2863420248031616,0.045336853712797165,0.06154085695743561
1790958019521301200,10.77530126953125,-0.29343506693840027,0.036857616156339645,0.02671949565410614
1790958019531379200,10.785379150390625,-0.3039335310459137,0.05537377670407295,-0.00818176381289959
1790958019541458200,10.795458251953125,-0.305147647857666,0.06126628816127777,0.035227227956056595
1790958019551537200,10.805537109375,-0.2945980727672577,0.012828713282942772,0.07442603260278702
1790958019561616100,10.8156162109375,-0.2716813087463379,-0.00247567449696362,-0.010823885910212994
1790958019571695000,10.825695068359375,-0.2403942346572876,-0.02510109171271324,0.012290221638977528
1790958019581774300,10.8357744140625,-0.2246168702840805,-0.041372738778591156,0.016687899827957153
1790958019591853000,10.84585302734375,-0.26101455092430115,-0.032519858330488205,-0.020534835755825043
1790958019601931000,10.855930908203124,-0.2354482114315033,-0.12623170018196106,0.16263125836849213
1790958019612010200,10.86601025390625,-0.23070697486400604,-0.1907435804605484,0.003338272450491786
1790958019622089200,10.876089111328126,-0.2470787614583969,-0.19880470633506775,-0.12367427349090576
1790958019632168200,10.886168212890626,-0.25273504853248596,-0.23401889204978943,-0.005133242812007666
1790958019642247200,10.8962470703125,-0.25490471720695496,-0.24923592805862427,0.023241406306624413
1790958019652326100,10.906326171875,-0.23736675083637238,-0.2902161180973053,0.02960130199790001
1790958019662405400,10.9164052734375,-0.2260429859161377,-0.3050033152103424,0.06929811090230942
1790958019672484000,10.926484130859375,-0.19434790313243866,-0.34172192215919495,0.07878642529249191
1790958019682562000,10.93656201171875,-0.17097973823547363,-0.3560398817062378,0.014871357940137386
1790958019692641300,10.946641357421875,-0.18140095472335815,-0.33593833446502686,-0.01404631044715643
1790958019702720300,10.95672021484375,-0.20711030066013336,-0.2952311038970947,0.02978079952299595
1790958019712799000,10.966799072265625,-0.23489533364772797,-0.2599269151687622,0.08408185094594955
1790958019722878200,10.976878173828124,-0.28176963329315186,-0.264873206615448,0.07062490284442902
1790958019732957200,10.986957275390624,-0.3317273259162903,-0.2644351124763489,0.03641686215996742
1790958019743036200,10.9970361328125,-0.3425789177417755,-0.2561635971069336,0.054966844618320465
1790958019753114000,11.007114013671876,-0.33999404311180115,-0.29578450322151184,0.04723941907286644
1790958019763193000,11.017193115234376,-0.34318506717681885,-0.33979326486587524,-0.05747874081134796
1790958019773272300,11.027272216796876,-0.36184927821159363,-0.39385196566581726,-0.09083536267280579
1790958019783351300,11.037351318359375,-0.3831559121608734,-0.45449426770210266,-0.10678104311227798
1790958019793430000,11.047429931640625,-0.40967434644699097,-0.515546977519989,-0.1136741042137146
1790958019803509200,11.05750927734375,-0.42867839336395264,-0.5694677233695984,-0.1158088892698288
1790958019813588200,11.067588134765625,-0.4429982006549835,-0.661405622959137,-0.05325869470834732
1790958019823667200,11.077667236328125,-0.43435490131378174,-0.758155882358551,0.0018170748371630907
1790958019833745200,11.0877451171875,-0.418899267911911,-0.8760508298873901,0.030794929713010788
1790958019843824000,11.09782421875,-0.40368300676345825,-0.9360473155975342,-0.05632985010743141
1790958019853903400,11.1079033203125,-0.3971470892429352,-0.9729347825050354,-0.07929615676403046
1790958019863982000,11.117982177734374,-0.4317269027233124,-0.9915606379508972,-0.010395382530987263
1790958019874061000,11.12806103515625,-0.4432051181793213,-1.0169906616210938,-0.02570243366062641
1790958019884140300,11.138140380859374,-0.43425291776657104,-1.0195757150650024,-0.029096366837620735
1790958019894219300,11.14821923828125,-0.4997440278530121,-1.1153502464294434,-0.06091581657528877
1790958019904297200,11.158297119140625,-0.6385802030563354,-1.1738934516906738,-0.13570137321949005
1790958019914376200,11.168376220703125,-0.6950381398200989,-1.269806146621704,-0.11416065692901611
1790958019924455200,11.178455078125,-0.6385602355003357,-1.385324239730835,-0.0728481113910675
1790958019934534100,11.1885341796875,-0.6229327917098999,-1.4411650896072388,-0.20701390504837036
1790958019944613000,11.198613037109375,-0.6005529165267944,-1.4753121137619019,-0.1948091685771942
1790958019954692000,11.208692138671875,-0.5812293291091919,-1.4037508964538574,-0.13998372852802277
1790958019964771300,11.218771240234375,-0.5273213386535645,-1.4541972875595093,-0.03193796053528786
1790958019974850300,11.228850341796875,-0.5577189326286316,-1.4156419038772583,-0.10918614268302917
1790958019984928300,11.23892822265625,-0.5823060274124146,-1.387138843536377,-0.08788830786943436
1790958019995007200,11.24900732421875,-0.6047753691673279,-1.3448569774627686,-0.08918447047472
1790958020005086200,11.259086181640624,-0.6308064460754395,-1.3635627031326294,-0.12253709882497787
1790958020015165200,11.269165283203124,-0.6288479566574097,-1.4217681884765625,-0.09644638001918793
1790958020025244200,11.279244140625,-0.6259709596633911,-1.491442322731018,-0.1658899039030075
1790958020035323100,11.2893232421875,-0.6521130800247192,-1.5070463418960571,-0.1696215271949768
1790958020045402400,11.29940234375,-0.5886105298995972,-1.5313959121704102,-0.1566609889268875
1790958020055480300,11.309480224609375,-0.5480108857154846,-1.5306739807128906,-0.1844143122434616
1790958020065559000,11.31955908203125,-0.46591097116470337,-1.4919757843017578,-0.10628782212734222
1790958020075638300,11.32963818359375,-0.378555566072464,-1.5207734107971191,0.06108519062399864
1790958020085717200,11.33971728515625,-0.33403924107551575,-1.4752250909805298,-0.005037369206547737
1790958020095796200,11.349796142578125,-0.25805923342704773,-1.4389187097549438,0.027819113805890083
1790958020105875200,11.359875244140625,-0.25576919317245483,-1.3412890434265137,0.03958123177289963
1790958020115954200,11.3699541015625,-0.27293699979782104,-1.2190321683883667,0.06088705360889435
1790958020126033400,11.380033447265625,-0.27801457047462463,-1.0986956357955933,0.02581907995045185
1790958020136111400,11.390111328125,-0.2775133550167084,-0.9731446504592896,-0.020261328667402267
1790958020146190000,11.400190185546874,-0.2938539981842041,-0.887423574924469,-0.007930360734462738
1790958020156269000,11.41026904296875,-0.3566516041755676,-0.8819670677185059,0.020081033930182457
1790958020166348300,11.420348388671876,-0.33320218324661255,-0.9087669849395752,0.03621526062488556
1790958020176427000,11.430427001953126,-0.26845648884773254,-0.9058976769447327,-0.1322009116411209
1790958020186506200,11.44050634765625,-0.2829137146472931,-0.8881599307060242,-0.11447437852621078
1790958020196585200,11.450585205078125,-0.2655949294567108,-0.872555673122406,0.0036820864770561457
1790958020206663200,11.4606630859375,-0.2323799729347229,-0.8648673892021179,-0.0096273273229599
1790958020216742400,11.470742431640625,-0.21563935279846191,-0.9078558683395386,0.015634087845683098
1790958020226821000,11.480821044921875,-0.21475304663181305,-0.9188254475593567,0.03382560610771179
1790958020236900000,11.490900146484375,-0.20254139602184296,-0.9354294538497925,0.019779030233621597
1790958020246979300,11.500979248046875,-0.20957906544208527,-0.9614008665084839,0.03491830453276634
1790958020257058000,11.51105810546875,-0.2123037427663803,-0.9177857637405396,-0.07039187103509903
1790958020267137300,11.52113720703125,-0.2015477567911148,-0.9055687785148621,0.026942135766148567
1790958020277216300,11.53121630859375,-0.21955259144306183,-0.8694536685943604,0.0961848571896553
1790958020287294200,11.541294189453126,-0.23684610426425934,-0.8923032879829407,0.03019625134766102
1790958020297373200,11.551373291015626,-0.2603200078010559,-0.8415889739990234,-0.09126945585012436
1790958020307452200,11.5614521484375,-0.2502948045730591,-0.7972095608711243,0.02930728904902935
1790958020317531100,11.57153125,-0.24038544297218323,-0.8392752408981323,0.12703651189804077
1790958020327610400,11.5816103515625,-0.3161771297454834,-0.8005222678184509,-0.13451546430587769
1790958020337689000,11.591689208984375,-0.36092808842658997,-0.7504327297210693,-0.1862015575170517
1790958020347768300,11.601768310546875,-0.3941057622432709,-0.7149927020072937,-0.15294480323791504
1790958020357846300,11.61184619140625,-0.4142238199710846,-0.6351609826087952,-0.090342678129673
1790958020367925800,11.62192578125,-0.397949755191803,-0.6442671418190002,-0.031212514266371727
1790958020378004700,11.632004638671875,-0.34140658378601074,-0.6135110855102539,-0.04746818169951439
1790958020388084000,11.642083984375,-0.24849450588226318,-0.6039732098579407,0.039737824350595474
1790958020398163000,11.652162841796875,-0.18274851143360138,-0.6188773512840271,-0.017000554129481316
1790958020408241700,11.66224169921875,-0.1640280783176422,-0.6114146709442139,0.02292795293033123
1790958020418321000,11.67232080078125,-0.15996436774730682,-0.5998389720916748,0.10774563997983932
1790958020428399900,11.68239990234375,-0.11559104174375534,-0.6098961234092712,0.17243169248104095
1790958020438477800,11.692477783203126,-0.12558695673942566,-0.6174251437187195,0.15188007056713104
1790958020448556800,11.702556884765626,-0.15405455231666565,-0.5593341588973999,0.10325581580400467
1790958020458635800,11.7126357421875,-0.16440358757972717,-0.45350784063339233,0.053641390055418015
1790958020468715000,11.722715087890625,-0.048291098326444626,-0.3247847557067871,0.02015320584177971
1790958020478794000,11.7327939453125,0.06671883910894394,-0.24674160778522491,0.0591362901031971
1790958020488872700,11.742872802734375,0.05720603093504906,-0.1694558709859848,-0.004314587451517582
1790958020498952000,11.752951904296875,0.026087259873747826,-0.1090330109000206,-0.009945308789610863
1790958020509030000,11.76302978515625,0.036438699811697006,-0.12085451930761337,0.1164400577545166
1790958020519108900,11.77310888671875,0.040110666304826736,-0.14126445353031158,0.0147485863417387
1790958020529187800,11.783187744140625,0.023420104756951332,-0.07601753622293472,-0.13498897850513458
1790958020539266800,11.793266845703124,0.04253707453608513,-0.07486092299222946,0.09485327452421188
1790958020549346000,11.803345947265624,0.0988413617014885,-0.1738538146018982,0.2642316520214081
1790958020559424800,11.8134248046875,0.09944243729114532,-0.10953075438737869,0.0562177337706089
1790958020569503700,11.823503662109376,0.1499713808298111,-0.18483856320381165,0.3103826344013214
1790958020579581700,11.833581787109376,0.18039827048778534,-0.217314213514328,0.34432435035705566
1790958020589661000,11.843660888671875,0.17160211503505707,-0.2601889669895172,0.21223849058151245
1790958020599740000,11.853739990234375,0.14402560889720917,-0.18463508784770966,0.20123004913330078
1790958020609819000,11.86381884765625,0.0836552157998085,-0.12925438582897186,0.2056809961795807
1790958020619897900,11.87389794921875,0.12061456590890884,-0.0774788111448288,0.17126762866973877
1790958020629976800,11.883976806640625,0.2250533550977707,-0.005292766261845827,0.08781587332487106
1790958020640055800,11.894055908203125,0.19857540726661682,0.06580378115177155,0.025841450318694115
1790958020650134800,11.904134765625,0.201697438955307,0.12558668851852417,-0.03732979670166969
1790958020660212700,11.914212646484375,0.20920461416244507,0.20759446918964386,-0.04156821593642235
1790958020670292000,11.9242919921875,0.22706563770771027,0.2446531504392624,0.05997385457158089
1790958020680370700,11.93437060546875,0.2758963108062744,0.21789637207984924,0.19543181359767914
1790958020690450000,11.944449951171874,0.29441192746162415,0.2834697961807251,-0.046001579612493515
1790958020700529000,11.95452880859375,0.2889668345451355,0.36393988132476807,-0.03320961818099022
1790958020710608000,11.96460791015625,0.29037511348724365,0.43016576766967773,0.19585685431957245
1790958020720686800,11.974686767578126,0.2970902621746063,0.5013174414634705,0.25549861788749695
1790958020730764800,11.984764892578125,0.311311274766922,0.4781964123249054,0.17785228788852692
1790958020740843800,11.99484375,0.3228352963924408,0.4827277660369873,0.11619850993156433
1790958020750923000,12.004923095703125,0.27544543147087097,0.49994298815727234,0.10930145531892776
1790958020761001700,12.015001708984375,0.22907179594039917,0.5451663732528687,0.18809880316257477
1790958020771081000,12.0250810546875,0.19762253761291504,0.5442185401916504,0.2361707240343094
1790958020781160000,12.035159912109375,0.25738146901130676,0.6723573803901672,0.0792173221707344
1790958020791239000,12.045239013671875,0.4739164412021637,0.8175150752067566,0.03112090192735195
1790958020801316900,12.05531689453125,0.5618636012077332,0.8917935490608215,0.12057141959667206
1790958020811395800,12.065395751953124,0.5551950335502625,1.0313818454742432,-0.006164685357362032
1790958020821474800,12.075474853515624,0.5610784888267517,1.0981414318084717,0.02594398334622383
1790958020831554000,12.085553955078124,0.6056345105171204,1.0634891986846924,0.19888193905353546
1790958020841632800,12.0956328125,0.6067628860473633,1.1225879192352295,0.04732011258602142
1790958020851711700,12.105711669921876,0.6043279767036438,1.1986727714538574,-0.05873122438788414
1790958020861791000,12.115791015625,0.6228699684143066,1.266591191291809,0.1312517672777176
1790958020871869700,12.12586962890625,0.6746655106544495,1.3444923162460327,0.35039690136909485
1790958020881947600,12.13594775390625,0.7169573307037354,1.2993613481521606,0.32671844959259033
1790958020892027000,12.14602685546875,0.7664404511451721,1.3139445781707764,0.10111942887306213
1790958020902105900,12.15610595703125,0.7103675603866577,1.3623526096343994,-0.017293237149715424
1790958020912184800,12.166184814453125,0.6693876385688782,1.449663519859314,0.09667780995368958
1790958020922263800,12.176263916015625,0.6705206036567688,1.4216954708099365,0.2802388370037079
1790958020932342800,12.1863427734375,0.7117287516593933,1.4204853773117065,0.16364379227161407
1790958020942422000,12.196422119140625,0.7375712394714355,1.4183934926986694,0.014493987895548344
1790958020952500000,12.2065,0.6923590302467346,1.4097925424575806,0.041598841547966
1790958020962578700,12.21657861328125,0.6786245703697205,1.4311209917068481,0.0027443873696029186
1790958020972658000,12.226657958984376,0.6191332936286926,1.451821208000183,0.088194839656353
1790958020982737000,12.23673681640625,0.6609278917312622,1.3948726654052734,0.23938435316085815
