time,seconds_elapsed,z,y,x
1790958008812465700,0.066465576171875,0.042491018772125244,-0.01591729000210762,0.2212454378604889
1790958008822545000,0.076544921875,0.05552612617611885,0.028540989384055138,0.22104863822460175
1790958008832623600,0.08662353515625,0.10266274958848953,0.11624820530414581,0.24095629155635834
1790958008842702600,0.09670263671875,0.20311905443668365,0.18995678424835205,0.30145877599716187
1790958008852781800,0.10678173828125,0.35588595271110535,0.17548543214797974,0.41420239210128784
1790958008862860800,0.11686083984375,0.44276413321495056,0.0382964126765728,0.49479177594184875
1790958008872939800,0.126939697265625,0.4824683964252472,-0.06632772833108902,0.5881752967834473
1790958008883018800,0.137018798828125,0.4994082450866699,-0.11537064611911774,0.6582155823707581
1790958008893097700,0.14709765625,0.5420006513595581,-0.10215630382299423,0.7194046378135681
1790958008903176000,0.157176025390625,0.5952883958816528,-0.05045875534415245,0.7635303139686584
1790958008913254700,0.167254638671875,0.6329425573348999,-0.05540451407432556,0.8342995643615723
1790958008923333600,0.177333740234375,0.6886383295059204,-0.05697790905833244,0.8990974426269531
1790958008933412900,0.187412841796875,0.782444179058075,0.08649669587612152,0.875494122505188
1790958008943491600,0.19749169921875,0.8415887355804443,0.2862042188644409,0.8091995120048523
1790958008953570800,0.20757080078125,0.856934130191803,0.3943474590778351,0.7857162952423096
1790958008963649800,0.21764990234375,0.8426792621612549,0.3996143937110901,0.8085832595825195
1790958008973728800,0.227728759765625,0.8404134511947632,0.38382184505462646,0.8529952168464661
1790958008983807700,0.237807861328125,0.89242023229599,0.2962443232536316,0.9512717127799988
1790958008993886700,0.24788671875,0.9633705615997314,0.08726688474416733,1.1212029457092285
1790958009003965700,0.257965576171875,1.0522551536560059,-0.008741667494177818,1.3127806186676025
1790958009014044700,0.268044677734375,1.0864604711532593,0.023961417376995087,1.4839731454849243
1790958009024123600,0.27812353515625,1.0472228527069092,0.1318008005619049,1.6374609470367432
1790958009034203000,0.288202880859375,1.0158566236495972,0.2664313018321991,1.765250325202942
1790958009044280800,0.29828076171875,1.0387630462646484,0.36801332235336304,1.866194248199463
1790958009054359600,0.308359619140625,1.0894533395767212,0.40286558866500854,1.9534484148025513
1790958009064438800,0.318438720703125,1.1366230249404907,0.28836217522621155,2.0890095233917236
1790958009074517800,0.328517822265625,1.185971975326538,0.112032949924469,2.1281726360321045
1790958009084596700,0.3385966796875,1.2425390481948853,0.06813207268714905,2.12770938873291
1790958009094675700,0.34867578125,1.2849386930465698,-0.025700410827994347,2.077256441116333
1790958009104754700,0.358754638671875,1.3028546571731567,-0.152412548661232,1.9914581775665283
1790958009114834000,0.368833984375,1.2814550399780273,-0.21699818968772888,1.8600060939788818
1790958009124912600,0.37891259765625,1.2265124320983887,-0.1764502376317978,1.6464635133743286
1790958009134991600,0.38899169921875,1.119957447052002,-0.07281333208084106,1.3687593936920166
1790958009145070800,0.39907080078125,0.9813433885574341,0.01743081398308277,1.0794413089752197
1790958009155149800,0.40914990234375,0.851710855960846,0.07840575277805328,0.8322169780731201
1790958009165228800,0.419228759765625,0.7196846604347229,0.13747359812259674,0.6282824873924255
1790958009175306800,0.429306640625,0.5999680757522583,0.1965523660182953,0.4543934762477875
1790958009185385700,0.4393857421875,0.5224583745002747,0.24268151819705963,0.31558817625045776
1790958009195464700,0.449464599609375,0.4995640218257904,0.21967633068561554,0.21651193499565125
1790958009205543700,0.459543701171875,0.5040274262428284,0.17552964389324188,0.16395898163318634
1790958009215622700,0.46962255859375,0.5393558740615845,0.145727276802063,0.12151619791984558
1790958009225702000,0.479701904296875,0.5488479137420654,0.1885661482810974,0.08204293251037598
1790958009235780600,0.489780517578125,0.49169591069221497,0.22680780291557312,0.07370137423276901
1790958009245859600,0.499859619140625,0.45222148299217224,0.22623282670974731,0.08898419141769409
1790958009255938800,0.509938720703125,0.4590514302253723,0.15164540708065033,0.12965652346611023
1790958009266017800,0.520017822265625,0.5130842924118042,0.05357636883854866,0.19892027974128723
1790958009276096800,0.5300966796875,0.586250901222229,-0.017170503735542297,0.2560077905654907
1790958009286175700,0.54017578125,0.6666320562362671,-0.02513335645198822,0.3013180196285248
1790958009296254700,0.550254638671875,0.7438615560531616,-0.037499211728572845,0.3826459050178528
1790958009306333700,0.560333740234375,0.800456166267395,-0.08386458456516266,0.5085905194282532
1790958009316411600,0.57041162109375,0.8013365864753723,-0.12433983385562897,0.6481178402900696
1790958009326490600,0.58049072265625,0.7500278949737549,-0.07400289922952652,0.7524322271347046
1790958009336569900,0.59056982421875,0.6789411902427673,0.05027644708752632,0.7982116937637329
1790958009346648600,0.600648681640625,0.598869264125824,0.10855572670698166,0.8223807215690613
1790958009356726800,0.610726806640625,0.5190148949623108,0.09734515100717545,0.848487138748169
1790958009366806000,0.620805908203125,0.4397357702255249,0.07072073221206665,0.8712302446365356
1790958009376885000,0.630885009765625,0.3620692193508148,0.015078778378665447,0.8842800259590149
1790958009386964000,0.6409638671875,0.29831022024154663,-0.05519618093967438,0.8919419050216675
1790958009397043000,0.65104296875,0.2481711506843567,-0.08408162742853165,0.8919997215270996
1790958009407122000,0.661121826171875,0.1973915994167328,-0.11537164449691772,0.9040856957435608
1790958009417201200,0.671201171875,0.10063736140727997,-0.09995939582586288,0.9050074219703674
1790958009427280000,0.68127978515625,-0.028231410309672356,-0.0069168019108474255,0.853718101978302
1790958009437358800,0.69135888671875,-0.14347517490386963,0.07269253581762314,0.7472816705703735
1790958009447437000,0.70143701171875,-0.22301501035690308,0.10765291750431061,0.6217895150184631
1790958009457516000,0.71151611328125,-0.27825191617012024,0.14038929343223572,0.4868474006652832
1790958009467594800,0.7215947265625,-0.3091485798358917,0.1911691129207611,0.3450375497341156
1790958009477674000,0.731674072265625,-0.300691694021225,0.20346812903881073,0.2338992953300476
1790958009487753000,0.7417529296875,-0.2598414719104767,0.1955540031194687,0.1701810359954834
1790958009497832000,0.75183203125,-0.1751321703195572,0.15939414501190186,0.16605767607688904
1790958009507911000,0.761910888671875,-0.06307114660739899,0.08220188319683075,0.23268383741378784
1790958009517990000,0.771989990234375,0.027239037677645683,0.02673863247036934,0.3223050534725189
1790958009528069000,0.782069091796875,0.08328872919082642,-0.016919901594519615,0.40846899151802063
1790958009538147800,0.79214794921875,0.0785062238574028,-0.019501302391290665,0.46086373925209045
1790958009548226800,0.802226806640625,0.028088053688406944,0.02126290276646614,0.4768837094306946
1790958009558306000,0.81230615234375,-0.010080902837216854,0.06321647763252258,0.5124273896217346
1790958009568384800,0.822384765625,-0.020567364990711212,0.09577015787363052,0.5934149026870728
1790958009578464000,0.832464111328125,0.011042491532862186,0.09120363742113113,0.6894250512123108
1790958009588542000,0.8425419921875,0.07808943837881088,0.0690794289112091,0.7757924199104309
1790958009598621000,0.852620849609375,0.17124681174755096,-0.004495988599956036,0.860960066318512
1790958009608700200,0.8627001953125,0.2845267653465271,-0.09758785367012024,0.9194526672363281
1790958009618779000,0.87277880859375,0.3822610378265381,-0.15589483082294464,0.941057026386261
1790958009628857900,0.88285791015625,0.4359716773033142,-0.19182780385017395,0.9020731449127197
1790958009638937000,0.89293701171875,0.42909377813339233,-0.17000558972358704,0.8361178040504456
1790958009649015800,0.903015869140625,0.36598727107048035,-0.11409652233123779,0.7569420337677002
1790958009659095000,0.913094970703125,0.3044871389865875,-0.06332894414663315,0.6914820671081543
1790958009669174000,0.923174072265625,0.241774782538414,-0.015501768328249454,0.6364113688468933
1790958009679252700,0.933252685546875,0.1891017109155655,0.02367785945534706,0.5760098099708557
1790958009689332000,0.94333203125,0.16357238590717316,0.05363282933831215,0.5084328651428223
1790958009699411000,0.953410888671875,0.16322563588619232,0.01806977391242981,0.45367667078971863
1790958009709490000,0.963489990234375,0.14459548890590668,-0.016662638634443283,0.37671664357185364
1790958009719568100,0.973568115234375,0.10935814678668976,-0.015035981312394142,0.30693650245666504
1790958009729646800,0.983646728515625,0.08182185888290405,-0.03512527048587799,0.2761029601097107
1790958009739725800,0.993725830078125,0.07260172814130783,-0.07188994437456131,0.2862357497215271
1790958009749805000,1.00380517578125,0.0879782885313034,-0.09521044790744781,0.316727876663208
1790958009759883800,1.0138837890625,0.11664588749408722,-0.12435209006071091,0.3722497224807739
1790958009769963000,1.023962890625,0.14422132074832916,-0.12102526426315308,0.4225565791130066
1790958009780042000,1.0340419921875,0.16576549410820007,-0.1168917715549469,0.46174365282058716
1790958009790121000,1.044120849609375,0.20462794601917267,-0.12487353384494781,0.46126481890678406
1790958009800200000,1.054199951171875,0.24057155847549438,-0.1632038801908493,0.4306182265281677
1790958009810279000,1.06427880859375,0.2873278558254242,-0.1809847354888916,0.4065174162387848
1790958009820358100,1.074358154296875,0.33627861738204956,-0.23050035536289215,0.3840011954307556
1790958009830436900,1.084436767578125,0.38882094621658325,-0.3034406006336212,0.42571401596069336
1790958009840515800,1.094515869140625,0.41841450333595276,-0.3661833703517914,0.4988159239292145
1790958009850594000,1.104593994140625,0.4212324023246765,-0.3673202693462372,0.5668514370918274
1790958009860673000,1.114673095703125,0.4056449234485626,-0.3504731059074402,0.604465663433075
1790958009870751700,1.124751708984375,0.38319873809814453,-0.31882062554359436,0.5930569767951965
1790958009880831000,1.1348310546875,0.37028878927230835,-0.2638183832168579,0.5519481301307678
1790958009890910000,1.144909912109375,0.3500162661075592,-0.2589053809642792,0.5272369384765625
1790958009900989000,1.154989013671875,0.368070125579834,-0.3395003378391266,0.586528480052948
1790958009911068000,1.16506787109375,0.3887370526790619,-0.43204519152641296,0.6970992088317871
1790958009921147000,1.17514697265625,0.3920143246650696,-0.46926820278167725,0.7850021719932556
1790958009931226000,1.18522607421875,0.35691919922828674,-0.4007471799850464,0.8176804780960083
1790958009941304800,1.195304931640625,0.30280163884162903,-0.30881062150001526,0.7866773009300232
1790958009951383800,1.2053837890625,0.2718101441860199,-0.24728412926197052,0.7391960620880127
1790958009961463000,1.215463134765625,0.2443505823612213,-0.23346924781799316,0.7411462664604187
1790958009971541800,1.225541748046875,0.2043728083372116,-0.19785746932029724,0.76517254114151
1790958009981621000,1.23562109375,0.1799636036157608,-0.1572333425283432,0.7743237018585205
1790958009991699000,1.245698974609375,0.17091259360313416,-0.12535902857780457,0.776005744934082
1790958010001778000,1.25577783203125,0.1491766721010208,-0.10129231214523315,0.7440184950828552
1790958010011857200,1.265857177734375,0.08845020085573196,-0.056942418217659,0.7064452767372131
1790958010021935900,1.275935791015625,0.007224051747471094,0.006825641728937626,0.6781428456306458
1790958010032014800,1.286014892578125,-0.02880984917283058,0.01999044418334961,0.6653798818588257
1790958010042094000,1.296093994140625,0.005518829915672541,-0.0002612960524857044,0.6643873453140259
1790958010052172800,1.3061728515625,0.044944532215595245,-0.07185878604650497,0.6709235310554504
1790958010062252000,1.316251953125,0.03595662862062454,-0.06033794954419136,0.6324265003204346
1790958010072331000,1.3263310546875,-0.026125915348529816,0.032956577837467194,0.5690823793411255
1790958010082410000,1.336409912109375,-0.08028236031532288,0.11980119347572327,0.51316237449646
1790958010092489000,1.346489013671875,-0.06855166703462601,0.138688862323761,0.48013731837272644
1790958010102568000,1.35656787109375,-0.024754920974373817,0.07383929193019867,0.4608056843280792
1790958010112646000,1.36664599609375,0.004152894485741854,0.008830735459923744,0.41786861419677734
1790958010122725000,1.37672509765625,-0.02205287665128708,0.005931085906922817,0.33614233136177063
1790958010132803800,1.386803955078125,-0.07390515506267548,0.0050232140347361565,0.282207190990448
1790958010142882800,1.3968828125,-0.11812800914049149,-0.04467829316854477,0.32164326310157776
1790958010152962000,1.406962158203125,-0.12946827709674835,-0.05595678091049194,0.3618814945220947
1790958010163040800,1.417040771484375,-0.08570828288793564,-0.052298929542303085,0.31916892528533936
1790958010173120000,1.4271201171875,-0.0351705439388752,-0.12474650144577026,0.2451213300228119
1790958010183199000,1.437198974609375,-0.01628606766462326,-0.12354808300733566,0.15473231673240662
1790958010193278000,1.44727783203125,-0.05978720635175705,-0.07134346663951874,0.09822296351194382
1790958010203357000,1.45735693359375,-0.09802886098623276,-0.035452306270599365,0.08457133173942566
1790958010213436000,1.467435791015625,-0.1169130727648735,-0.018487170338630676,0.0790809616446495
1790958010223515100,1.47751513671875,-0.1539674997329712,-0.04082443565130234,0.0895644947886467
1790958010233593900,1.48759375,-0.18618540465831757,-0.08653885871171951,0.11090211570262909
1790958010243671800,1.497671875,-0.21640083193778992,-0.10379321873188019,0.11685401201248169
1790958010253751000,1.5077509765625,-0.21829354763031006,-0.07872062176465988,0.11008266359567642
1790958010263830000,1.517830078125,-0.20714661478996277,-0.06802110373973846,0.11198388785123825
1790958010273908700,1.52790869140625,-0.18846213817596436,-0.07231251895427704,0.10756836831569672
1790958010283988000,1.537988037109375,-0.1797938197851181,-0.06801924109458923,0.10440240800380707
1790958010294067000,1.54806689453125,-0.17236599326133728,-0.06732042133808136,0.10619471222162247
1790958010304146200,1.558146240234375,-0.18357683718204498,-0.07512002438306808,0.14411784708499908
1790958010314225000,1.568224853515625,-0.18944351375102997,-0.11831889301538467,0.19547611474990845
1790958010324304000,1.578303955078125,-0.17277266085147858,-0.16185277700424194,0.254008412361145
1790958010334383000,1.588383056640625,-0.15837854146957397,-0.17861472070217133,0.29743126034736633
1790958010344461800,1.5984619140625,-0.1513509899377823,-0.1831575334072113,0.3209751844406128
1790958010354540800,1.608540771484375,-0.16311044991016388,-0.18581217527389526,0.3507951498031616
1790958010364620800,1.618620849609375,-0.19508755207061768,-0.18314075469970703,0.3551044166088104
1790958010374698800,1.62869873046875,-0.23468662798404694,-0.17685969173908234,0.3560066819190979
1790958010384778000,1.638778076171875,-0.28872057795524597,-0.18717704713344574,0.3540111780166626
1790958010394857000,1.64885693359375,-0.3430149555206299,-0.16554339230060577,0.3385153114795685
1790958010404936000,1.65893603515625,-0.35379278659820557,-0.11428553611040115,0.3371163606643677
1790958010415015000,1.669014892578125,-0.32319971919059753,-0.12205318361520767,0.3842526972293854
1790958010425094000,1.679093994140625,-0.2609770894050598,-0.16636870801448822,0.3771340847015381
1790958010435173000,1.689173095703125,-0.20860229432582855,-0.19583046436309814,0.3211381733417511
1790958010445251800,1.699251953125,-0.19113489985466003,-0.19842304289340973,0.2560681104660034
1790958010455330800,1.709330810546875,-0.19339990615844727,-0.12006033957004547,0.19466225802898407
1790958010465410000,1.71941015625,-0.17309942841529846,0.02352106384932995,0.16858483850955963
1790958010475489000,1.729489013671875,-0.1459628939628601,-0.0479469932615757,-0.0034028892405331135
1790958010485568000,1.739568115234375,-0.10083749145269394,-0.11123009026050568,-0.05838118493556976
1790958010495646000,1.74964599609375,-0.08817708492279053,-0.19888563454151154,-0.14419196546077728
1790958010505725000,1.759724853515625,-0.019946902990341187,-0.1932077705860138,-0.2094798982143402
1790958010515804200,1.76980419921875,0.09226645529270172,-0.32343369722366333,-0.21767550706863403
1790958010525883000,1.7798828125,0.1951499581336975,-0.3670402765274048,-0.3545321524143219
1790958010535961900,1.7899619140625,0.27427592873573303,-0.3495635688304901,-0.3552466630935669
1790958010546041000,1.800041015625,0.32336705923080444,-0.3190610408782959,-0.31347551941871643
1790958010556119800,1.810119873046875,0.28822582960128784,-0.24618977308273315,-0.22870498895645142
1790958010566198800,1.82019873046875,0.20760662853717804,-0.16819164156913757,-0.2307489663362503
1790958010576278000,1.830278076171875,0.21296517550945282,-0.15475839376449585,-0.09216205030679703
1790958010586357000,1.84035693359375,0.24608024954795837,-0.02425231598317623,-0.12144990265369415
1790958010596436000,1.85043603515625,0.23915790021419525,0.010100064799189568,0.029141737148165703
1790958010606515000,1.860514892578125,0.172361820936203,0.09077120572328568,0.2845066785812378
1790958010616593000,1.870593017578125,-0.0362132266163826,0.16367179155349731,0.4492809772491455
1790958010626672000,1.880672119140625,-0.15023113787174225,0.17253851890563965,0.4575072228908539
1790958010636750800,1.890750732421875,-0.18027904629707336,0.12069261819124222,0.4261966943740845
1790958010646829800,1.900829833984375,-0.20354628562927246,0.09877773374319077,0.3287806510925293
1790958010656909000,1.910908935546875,-0.1937253475189209,0.10913503170013428,0.2953023314476013
1790958010666987800,1.92098779296875,-0.15188708901405334,0.10856804251670837,0.2509588301181793
1790958010677067000,1.93106689453125,-0.08912623673677444,0.08982817828655243,0.17540013790130615
1790958010687146000,1.94114599609375,-0.04116936773061752,0.05014229193329811,0.121582992374897
1790958010697225000,1.951224853515625,-0.022087551653385162,0.051851507276296616,0.07882674038410187
1790958010707304000,1.961303955078125,-0.03132792189717293,0.044686272740364075,0.05608946830034256
1790958010717383000,1.9713828125,-0.038715530186891556,0.056174881756305695,0.042998433113098145
1790958010727462100,1.981462158203125,-0.06532769650220871,0.06904327124357224,0.04080185666680336
1790958010737540900,1.991540771484375,-0.08136498928070068,0.08284137398004532,0.01986088789999485
1790958010747618800,2.001618896484375,-0.08283744752407074,0.09208201617002487,0.011056210845708847
1790958010757697800,2.01169775390625,-0.08321135491132736,0.10344386100769043,-0.015978602692484856
1790958010767777000,2.021777099609375,-0.09263202548027039,0.09937720745801926,-0.02353825233876705
1790958010777856000,2.03185595703125,-0.08774325996637344,0.061606135219335556,-0.018090223893523216
1790958010787935000,2.04193505859375,-0.06676048040390015,0.011307541280984879,-0.003932858817279339
1790958010798014000,2.052013916015625,-0.04621872305870056,-0.028681153431534767,0.020709635689854622
1790958010808093000,2.062093017578125,-0.028679940849542618,-0.08488397300243378,0.06031430512666702
1790958010818172000,2.072171875,-0.02592436783015728,-0.11823394149541855,0.06150873377919197
1790958010828251000,2.0822509765625,-0.044964905828237534,-0.15152664482593536,0.032580144703388214
1790958010838330000,2.092330078125,-0.068519227206707,-0.21617327630519867,-0.015401494689285755
1790958010848408800,2.102408935546875,-0.09904704242944717,-0.2784885764122009,-0.05072806030511856
1790958010858487800,2.11248779296875,-0.13952869176864624,-0.2925972044467926,-0.08642400801181793
1790958010868566000,2.12256591796875,-0.16426493227481842,-0.274600625038147,-0.10889708995819092
1790958010878645000,2.13264501953125,-0.13167476654052734,-0.2575145959854126,-0.07834796607494354
1790958010888724000,2.142723876953125,-0.060682084411382675,-0.3604777157306671,-0.04248637333512306
1790958010898803000,2.152802978515625,-0.004197235219180584,-0.2794012427330017,0.012540657073259354
1790958010908882000,2.1628818359375,0.05688449367880821,0.28448742628097534,0.5067972540855408
1790958010918961200,2.172961181640625,0.13472603261470795,-0.06558644026517868,0.396532267332077
1790958010929040000,2.183039794921875,0.04549175873398781,0.02071063034236431,0.10724826157093048
1790958010939118800,2.193118896484375,-0.0010669557377696037,0.062497224658727646,-0.10118591040372849
1790958010949198000,2.203197998046875,0.027832070365548134,0.06673271209001541,-0.10419714450836182
1790958010959276800,2.21327685546875,0.028730621561408043,0.06490498781204224,-0.0790310725569725
1790958010969355800,2.223355712890625,0.023983003571629524,0.10595522075891495,-0.11332406103610992
1790958010979435000,2.23343505859375,0.04274923354387283,0.09399336576461792,-0.1699093133211136
1790958010989513000,2.243512939453125,0.05952927842736244,0.09650712460279465,-0.1803523749113083
1790958010999592000,2.253592041015625,0.06844475120306015,0.08921192586421967,-0.1339782178401947
1790958011009671000,2.2636708984375,0.08597500622272491,0.07735499739646912,-0.07894451916217804
1790958011019750000,2.27375,0.07801614701747894,0.06187990680336952,-0.05174165964126587
1790958011029829000,2.2838291015625,0.04557245224714279,0.044459905475378036,-0.03405587375164032
1790958011039907800,2.293907958984375,-0.005328013561666012,0.039924006909132004,-0.02462056092917919
1790958011049986800,2.30398681640625,-0.033649932593107224,0.04927756264805794,-0.03593553230166435
1790958011060066000,2.314066162109375,-0.03367682918906212,0.10976859927177429,0.01624218374490738
1790958011070144800,2.324144775390625,0.00741121731698513,0.07823410630226135,0.12102505564689636
1790958011080224000,2.33422412109375,0.029326902702450752,0.080902598798275,0.16514457762241364
1790958011090303000,2.344302978515625,0.05435262620449066,-0.010572456754744053,0.09515883773565292
1790958011100382000,2.3543818359375,0.08591455221176147,-0.0666559636592865,0.028854114934802055
1790958011110460200,2.364460205078125,0.10365466773509979,-0.06447882950305939,-0.03599411994218826
1790958011120539000,2.374538818359375,0.05879797413945198,-0.021524440497159958,-0.08583704382181168
1790958011130617900,2.384617919921875,-0.06071989983320236,0.03875488042831421,-0.09183501452207565
1790958011140697000,2.394697021484375,-0.18358643352985382,0.08247652649879456,-0.07388477772474289
1790958011150775800,2.40477587890625,-0.20141522586345673,0.0620945580303669,-0.002828445751219988
1790958011160855000,2.41485498046875,-0.18376566469669342,0.06680701673030853,0.07446740567684174
1790958011170934000,2.42493408203125,-0.22660793364048004,0.029474293813109398,0.0360473170876503
1790958011181013000,2.435012939453125,-0.3161891996860504,0.0602915994822979,0.004478469491004944
1790958011191092000,2.445092041015625,-0.3631167709827423,0.0916854664683342,0.012350773438811302
1790958011201171000,2.4551708984375,-0.3572391867637634,0.11059843748807907,0.06356415897607803
1790958011211250000,2.46525,-0.30489474534988403,0.07373762875795364,0.16154104471206665
1790958011221329000,2.475328857421875,-0.2294820100069046,0.07116740942001343,0.2241213470697403
1790958011231406800,2.48540673828125,-0.1587604433298111,0.04755396395921707,0.22863273322582245
1790958011241485800,2.49548583984375,-0.10062480717897415,0.023435430601239204,0.20523284375667572
1790958011251565000,2.50556494140625,-0.05674976110458374,0.013281062245368958,0.15995749831199646
1790958011261643800,2.515643798828125,-0.017495296895503998,-0.01883559487760067,0.10370276123285294
1790958011271723000,2.525722900390625,0.002470422303304076,-0.030249902978539467,0.035085614770650864
1790958011281802000,2.535802001953125,-0.0005043286946602166,-0.03468326851725578,-0.022589396685361862
1790958011291881000,2.545880859375,0.002079736441373825,-0.05856010317802429,-0.03393419831991196
1790958011301960000,2.5559599609375,-0.001883846241980791,-0.08438025414943695,-0.0305852722376585
1790958011312039000,2.566038818359375,-0.007516165263950825,-0.08644793182611465,-0.0335746705532074
1790958011322118100,2.5761181640625,0.02245425060391426,-0.05530332401394844,-0.07391995936632156
1790958011332196900,2.58619677734375,0.026499059051275253,-0.023677486926317215,-0.13775886595249176
1790958011342274800,2.59627490234375,0.021473940461874008,0.005391713697463274,-0.22021858394145966
1790958011352354000,2.60635400390625,0.05726495757699013,0.05271875113248825,-0.24133825302124023
1790958011362432800,2.616432861328125,0.1121327355504036,0.044430725276470184,-0.22145377099514008
1790958011372511700,2.62651171875,0.17379742860794067,0.032285112887620926,-0.2351655811071396
1790958011382590700,2.6365908203125,0.25700393319129944,0.025052234530448914,-0.2288629412651062
1790958011392670000,2.646669921875,0.3486720621585846,0.01852749101817608,-0.21312233805656433
1790958011402749000,2.6567490234375,0.4490894675254822,0.022875100374221802,-0.1708129644393921
1790958011412827600,2.66682763671875,0.5123869180679321,0.02311079017817974,-0.1365939974784851
1790958011422907000,2.676906982421875,0.5566164255142212,0.04866169020533562,-0.1432870626449585
1790958011432985900,2.68698583984375,0.6198949813842773,0.045284003019332886,-0.17625246942043304
1790958011443064800,2.69706494140625,0.6744189858436584,0.014728490263223648,-0.22035440802574158
1790958011453143800,2.707143798828125,0.31918472051620483,-0.34842759370803833,0.04415767267346382
1790958011463221800,2.7172216796875,-0.15387284755706787,-0.14851635694503784,0.387352854013443
1790958011473300700,2.72730078125,-0.12455011159181595,-0.21686504781246185,0.38965702056884766
1790958011483380000,2.7373798828125,0.0024738844949752092,-0.15344400703907013,0.14291007816791534
1790958011493458700,2.747458740234375,0.014307107776403427,-0.04139762744307518,-0.0877702608704567
1790958011503538000,2.757537841796875,-0.003054571570828557,-0.05227690935134888,-0.04995843768119812
1790958011513617000,2.767616943359375,0.004444091115146875,-0.07323891669511795,0.031008848920464516
1790958011523695600,2.777695556640625,-0.0023070224560797215,-0.07484880089759827,0.01791541837155819
1790958011533774800,2.78777490234375,-0.007625887636095285,-0.07360803335905075,-0.017028717324137688
1790958011543853800,2.797853759765625,-0.009506079368293285,-0.08069790154695511,-0.02437691204249859
1790958011553932800,2.807932861328125,-0.005816269665956497,-0.08448384702205658,-0.023104187101125717
1790958011564011800,2.81801171875,-0.008550803177058697,-0.08761119842529297,-0.027920512482523918
1790958011574090800,2.8280908203125,-0.009166526608169079,-0.08852706104516983,-0.03795024752616882
1790958011584169000,2.8381689453125,-0.003915571607649326,-0.09299078583717346,-0.029395904392004013
1790958011594248000,2.848248046875,-0.009586506523191929,-0.09115799516439438,-0.016826316714286804
1790958011604326700,2.85832666015625,-0.013620397076010704,-0.08628334850072861,-0.004463390447199345
1790958011614406000,2.868406005859375,-0.011751922778785229,-0.08989912271499634,-0.011338607408106327
1790958011624484900,2.87848486328125,-0.014555166475474834,-0.08222122490406036,-0.0047635287046432495
1790958011634563800,2.888563720703125,-0.016765058040618896,-0.08253894001245499,0.006415089592337608
1790958011644642800,2.898642822265625,-0.0036370051093399525,-0.07988883554935455,0.011279885657131672
1790958011654721800,2.9087216796875,-0.0007658511167392135,-0.07324158400297165,0.002920223167166114
1790958011664800800,2.91880078125,0.0038379556499421597,-0.06934750825166702,0.005294697359204292
1790958011674879700,2.928879638671875,-0.002980535849928856,-0.059603530913591385,0.0053088124841451645
1790958011684958700,2.938958740234375,0.0015247336123138666,-0.04963798075914383,-0.008335893042385578
1790958011695038000,2.949037841796875,0.00015773314225953072,-0.041377920657396317,0.0031660329550504684
1790958011705116000,2.959115966796875,-0.006106554064899683,-0.024825310334563255,-0.005237039178609848
1790958011715194600,2.969194580078125,0.0043839034624397755,-0.022611424326896667,0.013416806235909462
1790958011725273900,2.97927392578125,-0.0010667883325368166,-0.008987758308649063,0.015481023117899895
1790958011735352800,2.989352783203125,-0.06471048295497894,-0.059773173183202744,0.11662335693836212
1790958011745431800,2.999431884765625,0.0017114212969318032,-0.021763740107417107,0.045185387134552
1790958011755510800,3.0095107421875,-0.00388547801412642,0.008694833144545555,0.03890671953558922
1790958011765589800,3.01958984375,-0.06733875721693039,-0.021349085494875908,0.07724372297525406
1790958011775668700,3.029668701171875,-0.05529780313372612,-0.023315031081438065,0.09191348403692245
1790958011785747700,3.039747802734375,-0.03892362490296364,-0.019207904115319252,0.0776224285364151
1790958011795827000,3.049826904296875,-0.0461658239364624,-0.036545347422361374,0.0661921352148056
1790958011805906000,3.059906005859375,-0.032836705446243286,-0.11825619637966156,0.06849843263626099
1790958011815984600,3.069984619140625,0.012408540584146976,-0.11671608686447144,0.1222439557313919
1790958011826062800,3.080062744140625,0.06716978549957275,-0.06359267979860306,0.07199916243553162
1790958011836141800,3.090141845703125,0.05734272301197052,0.027414992451667786,0.0025511090643703938
1790958011846220800,3.100220703125,0.07460586726665497,0.10111530870199203,-0.12713924050331116
1790958011856299800,3.1102998046875,0.04754175990819931,0.05100846663117409,-0.14149580895900726
1790958011866378800,3.120378662109375,0.018808916211128235,0.024951834231615067,-0.005785916931927204
1790958011876458000,3.1304580078125,-0.0035302122123539448,-0.0014070698525756598,0.07613957673311234
1790958011886537000,3.140536865234375,-0.010423538275063038,-0.017050744965672493,0.05423427373170853
1790958011896615700,3.15061572265625,0.0019487090175971389,-0.01005328819155693,0.013194698840379715
1790958011906695000,3.16069482421875,0.0036651163827627897,-0.026758233085274696,0.01935539022088051
1790958011916774000,3.17077392578125,0.0020448490977287292,-0.04712129384279251,0.037795912474393845
1790958011926852600,3.1808525390625,0.003168436698615551,-0.052935242652893066,0.02056260034441948
1790958011936930800,3.190930908203125,-0.004664984997361898,-0.05398399382829666,0.0028389969374984503
1790958011947009800,3.201009765625,-0.016151998192071915,-0.05128541216254234,-0.015171960927546024
1790958011957088800,3.2110888671875,-0.028386825695633888,-0.04908857122063637,-0.025011010468006134
1790958011967167700,3.221167724609375,-0.03515232354402542,-0.054068151861429214,-0.014285128563642502
1790958011977246700,3.231246826171875,-0.04290797933936119,-0.05832334980368614,-0.00034987222170457244
1790958011987326000,3.241325927734375,-0.040766533464193344,-0.06078970059752464,0.0025329997297376394
1790958011997405000,3.251405029296875,-0.033663347363471985,-0.06070900708436966,0.002230198122560978
1790958012007483600,3.261483642578125,-0.022287653759121895,-0.060682643204927444,0.006051834672689438
1790958012017563000,3.27156298828125,-0.01822260580956936,-0.05937210097908974,0.007769307121634483
1790958012027641900,3.281641845703125,-0.02118830196559429,-0.05487242341041565,-0.005585913546383381
1790958012037720800,3.291720947265625,-0.022458363324403763,-0.04487412050366402,-0.012229966931045055
1790958012047798800,3.301798828125,-0.028832638636231422,-0.036080095916986465,-0.016350941732525826
1790958012057877800,3.311877685546875,-0.028022771701216698,-0.026276465505361557,-0.015205517411231995
1790958012067957000,3.32195703125,-0.02472977340221405,-0.011063957586884499,-0.016181299462914467
1790958012078035700,3.33203564453125,-0.025400890037417412,0.004703819286078215,-0.013024121522903442
1790958012088114700,3.34211474609375,-0.0298350527882576,0.02329428307712078,-0.004724380560219288
1790958012098194000,3.35219384765625,-0.029781524091959,0.03543403372168541,-0.0002902174019254744
1790958012108273000,3.36227294921875,-0.025487177073955536,0.0434485524892807,-0.0016239285469055176
1790958012118351600,3.3723515625,-0.01924286223948002,0.05056265369057655,-0.0058285268023610115
1790958012128430800,3.382430908203125,-0.016947217285633087,0.05492837354540825,-0.00876945536583662
1790958012138509800,3.392509765625,-0.01618262380361557,0.057732682675123215,-0.008213920518755913
1790958012148588800,3.4025888671875,-0.012589487247169018,0.06237403675913811,-0.005763811990618706
1790958012158667800,3.412667724609375,-0.005935313180088997,0.06262730062007904,0.006682736799120903
1790958012168745700,3.422745849609375,-0.00735397869721055,0.06478685885667801,0.01798119768500328
1790958012178825000,3.432824951171875,-0.007170487195253372,0.06220545992255211,0.019761787727475166
1790958012188904000,3.442904052734375,-0.006483391392976046,0.07213585078716278,0.024343224242329597
1790958012198982700,3.452982666015625,-0.003792000934481621,0.0697733610868454,0.027773907408118248
1790958012209062000,3.463061767578125,-0.00889781303703785,0.06678956001996994,0.029127059504389763
1790958012219140900,3.473140869140625,-0.010714355856180191,0.06350454688072205,0.022720027714967728
1790958012229219800,3.4832197265625,-0.012152195908129215,0.06071196123957634,0.015458385460078716
1790958012239298800,3.493298828125,-0.010330327786505222,0.050882235169410706,0.013022924773395061
1790958012249377800,3.503377685546875,-0.011265809647738934,0.03821438178420067,0.0072390493005514145
1790958012259456800,3.513456787109375,-0.0072843837551772594,0.026163578033447266,0.01064043864607811
1790958012269535700,3.52353564453125,-0.00802341103553772,0.01556659396737814,0.018424060195684433
1790958012279615000,3.533614990234375,-0.006003935821354389,0.004223125986754894,0.023127468302845955
1790958012289693000,3.54369287109375,-0.015139644034206867,-0.0037314703222364187,0.02243691124022007
1790958012299772000,3.55377197265625,-0.020886745303869247,-0.005449209362268448,0.017994757741689682
1790958012309851000,3.563850830078125,-0.028080474585294724,-0.010475127026438713,0.013923050835728645
1790958012319929900,3.573929931640625,-0.038269732147455215,-0.006179448217153549,0.006760745774954557
1790958012330008800,3.5840087890625,-0.039955511689186096,-0.005836699157953262,-0.002387212822213769
1790958012340087800,3.594087890625,-0.03648141771554947,-0.016330085694789886,-0.0037728555034846067
1790958012350166800,3.604166748046875,-0.0334310345351696,-0.022140037268400192,0.0010860818438231945
1790958012360245200,3.614245361328125,-0.03326139226555824,-0.029866401106119156,0.005561524070799351
1790958012370324500,3.624324462890625,-0.035920824855566025,-0.03074098378419876,0.0058970823884010315
1790958012380403200,3.6344033203125,-0.03987348824739456,-0.018138639628887177,-0.0029906851705163717
1790958012390482400,3.644482421875,-0.041030365973711014,-0.012794474139809608,-0.01643378846347332
1790958012400560400,3.654560302734375,-0.04354092478752136,-0.007046040613204241,-0.023163864389061928
1790958012410639400,3.664639404296875,-0.042239438742399216,0.000015064608305692673,-0.010303192771971226
1790958012420718300,3.67471826171875,-0.05676431953907013,0.018165305256843567,-0.0068842265754938126
1790958012430797300,3.68479736328125,-0.0696907639503479,0.04472528025507927,-0.012243305332958698
1790958012440876300,3.694876220703125,-0.0856204628944397,0.07518092542886734,-0.03225909173488617
1790958012450955300,3.704955322265625,-0.09103360772132874,0.08294589817523956,-0.050593890249729156
1790958012461034200,3.7150341796875,-0.09052813798189163,0.07772397249937057,-0.053174760192632675
1790958012471113200,3.72511328125,-0.08952785283327103,0.07375240325927734,-0.04406941309571266
1790958012481192400,3.7351923828125,-0.08612992614507675,0.07351990789175034,-0.04227684065699577
1790958012491271200,3.745271240234375,-0.08198445290327072,0.06638423353433609,-0.052513230592012405
1790958012501350400,3.755350341796875,-0.07505889981985092,0.07505042850971222,-0.05918312072753906
1790958012511428400,3.765428466796875,-0.07285194098949432,0.057799533009529114,-0.04982344061136246
1790958012521507300,3.77550732421875,-0.07196084409952164,0.04701106995344162,-0.02438865229487419
1790958012531586300,3.78558642578125,-0.05597788840532303,0.025141190737485886,-0.004757958464324474
1790958012541665300,3.795665283203125,-0.0472634918987751,0.023390959948301315,0.004524755757302046
1790958012551744300,3.805744140625,-0.04191773012280464,0.02841395139694214,0.0030490977223962545
1790958012561823500,3.815823486328125,-0.03656024858355522,0.042044274508953094,-0.013350381515920162
1790958012571902200,3.825902099609375,-0.043263692408800125,0.06020276993513107,-0.048663631081581116
1790958012581981400,3.8359814453125,-0.06092577427625656,0.059081584215164185,-0.0839899331331253
1790958012592060400,3.846060302734375,-0.08074741065502167,0.024824541062116623,-0.08851517736911774
1790958012602139100,3.85613916015625,-0.09851495921611786,-0.005436692386865616,-0.06873241811990738
1790958012612218400,3.86621826171875,-0.10834548622369766,-0.02164016291499138,-0.04058893024921417
1790958012622296300,3.87629638671875,-0.09181977063417435,-0.02514515072107315,-0.026933034881949425
1790958012632375300,3.886375244140625,-0.06786703318357468,-0.01797885075211525,-0.024592382833361626
1790958012642454300,3.896454345703125,-0.04283039644360542,-0.00916218850761652,-0.02077634073793888
1790958012652533200,3.906533203125,-0.03505263105034828,0.008997640572488308,-0.027408143505454063
1790958012662612200,3.9166123046875,-0.03118731826543808,0.021037258207798004,-0.02504272386431694
1790958012672691500,3.92669140625,-0.010637570172548294,0.014114904217422009,-0.030539222061634064
1790958012682770200,3.936770263671875,-0.00853473786264658,0.00819336622953415,-0.014576234854757786
1790958012692849400,3.946849365234375,0.0003927106154151261,0.0045357802882790565,-0.0008620204753242433
1790958012702928400,3.956928466796875,0.02248895913362503,0.007116117514669895,-0.003405339317396283
1790958012713007000,3.967007080078125,0.03661889210343361,0.0035317689180374146,-0.006837621331214905
1790958012723086300,3.97708642578125,0.034485965967178345,-0.006262538488954306,0.0042872014455497265
1790958012733165300,3.987165283203125,0.03292561694979668,-0.011642390862107277,0.020896539092063904
1790958012743243300,3.9972431640625,0.01809420995414257,-0.016858458518981934,0.040700335055589676
1790958012753322200,4.007322265625,0.009334007278084755,-0.011730540543794632,0.04609989374876022
1790958012763401200,4.017401123046875,0.011332442983984947,-0.012041065841913223,0.03881188854575157
1790958012773480400,4.02748046875,0.009588339366018772,-0.0006840149872004986,0.026635117828845978
1790958012783559400,4.037559326171875,0.02440137416124344,0.003946688957512379,-0.006459185853600502
1790958012793638100,4.04763818359375,0.02694815583527088,0.0050471071153879166,-0.019348885864019394
1790958012803717400,4.05771728515625,0.016605237498879433,0.00014529330655932426,0.0183500237762928
1790958012813796400,4.06779638671875,0.016320278868079185,-0.015844859182834625,0.0519292876124382
1790958012823875300,4.077875244140625,0.01724226586520672,-0.026247963309288025,0.05065150186419487
1790958012833954300,4.087954345703125,0.023543303832411766,-0.03295034170150757,0.04637845978140831
1790958012844033300,4.098033203125,0.028821157291531563,-0.035936545580625534,0.05277590453624725
1790958012854111200,4.108111328125,0.018235623836517334,-0.021641496568918228,0.05183207988739014
1790958012864190500,4.1181904296875,0.008414950221776962,-0.0175628624856472,0.031914833933115005
1790958012874269200,4.128269287109375,0.014399872161448002,-0.007394914515316486,0.0016863583587110043
1790958012884348400,4.138348388671875,0.022522514685988426,-0.006247092038393021,-0.008911424316465855
1790958012894427400,4.148427490234375,0.009313501417636871,-0.003542119637131691,-0.0014340674970299006
1790958012904506000,4.158506103515625,-0.02042894810438156,0.0019597047939896584,0.003842719830572605
1790958012914585300,4.16858544921875,-0.0017561940476298332,-0.00687613058835268,0.00570959597826004
1790958012924664300,4.178664306640625,-0.005266772583127022,-0.0070891836658120155,0.004463236778974533
1790958012934743300,4.188743408203125,0.005639138165861368,-0.007556036114692688,0.010361338965594769
1790958012944822300,4.198822265625,0.008210952393710613,-0.004872635006904602,0.011374405585229397
1790958012954901200,4.2089013671875,0.0069257114082574844,-0.0032249370124191046,0.004147385712713003
1790958012964979500,4.2189794921875,0.002700605895370245,0.0027554575353860855,-0.0005381800583563745
1790958012975058400,4.229058349609375,-0.001437413739040494,0.006296662613749504,0.0007175003411248326
1790958012985137200,4.23913720703125,-0.008225278928875923,0.016911223530769348,-0.0005315222078934312
1790958012995216400,4.24921630859375,-0.014183835126459599,0.023699089884757996,-0.004060742910951376
1790958013005295400,4.25929541015625,-0.01987820491194725,0.026524435728788376,-0.0012849303893744946
1790958013015374300,4.269374267578125,-0.010932382196187973,0.01418920699506998,0.004097584635019302
1790958013025453300,4.279453369140625,-0.00588622409850359,0.018034279346466064,0.016677824780344963
1790958013035532300,4.2895322265625,-0.01722489856183529,0.02656491845846176,0.018019791692495346
1790958013045611300,4.299611328125,-0.014082103036344051,0.027792103588581085,0.011433794163167477
1790958013055690200,4.309690185546875,-0.019246503710746765,0.028509024530649185,0.010480116121470928
1790958013065769200,4.319769287109375,-0.025808265432715416,0.020334985107183456,0.010626589879393578
1790958013075847400,4.329847412109375,-0.027120139449834824,0.02058931440114975,-0.000881994201336056
1790958013085926400,4.339926513671875,-0.035628143697977066,0.022428493946790695,-0.016818083822727203
1790958013096005000,4.350005126953125,-0.03491441532969475,0.017972491681575775,-0.024037646129727364
1790958013106084400,4.36008447265625,-0.03636184334754944,0.009172077290713787,-0.027338635176420212
1790958013116163300,4.370163330078125,-0.0365474633872509,0.013023274950683117,-0.03226735070347786
1790958013126242300,4.3802421875,-0.03673069179058075,0.0033168522641062737,-0.045720040798187256
1790958013136321300,4.3903212890625,-0.03299640491604805,-0.006126717198640108,-0.04395809397101402
1790958013146400300,4.400400146484375,-0.038752563297748566,-0.021007396280765533,-0.03507698327302933
1790958013156479200,4.410479248046875,-0.03829503059387207,-0.04036245122551918,-0.024241112172603607
1790958013166558200,4.42055810546875,-0.03143712505698204,-0.05138634145259857,-0.014852138236165047
1790958013176637400,4.430637451171875,-0.03242063149809837,-0.049052879214286804,-0.01739785447716713
1790958013186715400,4.44071533203125,-0.03774002939462662,-0.04487863928079605,-0.022972915321588516
1790958013196794400,4.45079443359375,-0.04347115010023117,-0.031105302274227142,-0.03033708781003952
1790958013206873300,4.460873291015625,-0.050419606268405914,-0.01569891721010208,-0.04651712626218796
1790958013216952300,4.470952392578125,-0.06429706513881683,-0.012384346686303616,-0.05717669427394867
1790958013227031300,4.48103125,-0.08814886957406998,-0.02303272858262062,-0.05701450631022453
1790958013237110300,4.4911103515625,-0.08737575262784958,-0.0381256602704525,-0.04006827995181084
1790958013247189200,4.501189208984375,-0.07635612785816193,-0.02928316965699196,-0.017312899231910706
1790958013257268500,4.5112685546875,-0.06868841499090195,-0.053310293704271317,-0.03493655472993851
1790958013267347500,4.521347412109375,-0.07071428000926971,-0.056550029665231705,-0.035380769520998
1790958013277426200,4.53142626953125,-0.08375711739063263,-0.06337091326713562,-0.03645455837249756
1790958013287504100,4.541504150390625,-0.08779393136501312,-0.08191610872745514,-0.03373387083411217
1790958013297583400,4.551583251953125,-0.08548098057508469,-0.07512211799621582,-0.038109976798295975
1790958013307662300,4.561662353515625,-0.0905095562338829,-0.08990399539470673,-0.04698576033115387
1790958013317741300,4.5717412109375,-0.09755787998437881,-0.06210804730653763,-0.03612112998962402
1790958013327820300,4.5818203125,-0.09448592364788055,-0.07644490897655487,-0.053824227303266525
1790958013337899300,4.591899169921875,-0.08344552665948868,-0.08830370008945465,-0.05016237869858742
1790958013347978200,4.601978271484375,-0.0784265324473381,-0.07590801268815994,-0.03394346311688423
1790958013358057200,4.61205712890625,-0.08217865973711014,-0.06467533111572266,-0.02995830588042736
1790958013368136700,4.62213671875,-0.0883856862783432,-0.0482228584587574,-0.03043554536998272
1790958013378215400,4.63221533203125,-0.08076931536197662,-0.015882229432463646,-0.03214875981211662
1790958013388294400,4.64229443359375,-0.06997791677713394,0.014308430254459381,-0.03670063242316246
1790958013398372600,4.65237255859375,-0.040751852095127106,0.021952500566840172,-0.037823423743247986
1790958013408451600,4.66245166015625,-0.03699493035674095,0.09260988980531693,-0.028525259345769882
1790958013418530600,4.672530517578125,-0.014941563829779625,0.10652224719524384,-0.07423309236764908
1790958013428609500,4.682609619140625,-0.0048929243348538876,0.11295457929372787,-0.07513350993394852
1790958013438688500,4.6926884765625,0.008672685362398624,0.09398994594812393,-0.021340318024158478
1790958013448767700,4.702767822265625,0.03707290440797806,0.09111133217811584,0.0021402407437562943
1790958013458846500,4.712846435546875,0.05952627956867218,0.07986187189817429,-0.003100061323493719
1790958013468925400,4.722925537109375,0.07728184014558792,0.05575147643685341,0.001797491917386651
1790958013479004700,4.733004638671875,0.0861475020647049,0.07775931060314178,0.020604468882083893
1790958013489083600,4.743083740234375,0.04575321078300476,0.08368857204914093,0.008325697854161263
1790958013499162600,4.75316259765625,0.040243662893772125,0.06682570278644562,0.018572743982076645
1790958013509240600,4.763240478515625,0.052406053990125656,0.03161071985960007,0.05013066902756691
1790958013519319600,4.773319580078125,0.05375760793685913,0.02794913947582245,0.06247921288013458
1790958013529398800,4.783398681640625,0.04458780959248543,0.030050374567508698,0.045473866164684296
1790958013539477500,4.7934775390625,0.040776029229164124,0.035023029893636703,0.027413373813033104
1790958013549556500,4.803556396484375,0.03618207573890686,0.028308667242527008,0.026096973568201065
1790958013559635700,4.8136357421875,0.03552880138158798,0.017092498019337654,0.032818522304296494
1790958013569714400,4.82371435546875,0.03696317970752716,0.002307427115738392,0.032398808747529984
1790958013579793400,4.83379345703125,0.03228134289383888,-0.011460850015282631,0.02232327312231064
1790958013589872600,4.84387255859375,0.02738884836435318,-0.030202845111489296,0.0007769685471430421
1790958013599951600,4.85395166015625,0.01056672539561987,-0.04104617238044739,-0.01911737583577633
1790958013610030600,4.864030517578125,-0.009497529827058315,-0.06122015044093132,-0.023072702810168266
1790958013620108500,4.874108642578125,-0.020948588848114014,-0.06891056150197983,-0.017827074974775314
1790958013630187500,4.8841875,-0.027797440066933632,-0.04919065162539482,-0.023302800953388214
1790958013640266800,4.894266845703125,-0.020532337948679924,-0.05365810543298721,-0.026257844641804695
1790958013650345500,4.904345458984375,-0.02743152342736721,-0.057645123451948166,-0.01678178459405899
1790958013660424400,4.914424560546875,-0.020010624080896378,-0.05808747187256813,-0.018127746880054474
1790958013670503700,4.924503662109375,-0.027890386059880257,-0.05602139234542847,-0.019439352676272392
1790958013680582400,4.93458251953125,-0.023774735629558563,-0.054749734699726105,-0.018266763538122177
1790958013690661600,4.94466162109375,-0.02742965891957283,-0.054269831627607346,-0.016984451562166214
1790958013700740600,4.95474072265625,-0.03025074489414692,-0.04930649697780609,-0.00833210814744234
1790958013710819600,4.964819580078125,-0.0400751456618309,-0.053490590304136276,-0.013782267458736897
1790958013720897800,4.974897705078125,-0.043772678822278976,-0.05503682419657707,-0.011886362917721272
1790958013730976500,4.9849765625,-0.04077635332942009,-0.054459717124700546,-0.004634308163076639
1790958013741055500,4.995055419921875,-0.03913770988583565,-0.04837998375296593,-0.004252943675965071
1790958013751134700,5.005134765625,-0.03606868535280228,-0.046403918415308,-0.0004174591740593314
1790958013761213400,5.01521337890625,-0.029846476390957832,-0.03546072542667389,-0.0025650321040302515
1790958013771292400,5.02529248046875,-0.027648037299513817,-0.030387137085199356,-0.003167439252138138
1790958013781371600,5.03537158203125,-0.028600383549928665,-0.02403283305466175,-0.008867669850587845
1790958013791450600,5.04545068359375,-0.033410318195819855,-0.014918697997927666,-0.018248386681079865
1790958013801529600,5.055529541015625,-0.03730519115924835,-0.011539945378899574,-0.022277483716607094
1790958013811608600,5.065608642578125,-0.03917393088340759,-0.00853376928716898,-0.010765704326331615
1790958013821687600,5.0756875,-0.0419156551361084,-0.0047861686907708645,-0.01238730363547802
1790958013831765800,5.085765869140625,-0.03868337720632553,-0.005043163895606995,-0.012540169060230255
1790958013841844500,5.095844482421875,-0.037142470479011536,-0.00012590317055583,-0.00887113157659769
1790958013851923500,5.10592333984375,-0.03382124379277229,0.0013164649717509747,-0.002167954808101058
1790958013862002700,5.116002685546875,-0.029401728883385658,0.006811897270381451,-0.00605403957888484
1790958013872081400,5.126081298828125,-0.029368972405791283,0.009620999917387962,-0.006583742331713438
1790958013882160600,5.13616064453125,-0.025960126891732216,0.014990465715527534,-0.0015916468109935522
1790958013892239600,5.146239501953125,-0.02435477264225483,0.018116483464837074,-0.0037056640721857548
1790958013902318600,5.156318603515625,-0.020188257098197937,0.020831044763326645,-0.003170901443809271
1790958013912397600,5.1663974609375,-0.015173790976405144,0.02314293384552002,-0.0027940641157329082
1790958013922476500,5.1764765625,-0.018073707818984985,0.020236359909176826,-0.009261817671358585
1790958013932555800,5.1865556640625,-0.016757041215896606,0.018529539927840233,-0.0077677839435637
1790958013942633700,5.1966337890625,-0.01814960688352585,0.0165830347687006,-0.0018385217990726233
1790958013952712400,5.20671240234375,-0.01545795053243637,0.01496196910738945,-0.007405859883874655
1790958013962791700,5.216791748046875,-0.011342301033437252,0.015545202419161797,-0.007173100020736456
1790958013972870700,5.22687060546875,-0.010685033164918423,0.014336125925183296,-0.004422054626047611
1790958013982949400,5.236949462890625,-0.007412540726363659,0.017462145537137985,0.0013175902422517538
1790958013993028600,5.247028564453125,-0.011825931258499622,0.01712259277701378,0.002882996341213584
1790958014003107600,5.257107666015625,-0.02936124987900257,0.020214788615703583,0.01889951340854168
1790958014013186600,5.2671865234375,-0.04126983880996704,0.01941504143178463,0.025779791176319122
1790958014023265500,5.277265625,-0.05322982743382454,0.029438115656375885,-0.001005218829959631
1790958014033344500,5.287344482421875,-0.016735468059778214,0.0008810381405055523,-0.019376767799258232
1790958014043422500,5.29742236328125,-0.005292664747685194,-0.010878682136535645,0.02172992192208767
1790958014053501700,5.307501708984375,0.013955332338809967,-0.01728944480419159,0.012864523567259312
1790958014063580400,5.317580322265625,0.020157834514975548,-0.007438411004841328,-0.007979505695402622
1790958014073659600,5.32765966796875,0.019295502454042435,-0.0014809195417910814,-0.01948675699532032
1790958014083738600,5.337738525390625,0.019106950610876083,-0.009067466482520103,-0.011179027147591114
1790958014093817600,5.347817626953125,0.012353174388408661,-0.012033695355057716,-0.0029229610227048397
1790958014103896600,5.357896484375,0.010199209675192833,-0.01533761341124773,0.004663585685193539
1790958014113975600,5.3679755859375,0.0054782237857580185,-0.012149542570114136,0.00690010841935873
1790958014124054800,5.3780546875,-0.0008334675803780556,-0.006380337290465832,0.013087696395814419
1790958014134133500,5.388133544921875,-0.0009037750423885882,-0.0019933118019253016,0.009832248091697693
1790958014144212500,5.39821240234375,-0.005301985889673233,0.00274738110601902,0.010433057323098183
1790958014154290700,5.408290771484375,0.0022688487078994513,-0.002574413549154997,0.017177781090140343
1790958014164369700,5.41836962890625,0.00004990294110029936,0.0011297771707177162,0.020491285249590874
1790958014174448400,5.428448486328125,0.004766360856592655,0.007783152163028717,0.011735609732568264
1790958014184527600,5.438527587890625,0.010575247928500175,0.015716975554823875,0.009057002142071724
1790958014194606600,5.448606689453125,0.01144903153181076,0.018702112138271332,0.014808098785579205
1790958014204685600,5.458685546875,0.012215222232043743,0.02163878083229065,0.022316616028547287
1790958014214764500,5.4687646484375,0.008389059454202652,0.036298684775829315,0.013690636493265629
1790958014224843500,5.478843505859375,0.002093346556648612,0.051937296986579895,-0.0014172098599374294
1790958014234922800,5.4889228515625,0.009158979170024395,0.03820124641060829,-0.004937110003083944
1790958014245001500,5.49900146484375,0.011904165148735046,0.04584425315260887,0.01576976664364338
1790958014255079400,5.509079345703125,0.009360579773783684,0.05034312978386879,0.023523826152086258
1790958014265158700,5.51915869140625,0.015544075518846512,0.05324076488614082,0.01376970112323761
1790958014275237600,5.529237548828125,0.01074372697621584,0.046027861535549164,0.01292574591934681
1790958014285316400,5.53931640625,0.000419184856582433,0.04649098590016365,0.02201245166361332
1790958014295395600,5.5493955078125,-0.005748429801315069,0.03559333086013794,0.016931671649217606
1790958014305474600,5.559474609375,-0.009933321736752987,0.030256355181336403,0.007222053594887257
1790958014315553800,5.5695537109375,-0.007926363497972488,0.02343520149588585,0.011638639494776726
1790958014325632500,5.579632568359375,-0.015475626103579998,0.024561187252402306,0.013369960710406303
1790958014335711500,5.58971142578125,-0.014574145898222923,0.02062103897333145,0.011389368213713169
1790958014345790700,5.599790771484375,-0.003808317007496953,0.018006879836320877,0.011886313557624817
1790958014355868700,5.60986865234375,0.00638892687857151,0.018280653282999992,0.014413121156394482
1790958014365947100,5.619947021484375,0.013399964198470116,0.02194090187549591,0.018022503703832626
1790958014376025900,5.63002587890625,0.018501514568924904,0.017865998670458794,0.013100981712341309
1790958014386105000,5.64010498046875,0.023147933185100555,0.01978294365108013,0.0030081337317824364
1790958014396184000,5.65018408203125,0.024957550689578056,0.015659304335713387,-0.007204023655503988
1790958014406262800,5.6602626953125,0.025124531239271164,0.00696647958829999,-0.008201910182833672
1790958014416342000,5.670342041015625,0.01438906230032444,-0.0036472822539508343,-0.006206403486430645
1790958014426421000,5.6804208984375,-0.0030565066263079643,-0.019361265003681183,-0.009610988199710846
1790958014436500000,5.6905,-0.016627443954348564,-0.014621369540691376,-0.01818370446562767
1790958014446579000,5.700578857421875,-0.02106373757123947,-0.00905030407011509,-0.01345419604331255
1790958014456658000,5.710657958984375,-0.03939613699913025,-0.032126329839229584,-0.01588726043701172
1790958014466736000,5.720736083984375,-0.046480678021907806,-0.03240569308400154,-0.013407590799033642
1790958014476815000,5.730815185546875,-0.08206424117088318,-0.03696049749851227,-0.018210336565971375
1790958014486893800,5.740893798828125,-0.09636088460683823,-0.06368132680654526,-0.031990863382816315
1790958014496973000,5.75097314453125,-0.12732145190238953,-0.08806443214416504,-0.02942517399787903
1790958014507052000,5.761052001953125,-0.13302329182624817,-0.09389595687389374,-0.027242979034781456
1790958014517131000,5.771131103515625,-0.14661473035812378,-0.12725897133350372,-0.019603967666625977
1790958014527210000,5.7812099609375,-0.15252508223056793,-0.13986504077911377,-0.013831299729645252
1790958014537289000,5.7912890625,-0.11952906101942062,-0.15206019580364227,-0.01462865062057972
1790958014547368000,5.801367919921875,-0.08613354712724686,-0.14428961277008057,-0.006776319816708565
1790958014557447000,5.811447021484375,-0.06672070175409317,-0.13182681798934937,-0.003112609265372157
1790958014567524900,5.82152490234375,-0.06114750728011131,-0.11235591769218445,0.000056818651501089334
1790958014577604000,5.83160400390625,-0.05216892436146736,-0.08301534503698349,-0.012191059067845345
1790958014587683000,5.84168310546875,-0.044557876884937286,-0.05911879986524582,-0.01456952840089798
1790958014597761800,5.85176171875,-0.031625036150217056,-0.04456568881869316,-0.021213581785559654
1790958014607841000,5.861841064453125,-0.033178456127643585,-0.03789526969194412,-0.024467965587973595
1790958014617920000,5.871919921875,-0.022232597693800926,-0.043505482375621796,-0.017615651711821556
1790958014627999000,5.8819990234375,-0.008427037857472897,-0.04032886400818825,-0.00035277550341561437
1790958014638078000,5.892077880859375,-0.0020482337567955256,-0.03740924224257469,0.021076349541544914
1790958014648157000,5.902156982421875,-0.002177929738536477,-0.04135391488671303,0.021153315901756287
1790958014658236000,5.91223583984375,-0.015540607273578644,-0.051931992173194885,0.01410659123212099
1790958014668315000,5.92231494140625,-0.030460434034466743,-0.07231396436691284,0.006258521694689989
1790958014678392800,5.932392822265625,-0.03571378439664841,-0.0841277465224266,0.01900787279009819
1790958014688472000,5.94247216796875,-0.04792917147278786,-0.07486820220947266,0.017290133982896805
1790958014698551000,5.952551025390625,-0.04000094160437584,-0.06110178679227829,0.01582566276192665
1790958014708630000,5.962630126953125,-0.038885876536369324,-0.04311852529644966,0.006108053028583527
1790958014718709000,5.972708984375,-0.045506227761507034,-0.03286508843302727,-0.0033371138852089643
1790958014728788000,5.9827880859375,-0.06108119338750839,-0.04011847451329231,-0.02033953368663788
1790958014738867000,5.992866943359375,-0.07821916788816452,-0.049817975610494614,-0.025542551651597023
1790958014748946000,6.00294580078125,-0.07606174051761627,-0.06635114550590515,-0.02852502465248108
1790958014759025200,6.013025146484375,-0.06668208539485931,-0.06806489080190659,-0.030956756323575974
1790958014769104100,6.023104248046875,-0.051228828728199005,-0.07062897831201553,-0.028515703976154327
1790958014779182000,6.03318212890625,-0.03430124372243881,-0.0615241639316082,-0.02582537941634655
1790958014789260800,6.0432607421875,-0.05067542567849159,-0.12106285989284515,-0.041141219437122345
1790958014799340000,6.053340087890625,-0.033348631113767624,-0.1691180020570755,-0.05193208158016205
1790958014809419000,6.0634189453125,-0.044200215488672256,-0.20541556179523468,-0.06577812135219574
1790958014819498000,6.073498046875,-0.059358660131692886,-0.19718106091022491,-0.06337621808052063
1790958014829577000,6.083576904296875,-0.0670008659362793,-0.15546956658363342,-0.05265459418296814
1790958014839656000,6.093656005859375,-0.06482347100973129,-0.10105000436306,-0.034268397837877274
1790958014849735000,6.10373486328125,-0.041653700172901154,-0.0619388185441494,-0.020261235535144806
1790958014859814000,6.11381396484375,-0.029273729771375656,-0.04136989638209343,-0.007580595090985298
1790958014869893000,6.12389306640625,-0.03665041923522949,-0.03603425249457359,-0.011130854487419128
1790958014879971000,6.13397119140625,-0.047744881361722946,-0.03473329544067383,-0.008764369413256645
1790958014890050000,6.144050048828125,-0.04277702048420906,-0.024728065356612206,0.0021940055303275585
1790958014900129000,6.15412890625,-0.02423396334052086,0.0033666850067675114,-0.0019144532270729542
1790958014910208000,6.1642080078125,-0.018753711134195328,0.015544522553682327,-0.002267854753881693
1790958014920287000,6.174286865234375,-0.021983858197927475,0.02199150249361992,-0.009554263204336166
1790958014930366000,6.184365966796875,-0.03472202643752098,0.018724070861935616,-0.00884985737502575
1790958014940445000,6.19444482421875,-0.046181075274944305,-0.01224556379020214,-0.010335634462535381
1790958014950524200,6.204524169921875,-0.0485566146671772,-0.03084241785109043,0.0011316705495119095
1790958014960603000,6.214602783203125,-0.037330590188503265,-0.047231514006853104,0.0010192850604653358
1790958014970681900,6.224681884765625,-0.03168415650725365,-0.07766638696193695,-0.022019455209374428
1790958014980760000,6.234760009765625,-0.042504847049713135,-0.09826353937387466,-0.039871424436569214
1790958014990839000,6.244839111328125,-0.04405480623245239,-0.1144917756319046,-0.06633205711841583
1790958015000918000,6.25491796875,-0.04361458495259285,-0.11398497968912125,-0.08072404563426971
1790958015010997000,6.2649970703125,-0.03815484046936035,-0.1304672807455063,-0.08616461604833603
1790958015021076000,6.275075927734375,-0.03965366631746292,-0.14739619195461273,-0.09063579887151718
1790958015031155000,6.285155029296875,-0.03429458662867546,-0.1349528431892395,-0.06933051347732544
1790958015041234000,6.29523388671875,-0.027638282626867294,-0.14415167272090912,-0.04285549372434616
1790958015051313000,6.30531298828125,-0.02996242418885231,-0.128883495926857,-0.03357065096497536
1790958015061392100,6.31539208984375,-0.031608790159225464,-0.11546968668699265,-0.03519224748015404
1790958015071470800,6.325470947265625,-0.03190120309591293,-0.10421756654977798,-0.04933816194534302
1790958015081549800,6.3355498046875,-0.02562999352812767,-0.11182701587677002,-0.06268779188394547
1790958015091628000,6.3456279296875,-0.033780865371227264,-0.1217411682009697,-0.07336892932653427
1790958015101707000,6.35570703125,-0.05505526065826416,-0.12632206082344055,-0.06476665288209915
1790958015111786000,6.365785888671875,-0.04968845844268799,-0.11309920996427536,-0.04042536020278931
1790958015121865000,6.375864990234375,-0.015591473318636417,-0.07290998101234436,0.018302667886018753
1790958015131944000,6.38594384765625,0.01246093399822712,-0.01945394277572632,0.04709303751587868
1790958015142023200,6.396023193359375,-0.006789193022996187,0.019158698618412018,0.007035632152110338
1790958015152102000,6.406101806640625,-0.00141333625651896,0.019303573295474052,-0.03616803139448166
1790958015162180900,6.416180908203125,0.001960089895874262,-0.011303870007395744,-0.05079064890742302
1790958015172260000,6.426260009765625,-0.0077655077911913395,-0.03449947014451027,-0.05507301166653633
1790958015182339000,6.436339111328125,-0.013270795345306396,-0.021546920761466026,-0.0672583058476448
1790958015192417000,6.4464169921875,0.004805943928658962,0.00972817838191986,-0.04812535643577576
1790958015202496000,6.45649609375,0.025261683389544487,0.020627964287996292,-0.03431926295161247
1790958015212575000,6.466574951171875,0.01315868180245161,-0.005483265500515699,-0.030475256964564323
1790958015222654000,6.476654052734375,0.015843147411942482,-0.03541746363043785,-0.04183417186141014
1790958015232733000,6.48673291015625,-0.012876647524535656,-0.03729072958230972,-0.04279424250125885
1790958015242812000,6.49681201171875,-0.016936901956796646,-0.021580476313829422,-0.06034953519701958
1790958015252891100,6.50689111328125,0.012293420732021332,-0.009166151285171509,-0.061485905200242996
1790958015262969900,6.516969970703125,0.017598170787096024,-0.010469235479831696,-0.05325913429260254
1790958015273048800,6.527048828125,0.01987226866185665,0.000449491199105978,-0.04053159058094025
1790958015283128000,6.537128173828125,0.025968777015805244,0.008307946845889091,-0.03376636281609535
1790958015293206000,6.5472060546875,0.014858068898320198,0.02405708283185959,-0.03025764599442482
1790958015303285000,6.557284912109375,0.0064880200661718845,0.022190473973751068,-0.027289552614092827
1790958015313364000,6.567364013671875,0.0032504149712622166,0.005284727085381746,-0.03443028777837753
1790958015323443000,6.57744287109375,0.010649741627275944,0.0073132566176354885,-0.021810099482536316
1790958015333522200,6.587522216796875,0.010972250252962112,0.025719428434967995,0.01063013169914484
1790958015343601000,6.597600830078125,0.03299392759799957,0.04098014160990715,-0.0027756886556744576
1790958015353680000,6.607679931640625,0.02792966179549694,0.04499006271362305,-0.020037764683365822
1790958015363758800,6.6177587890625,0.024602841585874557,0.03675876185297966,-0.0008076124940998852
1790958015373837800,6.627837890625,0.02792859636247158,0.03417389839887619,-0.0024326734710484743
1790958015383916800,6.637916748046875,0.030531836673617363,0.03243991360068321,0.0035647652111947536
1790958015393994800,6.647994873046875,0.05367816612124443,0.04119958356022835,0.002438248135149479
1790958015404073700,6.65807373046875,0.09115151315927505,0.07730033248662949,0.020181292667984962
1790958015414153000,6.668153076171875,0.07413257658481598,0.062132827937603,0.00016231078188866377
1790958015424231700,6.678231689453125,0.06133528798818588,0.0652676373720169,-0.047812674194574356
1790958015434311000,6.688310791015625,0.07505589723587036,0.07381318509578705,-0.08937502652406693
1790958015444390000,6.698389892578125,0.09646611660718918,0.07970889657735825,-0.10290814191102982
1790958015454468600,6.708468505859375,0.09871648252010345,0.07295484840869904,-0.10934820026159286
1790958015464547800,6.7185478515625,0.0854848325252533,0.04488566517829895,-0.07363095134496689
1790958015474626800,6.728626708984375,0.05667342245578766,0.01762368530035019,-0.024579253047704697
1790958015484706000,6.7387060546875,0.03686776012182236,0.02058085985481739,0.015931420028209686
1790958015494784000,6.748783935546875,0.03849708288908005,0.03244417533278465,0.027944141998887062
1790958015504862700,6.75886279296875,0.0369681641459465,-0.010330984368920326,0.035541072487831116
1790958015514942000,6.76894189453125,0.02817227691411972,-0.04326150193810463,0.05674649402499199
1790958015525021000,6.77902099609375,0.026980245485901833,-0.047323357313871384,0.06376845389604568
1790958015535099600,6.789099609375,0.03591940924525261,-0.049496762454509735,0.07871118187904358
1790958015545179000,6.799178955078125,0.05818450078368187,-0.04602160304784775,0.10734708607196808
1790958015555257900,6.8092578125,0.09994100779294968,-0.02967165969312191,0.13141940534114838
1790958015565336800,6.8193369140625,0.1531970351934433,-0.005362058524042368,0.14792008697986603
1790958015575415800,6.829415771484375,0.1828276365995407,0.0022820127196609974,0.17288987338542938
1790958015585494800,6.839494873046875,0.14917832612991333,-0.008382615633308887,0.18591539561748505
1790958015595572700,6.84957275390625,0.06689251214265823,-0.04255123808979988,0.16901977360248566
1790958015605652000,6.85965185546875,0.03568105772137642,-0.01997482404112816,0.12502701580524445
1790958015615730700,6.869730712890625,0.01860460452735424,-0.008410046808421612,0.08058977872133255
1790958015625810000,6.879809814453125,-0.0057971421629190445,0.00035095447674393654,0.04090867564082146
1790958015635889000,6.889888916015625,-0.030958421528339386,0.01191546581685543,0.028456000611186028
1790958015645967600,6.899967529296875,-0.03744694963097572,0.00747198099270463,0.03576158359646797
1790958015656046800,6.910046875,-0.054598238319158554,0.0025179684162139893,0.025151018053293228
1790958015666125800,6.920125732421875,-0.07356313616037369,0.0025347466580569744,0.030552973970770836
1790958015676204800,6.930204833984375,-0.09266652166843414,0.014047592878341675,0.00482364185154438
1790958015686283800,6.94028369140625,-0.07402946054935455,0.03912604600191116,-0.045938607305288315
1790958015696361700,6.95036181640625,-0.023216612637043,-0.0013257716782391071,-0.020840175449848175
1790958015706441000,6.96044091796875,-0.025600939989089966,-0.011759238317608833,0.02593718282878399
1790958015716520000,6.97052001953125,-0.030094224959611893,-0.015250908210873604,0.029514074325561523
1790958015726598700,6.9805986328125,-0.028502721339464188,-0.012368302792310715,0.016705336049199104
1790958015736678000,6.990677978515625,-0.002611468778923154,-0.026582391932606697,-0.081663578748703
1790958015746756900,7.0007568359375,-0.0018151836702600121,-0.011149373836815357,-0.07369433343410492
1790958015756835600,7.010835693359375,0.02028053067624569,-0.015196580439805984,-0.051781848073005676
1790958015766914800,7.020914794921875,0.017300453037023544,-0.00674423947930336,-0.018483810126781464
1790958015776993800,7.030993896484375,0.006181756500154734,-0.03510664030909538,-0.01702466420829296
1790958015787073000,7.041072998046875,-0.0015584549400955439,-0.0026208669878542423,-0.0239986851811409
1790958015797151000,7.05115087890625,-0.007636054884642363,0.018317172303795815,-0.042634688317775726
1790958015807229700,7.061229736328125,-0.01007471140474081,0.024806762114167213,-0.038406386971473694
1790958015817309000,7.071308837890625,-0.005895146634429693,0.03470892831683159,-0.027950283139944077
1790958015827388000,7.081387939453125,0.00597988860681653,0.04869265481829643,-0.029633667320013046
1790958015837466600,7.091466552734375,0.013896933756768703,0.0573873445391655,-0.026688743382692337
1790958015847545900,7.1015458984375,0.020054161548614502,0.058394551277160645,-0.01762467436492443
1790958015857624800,7.111624755859375,0.018325770273804665,0.05639558285474777,-0.0092580895870924
1790958015867703800,7.121703857421875,0.01378694549202919,0.051902297884225845,-0.0010456989984959364
1790958015877782800,7.13178271484375,0.008398039266467094,0.047511808574199677,0.0015839061234146357
1790958015887860700,7.14186083984375,0.005281608086079359,0.05238752439618111,0.0023000300861895084
1790958015897940000,7.15193994140625,0.0134817473590374,0.06650547683238983,0.016831303015351295
1790958015908019000,7.16201904296875,0.014590154401957989,0.07156867533922195,0.0395246297121048
1790958015918097700,7.17209765625,0.010923780500888824,0.0596931055188179,0.05842694640159607
1790958015928177000,7.182177001953125,0.010561591014266014,0.06422873586416245,0.012577435001730919
1790958015938256000,7.192255859375,0.0114734573289752,0.06034079194068909,-0.0005564764142036438
1790958015948334800,7.2023349609375,0.006144738290458918,0.06630893051624298,0.005096349399536848
1790958015958413800,7.212413818359375,0.007167658768594265,0.05356251075863838,0.00644657202064991
1790958015968492800,7.222492919921875,-0.0014841527445241809,0.04415516182780266,-0.00710891792550683
1790958015978571800,7.23257177734375,0.004288248717784882,0.03551293537020683,-0.03080226294696331
1790958015988650800,7.242650634765625,0.0069836340844631195,0.03382129594683647,-0.04031267762184143
1790958015998728700,7.252728759765625,0.00962975062429905,0.026794280856847763,-0.020362138748168945
1790958016008808000,7.262807861328125,0.008963961154222488,0.028310682624578476,-0.014676024205982685
1790958016018887000,7.272886962890625,0.010913128033280373,0.021337995305657387,-0.01169647928327322
1790958016028965600,7.282965576171875,0.009885148145258427,0.017585335299372673,-0.01973682828247547
1790958016039044900,7.293044921875,0.006674174685031176,0.011816661804914474,-0.02706398256123066
1790958016049123800,7.303123779296875,0.0018687669653445482,0.012199359014630318,-0.03728865832090378
1790958016059202800,7.313202880859375,-0.0030873757787048817,0.025341259315609932,-0.07011611014604568
1790958016069281800,7.32328173828125,0.00038272308302111924,0.060029998421669006,-0.05331582948565483
1790958016079360800,7.33336083984375,-0.0006095707649365067,0.08616359531879425,-0.02731139026582241
1790958016089439700,7.343439697265625,0.017080742865800858,0.08253051340579987,-0.007714787032455206
1790958016099517700,7.353517578125,0.011904090642929077,0.061830297112464905,-0.012085034511983395
1790958016109596700,7.3635966796875,0.021111704409122467,0.03477231040596962,-0.01756794936954975
1790958016119676000,7.373676025390625,0.01901126839220524,0.01984556019306183,-0.022117428481578827
1790958016129755000,7.3837548828125,0.027715809643268585,0.01854007877409458,0.009389365091919899
1790958016139833900,7.393833740234375,0.03022104687988758,0.026813987642526627,0.0004536606138572097
1790958016149912800,7.403912841796875,0.02540685050189495,0.03355524688959122,-0.002538933651521802
1790958016159991800,7.41399169921875,0.015020254999399185,0.03086651861667633,-0.0007689966005273163
1790958016170070800,7.42407080078125,0.010047866962850094,0.023626450449228287,-0.0002808392164297402
1790958016180149800,7.434149658203125,0.004835794679820538,0.02305200695991516,0.0023807238321751356
1790958016190228700,7.444228759765625,-0.00017387757543474436,0.023112459108233452,-0.0018931170925498009
1790958016200307000,7.454306884765625,-0.0001981123350560665,0.021216290071606636,0.0012768437154591084
1790958016210386000,7.464385986328125,-0.004659439902752638,0.013858241960406303,-0.0002821708330884576
1790958016220464600,7.474464599609375,-0.005387015175074339,0.003813330549746752,-0.002616431564092636
1790958016230544000,7.4845439453125,0.004047765396535397,-0.00708778714761138,-0.0027956622652709484
1790958016240622800,7.494622802734375,0.016268745064735413,-0.01938706450164318,-0.001422536326572299
1790958016250701800,7.504701904296875,0.013970970176160336,-0.021575115621089935,0.0012717836070805788
1790958016260780800,7.51478076171875,0.020741524174809456,-0.019954849034547806,-0.001316010020673275
1790958016270859800,7.52485986328125,0.021578822284936905,-0.01194938737899065,0.002641447354108095
1790958016280938800,7.534938720703125,0.021111369132995605,-0.0018727555871009827,-0.0026864095125347376
1790958016291017700,7.545017822265625,0.024428866803646088,0.004528684541583061,0.0037483202759176493
1790958016301095700,7.555095703125,0.02317105606198311,0.00903794914484024,0.004846607800573111
1790958016311175000,7.5651748046875,0.017421025782823563,0.011517885141074657,-0.009461491368710995
1790958016321254000,7.57525390625,0.00994206964969635,0.018222391605377197,-0.00801672600209713
1790958016331332900,7.585332763671875,0.009103440679609776,0.01691851019859314,-0.01331588439643383
1790958016341411800,7.595411865234375,0.016368012875318527,0.007737793959677219,-0.004286436829715967
1790958016351490800,7.60549072265625,0.022838961333036423,0.001933966763317585,0.0033861303236335516
1790958016361569800,7.61556982421875,0.021960116922855377,-0.0014628951903432608,0.00036424139398150146
1790958016371649500,7.6256494140625,0.0182412788271904,0.004006438888609409,0.0015560060273855925
1790958016381728800,7.635728759765625,0.019788309931755066,0.01116714533418417,0.009534304030239582
1790958016391807500,7.645807373046875,0.02654288336634636,0.023029666393995285,0.0065012299455702305
1790958016401885400,7.655885498046875,0.026751141995191574,0.03567808121442795,0.006765415426343679
1790958016411964700,7.665964599609375,0.022440552711486816,0.040831297636032104,0.007062890566885471
1790958016422043600,7.676043701171875,0.017208769917488098,0.044507790356874466,0.0004465330857783556
1790958016432122400,7.686122314453125,0.00991703663021326,0.04962665215134621,0.0008361535146832466
1790958016442201600,7.69620166015625,0.01148137729614973,0.0487949475646019,0.004970178473740816
1790958016452280600,7.706280517578125,-0.010503816418349743,0.03039410337805748,0.02808508463203907
1790958016462359600,7.716359619140625,0.002649003406986594,0.009589223191142082,0.03588468208909035
1790958016472438500,7.7264384765625,-0.005810261238366365,0.0015826956368982792,0.003586133709177375
1790958016482517500,7.736517578125,-0.005961795337498188,-0.010559188202023506,0.007029334548860788
1790958016492596700,7.7465966796875,-0.007826806977391243,-0.01458002906292677,0.008338278159499168
1790958016502675500,7.756675537109375,-0.005760193802416325,-0.013784009963274002,0.010404891334474087
1790958016512753400,7.76675341796875,-0.012286003679037094,-0.01024733204394579,0.008694609627127647
1790958016522832600,7.77683251953125,-0.021912798285484314,-0.016020532697439194,0.007182466331869364
1790958016532911600,7.78691162109375,-0.02532750368118286,-0.006751134060323238,-0.001988395117223263
1790958016542990300,7.796990234375,-0.024104047566652298,0.003526536747813225,-0.015500209294259548
1790958016553069600,7.807069580078125,-0.018482912331819534,0.005850677378475666,-0.013842390850186348
1790958016563148500,7.8171484375,-0.01448790542781353,-0.0025566553231328726,-0.005559161305427551
1790958016573227500,7.8272275390625,-0.004762839991599321,-0.018924975767731667,-0.007394079584628344
1790958016583306500,7.837306396484375,-0.004119686782360077,-0.03621075674891472,-0.009941925294697285
1790958016593385500,7.847385498046875,0.004159814678132534,-0.03771490976214409,-0.011129163205623627
1790958016603464700,7.857464599609375,0.010215576738119125,-0.038778576999902725,-0.0095877256244421
1790958016613542700,7.867542724609375,-0.013633296824991703,-0.04324842616915703,0.0008297619642689824
1790958016623621400,7.877621337890625,-0.05051141977310181,-0.06030597165226936,0.011960710398852825
1790958016633700600,7.88770068359375,-0.03627229854464531,-0.08715356141328812,0.029476851224899292
1790958016643779600,7.897779541015625,0.21354632079601288,-0.11777006089687347,0.05496383458375931
1790958016653858600,7.907858642578125,0.13467282056808472,-0.06473720073699951,0.018836725503206253
1790958016663937500,7.9179375,0.07376685738563538,-0.043946441262960434,0.004150457214564085
1790958016674016500,7.9280166015625,0.03156507387757301,-0.022945549339056015,0.005227972287684679
1790958016684095700,7.938095703125,0.03230436518788338,-0.032812561839818954,-0.023938436061143875
1790958016694174500,7.948174560546875,0.04560472443699837,-0.04696912690997124,-0.010947801172733307
1790958016704253700,7.958253662109375,0.039146292954683304,-0.06041968986392021,-0.028511349111795425
1790958016714331600,7.96833154296875,0.03949356824159622,-0.11294414848089218,-0.018682686612010002
1790958016724410600,7.97841064453125,0.03696143627166748,-0.13363425433635712,-0.013812297955155373
1790958016734489600,7.988489501953125,0.027370862662792206,-0.1204739660024643,-0.02774888649582863
1790958016744568600,7.998568603515625,0.024426203221082687,-0.10678452253341675,0.014982598833739758
1790958016754647600,8.0086474609375,0.017667900770902634,-0.07739467173814774,0.021182702854275703
1790958016764726500,8.0187265625,0.02847447618842125,-0.06739397346973419,0.03386734053492546
1790958016774805500,8.028805419921875,0.05345838889479637,-0.09107320010662079,0.03323803469538689
1790958016784884500,8.038884521484375,0.04910412058234215,-0.13130265474319458,0.028602270409464836
1790958016794963700,8.048963623046875,0.038919392973184586,-0.15188543498516083,0.002042831853032112
1790958016805042400,8.05904248046875,0.026949282735586166,-0.16807371377944946,-0.005667285993695259
1790958016815120400,8.069120361328125,0.01644764095544815,-0.2059241682291031,0.020960062742233276
1790958016825199600,8.07919970703125,0.027762610465288162,-0.24525558948516846,0.03218768537044525
1790958016835278600,8.089278564453124,0.044865965843200684,-0.2612622380256653,0.0021147371735423803
1790958016845357600,8.099357666015624,0.05435267835855484,-0.28028494119644165,0.006100690457969904
1790958016855436500,8.1094365234375,0.06917982548475266,-0.2866317629814148,0.010203822515904903
1790958016865515500,8.119515625,0.08968164026737213,-0.2789381742477417,0.032979708164930344
1790958016875594500,8.129594482421876,0.0977100059390068,-0.29421672224998474,0.05125351995229721
1790958016885673500,8.139673583984376,0.08704644441604614,-0.30678391456604004,0.059046994894742966
1790958016895752700,8.149752685546876,0.08295449614524841,-0.32538288831710815,0.04224511235952377
1790958016905830700,8.15983056640625,0.08589436113834381,-0.3445981442928314,0.01905590295791626
1790958016915909600,8.16990966796875,0.10428161919116974,-0.3503686785697937,0.010467208921909332
1790958016925988600,8.179988525390625,0.13716687262058258,-0.36430445313453674,0.019505977630615234
1790958016936067600,8.190067626953125,0.16042637825012207,-0.370032399892807,0.03290966525673866
1790958016946146600,8.200146484375,0.16541102528572083,-0.3526765704154968,0.047427091747522354
1790958016956225500,8.2102255859375,0.16997168958187103,-0.32304224371910095,0.06526441127061844
1790958016966304500,8.220304443359375,0.1330067366361618,-0.24165180325508118,0.13799694180488586
1790958016976383500,8.230383544921875,0.14440587162971497,-0.21362629532814026,0.1263677179813385
1790958016986462700,8.240462646484374,0.1489473581314087,-0.18633341789245605,0.034380264580249786
1790958016996541400,8.25054150390625,0.1376371830701828,-0.13617943227291107,0.004400262143462896
1790958017006619400,8.260619384765626,0.1446058750152588,-0.10198843479156494,0.017876388505101204
1790958017016698600,8.27069873046875,0.14483331143856049,-0.09676916897296906,0.03517335280776024
1790958017026777600,8.280777587890626,0.1458761990070343,-0.1072431206703186,0.06736724078655243
1790958017036856600,8.290856689453125,0.1542515754699707,-0.10931985080242157,0.06827324628829956
1790958017046935600,8.300935546875,0.15559354424476624,-0.10975847393274307,0.05351534113287926
1790958017057014500,8.3110146484375,0.14831246435642242,-0.10842529684305191,0.0546375997364521
1790958017067093500,8.321093505859375,0.1286412924528122,-0.08900685608386993,0.06352456659078598
1790958017077172500,8.33117236328125,0.09979179501533508,-0.06138162314891815,0.0953591987490654
1790958017087251700,8.341251708984375,0.0828050896525383,-0.046301472932100296,0.12268109619617462
1790958017097330700,8.35133056640625,0.07003390043973923,-0.036920223385095596,0.13568317890167236
1790958017107408600,8.36140869140625,0.05903877317905426,-0.047135308384895325,0.1189231127500534
1790958017117487600,8.371487548828124,0.04957523196935654,-0.0729898065328598,0.10195797681808472
1790958017127566600,8.381566650390624,0.04640793427824974,-0.08850911259651184,0.07311860471963882
1790958017137645600,8.3916455078125,0.04336074739694595,-0.11283282935619354,0.016442542895674706
1790958017147724500,8.401724609375,0.03791458159685135,-0.12551559507846832,-0.031585436314344406
1790958017157803500,8.411803466796876,0.05380300059914589,-0.10933050513267517,-0.032538048923015594
1790958017167882800,8.4218828125,0.053479958325624466,-0.09953486174345016,-0.0012107520597055554
1790958017177961500,8.43196142578125,0.041616640985012054,-0.07868337631225586,0.00889487937092781
1790958017188040400,8.44204052734375,0.02451036125421524,-0.05186401680111885,-0.0023806786630302668
1790958017198119700,8.45211962890625,0.012305892072618008,-0.046786170452833176,0.006204287521541119
1790958017208197600,8.46219775390625,0.003900689072906971,-0.04663223773241043,0.013836907222867012
1790958017218276600,8.472276611328125,0.004037043079733849,-0.049479156732559204,0.00562478369101882
1790958017228355600,8.48235546875,0.007421920541673899,-0.036914099007844925,-0.014387007802724838
1790958017238434600,8.4924345703125,0.004128655884414911,-0.025035332888364792,-0.018321562558412552
1790958017248513500,8.502513427734375,0.02210099995136261,0.0034176139160990715,-0.018994277343153954
1790958017258592500,8.512592529296874,0.04472082108259201,0.009979909285902977,-0.02487293817102909
1790958017268671500,8.52267138671875,0.04485291615128517,0.015292116440832615,-0.018458714708685875
1790958017278750700,8.532750732421874,0.04068213701248169,0.014071323908865452,-0.03305896371603012
1790958017288829400,8.542829345703124,0.03451427072286606,0.012514587491750717,-0.05210694298148155
1790958017298907400,8.552907470703126,0.031549904495477676,0.006504898425191641,-0.049648579210042953
1790958017308986600,8.562986572265626,0.02267652004957199,0.0015788492746651173,-0.03941937908530235
1790958017319065600,8.573065673828125,0.018442891538143158,-0.007994415238499641,-0.026408236473798752
1790958017329144600,8.58314453125,0.021002192050218582,-0.027626972645521164,-0.010411160998046398
1790958017339223600,8.5932236328125,0.024549521505832672,-0.05588071420788765,0.01650700531899929
1790958017349302500,8.603302490234375,0.030107803642749786,-0.0837155431509018,0.018409835174679756
1790958017359381800,8.6133818359375,0.034495893865823746,-0.10202930122613907,0.012636634521186352
1790958017369460200,8.623460205078125,0.03494064137339592,-0.11685191839933395,-0.00162193039432168
1790958017379539200,8.633539306640625,0.04130399972200394,-0.13181568682193756,0.004217849113047123
1790958017389618400,8.643618408203125,0.037027228623628616,-0.12951339781284332,0.01747613027691841
1790958017399696400,8.6536962890625,0.04103901609778404,-0.12707580626010895,-0.005401488393545151
1790958017409775400,8.663775390625,0.039000365883111954,-0.1263974905014038,-0.0079514654353261
1790958017419854300,8.673854248046876,0.04536904767155647,-0.1293482780456543,-0.012183493934571743
1790958017429933300,8.683933349609376,0.05440009385347366,-0.14131172001361847,-0.002710897009819746
1790958017440012300,8.69401220703125,0.06635289639234543,-0.15028125047683716,0.0015269912546500564
1790958017450091300,8.70409130859375,0.07119426131248474,-0.15045328438282013,0.005115334875881672
1790958017460170200,8.714170166015625,0.07790595293045044,-0.14298312366008759,0.013669674284756184
1790958017470249500,8.72424951171875,0.08791278302669525,-0.1360836774110794,0.026719164103269577
1790958017480328400,8.734328369140625,0.0922689139842987,-0.11744420975446701,0.03172963112592697
1790958017490406400,8.744406494140625,0.09708284586668015,-0.09288293868303299,0.03594648092985153
1790958017500485400,8.7544853515625,0.1007087379693985,-0.053027402609586716,0.02847631648182869
1790958017510564400,8.764564453125,0.1043761819601059,-0.017450502142310143,0.021470339968800545
1790958017520643300,8.774643310546875,0.09324150532484055,0.018861966207623482,0.019169367849826813
1790958017530722300,8.784722412109375,0.08846006542444229,0.04940762743353844,0.018298780545592308
1790958017540801300,8.79480126953125,0.09126277267932892,0.07571779191493988,0.01565372943878174
1790958017550880500,8.804880615234374,0.10102219134569168,0.08604633063077927,0.013061142526566982
1790958017560959200,8.814959228515624,0.10629578679800034,0.11007869243621826,0.009213140234351158
1790958017571038200,8.8250380859375,0.10503318160772324,0.13110674917697906,0.011857925914227962
1790958017581116200,8.8351162109375,0.110691599547863,0.14687666296958923,0.020689766854047775
1790958017591195400,8.8451953125,0.10775653272867203,0.1491062492132187,0.029712289571762085
1790958017601274400,8.8552744140625,0.09287451952695847,0.14357513189315796,0.03028513677418232
1790958017611353300,8.865353271484375,0.0749458521604538,0.1267908364534378,0.02943984977900982
1790958017621432300,8.875432373046875,0.05208846926689148,0.10871648788452148,0.03435950353741646
1790958017631511300,8.88551123046875,0.04611713066697121,0.08918087184429169,0.029400700703263283
1790958017641590300,8.89559033203125,0.04657359793782234,0.0704929381608963,0.010795856826007366
1790958017651669200,8.905669189453125,0.05159765109419823,0.04279819130897522,0.011990019120275974
1790958017661748500,8.91574853515625,0.05381499603390694,0.009054342284798622,0.00829328503459692
1790958017671827200,8.9258271484375,0.05719614773988724,-0.02464849315583706,0.010378539562225342
1790958017681905200,8.9359052734375,0.05065515637397766,-0.04883106052875519,0.01734084263443947
1790958017691984400,8.945984375,0.05108419060707092,-0.07035792618989944,0.030991673469543457
1790958017702063400,8.9560634765625,0.05216570198535919,-0.08602876216173172,0.019429558888077736
1790958017712142300,8.966142333984376,0.04518955200910568,-0.09024694561958313,0.025240842252969742
1790958017722221300,8.97622119140625,0.043574344366788864,-0.09819088876247406,0.025575336068868637
1790958017732300300,8.98630029296875,0.05010148510336876,-0.10235660523176193,0.023678632453083992
1790958017742379500,8.996379638671876,0.05595457926392555,-0.10010037571191788,0.02156275138258934
1790958017752458200,9.006458251953125,0.05860442668199539,-0.09363235533237457,0.014269418083131313
1790958017762537200,9.016537109375,0.0584651418030262,-0.07820652425289154,0.00940195843577385
1790958017772615200,9.026615234375,0.060907527804374695,-0.06877440959215164,0.0195147804915905
1790958017782694400,9.0366943359375,0.058448631316423416,-0.05773267522454262,0.009311411529779434
1790958017792773000,9.046773193359375,0.06475846469402313,-0.04625791311264038,0.010036855936050415
1790958017802852400,9.056852294921875,0.0704357922077179,-0.03188643231987953,0.015054518356919289
1790958017812931300,9.066931396484375,0.07389656454324722,-0.01869286596775055,0.0052205296233296394
1790958017823010300,9.07701025390625,0.07395995408296585,0.00034953420981764793,0.012071778066456318
1790958017833089300,9.08708935546875,0.06945787370204926,0.017116796225309372,0.0169895701110363
1790958017843168300,9.097168212890624,0.06044680252671242,0.03457275405526161,0.014177539385855198
1790958017853247500,9.10724755859375,0.054293300956487656,0.05061164125800133,0.007864248938858509
1790958017863325400,9.117325439453126,0.05057765915989876,0.06764255464076996,0.007543871179223061
1790958017873404200,9.127404052734375,0.04373093694448471,0.0762443020939827,0.01307685486972332
1790958017883483400,9.1374833984375,0.03812817856669426,0.0845365822315216,-0.008338688872754574
1790958017893562400,9.147562255859375,0.0390927754342556,0.07767947763204575,-0.00019181292736902833
1790958017903641300,9.157641357421875,0.04166911914944649,0.0597982183098793,-0.0021212731953710318
1790958017913720300,9.16772021484375,0.04233916848897934,0.0403350330889225,-0.01960865408182144
1790958017923799300,9.17779931640625,0.0482921339571476,0.02329426445066929,-0.018005430698394775
1790958017933878500,9.18787841796875,0.050087638199329376,0.016235556453466415,-0.01198588777333498
1790958017943957200,9.197957275390625,0.046408481895923615,0.01988408714532852,-0.02452591434121132
1790958017954035200,9.20803515625,0.04582231864333153,0.03714270517230034,-0.01568634994328022
1790958017964114400,9.218114501953124,0.04044220224022865,0.04098218306899071,0.00005133368540555239
1790958017974193400,9.228193359375,0.032200250774621964,0.038620758801698685,0.011960191652178764
1790958017984272100,9.238272216796876,0.01852971315383911,0.023924900218844414,-0.0025982451625168324
1790958017994351400,9.248351318359376,0.0023864286486059427,0.0028864615596830845,-0.026495322585105896
1790958018004430300,9.258430419921876,-0.010159190744161606,-0.015580696985125542,-0.026310497894883156
1790958018014509300,9.26850927734375,-0.009589807130396366,-0.033425472676754,-0.027823174372315407
1790958018024588300,9.27858837890625,0.0008018477819859982,-0.048998840153217316,-0.02133091911673546
1790958018034667300,9.288667236328125,0.016752850264310837,-0.050729360431432724,-0.03007114864885807
1790958018044745200,9.2987451171875,0.03836040571331978,-0.05534807965159416,-0.018015816807746887
1790958018054824400,9.308824462890625,0.05701345205307007,-0.056158747524023056,-0.0008703863713890314
1790958018064903200,9.318903076171875,0.06407696008682251,-0.048632122576236725,-0.007632152177393436
1790958018074982400,9.328982421875,0.06345431506633759,-0.03030424937605858,0.0017632136587053537
1790958018085061400,9.339061279296875,0.05492793396115303,-0.012896763160824776,0.020643427968025208
1790958018095140000,9.34914013671875,0.05740920081734657,-0.003131483681499958,0.029236650094389915
1790958018105219300,9.35921923828125,0.05580464377999306,0.008457528427243233,0.03167903423309326
1790958018115298300,9.36929833984375,0.06593771278858185,0.016653405502438545,0.03553235903382301
1790958018125377500,9.37937744140625,0.08020399510860443,0.02035999298095703,0.043486159294843674
1790958018135455500,9.38945556640625,0.09353125840425491,0.017669668421149254,0.03786955028772354
1790958018145534200,9.3995341796875,0.11006469279527664,0.018574077636003494,0.0407060831785202
1790958018155613400,9.409613525390625,0.12261004745960236,0.015345260500907898,0.03574781119823456
1790958018165692400,9.4196923828125,0.12618213891983032,0.023331815376877785,0.026031002402305603
1790958018175771100,9.429771240234375,0.12595044076442719,0.04216036573052406,0.030018819496035576
1790958018185850400,9.439850341796875,0.12776592373847961,0.07350470870733261,0.03220420703291893
1790958018195929300,9.449929443359375,0.12793795764446259,0.11169843375682831,0.03321567550301552
1790958018206008300,9.46000830078125,0.1294972449541092,0.1576872318983078,0.03745782747864723
1790958018216086300,9.470086181640625,0.1315566599369049,0.1959395408630371,0.04334767162799835
1790958018226165200,9.480165283203124,0.12989351153373718,0.22479622066020966,0.039997417479753494
1790958018236244200,9.490244140625,0.13039445877075195,0.2566271126270294,0.03388812392950058
1790958018246323500,9.500323486328124,0.12676429748535156,0.2923150658607483,0.025620076805353165
1790958018256402200,9.510402099609376,0.12307609617710114,0.3329527974128723,0.014516293071210384
1790958018266481400,9.5204814453125,0.11773752421140671,0.38135814666748047,0.013509618118405342
1790958018276560400,9.530560302734376,0.10411359369754791,0.4300907850265503,0.020435169339179993
1790958018286639000,9.54063916015625,0.10308960825204849,0.47087469696998596,0.020462865009903908
1790958018296718300,9.55071826171875,0.10156255960464478,0.5017592906951904,0.028317339718341827
1790958018306796300,9.56079638671875,0.10110636055469513,0.5128297805786133,0.039062391966581345
1790958018316875300,9.570875244140625,0.08813383430242538,0.4909963607788086,0.0423404797911644
1790958018326954200,9.580954345703125,0.07916431128978729,0.46222543716430664,0.03523969277739525
1790958018337033200,9.591033203125,0.07061129808425903,0.4317482113838196,0.026178555563092232
1790958018347112400,9.601112548828125,0.07959041744470596,0.40224385261535645,0.027865400537848473
1790958018357191400,9.61119140625,0.09072482585906982,0.3710004389286041,0.028119467198848724
1790958018367270700,9.621270751953125,0.0939139574766159,0.33908164501190186,0.030292605981230736
1790958018377349600,9.631349609375,0.09641440212726593,0.31039807200431824,0.029817497357726097
1790958018387427800,9.641427734375,0.098100446164608,0.2853507995605469,0.03303619101643562
1790958018397506800,9.6515068359375,0.08883744478225708,0.25942304730415344,0.03038901276886463
1790958018407585500,9.66158544921875,0.07951691001653671,0.23205561935901642,0.04104991257190704
1790958018417664800,9.671664794921876,0.06675930321216583,0.21471604704856873,0.035819195210933685
1790958018427743700,9.68174365234375,0.061603158712387085,0.19650109112262726,0.03398481011390686
1790958018437822500,9.691822509765625,0.06637128442525864,0.1779431253671646,0.0347888208925724
1790958018447901700,9.701901611328125,0.07146244496107101,0.16524463891983032,0.04126030206680298
1790958018457980700,9.711980712890625,0.059329353272914886,0.166817769408226,0.013780740089714527
1790958018468060000,9.722059814453125,0.05753438174724579,0.16401584446430206,0.026184413582086563
1790958018478137900,9.732137939453125,0.06870874017477036,0.16440734267234802,0.026080017909407616
1790958018488216600,9.742216552734375,0.074648916721344,0.15858221054077148,0.040085844695568085
1790958018498295800,9.7522958984375,0.06454488635063171,0.15706899762153625,0.03386683389544487
1790958018508374800,9.762374755859375,0.03408285230398178,0.13389655947685242,0.015583700500428677
1790958018518453500,9.77245361328125,0.009255800396203995,0.1220439001917839,0.021146245300769806
1790958018528532700,9.78253271484375,0.017090819776058197,0.12978863716125488,0.009027530439198017
1790958018538611700,9.79261181640625,0.053656287491321564,0.1249786987900734,0.018386412411928177
1790958018548690700,9.802690673828126,0.07561351358890533,0.10839705914258957,0.008159074001014233
1790958018558768600,9.8127685546875,0.0783885270357132,0.0862739086151123,-0.01014669705182314
1790958018568847600,9.82284765625,0.056431565433740616,0.0680493637919426,-0.01746559515595436
1790958018578926800,9.8329267578125,0.027360236272215843,0.07014394551515579,-0.018993450328707695
1790958018589005800,9.843005859375,0.0175816398113966,0.1018209159374237,-0.0107562942430377
1790958018599084500,9.85308447265625,0.011862236075103283,0.12309344857931137,0.010462175123393536
1790958018609163800,9.863163818359375,0.027491262182593346,0.12746955454349518,0.02098805457353592
1790958018619242800,9.87324267578125,0.04467903450131416,0.12188569456338882,0.019151005893945694
1790958018629321500,9.883321533203125,0.06604903936386108,0.11013290286064148,0.030690748244524002
1790958018639399700,9.893399658203125,0.06675584614276886,0.10659489780664444,0.010137801989912987
1790958018649478700,9.903478759765624,0.058056894689798355,0.11634499579668045,0.003556865034624934
1790958018659557600,9.9135576171875,0.047938477247953415,0.12578190863132477,0.010186005383729935
1790958018669636600,9.92363671875,0.03623788058757782,0.1356198936700821,0.003229296300560236
1790958018679715600,9.933715576171876,0.027446787804365158,0.1377703994512558,-0.003033393295481801
1790958018689794800,9.943794921875,0.034700170159339905,0.1336883008480072,0.015773585066199303
1790958018699873800,9.953873779296876,0.028271036222577095,0.11935516446828842,0.008681053295731544
1790958018709952500,9.963952392578125,0.022252026945352554,0.10999894887208939,0.009706370532512665
1790958018720030700,9.97403076171875,0.03159119933843613,0.10317300260066986,0.02158620022237301
1790958018730109700,9.984109619140625,0.03832366690039635,0.10865964740514755,0.0029158422257751226
1790958018740188700,9.994188720703125,0.03533746674656868,0.10792381316423416,0.040400099009275436
1790958018750267600,10.004267578125,0.03431054949760437,0.10114233940839767,0.017242850735783577
1790958018760346600,10.0143466796875,0.03083699196577072,0.09436539560556412,0.02406746707856655
1790958018770425900,10.02442578125,0.017143284901976585,0.10533229261636734,0.02779695764183998
1790958018780504600,10.034504638671875,-0.000595232704654336,0.10449659079313278,0.013063817285001278
1790958018790583600,10.04458349609375,-0.002656785771250725,0.10630754381418228,0.004609346389770508
1790958018800661800,10.054661865234374,-0.01580188237130642,0.10747160762548447,0.006091129034757614
1790958018810740700,10.06474072265625,-0.011673716828227043,0.09732735902070999,0.006296458654105663
1790958018820819700,10.07481982421875,-0.015160326845943928,0.08971551805734634,-0.007615362294018269
1790958018830898700,10.084898681640626,-0.01180634181946516,0.07521220296621323,0.007575308438390493
1790958018840977700,10.094977783203126,-0.020823005586862564,0.06968294829130173,-0.0052376920357346535
1790958018851056600,10.105056640625,-0.019435765221714973,0.06639314442873001,0.009485327638685703
1790958018861135600,10.115135498046875,-0.021568691357970238,0.06290094554424286,0.008198488503694534
1790958018871214600,10.125214599609375,-0.017780344933271408,0.057461705058813095,0.016164537519216537
1790958018881292500,10.13529248046875,-0.016736919060349464,0.07484335452318192,0.011650477536022663
1790958018891371800,10.145371826171875,-0.012489709071815014,0.0813491940498352,0.018979763612151146
1790958018901450800,10.15545068359375,-0.009605239145457745,0.09396618604660034,0.005986466538161039
1790958018911529700,10.16552978515625,-0.015434365719556808,0.12591853737831116,-0.0014783736551180482
1790958018921608700,10.175608642578124,-0.014493737369775772,0.13882847130298615,0.017477475106716156
1790958018931687700,10.185687744140624,-0.020753497257828712,0.15800349414348602,-0.0020347079262137413
1790958018941766700,10.1957666015625,-0.012453489936888218,0.17422933876514435,0.005795517936348915
1790958018951844600,10.2058447265625,-0.005358030088245869,0.1859685480594635,0.013583133928477764
1790958018961923600,10.215923583984376,0.001085754600353539,0.20269320905208588,0.0065238927491009235
1790958018972002800,10.2260029296875,0.006994776427745819,0.2210567742586136,0.02026394009590149
1790958018982081500,10.23608154296875,0.017325976863503456,0.22923587262630463,0.03326416015625
1790958018992160800,10.246160888671875,0.010936520993709564,0.2426813691854477,0.00943259708583355
1790958019002239700,10.25623974609375,0.012922174297273159,0.25481098890304565,0.018987221643328667
1790958019012318700,10.266318603515625,0.012732024304568768,0.2650894522666931,0.02015741355717182
1790958019022397700,10.276397705078125,0.016421301290392876,0.2672785818576813,0.021854380145668983
1790958019032475600,10.2864755859375,0.015876684337854385,0.26834943890571594,0.015980245545506477
1790958019042554600,10.2965546875,0.020996877923607826,0.2669414281845093,0.004693768452852964
1790958019052633900,10.3066337890625,0.022667478770017624,0.2541571855545044,0.019411996006965637
1790958019062712600,10.316712646484374,0.02637326717376709,0.24889717996120453,0.011938897892832756
1790958019072791600,10.32679150390625,0.02552798017859459,0.25065457820892334,0.012102948501706123
1790958019082870800,10.336870849609374,0.025882713496685028,0.2587500810623169,0.034140605479478836
1790958019092949500,10.346949462890626,0.030568545684218407,0.2653094232082367,0.033897724002599716
1790958019103028700,10.35702880859375,0.02986254170536995,0.2767338752746582,0.03507724031805992
1790958019113106700,10.367106689453125,0.027673423290252686,0.2881191372871399,0.02472446858882904
1790958019123185700,10.377185546875,0.01933080516755581,0.2936156392097473,0.024200625717639923
1790958019133265000,10.387264892578125,0.017211727797985077,0.30842334032058716,0.005631200969219208
1790958019143343600,10.397343505859375,0.011130399070680141,0.3281416594982147,0.009446712210774422
1790958019153422600,10.407422607421875,0.005982242524623871,0.34878090023994446,0.025057364255189896
1790958019163501800,10.417501708984375,-0.00003064255724893883,0.35083073377609253,0.033138457685709
1790958019173580500,10.42758056640625,0.0015992120606824756,0.35616105794906616,0.05472737178206444
1790958019183658500,10.437658447265624,0.008850467391312122,0.3371149003505707,0.05590635538101196
1790958019193737700,10.44773779296875,-0.00025381543673574924,0.337124764919281,0.017055364325642586
1790958019203816700,10.457816650390624,-0.008373526856303215,0.3405538499355316,0.04902847483754158
1790958019213895700,10.467895751953124,-0.005469083786010742,0.34227851033210754,0.06275387853384018
1790958019223974700,10.477974609375,-0.009299508295953274,0.34518083930015564,0.048328328877687454
1790958019234053600,10.4880537109375,-0.053456585854291916,0.3383665978908539,0.0214820709079504
1790958019244132900,10.4981328125,-0.06035976484417915,0.31872206926345825,0.04938161000609398
1790958019254211600,10.508211669921875,-0.07815074920654297,0.3184272348880768,0.030761055648326874
1790958019264289500,10.51828955078125,-0.06805390119552612,0.29368728399276733,0.052489254623651505
1790958019274368800,10.52836865234375,-0.06262505054473877,0.2713787853717804,0.07453490048646927
1790958019284447700,10.53844775390625,-0.06856603175401688,0.24984712898731232,0.03560827299952507
1790958019294526500,10.5485263671875,-0.08662679046392441,0.23170435428619385,0.07575435936450958
1790958019304605700,10.558605712890625,-0.09799647331237793,0.2001309096813202,0.11950011551380157
1790958019314684700,10.5686845703125,-0.09004002064466476,0.19491857290267944,0.10131259262561798
1790958019324763600,10.578763671875,-0.048472072929143906,0.1979372650384903,0.08591791987419128
1790958019334842600,10.588842529296874,-0.12505659461021423,0.16334600746631622,0.07208599895238876
1790958019344920600,10.598920654296874,-0.17294129729270935,0.14097411930561066,0.06549786776304245
1790958019354999800,10.608999755859376,-0.1619781255722046,0.09933239966630936,0.0744897648692131
1790958019365078800,10.619078857421876,-0.16405992209911346,0.04255673289299011,0.0689607784152031
1790958019375157000,10.629156982421875,-0.16903842985630035,-0.004907722119241953,0.034302134066820145
1790958019385236200,10.639236328125,-0.18130682408809662,-0.0325649157166481,-0.019503308460116386
1790958019395315200,10.649315185546875,-0.19566579163074493,-0.05378871411085129,-0.015594853088259697
1790958019405394200,10.659394287109375,-0.23240862786769867,-0.06853330135345459,0.013643459416925907
1790958019415472400,10.669472412109375,-0.24955564737319946,-0.07403352856636047,-0.011233127675950527
1790958019425551000,10.679551025390625,-0.25995075702667236,-0.0922415629029274,-0.012619036249816418
1790958019435630000,10.689630126953125,-0.260315865278244,-0.10428544133901596,0.010327025316655636
1790958019445709300,10.699709228515625,-0.26444029808044434,-0.09792687743902206,-0.05262797325849533
1790958019455788000,10.7097880859375,-0.26564112305641174,-0.09923981130123138,-0.00013466994278132915
1790958019465867300,10.7198671875,-0.26440170407295227,-0.0732971653342247,-0.03769323229789734
1790958019475946200,10.7299462890625,-0.2673356831073761,-0.045054078102111816,-0.03479118272662163
1790958019486025200,10.740025146484374,-0.2797710597515106,-0.012727295979857445,-0.013698948547244072
1790958019496103200,10.750103271484376,-0.29791542887687683,0.027219587936997414,0.0017569733317941427
1790958019506182100,10.76018212890625,-0.2945401668548584,0.041898131370544434,0.049588944762945175
1790958019516261000,10.77026123046875,-0.28849050402641296,0.0327371247112751,0.04920331761240959
1790958019526340400,10.78034033203125,-0.29762330651283264,0.041248586028814316,0.009528876282274723
1790958019536419000,10.790419189453125,-0.31395086646080017,0.05867897346615791,0.0005566866602748632
1790958019546498300,10.800498291015625,-0.29627707600593567,0.025537535548210144,0.07595903426408768
1790958019556577300,10.810577392578125,-0.28555572032928467,0.004004546906799078,0.031033901497721672
1790958019566655200,10.8206552734375,-0.26174360513687134,-0.016025619581341743,-0.01652402989566326
1790958019576734200,10.830734130859375,-0.22907620668411255,-0.03925530984997749,0.04008625075221062
1790958019586813200,10.840813232421874,-0.23981726169586182,-0.041378915309906006,-0.038443442434072495
1790958019596892200,10.85089208984375,-0.26109856367111206,-0.059246860444545746,0.06711813807487488
1790958019606971100,10.86097119140625,-0.2286655455827713,-0.17260964214801788,0.14057345688343048
1790958019617050000,10.871050048828126,-0.2385099232196808,-0.1970505267381668,-0.11465459316968918
1790958019627129000,10.881129150390626,-0.24833405017852783,-0.23185405135154724,-0.05158001929521561
1790958019637207300,10.891207275390625,-0.25917816162109375,-0.23726186156272888,0.006969045847654343
1790958019647286300,10.901286376953125,-0.2448839396238327,-0.27695897221565247,0.02867141179740429
1790958019657365000,10.911364990234375,-0.23858262598514557,-0.3010999858379364,0.041586942970752716
1790958019667444200,10.9214443359375,-0.2044438272714615,-0.3322054445743561,0.09040828049182892
1790958019677523200,10.931523193359375,-0.1881823092699051,-0.35251256823539734,0.053987421095371246
1790958019687602200,10.941602294921875,-0.16884243488311768,-0.3554210066795349,-0.009547612629830837
1790958019697681200,10.95168115234375,-0.19822002947330475,-0.31549277901649475,-0.0031794621609151363
1790958019707760000,10.961760009765625,-0.22389769554138184,-0.281781941652298,0.05564150959253311
1790958019717838300,10.97183837890625,-0.251646488904953,-0.26296645402908325,0.08136285096406937
1790958019727917300,10.981917236328124,-0.3191054165363312,-0.2857207655906677,0.06148661673069
1790958019737996000,10.99199609375,-0.33961760997772217,-0.26418402791023254,0.04030036926269531
1790958019748075300,11.0020751953125,-0.3409143090248108,-0.27300843596458435,0.06196891516447067
1790958019758154200,11.012154296875,-0.3372311592102051,-0.3238724172115326,0.006823637522757053
1790958019768233200,11.022233154296876,-0.34775596857070923,-0.3650025427341461,-0.08613745868206024
1790958019778312200,11.032312255859376,-0.3713134825229645,-0.43402475118637085,-0.09166405349969864
1790958019788390100,11.04239013671875,-0.39624732732772827,-0.4860306978225708,-0.10715433210134506
1790958019798469400,11.052469482421875,-0.42433783411979675,-0.5517804026603699,-0.1145765632390976
1790958019808548000,11.062548095703125,-0.4315158426761627,-0.623437762260437,-0.08802804350852966
1790958019818627000,11.072626953125,-0.44694700837135315,-0.7140209674835205,-0.029426513239741325
1790958019828706300,11.082706298828125,-0.4243961572647095,-0.8245781064033508,0.024537652730941772
1790958019838785300,11.092785400390625,-0.41433924436569214,-0.9197387099266052,0.0064931390807032585
1790958019848864000,11.102864013671875,-0.39484304189682007,-0.9689025282859802,-0.09629209339618683
1790958019858943200,11.112943115234375,-0.4185340106487274,-0.9872865676879883,-0.03973427787423134
1790958019869021200,11.123021240234374,-0.44490861892700195,-1.0121750831604004,-0.0038183543365448713
1790958019879100200,11.13310009765625,-0.43754658102989197,-1.0252536535263062,-0.03806500881910324
1790958019889179100,11.14317919921875,-0.448417603969574,-1.0888220071792603,-0.024247730150818825
1790958019899258000,11.153258056640626,-0.573496401309967,-1.1364861726760864,-0.11074214428663254
1790958019909337300,11.16333740234375,-0.6773930191993713,-1.2242830991744995,-0.14808177947998047
1790958019919416000,11.173416015625,-0.6618217825889587,-1.318534255027771,-0.06393841654062271
1790958019929495000,11.1834951171875,-0.632230818271637,-1.427909016609192,-0.14799869060516357
1790958019939573200,11.1935732421875,-0.5988765954971313,-1.479162573814392,-0.20042568445205688
1790958019949652200,11.20365234375,-0.5979540944099426,-1.4427608251571655,-0.18380782008171082
1790958019959731200,11.213731201171875,-0.5508025884628296,-1.4304741621017456,-0.07672398537397385
1790958019969810200,11.22381005859375,-0.5356430411338806,-1.4453375339508057,-0.06507079303264618
1790958019979889200,11.23388916015625,-0.575803279876709,-1.3892289400100708,-0.11509854346513748
1790958019989968400,11.243968505859375,-0.6012430787086487,-1.3701093196868896,-0.07085411250591278
1790958020000047000,11.254047119140624,-0.6184521913528442,-1.3631131649017334,-0.10348396003246307
1790958020010126000,11.2641259765625,-0.6316830515861511,-1.3923461437225342,-0.12153566628694534
1790958020020204300,11.274204345703126,-0.6236368417739868,-1.456739068031311,-0.11682107299566269
1790958020030283300,11.284283203125,-0.6468982100486755,-1.5029946565628052,-0.18496710062026978
1790958020040362200,11.2943623046875,-0.6224485039710999,-1.515182614326477,-0.15701481699943542
1790958020050441200,11.304441162109375,-0.5660680532455444,-1.5468816757202148,-0.17150188982486725
1790958020060520200,11.314520263671875,-0.508037269115448,-1.5136762857437134,-0.16270306706428528
1790958020070599200,11.32459912109375,-0.4213348627090454,-1.5095902681350708,-0.019896123558282852
1790958020080678100,11.33467822265625,-0.3633309304714203,-1.5242512226104736,0.05406491830945015
1790958020090756000,11.344756103515625,-0.295506089925766,-1.4439973831176758,-0.007514555472880602
1790958020100835000,11.3548349609375,-0.25723591446876526,-1.4072049856185913,0.04497767984867096
1790958020110914300,11.364914306640625,-0.2660680413246155,-1.286334753036499,0.04852820560336113
1790958020120993000,11.374992919921874,-0.2683229446411133,-1.1642634868621826,0.05260444059967995
1790958020131072300,11.385072265625,-0.2857850193977356,-1.0343976020812988,-0.012278950773179531
1790958020141151200,11.395151123046874,-0.28319454193115234,-0.9281851649284363,-0.012318897992372513
1790958020151230200,11.405230224609374,-0.32839131355285645,-0.8775076270103455,0.0034313027281314135
1790958020161309200,11.41530908203125,-0.35554173588752747,-0.9001607298851013,0.04226658120751381
1790958020171387100,11.42538720703125,-0.29602405428886414,-0.9152400493621826,-0.04063868522644043
1790958020181466000,11.435466064453125,-0.270481675863266,-0.9034364223480225,-0.16036827862262726
1790958020191545300,11.44554541015625,-0.27674436569213867,-0.8944455981254578,-0.03637922555208206
1790958020201624000,11.4556240234375,-0.24948161840438843,-0.8777925968170166,0.008220198564231396
1790958020211703300,11.465703369140625,-0.2174656242132187,-0.8914068937301636,-0.009226169437170029
1790958020221782300,11.4757822265625,-0.21863529086112976,-0.9235113263130188,0.032498374581336975
1790958020231861000,11.485861083984375,-0.20778849720954895,-0.931268572807312,0.025449519976973534
1790958020241939200,11.495939208984375,-0.20524731278419495,-0.9545627236366272,0.034425970166921616
1790958020252018200,11.50601806640625,-0.21375876665115356,-0.9612413644790649,0.007201806176453829
1790958020262097200,11.51609716796875,-0.2188486009836197,-0.917304277420044,-0.02228577807545662
1790958020272176400,11.52617626953125,-0.21396437287330627,-0.9147082567214966,0.07607487589120865
1790958020282255000,11.536255126953124,-0.2215953916311264,-0.8895182013511658,0.09799829125404358
1790958020292334000,11.546333984375,-0.2532310485839844,-0.9034712910652161,-0.03481382131576538
1790958020302413300,11.556413330078126,-0.24832873046398163,-0.8193258047103882,-0.06452404707670212
1790958020312492000,11.566491943359376,-0.24235498905181885,-0.8084853887557983,0.11760900914669037
1790958020322570000,11.576570068359375,-0.27061083912849426,-0.8401468992233276,0.007268119137734175
1790958020332649200,11.586649169921875,-0.3421875536441803,-0.7678820490837097,-0.1905355006456375
1790958020342728200,11.596728271484375,-0.3693816363811493,-0.7460010051727295,-0.16794656217098236
1790958020352807200,11.60680712890625,-0.41331952810287476,-0.6677690148353577,-0.14225319027900696
1790958020362886100,11.61688623046875,-0.4087143838405609,-0.6424735188484192,-0.033031899482011795
1790958020372966000,11.6269658203125,-0.37061360478401184,-0.6250548362731934,-0.06081133335828781
1790958020383044900,11.637044921875,-0.2983580529689789,-0.6032430529594421,0.0010104893008247018
1790958020393122800,11.647122802734375,-0.2058877944946289,-0.6305524110794067,0.029712174087762833
1790958020403201800,11.657201904296874,-0.16924802958965302,-0.6061719655990601,-0.02788294479250908
1790958020413281000,11.667281005859374,-0.16584929823875427,-0.6130993962287903,0.07216216623783112
1790958020423359700,11.67735986328125,-0.12868888676166534,-0.6048030853271484,0.1539401262998581
1790958020433438700,11.687438720703126,-0.11580823361873627,-0.6192209124565125,0.16331684589385986
1790958020443518000,11.69751806640625,-0.14427050948143005,-0.6009625792503357,0.12789760529994965
1790958020453597000,11.707596923828126,-0.16636942327022552,-0.514644980430603,0.08933103084564209
1790958020463675600,11.717675537109375,-0.12057342380285263,-0.39042240381240845,0.017825420945882797
1790958020473753900,11.72775390625,0.02244844101369381,-0.2753847539424896,0.03403501957654953
1790958020483832800,11.737832763671875,0.08062759786844254,-0.21647189557552338,0.042001333087682724
1790958020493911800,11.747911865234375,0.03930198773741722,-0.12919531762599945,-0.03175491467118263
1790958020503990800,11.75799072265625,0.01950724609196186,-0.11228104680776596,0.057280153036117554
1790958020514069800,11.76806982421875,0.0515059232711792,-0.15306709706783295,0.10012828558683395
1790958020524149000,11.77814892578125,0.02798062562942505,-0.12253395467996597,-0.09203077107667923
1790958020534228000,11.78822802734375,0.022005822509527206,-0.07795502990484238,-0.05834418162703514
1790958020544306000,11.798305908203124,0.07901318371295929,-0.1400061547756195,0.23728667199611664
1790958020554385000,11.808385009765624,0.09818315505981445,-0.1584882289171219,0.14867079257965088
1790958020564463900,11.8184638671875,0.11899229139089584,-0.13577571511268616,0.15593110024929047
1790958020574542800,11.82854296875,0.16699257493019104,-0.22332102060317993,0.3677341639995575
1790958020584621800,11.838621826171876,0.18651433289051056,-0.23727545142173767,0.275906503200531
1790958020594700800,11.84870068359375,0.15179124474525452,-0.2497800588607788,0.181987464427948
1790958020604780000,11.858780029296875,0.11270669847726822,-0.144695445895195,0.22065310180187225
1790958020614858800,11.868858642578125,0.08845169842243195,-0.13002675771713257,0.1959613412618637
1790958020624936700,11.878936767578125,0.1653406172990799,-0.03893786296248436,0.1334441751241684
1790958020635016000,11.889015869140625,0.22580288350582123,0.016292106360197067,0.04769943282008171
1790958020645095000,11.899094970703125,0.2048906832933426,0.08739930391311646,-0.013605205342173576
1790958020655174000,11.909173828125,0.19869829714298248,0.16547493636608124,-0.05796734243631363
1790958020665252900,11.9192529296875,0.21598593890666962,0.22526876628398895,-0.000008968752808868885
1790958020675331800,11.929331787109374,0.23797805607318878,0.23394747078418732,0.14871233701705933
1790958020685410800,11.939410888671874,0.29744619131088257,0.2219267636537552,0.10064387321472168
1790958020695489000,11.949489013671876,0.28701087832450867,0.35141417384147644,-0.1134100928902626
1790958020705567700,11.959567626953126,0.2912050783634186,0.3837473392486572,0.08940000832080841
1790958020715646700,11.969646728515626,0.28514400124549866,0.47384554147720337,0.25248053669929504
1790958020725726000,11.979725830078126,0.3140949606895447,0.4653066396713257,0.25612401962280273
1790958020735804700,11.9898046875,0.32231906056404114,0.4838472902774811,0.12040772289037704
1790958020745884000,11.9998837890625,0.3090224266052246,0.4672459661960602,0.11184565722942352
1790958020755963000,12.009962890625,0.24664504826068878,0.5329294204711914,0.13154932856559753
1790958020766040800,12.020040771484375,0.20765291154384613,0.5179893374443054,0.240920290350914
1790958020776120000,12.0301201171875,0.20554262399673462,0.5824641585350037,0.1838655322790146
1790958020786198800,12.04019873046875,0.3561800718307495,0.7562029361724854,0.014917516149580479
1790958020796277800,12.05027783203125,0.5555397868156433,0.8559202551841736,0.08613310754299164
1790958020806357000,12.06035693359375,0.557204008102417,0.9441944360733032,0.08006376028060913
1790958020816435700,12.070435791015624,0.5574748516082764,1.085875153541565,-0.033634308725595474
1790958020826515000,12.080514892578124,0.5826947093009949,1.0806188583374023,0.1302076280117035
1790958020836593000,12.090593017578126,0.6128091812133789,1.0656646490097046,0.17630535364151
1790958020846672000,12.100671875,0.5975285172462463,1.1602782011032104,-0.05952662602066994
1790958020856750800,12.110750732421875,0.6145040392875671,1.2135223150253296,0.022280890494585037
1790958020866829800,12.120829833984375,0.6374330520629883,1.3302942514419556,0.23131400346755981
1790958020876908800,12.13090869140625,0.7006884813308716,1.2937926054000854,0.40564587712287903
1790958020886988000,12.140988037109375,0.7397900819778442,1.3041110038757324,0.20500117540359497
1790958020897066800,12.151066650390625,0.7546177506446838,1.2968331575393677,0.03835386782884598
1790958020907145700,12.161145751953125,0.6928313374519348,1.457383155822754,0.001680007902905345
1790958020917224000,12.171223876953125,0.6400126218795776,1.4087536334991455,0.22723883390426636
1790958020927303000,12.181302978515625,0.6901831030845642,1.4036797285079956,0.2390398383140564
1790958020937381600,12.191381591796874,0.7357599139213562,1.4236867427825928,0.06993016600608826
1790958020947460900,12.2014609375,0.7149217128753662,1.422317624092102,0.0014147572219371796
1790958020957539800,12.211539794921874,0.6800923943519592,1.4151352643966675,0.02752492018043995
1790958020967618800,12.221618896484374,0.6435564756393433,1.437204360961914,0.006466241087764502
1790958020977697800,12.23169775390625,0.6254440546035767,1.4239234924316406,0.19549821317195892
