time,seconds_elapsed,z,y,x
1790006672582200800,0.052200927734375,8.987298779219389,3.8604540699079632,-0.7040885456357151
1790006672592212700,0.062212646484375,8.976206891840695,3.8961736180648203,-0.6464731728173791
1790006672602225000,0.072224853515625,8.963828471782803,3.9343303302407264,-0.5841271547479555
1790006672612236800,0.08223681640625,8.949885871148108,3.9742862007930873,-0.5243816745657474
1790006672622248700,0.092248779296875,8.934069877856968,4.015843369062245,-0.47516617356315255
1790006672632260900,0.1022607421875,8.916252481615542,4.0585508764103055,-0.44607813584264366
1790006672642271700,0.112271728515625,8.894783577129244,4.105843081200122,-0.4418841547515243
1790006672652283600,0.12228369140625,8.870496108090878,4.158187600943446,-0.440633277907595
1790006672662295800,0.1322958984375,8.84203164562881,4.2199180809304115,-0.4256211483452469
1790006672672307700,0.1423076171875,8.806792574465275,4.295591453813016,-0.3983504622450098
1790006672682319600,0.152319580078125,8.762868092542886,4.386874191498756,-0.3712994102448225
1790006672692331800,0.162331787109375,8.709296661353111,4.493892550715803,-0.35137948876619335
1790006672702342700,0.1723427734375,8.646835821264983,4.613712231577932,-0.3409914388079196
1790006672712354600,0.1823544921875,8.577542504808306,4.741318328532576,-0.34066341242995113
1790006672722366700,0.19236669921875,8.504367378482222,4.871002693066001,-0.34562501689270136
1790006672732378600,0.202378662109375,8.432114043176174,4.994762928247451,-0.349544272695668
1790006672742390500,0.212390625,8.366494446796178,5.104065599009394,-0.3473744543759152
1790006672752402700,0.222402587890625,8.312284717702864,5.192546431016922,-0.3373066858805716
1790006672762414800,0.232414794921875,8.2721222186625,5.2571133034735915,-0.324258769063279
1790006672772426000,0.242426025390625,8.247608539652823,5.295897499898076,-0.3175031207906082
1790006672782438100,0.252438232421875,8.23769387935996,5.311051229888201,-0.3217359725873917
1790006672792450000,0.262449951171875,8.238582352632283,5.308830046707391,-0.3353585474874824
1790006672802462200,0.272462158203125,8.245800028926134,5.296360441234707,-0.35458610278777775
1790006672812474000,0.28247412109375,8.256033253648877,5.278700281381607,-0.3789797356143594
1790006672822486000,0.292486083984375,8.267364210480451,5.258481084695458,-0.4116406999181956
1790006672832498200,0.302498291015625,8.277869237881898,5.238366517427563,-0.45473205548468976
1790006672842509000,0.312509033203125,8.28523304464817,5.221824547949433,-0.5077880479656159
1790006672852521000,0.32252099609375,8.287128649136424,5.212680872029066,-0.5673179857010021
1790006672862533000,0.332533203125,8.281275831454991,5.215236986252665,-0.626225042297691
1790006672872545000,0.342544921875,8.267550672963262,5.230948934647441,-0.6746611564256251
1790006672882557000,0.352556884765625,8.24745071874261,5.258341383963823,-0.7069568676136434
1790006672892569000,0.362569091796875,8.223366078799963,5.293393992644548,-0.7256796151969581
1790006672902581000,0.3725810546875,8.197813704392313,5.331116697317362,-0.7385347859211265
1790006672912592000,0.382591796875,8.172533717185258,5.3681508352041245,-0.7503555720962584
1790006672922604000,0.39260400390625,8.148254431453347,5.403285861471295,-0.7621283544111996
1790006672932616000,0.402615966796875,8.124428734707832,5.437366994771361,-0.7740067159924656
1790006672942627800,0.4126279296875,8.099650851804018,5.471998163169622,-0.789476087803021
1790006672952640000,0.422639892578125,8.072122208887338,5.5088236267417665,-0.8149171107906847
1790006672962652000,0.43265185546875,8.040347014442085,5.548962744906544,-0.8556948191199452
1790006672972663800,0.442663818359375,8.004076846665143,5.59264991094172,-0.9096190823353827
1790006672982675200,0.45267529296875,7.96355778927207,5.640584797549248,-0.9674391839455813
1790006672992687000,0.46268701171875,7.92247057660222,5.689166749888658,-1.0189343203179537
1790006673002699000,0.472698974609375,7.888957598578929,5.731012671971321,-1.0441385388750581
1790006673012711200,0.482711181640625,7.871857995218038,5.758500982877612,-1.0217146717514842
1790006673022723000,0.49272314453125,7.873847123208641,5.7692199452906845,-0.9428750168576836
1790006673032735000,0.50273486328125,7.889054044690727,5.767112743878364,-0.8207434788566083
1790006673042746000,0.51274609375,7.907223323109745,5.760417045632004,-0.6810291570875794
1790006673052758000,0.522758056640625,7.920580232810973,5.756211995157599,-0.5484730730427428
1790006673062770000,0.53277001953125,7.926073569530248,5.757863854017853,-0.4413043090369552
1790006673072782000,0.542781982421875,7.924013714390993,5.766347020202875,-0.36005894470829514
1790006673082794000,0.5527939453125,7.917087129998206,5.779677626419067,-0.2923162186944857
1790006673092806100,0.56280615234375,7.91027394285202,5.7918689994722605,-0.2284869215310551
1790006673102818000,0.572818115234375,7.909666040086746,5.794957028615475,-0.16135938653983176
1790006673112829000,0.582828857421875,7.919047031894325,5.7837166726768015,-0.0877295204498805
1790006673122840800,0.5928408203125,7.937038031136989,5.759653075522184,-0.014450385760050265
1790006673132853000,0.60285302734375,7.958530316498875,5.729722632160782,0.049519192090327846
1790006673142865000,0.612864990234375,7.97717130408287,5.702928733259439,0.1082890367399901
1790006673152877000,0.622876953125,7.991731744354963,5.681393777799606,0.15609613224938512
1790006673162889000,0.632888916015625,8.011446498650312,5.652469296610355,0.19156643661921843
1790006673172900900,0.64290087890625,8.04157217232287,5.609702752551436,0.18637741660876198
1790006673182912000,0.652912109375,8.07719352080226,5.560554983022809,0.09777961629121563
1790006673192924000,0.662923828125,8.112396936130523,5.509926035025716,-0.010847383698867633
1790006673202935800,0.672935791015625,8.144684171751141,5.460713383567333,-0.12294901013011113
1790006673212948000,0.682947998046875,8.170939141470193,5.417924627676606,-0.22854066101228818
1790006673222959900,0.6929599609375,8.187838253822923,5.38712558478713,-0.3294965966515243
1790006673232972000,0.702971923828125,8.19157334869802,5.373483428403735,-0.44065658571794625
1790006673242983200,0.712983154296875,8.183163247749208,5.37468520540893,-0.5647870789838955
1790006673252995000,0.7229951171875,8.170454572823644,5.379191284656525,-0.6916367680806667
1790006673263007000,0.733007080078125,8.162272435411811,5.375042932805418,-0.8103125396046787
1790006673273019100,0.74301904296875,8.161299206465483,5.3596647464096545,-0.9151876762479543
1790006673283031000,0.753031005859375,8.16484725433588,5.337122659733891,-1.0103326423197985
1790006673293043000,0.76304296875,8.171537691885232,5.309897968199849,-1.0960580381393432
1790006673303055000,0.77305517578125,8.179109588444232,5.2814522104382515,-1.1742294383827596
1790006673313066000,0.78306591796875,8.180703579637408,5.262570984357595,-1.2457217992536722
1790006673323078000,0.793077880859375,8.171060722023249,5.262275216281414,-1.3086704228587447
1790006673333090000,0.803090087890625,8.150127239587903,5.282655156487226,-1.3562331151530145
1790006673343102000,0.81310205078125,8.11982387126088,5.321857870584726,-1.3844402418531476
1790006673353113900,0.82311376953125,8.085324804809689,5.374063274118304,-1.3846855949163437
1790006673363126000,0.8331259765625,8.051234319159388,5.435325259810686,-1.3435977977246045
1790006673373137000,0.843136962890625,8.016049608531594,5.506162883099913,-1.2631307608246802
1790006673383148800,0.853148681640625,7.977691528564691,5.58517095336318,-1.1544210144545883
1790006673393161000,0.863160888671875,7.939896927699446,5.662671541672944,-1.0308112205944955
1790006673403172900,0.8731728515625,7.906565151461958,5.725276174145937,-0.9369269221082329
1790006673413184800,0.883184814453125,7.879536274760961,5.765365023428202,-0.9186194773275405
1790006673423197000,0.893197021484375,7.861407912874221,5.784149803397059,-0.9551265226002782
1790006673433208800,0.903208740234375,7.859653762683272,5.780470822623371,-0.9911525063578038
1790006673443220000,0.913219970703125,7.883191874659061,5.746864905619621,-0.9996073232311755
1790006673453232000,0.923232177734375,7.931883717113733,5.681642784124612,-0.987188790358603
1790006673463244000,0.933244140625,8.002617880028486,5.586126062130928,-0.961087842157483
1790006673473256000,0.943255859375,8.088315218797325,5.465595310389995,-0.9363810517285018
1790006673483268000,0.95326806640625,8.175884781178832,5.335772414168715,-0.9245632612280547
1790006673493280000,0.963280029296875,8.253199491527676,5.212637617409229,-0.9399422513414174
1790006673503291000,0.973290771484375,8.311626546055079,5.109809111097455,-0.9884852599099277
1790006673513303000,0.983302978515625,8.348473052415251,5.036362766614556,-1.052819711850211
1790006673523315000,0.99331494140625,8.364896363949775,4.995291920557618,-1.1162224358983337
1790006673533327000,1.0033271484375,8.36000274668932,4.9909232039541,-1.1710784270059316
1790006673543339000,1.013339111328125,8.33171071818471,5.027847451725602,-1.213971958445385
1790006673553351000,1.023350830078125,8.2806463013798,5.099703896668553,-1.2626546677455306
1790006673563363000,1.033363037109375,8.2121420894742,5.193934085983038,-1.3244482760965823
1790006673573374000,1.0433740234375,8.140349357417225,5.30178305080533,-1.3402196995936333
1790006673583385900,1.0533857421875,8.085753843876718,5.401895283895731,-1.269050506262481
1790006673593398000,1.06339794921875,8.045981220936774,5.4883443178147076,-1.1448352938551456
1790006673603410000,1.073409912109375,8.002657627516985,5.57780305494368,-1.0079548072725535
1790006673613421800,1.083421875,7.938129333505034,5.692606661209464,-0.8664397927571088
1790006673623434000,1.09343408203125,7.838742492079734,5.847565752252936,-0.7283360479898751
1790006673633445000,1.103445068359375,7.6959350266009565,6.047875558629632,-0.605121281329356
1790006673643457000,1.11345703125,7.503393516138195,6.293111132925748,-0.5159803779779002
1790006673653469200,1.12346923828125,7.256784315401315,6.578871609833836,-0.47740226205214853
1790006673663481000,1.133481201171875,6.952903659912943,6.897909502443671,-0.49634230564795434
1790006673673493000,1.143492919921875,6.5898787415385245,7.240080433359742,-0.5701848463742062
1790006673683505200,1.153505126953125,6.167142574045061,7.5939552460730075,-0.6845327082291245
1790006673693516000,1.16351611328125,5.6846326135903595,7.949372027531266,-0.8141339975889772
1790006673703528000,1.17352783203125,5.151857862275839,8.293989767077564,-0.9156832777451723
1790006673713540000,1.1835400390625,4.602459892940521,8.60978122511208,-0.9270488674987107
1790006673723552000,1.193552001953125,4.083169184838235,8.878181401896477,-0.8222013495147228
1790006673733564000,1.20356396484375,3.6214129663378,9.090976595836878,-0.6402382239505648
1790006673743576000,1.213576171875,3.2190260516509412,9.252980929216742,-0.4365759288081899
1790006673753588000,1.223587890625,2.864120726846158,9.376143783026933,-0.23481601495472712
1790006673763598000,1.23359814453125,2.546113346327841,9.470268173879385,-0.041337926894752304
1790006673773610200,1.2436103515625,2.2593970299996435,9.541766306903957,0.1421330094164703
1790006673783622100,1.2536220703125,2.005338974561542,9.594200843018292,0.316715294881165
1790006673793634300,1.26363427734375,1.7872687628276644,9.630262336480618,0.4838522784417495
1790006673803646200,1.273646240234375,1.6012079926863312,9.653453826975822,0.6460449374679476
1790006673813658000,1.283658203125,1.4361809504844247,9.667413963267206,0.8055239170886576
1790006673823669200,1.293669189453125,1.2834303292706608,9.67440367602408,0.963908598666638
1790006673833681400,1.303681396484375,1.1401382220800966,9.675262923201918,1.122398786445707
1790006673843693300,1.313693359375,1.0123667784959076,9.669731592559813,1.281317721030861
1790006673853705200,1.323705322265625,0.9080357586666941,9.658188454282284,1.4370998188950121
1790006673863717400,1.33371728515625,0.8313677487235516,9.64223042217195,1.5832286838814615
1790006673873729300,1.343729248046875,0.7829378451406955,9.624649757295847,1.7098348100133238
1790006673883740200,1.353740234375,0.7569635920591652,9.607889176630973,1.8126897659406065
1790006673893752300,1.36375244140625,0.742934336054325,9.593034721848369,1.8952908922597764
1790006673903764200,1.37376416015625,0.7281730394478887,9.579892916202544,1.9661723546907304
1790006673913776000,1.383776123046875,0.6967866981897503,9.56846902039051,2.0320582007914783
1790006673923788300,1.393788330078125,0.6375776995044201,9.558983399164676,2.095160845914483
1790006673933800200,1.40380029296875,0.5458380118314177,9.551362402766943,2.1549719021461904
1790006673943812000,1.41381201171875,0.4223503465136513,9.545275776329635,2.209007735977322
1790006673953823200,1.4238232421875,0.27405544433342294,9.540161209794878,2.254021474441141
1790006673963835100,1.433835205078125,0.11060016322657465,9.535331305420398,2.288151269188523
1790006673973847000,1.443846923828125,-0.061207611456909214,9.53019803418517,2.3112648721419276
1790006673983859200,1.453859130859375,-0.23516910270871594,9.524270397701859,2.3245101381622253
1790006673993871000,1.46387109375,-0.403668332799524,9.517432660636306,2.329356116888672
1790006674003883000,1.473883056640625,-0.5528964789755642,9.51114145153761,2.3244142765723166
1790006674013894400,1.483894287109375,-0.664303866931796,9.508371986824274,2.3064988267838955
1790006674023906300,1.49390625,-0.7223293549209833,9.511675704544782,2.2752179917268456
1790006674033917200,1.503917236328125,-0.7188982114285231,9.522434998968244,2.230877037958056
1790006674043929300,1.513929443359375,-0.6581862608343363,9.540425998210907,2.171974913264811
1790006674053941200,1.523941162109375,-0.5708334099434316,9.562584638527035,2.097975611074269
1790006674063953200,1.533953125,-0.5202481549575925,9.58195452490747,2.0213541436865925
1790006674073965300,1.54396533203125,-0.5649524621460587,9.590511340850592,1.9680743889197707
1790006674083977200,1.553977294921875,-0.6700802583761513,9.59129576922655,1.9309087336078286
1790006674093989000,1.563989013671875,-0.7815738633111119,9.590797172054648,1.891062607040256
1790006674104000300,1.574000244140625,-0.8696967487264424,9.592655367141962,1.8425396914117038
1790006674114012200,1.58401220703125,-0.9233545430254191,9.598185528740286,1.7867909161828457
1790006674124024000,1.594024169921875,-0.9545851822651922,9.606099955126643,1.7268499499611556
1790006674134036200,1.6040361328125,-0.9805744137201458,9.614754386225343,1.6629425643265245
1790006674144048000,1.614048095703125,-1.0102221676826477,9.623246904760599,1.5946676311321555
1790006674154060000,1.62406005859375,-1.0478348361097276,9.630959671095013,1.5221913007251917
1790006674164071400,1.634071533203125,-1.0888264794506133,9.638004913431406,1.4469605570435524
1790006674174083300,1.644083251953125,-1.1196058677915484,9.645205054068565,1.3736347702004015
1790006674184095200,1.65409521484375,-1.1346673163883387,9.652567107269167,1.3079881396830082
1790006674194107400,1.664107421875,-1.144148919026181,9.658648473009466,1.2537279955767093
1790006674204119300,1.674119384765625,-1.16391978742294,9.661946345511078,1.2093377958387135
1790006674214131200,1.684131103515625,-1.2001197395078838,9.662271924203633,1.1707424730498344
1790006674224143400,1.694143310546875,-1.2489439761705696,9.660307346132397,1.135320665730536
1790006674234154200,1.704154296875,-1.3045254320085047,9.657010642674564,1.1003498170491308
1790006674244166100,1.714166259765625,-1.3599882299028336,9.65345791862905,1.0637545089710503
1790006674254178300,1.72417822265625,-1.4126011913239955,9.649817516300082,1.0276114747051148
1790006674264190200,1.734190185546875,-1.4597189163297415,9.645912910076975,0.9979901703581213
1790006674274202400,1.744202392578125,-1.4976840514563023,9.642188921117782,0.9775212366946041
1790006674284214300,1.75421435546875,-1.5269308964677155,9.638922028276324,0.9643808192882686
1790006674294226200,1.76422607421875,-1.5524986145749686,9.635625324818491,0.9564682195328176
1790006674304237000,1.774237060546875,-1.5773372877553105,9.632067340075968,0.9516675412528216
1790006674314249200,1.784249267578125,-1.598247827706486,9.62906289756298,0.9471611697442829
1790006674324261000,1.79426123046875,-1.6108372601665555,9.62781435880661,0.9385057887975126
1790006674334273300,1.804273193359375,-1.6019510661385952,9.631085343301296,0.9199695036970078
1790006674344285200,1.81428515625,-1.5563303016923367,9.641645315760373,0.8870823294218629
1790006674354297000,1.824297119140625,-1.4719291402138768,9.659314827963708,0.8375329933550208
1790006674364309200,1.834309326171875,-1.35828873250857,9.68124433569908,0.7739234946884215
1790006674374320400,1.8443203125,-1.2276980667851864,9.704192080566287,0.7012865668922662
1790006674384332300,1.854332275390625,-1.0931409085836261,9.725397950202225,0.6261674668915569
1790006674394344400,1.864344482421875,-0.9641504445984959,9.743322313949465,0.5554186543969437
1790006674404356400,1.8743564453125,-0.8426439796932041,9.758052850091456,0.4906820879291743
1790006674414368300,1.8843681640625,-0.7275069036893547,9.77024305410087,0.428350098385103
1790006674424380400,1.89438037109375,-0.6216601455349475,9.779951962688564,0.3694373061673715
1790006674434392300,1.904392333984375,-0.5378560731668025,9.786572842133044,0.3226242266640067
1790006674444403200,1.9144033203125,-0.48360100709442044,9.79064520613849,0.2824076776151545
1790006674454415400,1.924415283203125,-0.44899734775759276,9.793895732367039,0.21996526823285967
1790006674464427300,1.93442724609375,-0.4520124943276867,9.79540146075487,0.12726095504509286
1790006674474439200,1.944439208984375,-0.4371679398845881,9.796880885657668,0.019328755219024604
1790006674484451300,1.954451416015625,-0.356458362933062,9.799816354587673,-0.08330662597371265
1790006674494463200,1.964463134765625,-0.24448676522281018,9.802105926829576,-0.171242647047434
1790006674504475100,1.97447509765625,-0.1638868409245275,9.802070270994305,-0.25086799069251864
1790006674514487300,1.9844873046875,-0.12414668634892441,9.80055226764679,-0.3226853092014789
1790006674524498200,1.994498291015625,-0.10266685860981233,9.798859492254257,-0.3770662301432341
1790006674534510000,2.004510009765625,-0.10909836209518835,9.797634334373473,-0.40602033928576853
1790006674544522200,2.014522216796875,-0.17612040915163232,9.796513805910944,-0.4094669360756874
1790006674554534100,2.0245341796875,-0.3327878567492589,9.793312379521131,-0.38813418865706767
1790006674564546300,2.03454638671875,-0.5448163406334817,9.785748666268587,-0.33565131988897917
1790006674574558200,2.04455810546875,-0.773658560141921,9.772772864839434,-0.25450612799916417
1790006674584570000,2.054570068359375,-1.003719580855593,9.753872349536419,-0.15789724512090905
1790006674594582300,2.064582275390625,-1.2121058723125606,9.731280578500032,-0.05818833213439211
1790006674604594200,2.07459423828125,-1.3478716756515203,9.713573072373867,0.011490903483505826
1790006674614605300,2.084605224609375,-1.44480133318305,9.699419459336996,0.06483399896025657
1790006674624617200,2.0946171875,-1.4939011719167232,9.691721306049823,0.09582055464531294
1790006674634629400,2.10462939453125,-1.496624459400773,9.691296358636022,0.09622497986089437
1790006674644641300,2.114641357421875,-1.4631846927441656,9.696597972175478,0.07376030123631935
1790006674654653200,2.124653076171875,-1.4121350351169704,9.704376789483428,0.036310152727458626
1790006674664665300,2.134665283203125,-1.3600102956041693,9.711880296981334,-0.012960131219273897
1790006674674677200,2.14467724609375,-1.317625152078271,9.717485861903429,-0.06856946829468943
1790006674684689400,2.154689453125,-1.2892935222156345,9.720773213011025,-0.12116756094028241
1790006674694700300,2.1647001953125,-1.2699576842352747,9.722730776819587,-0.16164487068401648
1790006674704712200,2.174712158203125,-1.2523792113162577,9.724566175553202,-0.18637982776155695
1790006674714724400,2.184724365234375,-1.2411866400420666,9.725919343727826,-0.1906599344998598
1790006674724736300,2.194736328125,-1.2691155343227087,9.723153970667719,-0.14156435181619598
1790006674734748200,2.204748046875,-1.3662263936400412,9.710997668927908,-0.017512335180514493
1790006674744760300,2.21476025390625,-1.5287513898931442,9.685347094842792,0.1653745404653251
1790006674754772200,2.224772216796875,-1.735714370548725,9.644781860220432,0.3686239439578727
1790006674764784600,2.23478466796875,-1.96346894095093,9.59208019760251,0.5542410254523158
1790006674774796800,2.244796875,-2.1860224355787037,9.533691721519828,0.7073902175296097
1790006674784807700,2.2548076171875,-2.3522888103172184,9.482533196690678,0.8477677524477243
1790006674794819600,2.264819580078125,-2.4315346348591147,9.448223515331744,0.9945277549445628
1790006674804831500,2.27483154296875,-2.5279978439226745,9.411761624374986,1.0946887225475161
1790006674814843600,2.28484375,-2.5994302182346583,9.382514487102627,1.1754817765314132
1790006674824855600,2.29485546875,-2.647064952851832,9.36089652953446,1.2397808648973703
1790006674834867700,2.30486767578125,-2.669994869801402,9.347448434418439,1.2910136240065098
1790006674844879600,2.314879638671875,-2.6715286552399395,9.341438964870571,1.3307220956690609
1790006674854891500,2.3248916015625,-2.653349147687852,9.343038801282644,1.3556493239156902
1790006674864903700,2.334903564453125,-2.620305833002925,9.35128815871179,1.3630151765085756
1790006674874914600,2.34491455078125,-2.5786700465396044,9.363732045221328,1.3569643520370125
1790006674884926500,2.354926513671875,-2.5242905138373373,9.381263610258697,1.3379999777175486
1790006674894938600,2.364938720703125,-2.4504382189020513,9.406844626238941,1.2949958255104719
1790006674904950500,2.374950439453125,-2.353694147070497,9.441462935155629,1.2203658242009578
1790006674914962400,2.38496240234375,-2.241281673724949,9.4809620018512,1.1217918335285038
1790006674924974600,2.394974609375,-2.1225630859725175,9.521101120015977,1.006848380400613
1790006674934986500,2.404986572265625,-2.0048893310979006,9.55813467338085,0.8904335395459085
1790006674944998400,2.414998291015625,-1.8891816155992447,9.591208675464987,0.7810754122696817
1790006674955009800,2.425009765625,-1.7743009985744953,9.621325581309199,0.6725405110098421
1790006674965021700,2.435021728515625,-1.6560662488162516,9.650192194831371,0.5491713209725916
1790006674975033600,2.44503369140625,-1.5367130164220928,9.677119364723563,0.40281032773070036
1790006674985045800,2.455045654296875,-1.4262640982344745,9.699572604072094,0.2333548928936012
1790006674995057700,2.4650576171875,-1.3330967158459126,9.715461662599443,0.05515018828120082
1790006675005069600,2.475069580078125,-1.2552147270031273,9.725442373865842,-0.10286077374671586
1790006675015081700,2.485081787109375,-1.187035363137722,9.732118198367953,-0.21722466428782788
1790006675025093600,2.49509375,-1.1308403785113244,9.737039872679114,-0.2857137516895309
1790006675035105800,2.505105712890625,-1.0893624860234559,9.740767368769646,-0.3180477855939418
1790006675045116700,2.51511669921875,-1.0655990408591924,9.743210085746645,-0.32363121174946424
1790006675055128600,2.525128662109375,-1.0630673304244875,9.743974640378356,-0.3086285441352054
1790006675065140700,2.535140625,-1.0754947041906415,9.743448570677637,-0.2809364725514315
1790006675075152600,2.545152587890625,-1.0908777128919958,9.742719671881199,-0.2445182015406899
1790006675085164500,2.55516455078125,-1.103951129476726,9.742199447399377,-0.2030705215279944
1790006675095176700,2.5651767578125,-1.0871137572485954,9.744652685770392,-0.17418869217038155
1790006675105188600,2.575188720703125,-1.0609330218095332,9.747482356238365,-0.1771881114483811
1790006675115200500,2.585200439453125,-1.0236175096981226,9.75083049762249,-0.20958878084821625
1790006675125211600,2.595211669921875,-0.9732506467033177,9.754777189421652,-0.2597645051850937
1790006675135223600,2.6052236328125,-0.9201963712554424,9.758287827891111,-0.315365049315989
1790006675145235500,2.6152353515625,-0.8701173122260719,9.761458274620772,-0.35668205215372145
1790006675155247600,2.62524755859375,-0.7961595110896974,9.765778475907444,-0.407542982275784
1790006675165259500,2.635259521484375,-0.6879068608373403,9.769947286024689,-0.4952918102143332
1790006675175271400,2.645271484375,-0.5495531233644113,9.772135735979676,-0.6113493620639666
1790006675185283600,2.65528369140625,-0.4124678714573383,9.770620655241608,-0.7316136083558201
1790006675195295500,2.66529541015625,-0.28739301001336426,9.76531845718026,-0.8522694477811456
1790006675205307600,2.6753076171875,-0.17551731042563914,9.756841720736027,-0.9713939129207283
1790006675215318800,2.68531884765625,-0.08181701760361902,9.747499891895055,-1.0723640049494803
1790006675225330700,2.69533056640625,-0.008189399982147733,9.739587803596258,-1.1448817633453756
1790006675235342600,2.705342529296875,0.0434058466094546,9.734050627735257,-1.1902698150143027
1790006675245354800,2.715354736328125,0.07176979870595969,9.731683314082026,-1.2081357265725732
1790006675255366700,2.72536669921875,0.07857685750545933,9.732164960119128,-1.2038177903082221
1790006675265378800,2.73537890625,0.07278717275469097,9.733681794422864,-1.1918590569671244
1790006675275390700,2.745390625,0.05662383189718238,9.736727737990021,-1.167620103245601
1790006675285402600,2.755402587890625,0.02894209676104365,9.742132811903954,-1.1226788454961032
1790006675295413500,2.76541357421875,-0.00895779168040317,9.74902023333013,-1.061565109167993
1790006675305425700,2.77542578125,-0.05414834059516433,9.755333069738745,-1.0004618211686611
1790006675315437600,2.7854375,-0.10413552465657704,9.75950421794355,-0.9547796088587492
1790006675325449700,2.79544970703125,-0.1563927953747101,9.761673963198065,-0.925016996344924
1790006675335461600,2.805461669921875,-0.20817641156595199,9.762253224390745,-0.9085347211647778
1790006675345473500,2.8154736328125,-0.2597724510295316,9.76211469270289,-0.8966562134530395
1790006675355485700,2.825485595703125,-0.3109047454388812,9.762464821314811,-0.8763580332465469
1790006675365497600,2.83549755859375,-0.35959366528410464,9.7636782887578,-0.8435926587201654
1790006675375509500,2.845509521484375,-0.4059437669182196,9.765538237410784,-0.7999217131674289
1790006675385520600,2.855520751953125,-0.450259988104552,9.767321613696216,-0.7530454687673598
1790006675395532500,2.865532470703125,-0.4922045847887173,9.768277891507744,-0.7133263295803218
1790006675405544400,2.87554443359375,-0.5296758719837292,9.768631527251005,-0.6809221895817666
1790006675415556600,2.885556640625,-0.5617822711447253,9.768701669877768,-0.653659942516312
1790006675425568500,2.895568603515625,-0.5889862486843019,9.768307117602228,-0.6353604618463665
1790006675435580400,2.905580322265625,-0.6130173318088055,9.767451962077617,-0.6256712808724493
1790006675445592600,2.915592529296875,-0.636240240355581,9.766170690095423,-0.6225060948397964
1790006675455604500,2.9256044921875,-0.6639727352812886,9.764271578475832,-0.6233247177463025
1790006675465615600,2.93561572265625,-0.701209190807119,9.761949273008108,-0.6189029557812958
1790006675475627800,2.945627685546875,-0.7483986658748238,9.758562553179264,-0.6170470257163048
1790006675485639700,2.9556396484375,-0.80703717119582,9.754144152215122,-0.6130167472869158
1790006675495651800,2.96565185546875,-0.8626145353805273,9.749735688123106,-0.6074069445811212
1790006675505663700,2.975663818359375,-0.8941428423926234,9.746922968789935,-0.6069274174358695
1790006675515675600,2.985675537109375,-0.8990211890187114,9.745935711318253,-0.61552880317308
1790006675525687800,2.995687744140625,-0.8877182892378419,9.745922851836681,-0.6318957814104855
1790006675535699700,3.00569970703125,-0.8693023425813764,9.74637234916985,-0.6503343052249402
1790006675545711600,3.015711669921875,-0.8465776658803225,9.747121121710538,-0.6688114074841142
1790006675555722800,3.02572265625,-0.8179702147509902,9.748363815248013,-0.6860876825861633
1790006675565734700,3.035734619140625,-0.7805518267869949,9.75040262759924,-0.700553138051182
1790006675575746600,3.04574658203125,-0.7347510295987129,9.753042328453063,-0.7132222846839577
1790006675585758700,3.0557587890625,-0.6853465088300407,9.755670338869095,-0.7263718352448195
1790006675595770600,3.0657705078125,-0.6401150359623133,9.75743150332272,-0.7437562468964606
1790006675605782500,3.075782470703125,-0.6056436977682634,9.757647191900015,-0.7693588901866227
1790006675615794700,3.085794677734375,-0.5820986080624163,9.756354229480028,-0.8031858295299112
1790006675625806600,3.095806640625,-0.563537517314218,9.754175131875275,-0.8419501522101461
1790006675635817500,3.1058173828125,-0.5399321122558787,9.751770408821105,-0.8842077968988568
1790006675645829600,3.11582958984375,-0.5037080121103674,9.749650347927211,-0.9278966434344649
1790006675655841500,3.125841552734375,-0.4545199105713516,9.748094350656867,-0.9687271048642694
1790006675665853400,3.135853515625,-0.39762145385071634,9.747154439458251,-1.0026318586841225
1790006675675865600,3.145865478515625,-0.34357213948350396,9.746377609866856,-1.0297916682884096
1790006675685877500,3.15587744140625,-0.30240482904845845,9.74540087378919,-1.0517100701078772
1790006675695889700,3.1658896484375,-0.27743334153499455,9.744345811778306,-1.0682422488443553
1790006675705901600,3.175901611328125,-0.2693487827461213,9.743400639882683,-1.0788813509542494
1790006675715913500,3.18591357421875,-0.27884019439192487,9.742785722854732,-1.0820010904099793
1790006675725924600,3.195924560546875,-0.30548233679765835,9.742551329576969,-1.0769222527757287
1790006675735936800,3.205936767578125,-0.34834413965828714,9.742684600567816,-1.0626147643513977
1790006675745948700,3.21594873046875,-0.4002797863397747,9.743399470838904,-1.0374740394845605
1790006675755960600,3.225960693359375,-0.4479125847281888,9.745224932700395,-1.0001832964882253
1790006675765972700,3.23597265625,-0.4791826061302796,9.748768304395675,-0.9498684559416025
1790006675775984600,3.245984619140625,-0.4938889576790854,9.753639709824323,-0.8904795706447214
1790006675785996800,3.255996826171875,-0.5037234288752078,9.758469029676913,-0.8300239328991621
1790006675796008700,3.2660087890625,-0.5212250006331131,9.761932321873307,-0.7767903553616256
1790006675806020900,3.276020751953125,-0.5531423800280317,9.763348033890127,-0.7358353907693177
1790006675816032000,3.286031982421875,-0.5967557136420161,9.763056941989063,-0.7049827910616994
1790006675826044000,3.2960439453125,-0.6423967171587049,9.762023507288097,-0.6786898274198174
1790006675836055800,3.306055908203125,-0.6779005036730319,9.761113991227745,-0.6568907411310821
1790006675846068000,3.31606787109375,-0.6976022523563354,9.760606626227498,-0.6436608918756246
1790006675856080000,3.326079833984375,-0.7029295117937028,9.760587921527028,-0.638111367989704
1790006675866092000,3.336092041015625,-0.7025300641473382,9.760649296325445,-0.637637612998113
1790006675876104000,3.34610400390625,-0.7063679618097841,9.760177002638578,-0.6406050845015794
1790006675886115800,3.35611572265625,-0.7132424506891518,9.757126382896304,-0.678341744634509
1790006675896126700,3.366126708984375,-0.6966033775120973,9.74836790690124,-0.8089585677124559
1790006675906139000,3.376138916015625,-0.6719267630256712,9.738194887933135,-0.9415225793354213
1790006675916150800,3.38615087890625,-0.6376384897809475,9.727881583711504,-1.0640076800145208
1790006675926163000,3.396162841796875,-0.5989530044905841,9.718961779674887,-1.163370409911871
1790006675936174800,3.4061748046875,-0.5632315566375852,9.712924253076315,-1.229746085356176
1790006675946186800,3.416186767578125,-0.5351036326535046,9.710571552470325,-1.2605059652790427
1790006675956199000,3.426198974609375,-0.5145505643704906,9.712060914245248,-1.257581017743051
1790006675966210800,3.4362109375,-0.5004649385359138,9.71653075313568,-1.2283845877446233
1790006675976221700,3.4462216796875,-0.49003173426166174,9.722776954048872,-1.1823080423548817
1790006675986233900,3.45623388671875,-0.48598329912107435,9.729417707237602,-1.1281179678101092
1790006675996245800,3.466245849609375,-0.49363169498238707,9.735281630834937,-1.0728483544003218
1790006676006257700,3.476257568359375,-0.5062546643858775,9.7410362488389,-1.01305936386995
1790006676016269800,3.486269775390625,-0.5300979333207011,9.745195122084022,-0.95945234991014
1790006676026281700,3.49628173828125,-0.5657542800482362,9.747706812644005,-0.9124124393809586
1790006676036293600,3.506293701171875,-0.6088778208512813,9.748660167846083,-0.873655861615762
1790006676046305800,3.516305908203125,-0.6557173134375364,9.748577750259637,-0.840029047954455
1790006676056317700,3.526317626953125,-0.7058281558446585,9.74775006726384,-0.8084556596916168
1790006676066328800,3.536328857421875,-0.7537647229526192,9.747159700155258,-0.7714348927430809
1790006676076341000,3.546341064453125,-0.8017983206942677,9.746716632562876,-0.727330962600559
1790006676086353000,3.556352783203125,-0.8546773126404732,9.74489935400784,-0.6905398396894336
1790006676096365000,3.566364990234375,-0.8939164862908422,9.743121238419413,-0.6654946110863238
1790006676106377000,3.576376953125,-0.8975625146429985,9.744284436979889,-0.6431819492522627
1790006676116388900,3.586388916015625,-0.8574697929032147,9.74963456583619,-0.6162463768579065
1790006676126401000,3.596401123046875,-0.7827260290209204,9.757489370989799,-0.5908894154245034
1790006676136413000,3.606412841796875,-0.7017286846365779,9.764254627341032,-0.580789863551408
1790006676146424800,3.6164248046875,-0.618474282040447,9.769731597447395,-0.583280657453835
1790006676156436000,3.62643603515625,-0.529637330071628,9.77421488034129,-0.5954677561907097
1790006676166447900,3.63644775390625,-0.43548079051524397,9.777999659577011,-0.6094588356096298
1790006676176459800,3.646459716796875,-0.34732334524318575,9.780816470563412,-0.6207698456317186
1790006676186472000,3.656471923828125,-0.2906705521130003,9.782015324959158,-0.6309319048143923
1790006676196483800,3.66648388671875,-0.283345305525139,9.781927646675705,-0.6356012848649174
1790006676206495700,3.676495849609375,-0.3152861753934994,9.78156232049465,-0.6261115719858557
1790006676216508000,3.6865078125,-0.36332908895276483,9.781364752095937,-0.6027149143073708
1790006676226519800,3.696519775390625,-0.4079499921740964,9.78180781968832,-0.5658739974377677
1790006676236532000,3.706531982421875,-0.4401412200743332,9.783202488917112,-0.5153850424332543
1790006676246542800,3.71654296875,-0.4705375639144331,9.78484791803658,-0.4535632309010252
1790006676256554800,3.7265546875,-0.5234172134477645,9.785157130116223,-0.3835421116264537
1790006676266566700,3.736566650390625,-0.6071945804720744,9.782910227972268,-0.3104155371498316
1790006676276578800,3.746578857421875,-0.7138249267522245,9.77768577132225,-0.24016360479407012
1790006676286590700,3.7565908203125,-0.8277980004779995,9.769963068115711,-0.1815182130745612
1790006676296603000,3.766602783203125,-0.9316506622057408,9.76127122761607,-0.14144140128996222
1790006676306614800,3.77661474609375,-1.0142063419479876,9.753339850094914,-0.11876883836863562
1790006676316626700,3.786626708984375,-1.0758304389510303,9.746887897476553,-0.10563948121243155
1790006676326637800,3.796637939453125,-1.1214872245587408,9.741849903309344,-0.09480346829094924
1790006676336650000,3.80664990234375,-1.156400570899248,9.737873400893807,-0.0833565477963537
1790006676346662000,3.816661865234375,-1.1812726348925382,9.734968327102065,-0.07348300039859022
1790006676356674000,3.826674072265625,-1.1908858280207961,9.733820910632609,-0.07005914973001927
1790006676366686000,3.83668603515625,-1.1178010103266685,9.74258464732468,-0.05419187377621419
1790006676376697900,3.84669775390625,-0.9800535316511988,9.757499892383814,-0.032472474260721355
1790006676386710000,3.8567099609375,-0.8353275191999971,9.771001178991794,-0.012389319336175686
1790006676396722000,3.866721923828125,-0.6828330647043883,9.78281553542614,0.025152086511068046
1790006676406733800,3.87673388671875,-0.5494789621496573,9.790826992446183,0.09028107722937129
1790006676416745000,3.886744873046875,-0.44280886838100847,9.794867207747696,0.1867758413418196
1790006676426756900,3.8967568359375,-0.381819416019693,9.794505973219872,0.3037742907707579
1790006676436768800,3.906768798828125,-0.381203549143672,9.789698865199089,0.432303439120762
1790006676446781000,3.916781005859375,-0.43861079563666133,9.780712425667048,0.5618241375250741
1790006676456792800,3.926792724609375,-0.5592689366169273,9.768093767112493,0.6647820789027958
1790006676466804700,3.9368046875,-0.6524095040637999,9.758428697666526,0.7195991993047297
1790006676476817000,3.94681689453125,-0.700831443535909,9.753536833971738,0.7400756586875766
1790006676486828800,3.956828857421875,-0.7143957854427396,9.752352592623232,0.7427405670478939
1790006676496839700,3.966839599609375,-0.682138433503732,9.755553434491157,0.7309444769226014
1790006676506851800,3.976851806640625,-0.6100097840232774,9.761574009954929,0.7140948297347873
1790006676516863700,3.98686376953125,-0.5152126450084149,9.76838018283844,0.6954772230263799
1790006676526876000,3.9968759765625,-0.4191272197486832,9.774375039339064,0.6754886932909488
1790006676536887800,4.0068876953125,-0.36008250824697313,9.778131761524081,0.6548593814339488
1790006676546899700,4.016899658203125,-0.353948499003984,9.779613524514437,0.6358033102430403
1790006676556911900,4.026911865234375,-0.36614071230739353,9.779989372089505,0.6229849643979222
1790006676566923800,4.036923828125,-0.36035759886130686,9.780637606865167,0.6161666626852005
1790006676576935700,4.046935791015625,-0.3223332808934152,9.782487034124136,0.6078080361953004
1790006676586947000,4.056947021484375,-0.26180191103052347,9.785099846971034,0.5946985253838822
1790006676596959000,4.066958984375,-0.19302463607089593,9.787399940606951,0.5830450585996731
1790006676606971000,4.076970947265625,-0.12200077862772159,9.78839012068808,0.5855956563979386
1790006676616983000,4.086983154296875,-0.05454028078850824,9.787779879835247,0.6056335417004302
1790006676626995000,4.096994873046875,0.00814417887997697,9.786475226977467,0.6286586991854012
1790006676637006800,4.1070068359375,0.06795609476985409,9.785335409292578,0.6426144515626132
1790006676647019000,4.11701904296875,0.12694300253656693,9.784348736342787,0.648698447651416
1790006676657031000,4.127031005859375,0.1847455958895385,9.783443896457552,0.6484341706920415
1790006676667041800,4.137041748046875,0.24080369279589503,9.782801506900787,0.6396734296746551
1790006676677054000,4.147053955078125,0.29690546444719657,9.782298233553767,0.6235908213365823
1790006676687065900,4.15706591796875,0.3586260258283466,9.78154653840363,0.6026128787050024
1790006676697077800,4.167077880859375,0.426300472378917,9.780331901916862,0.5777138171069324
1790006676707090000,4.17708984375,0.4931674019388854,9.77861866825819,0.5529933634787798
1790006676717101800,4.187101806640625,0.5459992668077349,9.777003049755097,0.531494246517308
1790006676727114000,4.197114013671875,0.5782834336884319,9.776090026563406,0.5138736514896154
1790006676737126000,4.2071259765625,0.5984032616533339,9.776011700630187,0.49185025492571294
1790006676747137800,4.2171376953125,0.6234061124194413,9.775980136448144,0.4604226683417335
1790006676757148700,4.227148681640625,0.655705769130215,9.775598443654179,0.4220371889112517
1790006676767160800,4.237160888671875,0.6869716988790779,9.775087571522594,0.38228520690053697
1790006676777172700,4.2471728515625,0.7159239448580891,9.774380884557962,0.34543263612575825
1790006676787185000,4.257184814453125,0.7455917186953127,9.773287244102358,0.3120212187808007
1790006676797196800,4.26719677734375,0.7770478372540325,9.771926477143168,0.275726994274836
1790006676807209000,4.277208984375,0.809924124808982,9.770400290489196,0.23165899396222084
1790006676817220900,4.287220947265625,0.8513489719353615,9.768059864842892,0.17495850749909878
1790006676827232800,4.297232666015625,0.8972506722148508,9.765013921275735,0.09929621313293464
1790006676837244000,4.307243896484375,0.9423013086229562,9.761263044309615,0.01370874164646957
1790006676847256000,4.317256103515625,0.9902785730674862,9.756171858650445,-0.0826176938614808
1790006676857268000,4.32726806640625,1.0419407365698368,9.749216048163175,-0.19371524868356063
1790006676867280100,4.337280029296875,1.0938877083629368,9.740525376707314,-0.3097410354217514
1790006676877292000,4.3472919921875,1.1396322453193366,9.731411511403321,-0.4138452242251485
1790006676887304000,4.357303955078125,1.1762051223699004,9.723082658997178,-0.4986152555486187
1790006676897316000,4.367316162109375,1.2010782823417334,9.71642027849853,-0.5647735619151965
1790006676907328000,4.377327880859375,1.213140841383487,9.71147756139934,-0.6211851484343409
1790006676917340000,4.38733984375,1.2148046098772436,9.707793319928646,-0.6733297616913915
1790006676927351000,4.39735107421875,1.2146718503430485,9.703959440854192,-0.7267223291829228
1790006676937363000,4.407363037109375,1.2260296951815486,9.698083242297171,-0.7838532064199447
1790006676947374800,4.417374755859375,1.2464759786218405,9.69096025854945,-0.8378335837367922
1790006676957387000,4.427386962890625,1.2635200524032115,9.684445762088894,-0.8862350649427622
1790006676967399000,4.43739892578125,1.2728989983841776,9.678999187120795,-0.9311819487154483
1790006676977410800,4.447410888671875,1.2800146756082773,9.67417746605277,-0.9706905869569629
1790006676987423000,4.457423095703125,1.2878991452477873,9.67011445439756,-1.0002916522335261
1790006676997435000,4.467434814453125,1.2994655182704329,9.666543025651574,-1.0196724983993917
1790006677007447000,4.477447021484375,1.3181010990269482,9.662738372671603,-1.0317387107029556
1790006677017458000,4.4874580078125,1.3386015968725085,9.65895943865478,-1.0406908095739782
1790006677027469800,4.4974697265625,1.3602423507943748,9.655486209586263,-1.0448601311478762
1790006677037481700,4.507481689453125,1.383930831026286,9.652215225091576,-1.0439728999845683
1790006677047494000,4.517493896484375,1.4129869757711886,9.648083824375272,-1.043224931161478
1790006677057505800,4.527505859375,1.4393186639882622,9.644427055433392,-1.0410461988829076
1790006677067518000,4.53751806640625,1.4558166481941937,9.643343351849913,-1.0280560036022215
1790006677077529900,4.54752978515625,1.4692735111385582,9.643193129724263,-1.0101672226250171
1790006677087541800,4.557541748046875,1.481313639152795,9.64317910119891,-0.9925739174630492
1790006677097553000,4.567552978515625,1.4927413343571125,9.643514032241702,-0.9719727357219904
1790006677107564800,4.577564697265625,1.5034733023822306,9.64415116110146,-0.948831660239771
1790006677117577000,4.587576904296875,1.5149921830013393,9.644527593198418,-0.9264257671643048
1790006677127588900,4.5975888671875,1.5280696912392973,9.644534022939204,-0.9046138944592327
1790006677137601000,4.60760107421875,1.5410471001036463,9.644537530070544,-0.8823005750380456
1790006677147613000,4.617613037109375,1.5560319032676517,9.644231240600346,-0.8590366768937557
1790006677157624800,4.627624755859375,1.572881623520702,9.64333166141212,-0.8382049743324518
1790006677167637000,4.637636962890625,1.5886017552219331,9.642002458634972,-0.823727024712041
1790006677177649000,4.64764892578125,1.5983337524242698,9.641258946791291,-0.8135294558245688
1790006677187660000,4.657659912109375,1.606745753069222,9.640370473518967,-0.8074647489581257
1790006677197672000,4.667671875,1.6076828877888618,9.640322542724013,-0.8061666719716042
1790006677207683800,4.677683837890625,1.6081743245676159,9.640091072055696,-0.8079718216974288
1790006677217696000,4.687696044921875,1.6083363832615314,9.640091656577587,-0.8076401055250316
1790006677227708000,4.6977080078125,1.6086958642236888,9.639987611681223,-0.8081562383536249
1790006677237720000,4.707719970703125,1.6080870846755801,9.640089903011917,-0.8081533157441765
1790006677247732000,4.71773193359375,1.6074837119549512,9.640205053824186,-0.8079919146373867
1790006677257744000,4.727743896484375,1.6072824902944265,9.640236618006229,-0.8080049933146685
1790006677267754800,4.737754638671875,1.6079197652846573,9.640069444745778,-0.8087334537196904
1790006677277767000,4.747766845703125,1.6089068766258656,9.639822191986442,-0.8097111396454274
1790006677287778800,4.75777880859375,1.609516971348226,9.6396544342041,-0.8104850466273724
1790006677297791000,4.767791015625,1.609222080054879,9.639645666375756,-0.8111790202409028
1790006677307803000,4.777802978515625,1.6089811109058558,9.63954512861073,-0.8128511181715875
1790006677317814800,4.787814697265625,1.609692035654187,9.63911550502181,-0.8165314871847629
1790006677327827000,4.797826904296875,1.6103990148797631,9.638567808011175,-0.8215856287691742
1790006677337838800,4.8078388671875,1.6118857463061809,9.637937108892201,-0.8260465537007897
1790006677347850800,4.817850830078125,1.6133606411643326,9.637425067716837,-0.8291467847384512
1790006677357862000,4.82786181640625,1.6141986994236708,9.636982000124453,-0.8326664102319628
1790006677367873800,4.837873779296875,1.6144585194036363,9.636576341933011,-0.8368532674625515
1790006677377885700,4.8478857421875,1.614082671828568,9.636327335608005,-0.8404277649484574
1790006677387897900,4.85789794921875,1.6138856879517436,9.636044427013397,-0.8440455901194364
1790006677397909800,4.86790966796875,1.6145054272852837,9.63562824742794,-0.8475958299469202
1790006677407921700,4.877921630859375,1.6152781652234494,9.635250061765312,-0.8504344143737107
1790006677417933800,4.887933837890625,1.6165487696811556,9.634734513458609,-0.8538351627279073
1790006677427945700,4.89794580078125,1.6174099165551363,9.634335869529842,-0.8567164172526448
1790006677437956900,4.907956787109375,1.618629375347495,9.633851300883293,-0.8598435362972319
1790006677447969000,4.917968994140625,1.6196422056518494,9.633342766839265,-0.8636284616634249
1790006677457981000,4.92798095703125,1.6197566258117555,9.632951137173174,-0.8677778364278376
1790006677467992800,4.937992919921875,1.6199233606807886,9.63247533635497,-0.8727209919184445
1790006677478005000,4.9480048828125,1.6206000908985734,9.631890814465283,-0.8779050434928387
1790006677488017000,4.958016845703125,1.6214156450651585,9.631315644925833,-0.8827016301196068
1790006677498029000,4.968029052734375,1.6225351506143808,9.630659226843715,-0.8877896009083837
1790006677508041000,4.978041015625,1.6238028324626386,9.629946110138297,-0.8931865645810961
1790006677518052900,4.988052978515625,1.6248574560821056,9.629247021958232,-0.8987927870903164
1790006677528064000,4.99806396484375,1.6255650198295712,9.62855845517218,-0.9048761986572295
1790006677538076000,5.008075927734375,1.6265364952102304,9.627750061398745,-0.9116898972600698
1790006677548087800,5.018087890625,1.6279681354485451,9.626821256116033,-0.9189195562526583
1790006677558100000,5.028099853515625,1.629345707412064,9.62596785415709,-0.9253988352693617
1790006677568111900,5.03811181640625,1.6304805566608904,9.625149523511528,-0.931883301917836
1790006677578123800,5.048123779296875,1.631744000725448,9.62428852276802,-0.9385494818087666
1790006677588136000,5.058135986328125,1.6331006760314106,9.623361471050977,-0.9456705658603459
1790006677598147800,5.06814794921875,1.6344887693889438,9.62234791009426,-0.9535551085650921
1790006677608158700,5.07815869140625,1.6358742323979734,9.621329088440536,-0.9614190468732267
1790006677618171000,5.0881708984375,1.6373016348525882,9.620386839154362,-0.9684033528026192
1790006677628182800,5.098182861328125,1.6386752612933515,9.619423547080158,-0.9756110191591083
1790006677638194700,5.108194580078125,1.640074168305844,9.618407648035884,-0.9832459710169583
1790006677648206800,5.118206787109375,1.6416170138336716,9.61731400758028,-0.9913367038182914
1790006677658218800,5.12821875,1.6436492503136395,9.616093525874614,-0.9997744234263897
1790006677668231000,5.13823095703125,1.646910590197146,9.61923299294412,-0.9635520403139293
1790006677678242800,5.148242919921875,1.6438433115810156,9.626634209111332,-0.8922337208356708
1790006677688254000,5.15825390625,1.645022876754403,9.630514265415071,-0.8470468177620321
1790006677698265900,5.168265869140625,1.6506288800679145,9.62948959854245,-0.8477760818846524
1790006677708278000,5.178278076171875,1.6527664766184984,9.627566521525383,-0.8652700183253734
1790006677718290000,5.1882900390625,1.6509028747037051,9.626346624341606,-0.8822455569151788
1790006677728302000,5.198302001953125,1.6475566330157219,9.62494026467502,-0.903591273413226
1790006677738314000,5.20831396484375,1.6448514657102524,9.62294412242174,-0.9294111396506428
1790006677748326000,5.218325927734375,1.641905475386232,9.621702597928047,-0.9472972902793436
1790006677758338000,5.228338134765625,1.6372775233246386,9.622353755313158,-0.9486981700532138
1790006677768349000,5.238348876953125,1.6384546042799948,9.622547232058643,-0.9447006248496472
1790006677778360000,5.248360107421875,1.6454219590745864,9.620941550427675,-0.9489190462622791
1790006677788372000,5.2583720703125,1.6467203283220528,9.620351183319091,-0.9526562600292264
1790006677798383900,5.2683837890625,1.6469097134143114,9.620474517437815,-0.9510861611682921
1790006677808396000,5.27839599609375,1.6450594093725084,9.621774494120478,-0.9410702324580401
1790006677818408000,5.288407958984375,1.6430135827586054,9.624155836299062,-0.9200532364577054
1790006677828419800,5.298419921875,1.6414834505818783,9.626774494364858,-0.8950768353071064
1790006677838432000,5.308431884765625,1.6401400731489062,9.629331193110346,-0.8696551746070385
1790006677848444000,5.31844384765625,1.638573846745491,9.63133902580142,-0.8501620271731167
1790006677858455000,5.328455078125,1.637572999139875,9.631706105548142,-0.8479340489253401
1790006677868467200,5.33846728515625,1.637937594668567,9.6313004473567,-0.8518202427089214
1790006677878479000,5.34847900390625,1.6381592745952307,9.631791445744037,-0.8458125267267227
1790006677888491000,5.358490966796875,1.63717683942914,9.632927171775698,-0.8347158901076763
1790006677898503200,5.368503173828125,1.6358403301283717,9.63381798313558,-0.8270186866685748
1790006677908515000,5.37851513671875,1.6352283357098698,9.634144146350026,-0.8244335655461996
1790006677918527200,5.38852734375,1.6352357883639632,9.634277417340874,-0.8228552103135734
1790006677928539100,5.3985390625,1.6349831287771461,9.634727499195932,-0.8180758670825511
1790006677938550000,5.408550048828125,1.635117130420357,9.635320204392075,-0.810799227143079
1790006677948562200,5.418562255859375,1.6348203394308685,9.635773793378473,-0.805989488773793
1790006677958574000,5.428573974609375,1.6330416393205522,9.636377604490518,-0.8023639917530119
1790006677968586000,5.4385859375,1.6305651662044227,9.63702642378807,-0.7995974496491253
1790006677978598100,5.44859814453125,1.630237103293836,9.636143795734643,-0.8108263343457132
1790006677988610000,5.458610107421875,1.63362864542827,9.632630234655737,-0.8450289751335978
1790006677998622000,5.4686220703125,1.639934467574209,9.627547816824913,-0.8895698353886604
1790006678008634000,5.478634033203125,1.646891593235731,9.622495794132352,-0.9304389483284204
1790006678018645000,5.48864501953125,1.652974566411227,9.618084407430887,-0.9646316522441803
1790006678028657000,5.498656982421875,1.6587134023241699,9.613476036852598,-1.0000624465875327
1790006678038669000,5.5086689453125,1.664062800528109,9.608297172909975,-1.0401371942792088
1790006678048681000,5.518680908203125,1.668936982435733,9.602446108794211,-1.0853825495418161
1790006678058692900,5.52869287109375,1.6727793370775876,9.596559973365068,-1.130594148665294
1790006678068705000,5.538705078125,1.675970972725749,9.591141455447673,-1.1711275999099016
1790006678078717000,5.548717041015625,1.6785625966541469,9.5873256965518,-1.1983305910687894
1790006678088729000,5.55872900390625,1.6797573593966661,9.58588952626884,-1.208114245393127
1790006678098740200,5.568740234375,1.6799217561781405,9.586142624247074,-1.2058714349023998
1790006678108752100,5.578752197265625,1.679998182415217,9.58762204914987,-1.1939398087639361
1790006678118764000,5.588763916015625,1.6801554188035428,9.58982218954265,-1.1759103041417895
1790006678128776200,5.598776123046875,1.6800938978746531,9.59209831778109,-1.1572973736084997
1790006678138788000,5.6087880859375,1.6800003743723033,9.594442835080622,-1.1378286299634723
1790006678148800300,5.61880029296875,1.6799635494932532,9.59711760724783,-1.1150960622169077
1790006678158812200,5.628812255859375,1.6798095279753207,9.599833880469202,-1.0917087568886576
1790006678168824000,5.638823974609375,1.679398316825926,9.602160277590155,-1.071700207278505
1790006678178835000,5.6488349609375,1.6790530105195938,9.604093876001238,-1.0547674118518828
1790006678188847000,5.65884716796875,1.6788944589570163,9.606260698646306,-1.0351125710502267
1790006678198859000,5.66885888671875,1.6794545770578084,9.608744916677475,-1.0108692334145306
1790006678208871200,5.67887109375,1.6802014499023556,9.611745852059125,-0.9806390764541923
1790006678218883000,5.688883056640625,1.6804238604813813,9.615437107792497,-0.9433650653969496
1790006678228895000,5.69889501953125,1.6801896133340894,9.619235915553569,-0.9042347589485347
1790006678238907100,5.7089072265625,1.6802046647727489,9.622356677922605,-0.870381077728793
1790006678248919000,5.7189189453125,1.6814336220458148,9.624650926339626,-0.8421637949608266
1790006678258931000,5.728930908203125,1.6827071491129695,9.62641735149026,-0.8191280064839869
1790006678268942000,5.738942138671875,1.6841624624878166,9.627579965528845,-0.8022955296266824
1790006678278954000,5.7489541015625,1.686140484562516,9.628144029152393,-0.791308052470535
1790006678288966000,5.7589658203125,1.6882473937138913,9.628528644555807,-0.7820856122255325
1790006678298978000,5.76897802734375,1.690664537858218,9.628547933778167,-0.7765921293757856
1790006678308990000,5.778989990234375,1.6933248431086538,9.627994391548633,-0.7776474105823784
1790006678319001900,5.789001953125,1.6962588507339358,9.626854573863744,-0.7853291972566395
1790006678329014000,5.799013916015625,1.699133383256942,9.625032034611701,-0.8013081990897655
1790006678339026000,5.80902587890625,1.702356875348091,9.62259165572226,-0.8234623093612492
1790006678349037000,5.819037109375,1.706125141840428,9.619714054459333,-0.8488955874338746
1790006678359049000,5.829049072265625,1.7107735521681606,9.61624900869727,-0.8782876861348747
1790006678369061000,5.83906103515625,1.7153993122726678,9.61276116658151,-0.9069726594798266
1790006678379073000,5.849072998046875,1.719359594205767,9.609639819690585,-0.9322036929786205
1790006678389085000,5.8590849609375,1.7224549298726022,9.607034021106362,-0.9531170824740082
1790006678399097000,5.86909716796875,1.7252498212881384,9.60500456110537,-0.9683870592549443
1790006678409109000,5.87910888671875,1.7275369093120096,9.603764205655455,-0.9765693427972495
1790006678419121200,5.88912109375,1.7293707006104289,9.602967502319812,-0.9811689455471932
1790006678429132000,5.899132080078125,1.7306708234235644,9.602420389831066,-0.9842189807675779
1790006678439144200,5.909144287109375,1.7317634409658609,9.602091888529062,-0.9855063902296125
1790006678449156000,5.919156005859375,1.7322336888261138,9.602259061789512,-0.9830377350937575
1790006678459168000,5.92916796875,1.7322469866991042,9.602686931812762,-0.9788356802940368
1790006678469180200,5.93918017578125,1.732725563996285,9.602903789433837,-0.9758481158506125
1790006678479192000,5.949192138671875,1.7335097001112996,9.603331074935197,-0.9702425509285181
1790006678489204000,5.959203857421875,1.7343993424274027,9.603705168944597,-0.9649342153873294
1790006678499216100,5.969216064453125,1.7360750205546616,9.60355085516572,-0.9634464610476047
1790006678509227000,5.97922705078125,1.7385117461822925,9.603596447873114,-0.9585877689700573
1790006678519239000,5.989239013671875,1.740919537976384,9.604083939129113,-0.9492840801823884
1790006678529251000,5.9992509765625,1.742159893426299,9.605029111024736,-0.9373691129177808
1790006678539263000,6.009262939453125,1.7426320409826934,9.606361236411333,-0.9227323194738477
1790006678549275000,6.01927490234375,1.7427846011959016,9.60757704194188,-0.9097004039432853
1790006678559287000,6.029287109375,1.7435609923958777,9.607917233681679,-0.9046067340660839
1790006678569299000,6.039298828125,1.7451032534018158,9.607606268036365,-0.9049236910607665
1790006678579311000,6.04931103515625,1.7469029963001608,9.607233927592635,-0.9054046064455061
1790006678589323000,6.059322998046875,1.74793964587152,9.607071430507302,-0.9051355802457779
1790006678599334000,6.069333984375,1.7483362439736723,9.607062078157067,-0.904471928705275
1790006678609345800,6.079345703125,1.7489564216986297,9.607059155547619,-0.9033050768829881
1790006678619358000,6.08935791015625,1.7496012954734266,9.606985505789519,-0.9028338061094283
1790006678629369900,6.099369873046875,1.7514366942070423,9.605865561848878,-0.9111557903833687
1790006678639382000,6.109382080078125,1.7552333100110291,9.603924949175118,-0.9242084564410149
1790006678649394000,6.119393798828125,1.7598089473634957,9.602269583183526,-0.9326683148156851
1790006678659405800,6.12940576171875,1.7638934401981532,9.601008769467473,-0.9379242625825106
1790006678669418000,6.13941796875,1.7672978418141603,9.599975334766507,-0.9420678651932627
1790006678679429000,6.14942919921875,1.7704149509213865,9.598973464247583,-0.9464279600989073
1790006678689441000,6.15944091796875,1.7734572412267327,9.597727263578772,-0.953347822489962
1790006678699453200,6.169453125,1.7768392848804593,9.596250176763535,-0.9618824266012758
1790006678709465000,6.179465087890625,1.7799245375446975,9.595227847978473,-0.9663661478865891
1790006678719477000,6.18947705078125,1.7816782493442296,9.594981764262915,-0.965575216704607
1790006678729489200,6.1994892578125,1.7830333172149955,9.5949145442456,-0.9637324383821337
1790006678739501000,6.2095009765625,1.7844119120918214,9.594875965800881,-0.961574748891592
1790006678749513000,6.219512939453125,1.7883736553296445,9.593931378427147,-0.9636363575965166
1790006678759524000,6.229524169921875,1.7955445698723196,9.592366613328457,-0.9658783643696457
1790006678769536800,6.239536865234375,1.8028851418934762,9.590881343206762,-0.9669527886681258
1790006678779548700,6.249548583984375,1.8093647131711244,9.589736849346757,-0.9661894761454314
1790006678789560800,6.259560791015625,1.814721564029157,9.589106150227785,-0.9624025780178606
1790006678799572700,6.26957275390625,1.8191991478346288,9.588850129640102,-0.9564825403191148
1790006678809584600,6.279584716796875,1.8225450972616672,9.589259294962883,-0.9459470447141677
1790006678819596800,6.2895966796875,1.8249455825321375,9.590198621639608,-0.9316909942161291
1790006678829608700,6.299608642578125,1.8272804552204907,9.591042086726427,-0.9183339383844286
1790006678839619600,6.30961962890625,1.8296090442985296,9.591692659589647,-0.9068273327250033
1790006678849631700,6.3196318359375,1.8321001304619013,9.59219242580533,-0.8964580605324357
1790006678859643600,6.3296435546875,1.835069063270092,9.592574703121185,-0.8862349188122898
1790006678869655800,6.33965576171875,1.8378167545430362,9.593047581329941,-0.8753511942915618
1790006678879667700,6.349667724609375,1.8404237221710382,9.59371919698119,-0.8624239812444895
1790006678889679600,6.3596796875,1.8430647381991148,9.59437386149764,-0.8493984223894775
1790006678899691800,6.36969189453125,1.845502632870525,9.594954876255988,-0.8374649696201085
1790006678909703700,6.37970361328125,1.8468727521799504,9.595766192638873,-0.8250570312067865
1790006678919714800,6.38971484375,1.84836079878062,9.596523148486018,-0.8128261298608035
1790006678929726700,6.399726806640625,1.8499829931549727,9.596891981798409,-0.8047239258173853
1790006678939738600,6.409738525390625,1.850378568343818,9.5969492649436,-0.8031336609512567
1790006678949750800,6.419750732421875,1.8500217177301643,9.596980244603753,-0.8036115806613117
1790006678959762700,6.4297626953125,1.849644847241789,9.596996026694773,-0.8042745746146887
1790006678969774800,6.43977490234375,1.8497339868299663,9.596932313808798,-0.8048348388459533
1790006678979786800,6.449786865234375,1.8500977055758236,9.59679670473039,-0.8056142257206141
1790006678989799000,6.459798828125,1.8504881661981343,9.596709026446938,-0.8057740193922072
1790006678999809800,6.469809814453125,1.8510943153977393,9.596637714776396,-0.8052282220777124
1790006679009821700,6.47982177734375,1.8520381721191108,9.596455928468703,-0.8052314369481056
1790006679019833900,6.489833740234375,1.8539893061868846,9.595835750743746,-0.8081227014102041
1790006679029845800,6.499845703125,1.8591130789414048,9.594234745287894,-0.815316777632758
1790006679039857700,6.509857666015625,1.862840867292881,9.593196634411811,-0.819015047628805
1790006679049869800,6.519869873046875,1.8640454207770525,9.592943536433577,-0.8192321975108235
1790006679059881700,6.5298818359375,1.8644221451349556,9.59280792735517,-0.8199800932686775
1790006679069894000,6.539893798828125,1.8653300537601112,9.59256651981473,-0.8207390218771994
1790006679079904800,6.54990478515625,1.8672803110450504,9.59207902855873,-0.8219926021348685
1790006679089916700,6.559916748046875,1.8722161600120364,9.590694296202063,-0.8269042665086687
1790006679099928600,6.569928466796875,1.876735683263093,9.589759061178565,-0.8275107810344546
1790006679109940700,6.579940673828125,1.8787540373481808,9.5896380651474,-0.8243238946266472
1790006679119952600,6.58995263671875,1.8795970640435813,9.589604162877798,-0.8227932509932666
1790006679129964800,6.59996484375,1.8804858295768498,9.589597148615121,-0.8208480352096259
1790006679139976700,6.609976806640625,1.8814540900871157,9.589440496748685,-0.8204580860439687
1790006679149988600,6.619988525390625,1.8824217660754918,9.589194997555017,-0.8211052979063242
1790006679160000800,6.630000732421875,1.8858343509979545,9.58838718830347,-0.8227072532102465
1790006679170011600,6.64001171875,1.8910475556015967,9.58728770262897,-0.8235566365811974
1790006679180023600,6.6500234375,1.895221041893959,9.586837620773911,-0.8192004871983081
1790006679190035700,6.66003564453125,1.8976498764760792,9.58672948422432,-0.8148160615690052
1790006679200047600,6.670047607421875,1.8991013904586433,9.586825930336117,-0.8102946386218071
1790006679210059500,6.6800595703125,1.9013824871331453,9.586762217450142,-0.805686633369699
1790006679220071700,6.69007177734375,1.9054433068312704,9.586251929840445,-0.802134274650365
1790006679230083600,6.70008349609375,1.9079424301706254,9.585919921407102,-0.8001738612975925
1790006679240094700,6.7100947265625,1.9096182544283569,9.585713585180043,-0.7986506703183055
1790006679250107000,6.72010693359375,1.910099023682624,9.585873159655929,-0.7955861681811511
1790006679260118800,6.730118896484375,1.9092542434215545,9.586217443048954,-0.7934555128280073
1790006679270130700,6.740130615234375,1.907845691797882,9.586575754967331,-0.7925075644534081
1790006679280142800,6.750142822265625,1.9072092935904859,9.58672597709298,-0.7922234137497842
1790006679290154800,6.76015478515625,1.9077027761958538,9.586682137951254,-0.791572840886563
1790006679300167000,6.7701669921875,1.9083482344925402,9.586662264207005,-0.7902544517643749
1790006679310178800,6.7801787109375,1.9089260343804955,9.586679799863695,-0.7886406598921865
1790006679320190700,6.790190673828125,1.9095286764487622,9.586720716395973,-0.7866901834115385
1790006679330201600,6.80020166015625,1.9096468960009514,9.586907178878784,-0.7841148530308156
1790006679340213800,6.8102138671875,1.9091636425286531,9.587222236177325,-0.7814295594695955
1790006679350225700,6.8202255859375,1.9088060612626372,9.587472411546111,-0.7792449819721281
1790006679360237800,6.83023779296875,1.9082564645558595,9.587700959604978,-0.7777778320290147
1790006679370249700,6.840249755859375,1.9078977142460642,9.587851181730628,-0.7768176086947322
1790006679380261600,6.85026171875,1.9078141276158391,9.587965163499117,-0.7756006341204047
1790006679390273800,6.860273681640625,1.9077936693497002,9.588112463015317,-0.7738195228572935
1790006679400285700,6.87028564453125,1.9073394958414136,9.588394202566146,-0.7714451949413865
1790006679410296600,6.880296630859375,1.9064757186189292,9.588765373966098,-0.7689723020218312
1790006679420308700,6.890308837890625,1.9054164188243448,9.589160510763525,-0.766675130995363
1790006679430320600,6.900320556640625,1.9047614620469508,9.589448095533252,-0.7646955014854669
1790006679440332500,6.91033251953125,1.9043691017284987,9.589683073332905,-0.7627031586244701
1790006679450344700,6.9203447265625,1.9039985148504375,9.589938509398698,-0.7604248384289443
1790006679460356600,6.930356689453125,1.9035703525662422,9.59023661556244,-0.7577489702831953
1790006679470368500,6.940368408203125,1.9028024369336665,9.590714754468202,-0.7536041255634277
1790006679480380700,6.950380615234375,1.9003744791343806,9.592419804820418,-0.7378696000106633
1790006679490391800,6.960391845703125,1.8979631802089512,9.594735096025467,-0.7135733631439507
1790006679500403700,6.97040380859375,1.895469171436131,9.596915947195887,-0.6905122210301459
1790006679510416000,6.980415771484375,1.8931930431976913,9.599174539777636,-0.6648558747913688
1790006679520427800,6.990427734375,1.8916797160252927,9.60116132968068,-0.6400361985724419
1790006679530440000,7.00043994140625,1.8911236895777284,9.602827217066288,-0.6162479842931032
1790006679540451800,7.010451904296875,1.890546181950718,9.603798692446947,-0.602726093288511
1790006679550463700,7.020463623046875,1.8896179611898958,9.60403308572471,-0.6019090778172016
1790006679560476000,7.030475830078125,1.888297964632511,9.60429787414074,-0.6018212899358942
1790006679570486800,7.04048681640625,1.887078067448735,9.604517069849372,-0.6021599107731134
1790006679580498700,7.050498779296875,1.8860947554998098,9.604691841894388,-0.6024215208513661
1790006679590510800,7.0605107421875,1.885552026925236,9.604840894976258,-0.6017674408568069
1790006679600522800,7.070522705078125,1.8853654183119535,9.604959552919864,-0.6004587694110348
1790006679610534700,7.08053466796875,1.8853581117883325,9.604952538657187,-0.6005796193117275
1790006679620546800,7.090546875,1.885134386035055,9.604920389953255,-0.6017935982113704
1790006679630558700,7.100558837890625,1.8845701762810347,9.604983518317342,-0.6025517961675301
1790006679640570600,7.110570556640625,1.8846615078262983,9.605002223017811,-0.6019554377095774
1790006679650582800,7.120582763671875,1.8844724149949847,9.605137832096219,-0.6003781419228762
1790006679660593700,7.13059375,1.8840699716739355,9.605272856652736,-0.5994899609114974
1790006679670605600,7.14060546875,1.8835453632779418,9.605371056330203,-0.5995900237524882
1790006679680617700,7.15061767578125,1.882825232309848,9.605514264193177,-0.59953869542405
1790006679690629600,7.160629638671875,1.8824572757802902,9.605720015898346,-0.5973845861300826
1790006679700641500,7.1706416015625,1.8825430543676018,9.605883682027459,-0.5944829829370603
1790006679710653700,7.18065380859375,1.8821894186243413,9.606092356342076,-0.5922418529467657
1790006679720665600,7.19066552734375,1.881098262386769,9.606450083738565,-0.5898996737347916
1790006679730677800,7.200677734375,1.8801929841101168,9.606839959838986,-0.5864189554795622
1790006679740689000,7.21068896484375,1.8796392957501111,9.607230420461297,-0.5817682435968891
1790006679750700800,7.22070068359375,1.8790918910004197,9.607623219171165,-0.5770220719831064
1790006679760712700,7.230712646484375,1.8788737182050943,9.607963995432852,-0.5720686508268118
1790006679770724600,7.240724609375,1.8783469178520142,9.608407063025236,-0.5663069454949349
1790006679780736500,7.250736572265625,1.8772694978788493,9.60907049537003,-0.5585672911535948
1790006679790748700,7.260748779296875,1.875834204378724,9.609859599921107,-0.5497293932467698
1790006679800760600,7.270760498046875,1.8746179604567585,9.610546997663379,-0.5418418548673392
1790006679810772500,7.2807724609375,1.8735560303136705,9.611146717122196,-0.5348250714404508
1790006679820783600,7.29078369140625,1.8726294169880449,9.611747605624794,-0.5272266522007063
1790006679830795500,7.30079541015625,1.8712423465438186,9.612487025815248,-0.518577847125195
1790006679840807400,7.310807373046875,1.86922092371881,9.613366731259227,-0.509484184359014
1790006679850819600,7.320819580078125,1.8674954151004552,9.614175709554553,-0.5004627465788275
1790006679860831500,7.33083154296875,1.8658897334694862,9.614974166455864,-0.4910433589896187
1790006679870843400,7.340843505859375,1.8640759620457887,9.615839258852601,-0.48088345523141324
1790006679880855600,7.35085546875,1.8621762659043073,9.616700259596108,-0.47093284684233366
1790006679890867500,7.360867431640625,1.8603779843106865,9.617471243968605,-0.46218094671852883
1790006679900878300,7.37087841796875,1.8581959640964865,9.618274377045035,-0.454166895882599
1790006679910890500,7.380890380859375,1.8553429127529262,9.619207273980974,-0.44599239378795025
1790006679920902400,7.39090234375,1.8523041295789182,9.620216158762574,-0.43679625702798364
1790006679930914600,7.40091455078125,1.8498486992508172,9.621107554644345,-0.42746261149346826
1790006679940926500,7.410926513671875,1.8476336535498499,9.621923547202348,-0.4186104293329641
1790006679950938400,7.4209384765625,1.845324792085588,9.622695700618625,-0.41096831708196546
1790006679960950500,7.430950439453125,1.8426456360042094,9.623479544472694,-0.40457463398948307
1790006679970962400,7.44096240234375,1.8396876629814505,9.624283262071012,-0.3988955289071426
1790006679980974300,7.450974365234375,1.8365445426501332,9.625130818811058,-0.3928812005210668
1790006679990985700,7.46098583984375,1.8338278310373424,9.625918754318356,-0.38620870048720385
1790006680000997600,7.47099755859375,1.8319979852616786,9.626538347521423,-0.3793857591319829
1790006680011009500,7.481009521484375,1.8301804144456981,9.62712286941111,-0.37327100257873536
1790006680021021700,7.491021728515625,1.827758886387199,9.627772273230551,-0.3683511548984796
1790006680031033600,7.50103369140625,1.824612697315961,9.628520461249352,-0.36436402149107305
1790006680041045500,7.51104541015625,1.8213069337688386,9.629276832574606,-0.3609188860058784
1790006680051057700,7.5210576171875,1.8202932266816496,9.6296965192914,-0.35477450149934736
1790006680061069600,7.531069580078125,1.8207471079289912,9.629951370835304,-0.34542985964678224
1790006680071080400,7.54108056640625,1.8204956173859537,9.630334232673048,-0.3359046370629221
1790006680081092600,7.551092529296875,1.8190061094805596,9.63089303559959,-0.3278773614192381
1790006680091104500,7.5611044921875,1.8176035492062568,9.631393970859051,-0.320861673970893
1790006680101116400,7.571116455078125,1.8170497147157787,9.631811904010176,-0.3113267702432349
1790006680111128600,7.581128662109375,1.8169190740734338,9.632218146723508,-0.29926547157680616
1790006680121140500,7.591140380859375,1.8170631587192416,9.632498132708669,-0.2892080600786954
1790006680131152600,7.601152587890625,1.817014058880508,9.632683426147699,-0.28327567435503004
1790006680141164500,7.61116455078125,1.8166029938615857,9.632909051597117,-0.2781973847100511
1790006680151176400,7.621176513671875,1.8154747204840183,9.633343351361155,-0.27043873340729624
1790006680161187300,7.631187255859375,1.8133716107249258,9.634017889621854,-0.26033861527862023
1790006680171199500,7.641199462890625,1.8115078626796601,9.634608256730436,-0.2512877504745498
1790006680181211400,7.65121142578125,1.8106563604168593,9.634932081857324,-0.2449147813765332
1790006680191223600,7.6612236328125,1.8095232647337018,9.635305006822943,-0.23852255958877502
1790006680201235500,7.6712353515625,1.8071619424298404,9.6359649320364,-0.2296291138361208
1790006680211247400,7.681247314453125,1.8046729020930825,9.636658759519458,-0.21988520700028164
1790006680221259500,7.691259521484375,1.8023712010219692,9.637277183678746,-0.21149083334356544
1790006680231271400,7.701271484375,1.799579524476826,9.637985624209046,-0.20282054708860814
1790006680241282600,7.711282470703125,1.7963517946019767,9.638813891726732,-0.19175717341834678
1790006680251294700,7.721294677734375,1.793141308122873,9.639649758028984,-0.17931005377210676
1790006680261306600,7.731306640625,1.7898627248436212,9.640471011283994,-0.1676411154241301
1790006680271318500,7.741318603515625,1.7867982227064667,9.641223875477909,-0.15669086500583215
1790006680281330700,7.75133056640625,1.783774783232063,9.641973232540488,-0.14457931572319938
1790006680291342600,7.761342529296875,1.780002425086498,9.642868720075487,-0.1305554117469117
1790006680301354500,7.7713544921875,1.77590521890074,9.64381739910245,-0.11546207017451524
1790006680311366700,7.78136669921875,1.7723855203419923,9.644640405923127,-0.09964052392542362
1790006680321378600,7.791378662109375,1.768670883733034,9.645482117444276,-0.08280267677325755
1790006680331389400,7.801389404296875,1.7638516468830405,9.64650152361989,-0.06504751841335091
1790006680341401600,7.811401611328125,1.7588455091588198,9.647520345273614,-0.046892254819953814
1790006680351413500,7.82141357421875,1.7543764009207485,9.6484053114146,-0.028887704259261952
1790006680361425700,7.83142578125,1.75005166958943,9.649228902757168,-0.010017295258498052
1790006680371437600,7.8414375,1.7451849403358994,9.650108608201146,0.010998063623887718
1790006680381449500,7.851449462890625,1.7400449470989405,9.650983052948117,0.03426720990709727
1790006680391461600,7.861461669921875,1.7347759206548332,9.65181541211903,0.05840107983592897
1790006680401473500,7.8714736328125,1.7290857461892066,9.652662384337185,0.08233365275571122
1790006680411484400,7.881484375,1.723754468163848,9.653373162955045,0.10697844733176752
1790006680421496600,7.89149658203125,1.7176225412800907,9.654142978283762,0.13303202186035923
1790006680431508500,7.901508544921875,1.7118278835266827,9.654768416705727,0.15964260921720413
1790006680441520400,7.911520263671875,1.7058415025934577,9.655352938595414,0.18610703870216383
1790006680451532500,7.921532470703125,1.700360294703394,9.65578782288134,0.21193516131127252
1790006680461544400,7.93154443359375,1.695180407847464,9.656035660162567,0.24022256843969225
1790006680471556400,7.941556396484375,1.6904370127126573,9.656038582772016,0.27150532145919276
1790006680481568500,7.951568603515625,1.6860281102292238,9.655841598895192,0.30400283882962537
1790006680491580400,7.961580322265625,1.6812794543974101,9.655663319718837,0.33442097437642515
1790006680501591600,7.971591552734375,1.6770472236551344,9.655306761366129,0.36459954727999866
1790006680511603700,7.981603759765625,1.6739828676484525,9.65451941038072,0.3980257238026708
1790006680521615600,7.99161572265625,1.6712227552853525,9.653353873732685,0.4360896065959707
1790006680531627500,8.00162744140625,1.6677549330443142,9.65211234923899,0.47508079683464016
1790006680541639700,8.0116396484375,1.6640538865692913,9.650888360401987,0.5115398017145693
1790006680551651600,8.021651611328124,1.6614286526322364,9.649435238984227,0.5462947426229715
1790006680561663700,8.031663818359375,1.660826887346804,9.647481182307004,0.5814901207752525
1790006680571675600,8.041675537109375,1.6619162900187074,9.645086980646848,0.6170308782991022
1790006680581686500,8.0516865234375,1.6635767705768345,9.6425279438138,0.6515801405675709
1790006680591698400,8.061698486328124,1.6650740233972667,9.63987947513163,0.6860358793336898
1790006680601710600,8.071710693359375,1.6667686984859407,9.636958034726977,0.7220143706876784
1790006680611722500,8.081722412109375,1.670090390254557,9.633424015381932,0.7604657549612224
1790006680621734700,8.091734619140626,1.6753389584325253,9.629542790034412,0.7971898770507425
1790006680631746600,8.10174658203125,1.681533429158479,9.625792497590183,0.8288198178064078
1790006680641758500,8.111758544921875,1.6875459674462676,9.622179567790031,0.8580399940066039
1790006680651770600,8.1217705078125,1.693537316815555,9.618515200063586,0.8868312042050063
1790006680661782500,8.131782470703126,1.7007896260313689,9.614482583546637,0.9161927616372704
1790006680671793400,8.14179345703125,1.709892385419458,9.609898178365826,0.9468461855109781
1790006680681805600,8.1518056640625,1.720145045495033,9.605009237280488,0.977392276552692
1790006680691817500,8.1618173828125,1.7305618100911377,9.599864860129356,1.0090218519821763
1790006680701829400,8.171829345703125,1.7403816317074,9.593998598444461,1.0472147314500062
1790006680711841500,8.181841552734374,1.7496556560091674,9.587027005866169,1.094528855810687
1790006680721853400,8.191853515625,1.758050559388846,9.578540917071699,1.153770733852312
1790006680731865600,8.201865478515625,1.765087618418783,9.568324643483757,1.225552652254328
1790006680741877500,8.21187744140625,1.770338232423365,9.556330838829279,1.3087472874872386
1790006680751889400,8.221889404296874,1.7743163422740995,9.543077389502525,1.3970961636781691
1790006680761900500,8.231900634765625,1.7788789740145206,9.529070491459965,1.4841845184139906
1790006680771912400,8.241912353515625,1.7878306344941257,9.515554007282853,1.5582960488073527
1790006680781924600,8.251924560546875,1.7987511108286678,9.50485374957025,1.6101687132552265
1790006680791936500,8.2619365234375,1.8091963708668946,9.497951130574942,1.638945018145442
1790006680801948700,8.27194873046875,1.8184283095926046,9.494417695751785,1.6491627530381083
1790006680811960600,8.281960693359375,1.8269871713623402,9.4917078522712,1.6552828433535993
1790006680821972700,8.29197265625,1.8351263464152812,9.489603573468328,1.6583442767508327
1790006680831984600,8.301984619140624,1.842861032320559,9.487904952856898,1.659495054221153
1790006680841996500,8.31199658203125,1.8499539131909608,9.48598012227416,1.662593020236492
1790006680852007700,8.322007568359375,1.8569962329179048,9.483559032607078,1.6685500289447606
1790006680862019600,8.33201953125,1.8642443043500183,9.480930437669157,1.6753927344463764
1790006680872031700,8.34203173828125,1.8718837131872772,9.478356203266978,1.6814220777384936
1790006680882043600,8.352043701171874,1.8792421131260693,9.475949142125248,1.6867799515098332
1790006680892055800,8.362055908203125,1.8854963512152432,9.473503502538799,1.6935210963331162
1790006680902067700,8.372067626953125,1.8913754723817109,9.47066740233004,1.7028019887670873
1790006680912079600,8.38207958984375,1.8979511975102126,9.46740284757614,1.7136061452455817
1790006680922091800,8.392091796875,1.9050680437780916,9.463955921992659,1.72471103823632
1790006680932102700,8.4021025390625,1.9115755259759724,9.460662725666165,1.7355515812024473
1790006680942114600,8.412114501953125,1.9166861469879746,9.457629641580581,1.746403960736841
1790006680952126700,8.422126708984376,1.9210320672377943,9.454567915922404,1.758169363462925
1790006680962138600,8.432138671875,1.9259521341137587,9.451144955736398,1.7711507178500294
1790006680972150500,8.442150634765625,1.9315350488126277,9.44733796466887,1.7853239123702047
1790006680982162700,8.45216259765625,1.937845839394629,9.443166231942175,1.8004899173200128
1790006680992174600,8.462174560546876,1.9444751944065093,9.43873964767158,1.8164780523076653
1790006681002186500,8.4721865234375,1.9506917308337985,9.43420784946084,1.83327311976403
1790006681012198700,8.48219873046875,1.956617906012386,9.429566161134838,1.8507614301815627
1790006681022210600,8.49221044921875,1.9621049591213464,9.425019165354966,1.868029814238101
1790006681032221400,8.502221435546875,1.9674577183261512,9.420359941372276,1.88581476951465
1790006681042233600,8.512233642578124,1.9737144406333564,9.415411379054188,1.9039101059146224
1790006681052245500,8.52224560546875,1.9812506813570856,9.410267586424947,1.921431149557978
1790006681062257700,8.532257568359375,1.989010209442675,9.405218486341834,1.9380643044508992
1790006681072269600,8.54226953125,1.995231129784137,9.40045287937522,1.9547161640442907
1790006681082281500,8.552281494140624,2.000119924739003,9.39578664112985,1.9720792406469583
1790006681092293600,8.562293701171875,2.00588857126832,9.390671490073203,1.9904965024776755
1790006681102305500,8.572305419921875,2.0143208840489386,9.38502793122828,2.008516873945296
1790006681112317400,8.5823173828125,2.0240449902057644,9.37939430925548,2.0249958611898125
1790006681122328800,8.592328857421874,2.032172913212329,9.374444577893614,2.0397176295034587
1790006681132340700,8.6023408203125,2.0378530046753585,9.369984091353416,2.0544918586567045
1790006681142352600,8.6123525390625,2.041994342263788,9.365688439986108,2.0699095002800223
1790006681152364800,8.62236474609375,2.0476222651481626,9.3611946356982,2.084627907592803
1790006681162376700,8.632376708984374,2.056182295961678,9.356095851254462,2.0990394409134985
1790006681172388600,8.642388671875,2.0653056597463784,9.351205156603456,2.1118359402529894
1790006681182400800,8.65240087890625,2.072653830552101,9.347154419907927,2.1225436506196855
1790006681192412700,8.66241259765625,2.078810745746642,9.343461995130777,2.1327549557715653
1790006681202424800,8.6724248046875,2.083701586528122,9.340224912905693,2.1421381395362316
1790006681212435700,8.682435791015624,2.088440597748756,9.337122270715236,2.151029594261199
1790006681222447600,8.692447509765625,2.0944388152502476,9.333789326900243,2.1596444240018724
1790006681232459500,8.70245947265625,2.1012474723517895,9.330449953344464,2.1674555361442267
1790006681242471700,8.7124716796875,2.10803494053483,9.327201180681586,2.174833809827268
1790006681252483600,8.722483642578124,2.1139421187520027,9.324206675040722,2.181922014522552
1790006681262495700,8.732495849609375,2.1182734259545803,9.321501507735253,2.189270331458747
1790006681272507600,8.742507568359375,2.1215854731120167,9.319269803160429,2.195557010512799
1790006681282519600,8.75251953125,2.124626594373584,9.31758930272758,2.199745986635238
1790006681292531700,8.76253173828125,2.1290010100655254,9.315733445727824,2.2033733833521603
1790006681302542600,8.77254248046875,2.1341071010328827,9.31359468013346,2.207466936276108
1790006681312554500,8.782554443359375,2.1377178388759495,9.311717195823787,2.211888844371587
1790006681322566700,8.792566650390626,2.140107364360988,9.310347661036252,2.215341761304438
1790006681332578600,8.80257861328125,2.1428817975103853,9.309385538005829,2.2167028205245733
1790006681342590500,8.812590576171875,2.1463358834870156,9.308572468057275,2.2167763241522014
1790006681352602600,8.8226025390625,2.149563613361865,9.307605084329843,2.2177096594795582
1790006681362614500,8.832614501953126,2.151954892412573,9.306480464214086,2.2201098524890837
1790006681372626400,8.84262646484375,2.153696329252422,9.305475086563826,2.2226377635315058
1790006681382638600,8.852638671875,2.1550534429498014,9.304816330394148,2.224079925163835
1790006681392649700,8.862649658203125,2.156847925151139,9.304359818798304,2.2242485597290096
1790006681402661600,8.87266162109375,2.159715297280997,9.303894539374113,2.2234113782525062
1790006681412673800,8.882673828125,2.16224627706334,9.303550840502977,2.222383788770437
1790006681422685700,8.892685791015625,2.1636701723866163,9.303281375911832,2.2221312753140925
1790006681432697600,8.902697509765625,2.1643564010851084,9.302946444869042,2.222862366067618
1790006681442709800,8.912709716796876,2.1653261229000984,9.302517990323901,2.223710361199081
1790006681452721700,8.9227216796875,2.1682313428223132,9.301958602875471,2.223219362811744
1790006681462733800,8.93273388671875,2.172121189867705,9.301667510974406,2.220643813235313
1790006681472745700,8.942745849609375,2.1750971369385717,9.30184812823832,2.21696994702816
1790006681482757600,8.952757568359376,2.1749992295220495,9.302620281654596,2.2138228811740874
1790006681492768800,8.962768798828124,2.1724960145294663,9.303788156390189,2.211377387718111
1790006681502780700,8.97278076171875,2.170918974471092,9.30505247723758,2.2076009379193184
1790006681512792600,8.98279248046875,2.172824661961943,9.305805925953388,2.2025451158344747
1790006681522804700,8.9928046875,2.1765626794464885,9.306839945176243,2.1944668771885336
1790006681532816600,9.002816650390624,2.1789948750294745,9.308398280534147,2.1854262232512234
1790006681542828500,9.01282861328125,2.179751684746146,9.310307329025864,2.176525562306493
1790006681552840700,9.0228408203125,2.179910090178251,9.312343803289533,2.1676276778407395
1790006681562852600,9.0328525390625,2.180845179071277,9.314575507864355,2.1570726738177237
1790006681572864800,9.04286474609375,2.182456998182088,9.317118762606382,2.1444230356030163
1790006681582875600,9.052875732421874,2.1835675897724927,9.320001040044426,2.130724911248684
1790006681592887600,9.062887451171875,2.179645594023168,9.324197907212376,2.1163300368018447
1790006681602899500,9.0728994140625,2.174815105126798,9.32849940379858,2.1023044340588153
1790006681612911600,9.08291162109375,2.1720028241850433,9.332505716830491,2.0873725301258266
1790006681622923500,9.092923583984375,2.1717769064746797,9.336140858462452,2.071290433244407
1790006681632935700,9.102935791015625,2.1708498547576367,9.340420727738737,2.0528806240677833
1790006681642947600,9.112947509765625,2.1664171330071986,9.345819371911883,2.032901812008768
1790006681652959500,9.12295947265625,2.1596545070044697,9.35162308975458,2.013310099571198
1790006681662971600,9.1329716796875,2.152926660054177,9.357173709619044,1.9946438314154742
1790006681672982800,9.142982666015625,2.1473699027098716,9.362469477939605,1.9756927549690007
1790006681682994700,9.15299462890625,2.142489437191933,9.367878643506765,1.9552448640935123
1790006681693006800,9.1630068359375,2.1370226962186396,9.373859471482039,1.93242586017251
1790006681703018800,9.173018798828124,2.1298815922923384,9.38040377855897,1.9084093170300125
1790006681713030700,9.18303076171875,2.1218498231366274,9.386918275019527,1.8851831936128436
1790006681723042800,9.193042724609375,2.1140270205564797,9.393074459561705,1.8631806206412613
1790006681733054700,9.2030546875,2.106777926211059,9.399130690860748,1.8407072152875363
1790006681743066600,9.213066650390624,2.100170198509097,9.405183415028452,1.8171892693169414
1790006681753078800,9.223078857421875,2.0941816256187855,9.411070134979486,1.7934717091210186
1790006681763090700,9.233090576171875,2.088294613406807,9.416833520811796,1.7699280441872776
1790006681773101300,9.243101318359376,2.080760856901109,9.423138173913955,1.7450760731339454
1790006681783113200,9.25311328125,2.0717682798892256,9.430001045420765,1.718494940200448
1790006681793125400,9.26312548828125,2.062745600000024,9.436804295694827,1.691797487410903
1790006681803137300,9.27313720703125,2.0557740074217317,9.442850590121745,1.6663621635116637
1790006681813149400,9.2831494140625,2.0513786950722337,9.447775771564245,1.6437074102416633
1790006681823161300,9.293161376953124,2.0481471658051014,9.452181897568702,1.6222640785880387
1790006681833173200,9.30317333984375,2.043223737928271,9.456910679656266,1.6007735467918216
1790006681843185400,9.313185302734375,2.035311795759946,9.462159686225652,1.5796943722754715
1790006681853197300,9.323197265625,2.0266363218732177,9.467183651867508,1.560623030450195
1790006681863208200,9.333208251953126,2.0204045878767967,9.471290502664447,1.5436992220476269
1790006681873220400,9.343220458984375,2.0171362337306142,9.47400560684204,1.5312641033664345
1790006681883232300,9.353232177734375,2.014372760366648,9.47613268199861,1.521706147556752
1790006681893244200,9.363244140625,2.009671450807899,9.478283722552657,1.5145119982689619
1790006681903256300,9.37325634765625,2.0035383548803627,9.480556343659758,1.5083983376942574
1790006681913268200,9.383268310546875,1.9979045867770908,9.482580542963742,1.5031496233858168
1790006681923280400,9.3932802734375,1.9947337016560136,9.483840187636018,1.499391147635132
1790006681933292300,9.403292236328125,1.9934343094952403,9.484501281893253,1.496943316091597
1790006681943304200,9.41330419921875,1.992312027467042,9.484914538869262,1.495810366538912
1790006681953316400,9.42331640625,1.9907544227614997,9.48534591602385,1.495160524328053
1790006681963327500,9.433327392578125,1.9883039608694613,9.485953234267233,1.4945635813482105
1790006681973339400,9.44333935546875,1.9868121148765086,9.486197564417123,1.4949964198075234
1790006681983351600,9.4533515625,1.988674693877995,9.485618303224443,1.4962041881620882
1790006681993363500,9.463363525390625,1.992142516119033,9.484750872740149,1.4970871084764599
1790006682003375400,9.473375244140625,1.9940714383549987,9.484131279537081,1.498439107607305
1790006682013387500,9.483387451171875,1.9933013307653367,9.48387233633995,1.5011083268165588
1790006682023399400,9.4933994140625,1.9919182058438658,9.483463171017169,1.5055100689068435
1790006682033411300,9.503411376953125,1.9922798787631093,9.482440842232107,1.5114654701799153
1790006682043422500,9.51342236328125,1.9951044346645472,9.480777292934059,1.5181505009017884
1790006682053434400,9.523434326171875,1.9977445739097892,9.479089193716645,1.5252116714596748
1790006682063446300,9.5334462890625,1.9979471107445657,9.47780967530012,1.5328811831742524
1790006682073458400,9.54345849609375,1.9964963274143634,9.47682300235033,1.5408507007487118
1790006682083470300,9.55347021484375,1.9963265238054095,9.475507828098536,1.5491430205367505
1790006682093482200,9.563482177734375,1.9973919610798359,9.47381855983734,1.5580666239656507
1790006682103494400,9.573494384765626,1.9982270967297255,9.472131629663705,1.5672215519323944
1790006682113506300,9.58350634765625,1.9983539379797874,9.470637007191776,1.576073259168863
1790006682123518500,9.5935185546875,1.9977740922652183,9.46949543594122,1.5836508548162878
1790006682133530400,9.6035302734375,1.9967906341858206,9.468639695894717,1.5899917482756076
1790006682143541200,9.613541259765626,1.996621268968284,9.467649515813589,1.5960929877601564
1790006682153553200,9.62355322265625,1.997882082684338,9.466284072679281,1.6026036848284304
1790006682163565300,9.6335654296875,1.9992469412967562,9.464889987972379,1.6091137973748146
1790006682173577200,9.6435771484375,2.000587834511697,9.463577736330032,1.6151545388437807
1790006682183589400,9.65358935546875,2.0026015124216676,9.462232751461864,1.6205258566185832
1790006682193601300,9.663601318359374,2.004012694393843,9.461052017244697,1.6256756405971944
1790006682203613200,9.67361328125,2.004810712903738,9.460127888137102,1.6300640848144887
1790006682213625300,9.683625244140625,2.0062347543574868,9.459130109271406,1.6340999162018297
1790006682223637200,9.69363720703125,2.008722479519993,9.458071540129184,1.6371641260780394
1790006682233648400,9.7036484375,2.0116449428379535,9.457043366125225,1.639515803770721
1790006682243660500,9.71366064453125,2.014282597865164,9.455978367242217,1.6424119636036454
1790006682253672400,9.72367236328125,2.0157902259491385,9.454996954989433,1.646212963321805
1790006682263684400,9.733684326171876,2.016611479204148,9.45416225773096,1.6499895592510698
1790006682273696500,9.743696533203124,2.0179345445014536,9.453338666388392,1.6530933704853057
1790006682283708400,9.75370849609375,2.020774590232968,9.452328028041125,1.6554020858190952
1790006682293720300,9.76372021484375,2.0248395015843212,9.451082411894202,1.6575426049791275
1790006682303732500,9.773732421875,2.0281465803056955,9.44992856568396,1.660077968675643
1790006682313744400,9.783744384765624,2.029934632766247,9.44905119832754,1.6628814817890525
1790006682323755300,9.79375537109375,2.031441676328331,9.448179091668129,1.6659896769374607
1790006682333767400,9.803767333984375,2.033464268197119,9.447256716126203,1.6687625026516615
1790006682343779300,9.813779296875,2.0361067455299198,9.446339601281284,1.6707234274610876
1790006682353791500,9.82379150390625,2.0393072951368985,9.445268172657489,1.6728744680151342
1790006682363803400,9.833803466796875,2.0418273151338098,9.444224216562509,1.6757001929603517
1790006682373815300,9.843815185546875,2.043345756872743,9.443303594586252,1.6790331367753446
1790006682383827500,9.853827392578125,2.0448091074235735,9.44237654286921,1.6824572660051285
1790006682393839400,9.86383935546875,2.046306067983061,9.441491576728223,1.6856072544686496
1790006682403851300,9.873851318359375,2.0466960902139544,9.440860877609252,1.6886534902967512
1790006682413862400,9.8838623046875,2.0465628192231056,9.440278693807125,1.692075427569449
1790006682423874300,9.893874267578125,2.046801304154098,9.439574929451942,1.6957050162434577
1790006682433886200,9.90388623046875,2.0476741414658726,9.438770042809843,1.699131337430328
1790006682443898400,9.9138984375,2.0489144969157875,9.437886830234527,1.7025386616557836
1790006682453910300,9.92391015625,2.049865367899835,9.437138642215729,1.7055369666889308
1790006682463922200,9.933922119140625,2.050375217118114,9.436638291478156,1.7076935602009296
1790006682473934300,9.943934326171876,2.050666016758233,9.436403313678502,1.7086428237497806
1790006682483946200,9.9539462890625,2.050982389231026,9.436263612946867,1.709036353112012
1790006682493958400,9.96395849609375,2.050922767998278,9.436169504922628,1.7096176601313053
1790006682503969500,9.973969482421875,2.0503049283608794,9.436229710677265,1.7100298941940069
1790006682513981400,9.9839814453125,2.0497556239150465,9.436420264813304,1.7096325654394924
1790006682523993300,9.993993408203124,2.0499461780510844,9.436845796748996,1.7070619842991233
1790006682534005500,10.004005615234375,2.0505787768661974,9.437409860372544,1.703178274733573
1790006682544017400,10.014017333984375,2.050525877635181,9.438163893610238,1.6990604641512035
1790006682554029600,10.024029541015626,2.04879277023226,9.439252273368835,1.6950898069545626
1790006682564041500,10.03404150390625,2.0459233522757887,9.440704810264705,1.6904690152861177
1790006682574053400,10.044053466796875,2.0431375209495424,9.442287111020088,1.6849854693084954
1790006682584064300,10.054064208984375,2.04116052178815,9.443878764125705,1.6784554830178617
1790006682594076400,10.064076416015626,2.039576321336627,9.4454715862751,1.6713982579827307
1790006682604088300,10.07408837890625,2.037475403534621,9.44720644724369,1.664139372895658
1790006682614100500,10.0841005859375,2.0351383388891815,9.448999760401248,1.6568036231800913
1790006682624112400,10.0941123046875,2.033105810148269,9.450755079635977,1.649268697630614
1790006682634124300,10.104124267578126,2.031566471751779,9.452562421318888,1.6407850930541752
1790006682644136400,10.114136474609374,2.029571498542279,9.454603571757673,1.631473367090523
1790006682654148400,10.1241484375,2.0276617193982003,9.45683001563549,1.6209076955430208
1790006682664160300,10.13416015625,2.0265401680223643,9.459014958459138,1.6095219397842884
1790006682674171400,10.14417138671875,2.0259819496177136,9.461115730130672,1.597831648121029
1790006682684183300,10.154183349609376,2.02518217754215,9.463163894832133,1.5866813085533678
1790006682694195200,10.1641953125,2.023645907885581,9.465218489274383,1.5763475460655987
1790006682704207400,10.174207275390625,2.0220413952983916,9.467337965646385,1.5656478728748857
1790006682714219300,10.18421923828125,2.0212574053138495,9.469452765843272,1.5538172959581016
1790006682724231200,10.194231201171876,2.0207507709659636,9.471651737192273,1.5410288337945937
1790006682734243300,10.204243408203125,2.019134129549563,9.474073995903133,1.5281984321855007
1790006682744255200,10.214255126953125,2.0168869351446626,9.4765243116647,1.5159261028505862
1790006682754267400,10.224267333984375,2.0151244555167853,9.47889045627415,1.5034322397194801
1790006682764278500,10.234278564453126,2.0130762908153237,9.481398055180907,1.4902999325543642
1790006682774290700,10.244290771484375,2.010797678358853,9.484094454658031,1.4761527492582798
1790006682784302600,10.254302490234375,2.0077944048896432,9.487072593685983,1.4610286837540567
1790006682794314800,10.264314697265625,2.0044259513698517,9.490193356055022,1.445297300006449
1790006682804326700,10.27432666015625,2.002514272529632,9.492975095728038,1.429596895918995
1790006682814338600,10.284338623046875,2.000714968022704,9.495735208091139,1.4136973159976303
1790006682824350700,10.294350830078125,1.9969507931835948,9.499020805633068,1.3968357591763139
1790006682834362600,10.304362548828125,1.9909186734125017,9.50285877636075,1.3792436961233614
1790006682844374800,10.314374755859374,1.9840851741306482,9.507158519381283,1.359308723206073
1790006682854386000,10.324385986328124,1.9783223728202282,9.511508531284331,1.3370951378323137
1790006682864397800,10.334397705078125,1.9744496230401098,9.515572711983323,1.313699210806191
1790006682874409700,10.34440966796875,1.9692662290528415,9.5198473205626,1.2902955388650297
1790006682884422000,10.354421875,1.9598519194975494,9.524952534747124,1.266745736451447
1790006682894433800,10.364433837890624,1.949340316224843,9.530411384674906,1.2416602489031852
1790006682904446000,10.374446044921875,1.9416019770577548,9.535485619199276,1.2145262313272804
1790006682914457900,10.384457763671875,1.9377251356244085,9.539802313354611,1.1865022791743278
1790006682924469800,10.3944697265625,1.9325373577229676,9.544312484255432,1.1583463712047786
1790006682934480600,10.404480712890624,1.9222798753418027,9.549766658008098,1.1301364680256694
1790006682944492800,10.414492919921875,1.910282709686458,9.55554407236576,1.101263132501766
1790006682954504700,10.424504638671875,1.9029663953237235,9.560510754862428,1.070399938334897
1790006682964516900,10.434516845703126,1.900329470948875,9.564615852093697,1.037911261858046
1790006682974528800,10.44452880859375,1.895709702193737,9.568982815131545,1.0055973574262111
1790006682984540700,10.454540771484375,1.8891206791922448,9.573447977846861,0.9750302235964685
1790006682994552800,10.464552734375,1.8833185687847434,9.577555413165689,0.9454832996599376
1790006683004564700,10.474564697265626,1.8797586843460796,9.581146715655922,0.9156939452696591
1790006683014576600,10.48457666015625,1.8778578191608188,9.584251111412048,0.8866622773788869
1790006683024587800,10.494587890625,1.8767830295361578,9.587021745169162,0.8585348648514598
1790006683034599700,10.504599609375,1.874276745803654,9.589947277227044,0.8308946513190865
1790006683044611600,10.514611572265625,1.8707824739471077,9.592681670626998,0.8068561886057257
1790006683054623700,10.524623779296874,1.86719701667577,9.59495136912465,0.7879432522125541
1790006683064635600,10.5346357421875,1.8631554862000046,9.596932313808798,0.7732504177324473
1790006683074647600,10.5446474609375,1.8606646922975778,9.598404139927029,0.7608882181569934
1790006683084659700,10.55465966796875,1.8599243953242897,9.599424715146421,0.7497317411094904
1790006683094671600,10.564671630859374,1.8582241672776638,9.600602526754141,0.7387935829877853
1790006683104682800,10.574682861328125,1.854100365345925,9.602341479375958,0.7264418317411094
1790006683114695000,10.58469482421875,1.8487810700193046,9.604293197965621,0.7141100273039191
1790006683124706800,10.594706787109375,1.843464405041188,9.606237317770718,0.7016016241908073
1790006683134719000,10.604718994140624,1.8391355820566415,9.608039983278513,0.6881338014610111
1790006683144731000,10.61473095703125,1.837276071795076,9.609292029166221,0.6755049868386238
1790006683154742800,10.62474267578125,1.8381401412785052,9.60996481386125,0.663467562238127
1790006683164755000,10.6347548828125,1.83902203867957,9.610647535428404,0.6510106701165437
1790006683174766800,10.644766845703124,1.8380040938086806,9.611687984392047,0.638435046986118
1790006683184778800,10.65477880859375,1.835131753242761,9.613014264559745,0.6265971635457128
1790006683194790000,10.664789794921875,1.8327967344239353,9.614062312307952,0.6172787886455655
1790006683204801800,10.6748017578125,1.831936756593734,9.614771921882033,0.6087447325235232
1790006683214813700,10.684813720703126,1.8330661990150807,9.614745033875106,0.6057396689560264
1790006683224825900,10.694825927734374,1.8337877912878988,9.614321255505084,0.6102600689899176
1790006683234837800,10.704837646484375,1.8326672628253697,9.61389981522262,0.6202095083352178
1790006683244849700,10.714849609375,1.8309277256816625,9.613660161247848,0.6289936302281915
1790006683254861800,10.72486181640625,1.8296010071225464,9.613535073563456,0.6347416723608971
1790006683264873700,10.734873779296874,1.8285528132438658,9.613681204035878,0.6355377911746501
1790006683274884600,10.744884521484375,1.8267831732228397,9.613836102336645,0.6382756917059421
1790006683284896800,10.754896728515625,1.8266728447161613,9.613556116351484,0.6428017177630215
1790006683294908700,10.76490869140625,1.830480128044635,9.612571781489253,0.6466815548710525
1790006683304920600,10.774920654296874,1.8337229093581437,9.612067923620343,0.6449898754570633
1790006683314932700,10.7849326171875,1.8336542280361054,9.613049335873127,0.6303858152389527
1790006683324944600,10.794944580078125,1.8332957699872552,9.615303836801647,0.5961269142191856
1790006683334956800,10.804956787109376,1.8358046840682625,9.618100189521908,0.5406795330896973
1790006683344968700,10.81496875,1.8396717347599565,9.620546998152136,0.4806860694957897
1790006683354980600,10.824980712890625,1.842233109680563,9.622855275094508,0.4209541794475168
1790006683364991700,10.83499169921875,1.840604193304479,9.625417234537005,0.36591768067386
1790006683375004000,10.84500390625,1.8388767849899827,9.627567106047271,0.31440530090574176
1790006683385015800,10.855015869140624,1.8351316071122883,9.629515902027487,0.274073144386895
1790006683395028000,10.865028076171875,1.8309459919907152,9.630807110881804,0.25606404323196036
1790006683405039900,10.875039794921875,1.837465603017807,9.629961892229318,0.24069226831067353
1790006683415051800,10.8850517578125,1.8464619794219732,9.62867360598445,0.22272448554681612
1790006683425064000,10.89506396484375,1.84570327000916,9.629078679654002,0.21120839967299251
1790006683435075800,10.905075927734375,1.8412801928699016,9.62997767432034,0.20879415987180544
1790006683445086700,10.915086669921875,1.8404123239941894,9.62999579449892,0.21556020167432724
1790006683455099000,10.925098876953125,1.8404171462997794,9.629835635501145,0.2224791324836202
1790006683465110800,10.93511083984375,1.8426161176487803,9.629408349999785,0.2228139904611744
1790006683475122700,10.945122802734375,1.8463830689668654,9.62872855104208,0.22101411969866602
1790006683485134800,10.955134765625,1.8468499558262526,9.628606385967135,0.22242959425346925
1790006683495146800,10.965146728515625,1.8433147674374282,9.629055883300303,0.23210454577263442
1790006683505158700,10.97515869140625,1.839018239287287,9.629423547568917,0.25020989210996775
1790006683515170800,10.9851708984375,1.838573271998763,9.628926703962684,0.271635012253467
1790006683525182700,10.9951826171875,1.8397393931686876,9.62809492931366,0.2924407035906799
1790006683535193600,11.005193603515625,1.8394772351011632,9.627470075413584,0.3138752856822684
1790006683545205800,11.015205810546876,1.8371729036815463,9.627027007821201,0.3398828565115109
1790006683555217700,11.0252177734375,1.832031741400808,9.626802551415562,0.37243341924343254
1790006683565229800,11.035229736328125,1.8279829044014215,9.62605962409377,0.4096830265117809
1790006683575241700,11.04524169921875,1.8262061039872466,9.624614685982465,0.44961631990615275
1790006683585253600,11.055253662109376,1.826534751419723,9.622374798101186,0.4940273432364687
1790006683595265800,11.065265869140624,1.8265899887382984,9.619960722696781,0.5387993088336661
1790006683605277700,11.075277587890625,1.8267746976554393,9.617471828490496,0.5809596306277439
1790006683615288800,11.085288818359375,1.8270828868217766,9.614911038091778,0.6209864109918475
1790006683625301000,11.095301025390626,1.8269827874481677,9.612327451339363,0.6600598726864904
1790006683635313000,11.10531298828125,1.8239308525316416,9.610137832340598,0.6992202820122242
1790006683645324800,11.11532470703125,1.8207829098947346,9.60759808472991,0.7410678845953196
1790006683655337000,11.1253369140625,1.8248137728460132,9.603540918293595,0.7825722266986965
1790006683665348900,11.135348876953126,1.8321093366816639,9.59922422413826,0.8177084950748831
1790006683675360800,11.14536083984375,1.837332185896486,9.595209727799892,0.8523736388079821
1790006683685373000,11.155373046875,1.8402390132538973,9.591451252049207,0.88766838568151
1790006683695383800,11.1653837890625,1.8398817242488263,9.588716858649253,0.9174608088117092
1790006683705395700,11.175395751953126,1.8404763291411101,9.58601929012835,0.944061815489456
1790006683715408000,11.185407958984374,1.8515587180390953,9.581575170201063,0.967234966610372
1790006683725419800,11.195419677734375,1.8669871733173726,9.57658218421936,0.9868268982436508
1790006683735431700,11.205431640625,1.870482468087226,9.574992869201301,0.9955950188498943
1790006683745443800,11.21544384765625,1.8650388157285749,9.575359364426136,1.0022443206712603
1790006683755455700,11.225455810546874,1.8646561000213027,9.574687164252996,1.0093587557863444
1790006683765468000,11.235468017578125,1.871293053817749,9.572737783750892,1.015543581901118
1790006683775479600,11.2454794921875,1.8743362209059298,9.57190074840486,1.0178279665112495
1790006683785490400,11.255490478515625,1.87067097639665,9.572894435617327,1.0152238484274596
1790006683795502600,11.265502685546876,1.8740270088262856,9.572332125559448,1.0143193738684058
1790006683805514500,11.275514404296874,1.872017422569543,9.572938859280944,1.0123092030897736
1790006683815526700,11.285526611328125,1.8505692686103283,9.577042787468432,1.012937344925478
1790006683825538600,11.29553857421875,1.8184220259822903,9.581951017776131,1.0246662880986928
1790006683835550500,11.305550537109376,1.8353674616947768,9.575751578614115,1.0520349181480706
1790006683845562600,11.315562744140625,1.8463015281632542,9.572174304649232,1.0653685200389473
1790006683855574500,11.325574462890625,1.8524996521510182,9.573498831251262,1.0424692904885857
1790006683865585700,11.335585693359375,1.8661970458529888,9.575103928360342,1.0025369469422847
1790006683875597800,11.345597900390626,1.8694751907408236,9.577470657491684,0.9733977270238101
1790006683885609700,11.355609619140624,1.8586583209112286,9.57867068093121,0.9822630243942141
1790006683895621600,11.36562158203125,1.8514790769316254,9.577540800118445,1.006550347302109
1790006683905633800,11.3756337890625,1.8556670301407574,9.57535118111968,1.019584527854994
1790006683915645700,11.385645751953126,1.8654167091302574,9.574965981194376,1.005291579412669
1790006683925657600,11.39565771484375,1.8675635119006038,9.577411036258935,0.9776451553352177
1790006683935669800,11.405669677734375,1.8578823681026697,9.581160159659385,0.9591891689293086
1790006683945680600,11.4156806640625,1.849548108869046,9.582409867459535,0.9627930386401712
1790006683955692500,11.425692626953126,1.8519341272227465,9.580872574889659,0.9734380590341984
1790006683965704700,11.43570458984375,1.8562289018072187,9.580658639878035,0.9673493867702782
1790006683975716600,11.445716552734375,1.8527762771353125,9.583694646573067,0.9436120989605784
1790006683985728500,11.455728515625,1.8429783750899136,9.588146365284919,0.9171979200918227
1790006683995740700,11.46574072265625,1.831612346944958,9.592048048898578,0.8989936434246599
1790006684005752600,11.475752685546874,1.826694179765135,9.594226561981438,0.8856597492728382
1790006684015764700,11.4857646484375,1.8308529068797825,9.594641572523116,0.8724773193556815
1790006684025776600,11.495776611328125,1.8360111664257943,9.595674422702192,0.8499876935195178
1790006684035787500,11.50578759765625,1.833831484299153,9.598996845123171,0.8165344828594475
1790006684045799400,11.51579931640625,1.8258542218096554,9.603668928587435,0.7785804536487907
1790006684055811600,11.5258115234375,1.8172681797720491,9.60840004876256,0.7392991944223641
1790006684065823500,11.535823486328125,1.8146726103208959,9.61186860165596,0.6995197033502161
1790006684075835600,11.545835693359376,1.8193867793612182,9.613612230452894,0.662312108592689
1790006684085847600,11.55584765625,1.8251105638355016,9.615098085096477,0.6238941151320934
1790006684095859500,11.565859375,1.8255594766467809,9.61768634802401,0.5812439274618402
1790006684105871600,11.57587158203125,1.8211052737168967,9.621232057806848,0.5346783564461395
1790006684115882800,11.5858828125,1.8183700035341084,9.624410103321075,0.48441674392409617
1790006684125894700,11.595894775390626,1.819456045205146,9.626446577584742,0.43758050274085253
1790006684135906800,11.60590673828125,1.8239698693677782,9.627501055073738,0.3933431189443916
1790006684145918700,11.615918701171875,1.830076077288389,9.62796107380092,0.3515383325897157
1790006684155930600,11.6259306640625,1.8311155033387243,9.629192076900601,0.3099548243029043
1790006684165942800,11.63594287109375,1.8292464945964515,9.630800681141018,0.268142621826753
1790006684175954700,11.64595458984375,1.8301389133915305,9.631534256112575,0.2334621891929768
1790006684185966600,11.655966552734375,1.833297815813869,9.63156172864139,0.20601916046682744
1790006684195977700,11.665977783203125,1.8366455188065767,9.631415013647079,0.18152077035782857
1790006684205989600,11.67598974609375,1.8422423159003256,9.63077730026543,0.15699532784512266
1790006684216001500,11.68600146484375,1.8451400831684468,9.63055459742546,0.1351198244524654
1790006684226013700,11.696013671875,1.8440357751883565,9.631018707805872,0.11572052018130198
1790006684236025600,11.706025634765625,1.8449186955027281,9.63100292571485,0.1022337735553272
1790006684246037800,11.716037841796876,1.846322278690338,9.630796004965902,0.09623067894931882
1790006684256049700,11.726049560546874,1.8482187599614261,9.630448214441538,0.0944805930121336
1790006684266061600,11.7360615234375,1.8522684737436472,9.629649757540225,0.09659286332521587
1790006684276073700,11.74607373046875,1.8568933570653199,9.628719198691844,0.10055804062914103
1790006684286084600,11.756084716796876,1.8583587534427641,9.628394789043067,0.10443059861301444
1790006684296096500,11.766096435546874,1.858425973460078,9.628353287988901,0.10701567406961694
1790006684306108700,11.776108642578125,1.8588370384790003,9.628234045523405,0.11050282206563278
1790006684316120600,11.78612060546875,1.8588513592652975,9.62816507194042,0.11624576789811253
1790006684326132500,11.796132568359376,1.8606614774271846,9.62770329964757,0.1250133222487755
1790006684336144600,11.80614453125,1.8622808953225611,9.6272538023144,0.13523295683758332
1790006684346156500,11.816156494140625,1.8619816201150416,9.627208209607005,0.14236052542887628
1790006684356168400,11.82616845703125,1.861801879633963,9.627164954987167,0.14755311650275252
1790006684366179600,11.8361796875,1.862335548119247,9.626970309197903,0.15346576547948643
1790006684376191700,11.846191650390624,1.8613129270732403,9.627057402959466,0.16024735191101208
1790006684386203600,11.85620361328125,1.8612445380121467,9.626928223621844,0.16856466000983492
1790006684396215600,11.866215576171875,1.8642451811328529,9.62619172604084,0.17722658029524607
1790006684406227700,11.876227783203126,1.8660826256930827,9.625688452693819,0.18497215292071922
1790006684416239600,11.886239501953124,1.8645457715146243,9.62583633673191,0.19266736533213405
1790006684426251800,11.896251708984375,1.8636572982423005,9.625848027169704,0.20058535364875568
1790006684436263700,11.906263671875,1.8631603085055946,9.625766194105148,0.20893758693048728
1790006684446275600,11.916275634765626,1.8625166037745773,9.62576093340814,0.21480025015249848
1790006684456286700,11.92628662109375,1.8647556148730218,9.625261167192459,0.217756341745425
1790006684466298600,11.936298583984374,1.8684075615093112,9.624560325446724,0.21745403433060273
1790006684476310500,11.946310546875,1.8680583096802235,9.624687751218676,0.21479712661365047
1790006684486322700,11.95632275390625,1.8637725951850412,9.625607204151153,0.21080535356374455
1790006684496334600,11.96633447265625,1.8620453330010174,9.626027475389838,0.2067815048751421
1790006684506346800,11.9763466796875,1.8643086017578838,9.625667409905791,0.20312442540600895
1790006684516358700,11.986358642578125,1.8687185271546243,9.624902270752191,0.19878482529912142
1790006684526370600,11.99637060546875,1.8709439481191337,9.624601826500893,0.19235888390485195
1790006684536381700,12.006381591796876,1.869984747698158,9.62494201824069,0.18453374323714525
1790006684546393600,12.0163935546875,1.8675402771554885,9.625565118575096,0.1765434934019111
1790006684556405500,12.026405517578125,1.8677347768142818,9.625680853909254,0.16797447556434197
1790006684566417700,12.036417724609375,1.8720315972253678,9.625027942958473,0.15714768712893126
1790006684576429600,12.0464296875,1.878245649434626,9.624036009311675,0.1432066573968157
1790006684586441500,12.05644140625,1.8814274943411349,9.623646717733145,0.12667811365583911
1790006684596453600,12.06645361328125,1.881742551639676,9.623775897070765,0.11125234352499246
1790006684606465500,12.076465576171875,1.8821742210552095,9.62382207430005,0.09938377268537879
1790006684616476400,12.086476318359376,1.884482205736637,9.623481882560252,0.08778772604367695
1790006684626488600,12.096488525390624,1.8898548386856913,9.622539633274078,0.07441774223174434
1790006684636500500,12.10650048828125,1.894665161576867,9.621710781234503,0.05753162179132923
1790006684646512400,12.116512451171875,1.8984426342889666,9.621059039327502,0.03901908745917026
1790006684656524500,12.126524658203126,1.8993946743167935,9.620926352858543,0.021553404431976377
1790006684666536400,12.136536376953124,1.898553693448007,9.621111646297573,0.009778071683633606
1790006684676548600,12.146548583984375,1.8984994790427385,9.621126843866705,0.003170525217706745
1790006684686560500,12.156560546875,1.902545831824094,9.620327217921615,0.0000988317203016777
1790006684696571600,12.166571533203125,1.9053370699778198,9.61977542925775,-0.0013137821592572436
1790006684706583600,12.17658349609375,1.9056426287956534,9.619714054459333,-0.0032788515656662636
1790006684716595700,12.186595703125,1.9036793658986686,9.620102761515975,-0.004616124055659748
1790006684726607600,12.196607666015625,1.9020529337406158,9.620425417599082,-0.0012423567524005193
1790006684736619800,12.206619873046876,1.9024387181878089,9.620346507143974,0.007431976631656289
1790006684746631700,12.216631591796874,1.9034984563738107,9.620123219782114,0.017666182026866588
1790006684756643600,12.2266435546875,1.901113168672472,9.620568625462054,0.028915685961442065
1790006684766655700,12.23665576171875,1.895422701945901,9.621643561217189,0.041764426944823935
1790006684776667100,12.246667236328125,1.8873728126116096,9.623158057433367,0.055209782114485274
1790006684786679000,12.256678955078126,1.8821781665779649,9.624093876978755,0.0678809791404521
1790006684796691200,12.266691162109375,1.882193802538514,9.623996846345067,0.07998959211390465
1790006684806703000,12.276703125,1.8796860575012861,9.62430722746849,0.09944966839528642
1790006684816715000,12.286715087890625,1.8720564394056796,9.625417234537005,0.13079217964485287
1790006684826727200,12.29672705078125,1.8648340869367122,9.626271221017838,0.16639305159179493
1790006684836739000,12.306739013671875,1.8580327363587914,9.626835869163274,0.20527886349353938
1790006684846751200,12.316751220703125,1.8538867225952445,9.626734162354468,0.24389219686314462
1790006684856763100,12.32676318359375,1.8526814384587107,9.625735214444994,0.288404908735957
1790006684866774000,12.33677392578125,1.8498529370345174,9.624684244087337,0.33747192291226236
1790006684876786000,12.346785888671874,1.845808337818831,9.623526890745758,0.3887013210205361
1790006684886798000,12.356798095703125,1.84235059858039,9.621898997282981,0.44178025598563253
1790006684896810000,12.36681005859375,1.8419849801383912,9.619279754695295,0.4969180962419137
1790006684906822100,12.376822265625,1.8430819815948605,9.615874330165981,0.5553387940937653
1790006684916834000,12.386833984375,1.846174979174137,9.611600890630482,0.6157485834036022
1790006684926846000,12.396845947265625,1.8467764521986245,9.607125791043043,0.6803997000776231
1790006684936858000,12.406858154296875,1.848029813260585,9.602381811386346,0.7412357885081321
1790006684946869200,12.416869140625,1.8495229744277892,9.597487025082112,0.7986700326059013
1790006684956881200,12.426881103515624,1.8521631136730312,9.592246201819181,0.8536234196733683
1790006684966893300,12.436893310546875,1.8557893413461743,9.586348960474133,0.9101347767725586
1790006684976905200,12.4469052734375,1.8609736121162772,9.579657353881,0.968158218935132
1790006684986917000,12.456917236328126,1.8667310065992175,9.57244376924038,1.026666083613783
1790006684996929300,12.46692919921875,1.8721436792977153,9.564900514253974,1.0854146251805126
1790006685006941200,12.476941162109375,1.876037617996335,9.557681084394455,1.1408666094198823
1790006685016953000,12.486953125,1.8817653479933738,9.550362870335578,1.1916012097485362
1790006685026964200,12.496964111328126,1.8907497416988015,9.542305236086248,1.240910307318717
1790006685036976000,12.50697607421875,1.9011416641145944,9.534047110828757,1.2876340645708142
1790006685046988000,12.516988037109375,1.9090942305542526,9.526254849517345,1.3327460027121008
1790006685057000200,12.527000244140625,1.9121654546931386,9.518959431812167,1.3796413171388209
1790006685067012000,12.53701220703125,1.9152194354362784,9.512280100178717,1.4208626775823532
1790006685077024300,12.547024169921874,1.9230404844507574,9.504957209944724,1.458794494961202
1790006685087036200,12.5570361328125,1.9360266611434518,9.496693823990226,1.4949911591105163
1790006685097048000,12.567048095703125,1.9475068171873688,9.48892377451062,1.5290340062268077
1790006685107059000,12.577058837890625,1.95362632298097,9.48189548330903,1.5644056177288292
1790006685117071000,12.587071044921874,1.9580553914695977,9.475416058161855,1.5977755340196191
1790006685127083000,12.5970830078125,1.9644578058578073,9.469204344040154,1.626483742109686
1790006685137095200,12.60709521484375,1.9728904108993708,9.4631714936167,1.6511960124313831
1790006685147107000,12.617107177734376,1.9811789312951265,9.457465975451468,1.6738113104738295
1790006685157119000,12.627118896484374,1.985153534014523,9.452368944573402,1.6977210322409868
1790006685167131100,12.637131103515625,1.987293614783138,9.447761158517002,1.7207149543374776
1790006685177143000,12.64714306640625,1.992184455564618,9.443256248313189,1.7396864890500903
1790006685187154200,12.657154296875,2.0016113323405382,9.437911380153894,1.75777744153589
1790006685197166000,12.667166015625,2.011256674172729,9.432401676821708,1.7762421957701444
1790006685207178200,12.67717822265625,2.0154452119037507,9.427931837931276,1.7951291209392248
1790006685217190100,12.687190185546875,2.016115658511221,9.424103804075717,1.814370412503928
1790006685227202300,12.697202392578125,2.017132726599276,9.420471585053205,1.8320121599175034
1790006685237214200,12.707214111328126,2.020042768827081,9.417464219930768,1.8442288135424256
1790006685247226000,12.71722607421875,2.0239402146570384,9.415097490799427,1.8520210748538375
1790006685257238300,12.72723828125,2.0255005958415566,9.413350354871154,1.859183513829112
1790006685267249200,12.737249267578125,2.0220820195697247,9.412579955020547,1.8667859516568481
1790006685277261000,12.747260986328126,2.020169025555253,9.411891972756385,1.8723219584740698
1790006685287273200,12.757273193359374,2.0228701012074946,9.411294591385126,1.8724138745412229
1790006685297285000,12.76728515625,2.0273029690884052,9.411150214478374,1.8683381495349107
1790006685307297000,12.777297119140625,2.026869692237675,9.412232749018072,1.8633485245540737
1790006685317309200,12.78730908203125,2.020809515415877,9.414110817849636,1.8604327832378447
1790006685327321000,12.797321044921874,2.015441850902885,9.415913483357429,1.8571391485199331
1790006685337333200,12.807333251953125,2.013854581711441,9.417617949187756,1.8502026272550225
1790006685347344100,12.81734423828125,2.013787946216017,9.41981049079597,1.8390752301715314
1790006685357356000,12.82735595703125,2.0105553940355776,9.422986782744527,1.8263051804475485
1790006685367368200,12.8373681640625,2.0052651786729694,9.426457089203595,1.814171821191907
1790006685377380000,12.847380126953125,1.9999743787884712,9.429891155305505,1.8021230714797973
1790006685387392000,12.85739208984375,1.9963402600698172,9.433401793774962,1.7877144607685505
1790006685397404200,12.867404052734376,1.9931750740371643,9.437163192135095,1.7713234440684318
1790006685407416000,12.877416015625,1.989156486045569,9.441157230207324,1.7544804458171128
1790006685417428000,12.887427978515625,1.981740510700643,9.445684936764836,1.7384303515091537
