time,seconds_elapsed,z,y,x
1790763741841642200,0.064642333984375,-0.4440145194530487,-0.050153616815805435,0.09581011533737183
1790763741851681000,0.074680908203125,-0.3678370714187622,-0.04887029156088829,0.16022130846977234
1790763741861719000,0.084718994140625,-0.3603900671005249,0.23847892880439758,0.19026628136634827
1790763741871758000,0.094758056640625,-0.3763876259326935,0.4937506914138794,0.19374175369739532
1790763741881796000,0.104796142578125,-0.44529929757118225,0.6635423898696899,0.1860193908214569
1790763741891835000,0.1148349609375,-0.5224151611328125,0.9124469757080078,0.18101733922958374
1790763741901873200,0.124873046875,-0.5316382050514221,1.212384581565857,0.2033521980047226
1790763741911912000,0.134911865234375,-0.397464781999588,1.3663853406906128,0.29293137788772583
1790763741921951000,0.144950927734375,-0.04014981538057327,1.606435775756836,0.34688088297843933
1790763741931989000,0.154989013671875,0.3410009443759918,1.740980625152588,0.34437569975852966
1790763741942028000,0.165028076171875,0.5407734513282776,1.6817138195037842,0.3050008714199066
1790763741952066000,0.175066162109375,0.6337567567825317,1.4444832801818848,0.2842472791671753
1790763741962105000,0.18510498046875,0.620353102684021,0.8978438973426819,0.2825785279273987
1790763741972142800,0.195142822265625,0.5944491028785706,0.2737484872341156,0.32417726516723633
1790763741982182100,0.20518212890625,0.4835928976535797,-0.6197034120559692,0.27064451575279236
1790763741992221200,0.21522119140625,0.4298075735569,-0.6177376508712769,0.27046531438827515
1790763742002259000,0.225259033203125,0.31309986114501953,-0.6428531408309937,0.24871394038200378
1790763742012298000,0.235298095703125,0.18427373468875885,-0.7137072682380676,0.24372248351573944
1790763742022336000,0.2453359375,0.07426176220178604,-0.7074373960494995,0.2666512429714203
1790763742032375000,0.255375,0.032416775822639465,-0.5545410513877869,0.31360673904418945
1790763742042413000,0.2654130859375,0.07003845274448395,-0.18235765397548676,0.39314016699790955
1790763742052452000,0.2754521484375,0.11984710395336151,0.2371649146080017,0.5460784435272217
1790763742062491000,0.285490966796875,0.14544007182121277,0.5389511585235596,0.7181034684181213
1790763742072529200,0.295529052734375,0.10237513482570648,0.9114667177200317,0.8464301228523254
1790763742082568000,0.30556787109375,0.05877518653869629,1.3331177234649658,0.8818733096122742
1790763742092606000,0.31560595703125,0.07047197222709656,1.5596728324890137,0.8458600640296936
1790763742102645200,0.325645263671875,0.14100126922130585,1.676961064338684,0.7432804107666016
1790763742112683000,0.33568310546875,0.24632379412651062,1.5742233991622925,0.6273934245109558
1790763742122722000,0.34572216796875,0.33510586619377136,1.3779362440109253,0.5322408080101013
1790763742132760000,0.355760009765625,0.4177509844303131,1.1143758296966553,0.48883968591690063
1790763742142799000,0.365799072265625,0.44536370038986206,0.8245474696159363,0.4871214032173157
1790763742152838000,0.375837890625,0.43442705273628235,0.5539594292640686,0.531460702419281
1790763742162876200,0.385876220703125,0.40572217106819153,0.23828886449337006,0.643009603023529
1790763742172915000,0.3959150390625,0.4416281282901764,-0.03498638793826103,0.8180966973304749
1790763742182953200,0.405953125,0.37034836411476135,-0.09737467020750046,1.0418965816497803
1790763742192992000,0.415991943359375,0.18133610486984253,-0.07000376284122467,1.225020408630371
1790763742203029500,0.426029541015625,-0.028562812134623528,-0.04443874582648277,1.3757519721984863
1790763742213068500,0.436068603515625,-0.21300286054611206,-0.10751336812973022,1.486204743385315
1790763742223107600,0.446107666015625,-0.31565016508102417,-0.30663448572158813,1.530216932296753
1790763742233145600,0.4561455078125,-0.3768344819545746,-0.5838057994842529,1.5184242725372314
1790763742243184600,0.4661845703125,-0.3941279649734497,-0.9863348007202148,1.5199118852615356
1790763742253222400,0.476222412109375,-0.40942704677581787,-1.482468843460083,1.6031298637390137
1790763742263261400,0.486261474609375,-0.473486989736557,-1.6243295669555664,1.6933954954147339
1790763742273299500,0.496299560546875,-0.5256537795066833,-1.6379820108413696,1.8107880353927612
1790763742283338500,0.50633837890625,-0.5083003640174866,-1.6754857301712036,1.8851642608642578
1790763742293377300,0.516377197265625,-0.4864732623100281,-1.649062156677246,1.9638395309448242
1790763742303415600,0.52641552734375,-0.46673285961151123,-1.5835508108139038,1.994476079940796
1790763742313454300,0.536454345703125,-0.3712509274482727,-1.495520830154419,1.9333579540252686
1790763742323492600,0.54649267578125,-0.3666633665561676,-1.4869258403778076,1.9255547523498535
1790763742333531600,0.55653173828125,-0.375304251909256,-1.5001204013824463,1.8628928661346436
1790763742343569400,0.5665693359375,-0.37905290722846985,-1.5418410301208496,1.783365249633789
1790763742353608700,0.576608642578125,-0.4678175151348114,-1.5426263809204102,1.7122713327407837
1790763742363646500,0.586646484375,-0.5723897218704224,-1.5033538341522217,1.6514122486114502
1790763742373685500,0.596685546875,-0.6240463256835938,-1.4880425930023193,1.6318542957305908
1790763742383724500,0.606724609375,-0.5774279236793518,-1.4685181379318237,1.683843731880188
1790763742393762600,0.616762451171875,-0.5418226718902588,-1.3485058546066284,1.7611117362976074
1790763742403801300,0.62680126953125,-0.5306869149208069,-1.2034772634506226,1.8493014574050903
1790763742413839600,0.636839599609375,-0.4854072034358978,-1.08474600315094,1.9094349145889282
1790763742423878400,0.64687841796875,-0.40044304728507996,-0.9579247236251831,1.9150490760803223
1790763742433916700,0.656916748046875,-0.2751953601837158,-0.7574105262756348,1.8196475505828857
1790763742443955500,0.66695556640625,-0.1433907151222229,-0.551917314529419,1.6250416040420532
1790763742453994500,0.676994384765625,-0.00720187509432435,-0.40309298038482666,1.3866721391677856
1790763742464032500,0.687032470703125,0.14560045301914215,-0.388269305229187,1.1591566801071167
1790763742474071600,0.697071533203125,0.30036845803260803,-0.4636859893798828,0.9438369274139404
1790763742484109300,0.707109375,0.40670156478881836,-0.5844339728355408,0.750633955001831
1790763742494148600,0.717148681640625,0.4825616180896759,-0.664474368095398,0.5389471054077148
1790763742504186400,0.727186279296875,0.5708861351013184,-0.8044586181640625,0.3278633654117584
1790763742514225400,0.737225341796875,0.6583239436149597,-1.0507926940917969,0.16075967252254486
1790763742524263700,0.747263671875,0.6412355303764343,-1.2073469161987305,0.04085643216967583
1790763742534302500,0.757302490234375,0.5344186425209045,-1.2174690961837769,-0.017329225316643715
1790763742544341500,0.767341552734375,0.3711644411087036,-1.1118550300598145,-0.034254949539899826
1790763742554379500,0.777379638671875,0.19678248465061188,-0.978807806968689,-0.04441644251346588
1790763742564418600,0.78741845703125,0.12418738752603531,-1.050618052482605,-0.043476615101099014
1790763742574456600,0.79745654296875,0.19595345854759216,-1.3211582899093628,-0.044468916952610016
1790763742584495600,0.80749560546875,0.403533011674881,-1.5991134643554688,-0.05003119260072708
1790763742594533400,0.817533447265625,0.7351809144020081,-1.8858139514923096,-0.03953944519162178
1790763742604572400,0.827572509765625,1.0011793375015259,-2.1088171005249023,0.03632256016135216
1790763742614610400,0.8376103515625,1.1596903800964355,-2.0820493698120117,0.16254761815071106
1790763742624649500,0.8476494140625,1.254388451576233,-1.8686785697937012,0.2624278664588928
1790763742634688500,0.8576884765625,1.3561729192733765,-1.5025006532669067,0.3013160228729248
1790763742644726500,0.8677265625,1.4702131748199463,-1.0549945831298828,0.26051241159439087
1790763742654765600,0.877765625,1.553280234336853,-0.5348503589630127,0.18810006976127625
1790763742664803600,0.887803466796875,1.6212536096572876,-0.050426702946424484,0.1445360779762268
1790763742674842600,0.897842529296875,1.6681638956069946,0.2548968195915222,0.17980225384235382
1790763742684880400,0.90788037109375,1.6380784511566162,0.6165003180503845,0.1776197850704193
1790763742694919700,0.917919677734375,1.5742169618606567,0.8404709696769714,0.16721050441265106
1790763742704958500,0.92795849609375,1.4692997932434082,0.7981570959091187,0.1955702304840088
1790763742714996500,0.93799658203125,1.3640910387039185,0.709007740020752,0.17681919038295746
1790763742725035500,0.948035400390625,1.3249942064285278,0.5914605855941772,0.08549115806818008
1790763742735073500,0.958073486328125,1.3594439029693604,0.31844624876976013,0.01033103372901678
1790763742745112300,0.9681123046875,1.424170732498169,0.022194894030690193,0.021108314394950867
1790763742755150600,0.978150634765625,1.4431731700897217,-0.14545252919197083,0.11345124244689941
1790763742765189400,0.988189453125,1.3900105953216553,-0.17764508724212646,0.2654178738594055
1790763742775227600,0.9982275390625,1.3184480667114258,-0.10973163694143295,0.4461793005466461
1790763742785266400,1.008266357421875,1.2335736751556396,0.05624295771121979,0.5918075442314148
1790763742795305500,1.018305419921875,1.1576344966888428,0.13519719243049622,0.6879526972770691
1790763742805343500,1.028343505859375,1.1340248584747314,0.14498057961463928,0.692290723323822
1790763742815382500,1.038382568359375,1.1501281261444092,0.10816450417041779,0.6244163513183594
1790763742825420500,1.048420654296875,1.1746212244033813,0.05470873787999153,0.5065288543701172
1790763742835459600,1.05845947265625,0.6491445899009705,2.579683303833008,1.1439452171325684
1790763742845497600,1.06849755859375,-0.7014368176460266,5.289469242095947,2.5074374675750732
1790763742855536400,1.078536376953125,-0.07791425287723541,4.319687366485596,2.061527729034424
1790763742865574700,1.08857470703125,0.42741522192955017,2.966468334197998,1.5932894945144653
1790763742875613400,1.098613525390625,0.9172207713127136,1.650145173072815,1.072460412979126
1790763742885652500,1.108652587890625,1.3968944549560547,0.3292135000228882,0.47706395387649536
1790763742895690500,1.1186904296875,1.718893051147461,-0.7288745641708374,-0.08911274373531342
1790763742905729500,1.1287294921875,1.6692852973937988,0.26637187600135803,0.15320135653018951
1790763742915767600,1.138767578125,1.7660030126571655,1.067198395729065,0.551136314868927
1790763742925806600,1.148806640625,1.856445074081421,0.3997146785259247,0.5236495733261108
1790763742935844400,1.15884423828125,1.7671868801116943,-0.2015669196844101,0.40963253378868103
1790763742945883400,1.16888330078125,1.5351488590240479,-0.4601326882839203,0.3913331627845764
1790763742955921400,1.17892138671875,1.2769874334335327,-0.7066804766654968,0.3228634297847748
1790763742965960400,1.18896044921875,1.0111157894134521,-0.6726537942886353,0.25536322593688965
1790763742975999500,1.19899951171875,0.8149102926254272,-0.5034685134887695,0.16762958467006683
1790763742986037500,1.20903759765625,0.6712324619293213,-0.29611796140670776,0.08234984427690506
1790763742996076500,1.21907666015625,0.5214579701423645,-0.09634573757648468,0.027479268610477448
1790763743006114600,1.229114501953125,0.33286890387535095,0.10736051946878433,0.007646176964044571
1790763743016153600,1.239153564453125,0.13387611508369446,0.2770179510116577,0.034939009696245193
1790763743026191400,1.24919140625,0.13842558860778809,0.21463686227798462,0.1905251443386078
1790763743036230700,1.259230712890625,0.14322151243686676,0.14953190088272095,0.3758805990219116
1790763743046268400,1.269268310546875,-0.04860278218984604,0.13123412430286407,0.46494123339653015
1790763743056307500,1.279307373046875,-0.1954936981201172,-0.043286554515361786,0.49582165479660034
1790763743066346500,1.289346435546875,-0.36715999245643616,-0.2151760309934616,0.4264758825302124
1790763743076384500,1.299384521484375,-0.5484012365341187,-0.4007420241832733,0.2846911549568176
1790763743086423300,1.30942333984375,-0.18431729078292847,-1.0560026168823242,0.3433486223220825
1790763743096461600,1.319461669921875,-0.37990492582321167,-1.0450847148895264,0.1359107941389084
1790763743106500400,1.329500244140625,-0.5808484554290771,-1.1578251123428345,-0.052251916378736496
1790763743116538600,1.33953857421875,-0.8169914484024048,-1.2636821269989014,-0.22841577231884003
1790763743126577700,1.34957763671875,-1.129825234413147,-1.2678333520889282,-0.4355130195617676
1790763743136615400,1.359615478515625,-1.3626517057418823,-1.322828769683838,-0.5713276267051697
1790763743146654700,1.36965478515625,-1.5085968971252441,-1.5076502561569214,-0.6214970350265503
1790763743156693500,1.379693603515625,-1.5297439098358154,-1.777862787246704,-0.6182870268821716
1790763743166731500,1.3897314453125,-1.3908770084381104,-1.8957487344741821,-0.652628481388092
1790763743176770600,1.3997705078125,-0.9762385487556458,-0.16113924980163574,-1.6087872982025146
1790763743186808600,1.40980859375,-0.7671732306480408,-0.03197352960705757,-1.8267472982406616
1790763743196847400,1.419847412109375,-0.5856691002845764,-0.6779364347457886,-1.4266769886016846
1790763743206886100,1.42988623046875,-0.5199106335639954,-0.9996087551116943,-0.9373435378074646
1790763743216925000,1.439925048828125,-0.4598585367202759,-0.7738255858421326,-0.5700405240058899
1790763743226963000,1.449962890625,-0.5256385803222656,1.0918720960617065,0.08671552687883377
1790763743237002000,1.460001953125,-0.30188700556755066,1.4858825206756592,0.1956922560930252
1790763743247041000,1.470041015625,-0.2507162392139435,1.2896746397018433,0.41903746128082275
1790763743257079000,1.4800791015625,-0.22436405718326569,1.34943687915802,0.5305487513542175
1790763743267118000,1.4901181640625,-0.20749932527542114,1.543763518333435,0.5602118372917175
1790763743277156000,1.500156005859375,-0.20869013667106628,1.4578748941421509,0.6560912728309631
1790763743287195000,1.51019482421875,-0.2283807396888733,1.3870429992675781,0.7043687701225281
1790763743297233200,1.520233154296875,-0.3021635413169861,1.4633663892745972,0.6111258864402771
1790763743307272000,1.53027197265625,-0.3521803617477417,1.2908800840377808,0.4897904098033905
1790763743317310200,1.540310302734375,-0.437694251537323,1.1003575325012207,0.3386803865432739
1790763743327349000,1.550348876953125,-0.5637505054473877,1.0955755710601807,0.13125021755695343
1790763743337388000,1.560387939453125,-0.5822923183441162,0.8139083385467529,0.02289005182683468
1790763743347426000,1.570426025390625,-0.513046383857727,0.4376683533191681,-0.0439334511756897
1790763743357465000,1.580465087890625,-0.4437309801578522,0.30107879638671875,-0.14928016066551208
1790763743367502800,1.5905029296875,-0.16974285244941711,-0.09216252714395523,0.16282100975513458
1790763743377542100,1.600542236328125,0.24390648305416107,0.11895427107810974,0.5745865106582642
1790763743387580000,1.610579833984375,0.6567411422729492,0.9589102268218994,0.7689301371574402
1790763743397619000,1.620618896484375,0.3210693299770355,1.6451274156570435,0.8636055588722229
1790763743407657000,1.630656982421875,0.24846038222312927,1.349142074584961,0.49552392959594727
1790763743417696000,1.640696044921875,0.0038079090882092714,0.7026863694190979,0.13316527009010315
1790763743427735000,1.650735107421875,-0.2746194303035736,0.3051278293132782,-0.2215733677148819
1790763743437773000,1.66077294921875,-0.5828889608383179,0.07319976389408112,-0.48587822914123535
1790763743447812000,1.67081201171875,-0.8667500019073486,-0.0755913108587265,-0.5513118505477905
1790763743457849900,1.680849853515625,-1.1090008020401,-0.1989022046327591,-0.6847765445709229
1790763743467889200,1.69088916015625,-1.2390629053115845,-0.5548888444900513,-0.8026506900787354
1790763743477927000,1.700927001953125,-1.3430112600326538,-0.9548758268356323,-0.8839031457901001
1790763743487966000,1.710966064453125,-1.2486481666564941,-0.7780912518501282,-1.0334012508392334
1790763743498004000,1.72100390625,-1.1621373891830444,-0.32990315556526184,-0.965262770652771
1790763743508043000,1.73104296875,-1.0155000686645508,-0.2746582627296448,-0.487517774105072
1790763743518081800,1.741081787109375,-0.7631258368492126,-0.08069674670696259,-0.18301749229431152
1790763743528120000,1.7511201171875,-0.3475203812122345,0.4056017994880676,-0.28091102838516235
1790763743538158800,1.761158935546875,-0.14370523393154144,0.13669046759605408,-0.2519485652446747
1790763743548197000,1.771197021484375,-0.024092821404337883,-0.16255402565002441,-0.2563456892967224
1790763743558236200,1.781236083984375,-0.035987384617328644,-0.007793867029249668,-0.44322359561920166
1790763743568274000,1.79127392578125,-0.10507164150476456,0.09591388702392578,-0.5733941197395325
1790763743578313200,1.801313232421875,-0.2370733618736267,0.055924657732248306,-0.6263558864593506
1790763743588351000,1.81135107421875,-0.3386566936969757,-0.03780290111899376,-0.6644515991210938
1790763743598390000,1.82139013671875,-0.3424201011657715,-0.09712734073400497,-0.7157221436500549
1790763743608429000,1.831428955078125,-0.321942538022995,0.2828519642353058,-0.5999007225036621
1790763743618467000,1.841467041015625,-0.36773765087127686,0.628354549407959,0.10471956431865692
1790763743628505900,1.851505859375,-0.21127426624298096,0.23245114088058472,0.056735794991254807
1790763743638544100,1.861544189453125,-0.3607216775417328,0.46915099024772644,0.11235983669757843
1790763743648583000,1.8715830078125,-0.5670298933982849,0.21996460855007172,0.1417158544063568
1790763743658621200,1.88162109375,-0.704250693321228,0.06961168348789215,0.20678254961967468
1790763743668660000,1.891659912109375,-0.8194332122802734,-0.08605567365884781,0.2865554094314575
1790763743678698000,1.901697998046875,-0.877323567867279,0.20471778512001038,0.23233795166015625
1790763743688737000,1.911737060546875,-0.7533515691757202,-0.006352641619741917,0.2758266031742096
1790763743698775000,1.921775146484375,-0.376010924577713,0.12696313858032227,0.38910973072052
1790763743708813800,1.931813720703125,-0.03993411734700203,0.7785643339157104,0.43370118737220764
1790763743718853000,1.94185302734375,0.023811541497707367,0.5271195769309998,0.7684065103530884
1790763743728891000,1.951890869140625,0.10119500756263733,0.22148776054382324,1.0597323179244995
1790763743738930000,1.961929931640625,0.2186802625656128,0.3491891026496887,1.0103542804718018
1790763743748968200,1.97196826171875,0.2894580364227295,0.892735481262207,0.6256707906723022
1790763743759007000,1.982007080078125,0.3751775920391083,0.2847471535205841,0.7112880349159241
1790763743769045000,1.992044921875,0.5010710954666138,0.17696158587932587,0.8152117729187012
1790763743779084000,2.002083984375,0.531227171421051,0.5317879319190979,0.7942043542861938
1790763743789122000,2.0121220703125,0.3297886252403259,0.26009196043014526,0.8229590058326721
1790763743799160800,2.022160888671875,0.2932421863079071,0.2907055616378784,0.7051150798797607
1790763743809200000,2.0322001953125,0.4569893181324005,0.28629404306411743,0.5849055647850037
1790763743819238000,2.04223779296875,0.5322766900062561,0.0903816670179367,0.48977378010749817
1790763743829277000,2.05227685546875,0.6775603890419006,-0.09957414865493774,0.5398393869400024
1790763743839315000,2.06231494140625,0.7093640565872192,0.0976230651140213,0.5954070687294006
1790763743849354000,2.07235400390625,-0.5442260503768921,1.162564754486084,0.3131990432739258
1790763743859392000,2.08239208984375,-0.9636332392692566,2.0249106884002686,0.21114039421081543
1790763743869431000,2.09243115234375,-0.7747765183448792,1.873339056968689,0.24504776298999786
1790763743879468800,2.10246875,-0.6862413287162781,1.4078640937805176,0.06779163330793381
1790763743889508000,2.112508056640625,-0.682514488697052,0.8563365936279297,-0.2438456118106842
1790763743899547100,2.122547119140625,-0.337506502866745,0.13543333113193512,-0.3714609742164612
1790763743909585000,2.1325849609375,-0.26084980368614197,0.12483581155538559,-0.6850780844688416
1790763743919624200,2.142624267578125,-0.09893742948770523,-0.0054206084460020065,-0.4848552942276001
1790763743929662000,2.152661865234375,0.036666207015514374,0.021261868998408318,-0.2296386957168579
1790763743939701000,2.162700927734375,0.12949511408805847,0.056637100875377655,-0.01920170523226261
1790763743949739000,2.172739013671875,0.14043563604354858,0.00665622390806675,0.15496422350406647
1790763743959778000,2.182778076171875,0.055299583822488785,0.11979000270366669,0.33675408363342285
1790763743969816000,2.192816162109375,0.03836400806903839,0.24455884099006653,0.4178348183631897
1790763743979855000,2.202855224609375,0.07652312517166138,0.059427402913570404,0.4939649701118469
1790763743989892900,2.212892822265625,0.09969156235456467,-0.10112845152616501,0.5948300361633301
1790763743999932200,2.22293212890625,0.046793919056653976,-0.3037714958190918,0.5438554286956787
1790763744009971000,2.232970947265625,-0.04237483814358711,-0.41129130125045776,0.5284215807914734
1790763744020009000,2.243009033203125,-0.19987834990024567,-0.30488887429237366,0.5619826316833496
1790763744030048000,2.253048095703125,-0.5859320163726807,0.13326342403888702,0.47497501969337463
1790763744040086000,2.2630859375,-0.7702736854553223,0.6431159973144531,0.28997382521629333
1790763744050125000,2.273125,-0.7600788474082947,0.6675257086753845,-0.11016023904085159
1790763744060163000,2.2831630859375,-0.5910415649414062,0.40708860754966736,-0.5089735984802246
1790763744070202000,2.2932021484375,-0.35477229952812195,0.2096351832151413,-0.9436219930648804
1790763744080240000,2.303240234375,-0.2510248124599457,0.5508966445922852,-1.2815186977386475
1790763744090279200,2.313279052734375,-0.19999916851520538,0.8163203597068787,-1.6000546216964722
1790763744100318000,2.32331787109375,-0.17926038801670074,1.1104965209960938,-1.8400989770889282
1790763744110356000,2.33335595703125,-0.2458479404449463,2.2568793296813965,-2.2758994102478027
1790763744120395000,2.34339501953125,-0.12905003130435944,-1.5394823551177979,-1.0837019681930542
1790763744130433000,2.35343310546875,-0.02353132888674736,-0.1385195255279541,0.4287055730819702
1790763744140471800,2.363471923828125,0.02328278310596943,1.0934481620788574,0.7937557101249695
1790763744150510000,2.373510009765625,-0.023493777960538864,0.8201082348823547,0.4952414631843567
1790763744160548900,2.383548828125,-0.03679223731160164,0.27834218740463257,0.06766252964735031
1790763744170587100,2.393587158203125,0.030131135135889053,-0.06820804625749588,-0.2762224078178406
1790763744180626000,2.4036259765625,0.04063720256090164,-0.22502057254314423,-0.49969953298568726
1790763744190664000,2.413663818359375,-0.029016442596912384,-0.825178861618042,-0.25538673996925354
1790763744200703000,2.423702880859375,0.02521381713449955,-0.06125970184803009,-0.010405568405985832
1790763744210741800,2.43374169921875,-0.04008183255791664,0.1968109905719757,0.17684820294380188
1790763744220779800,2.44377978515625,-0.03815796226263046,0.09892730414867401,0.07402702420949936
1790763744230818800,2.45381884765625,-0.024448012933135033,0.029524795711040497,-0.02621968649327755
1790763744240856600,2.463856689453125,-0.019989393651485443,-0.017740890383720398,-0.1145353615283966
1790763744250895600,2.4738955078125,-0.00397580536082387,-0.03765946999192238,-0.08055849373340607
1790763744260933600,2.48393359375,-0.028697267174720764,-0.016266798600554466,-0.014048897661268711
1790763744270972700,2.49397265625,-0.015564687550067902,-0.0065004536882042885,0.02544977515935898
1790763744281011000,2.504010986328125,0.004642506130039692,0.03170080482959747,0.062122687697410583
1790763744291049700,2.5140498046875,0.016683189198374748,0.04966116324067116,-0.0009867732878774405
1790763744301088800,2.5240888671875,0.03659677505493164,0.0222534891217947,-0.03765808045864105
1790763744311126800,2.534126708984375,0.014565776102244854,0.03741539642214775,0.013670885935425758
1790763744321165800,2.544165771484375,0.005583110265433788,0.04276455566287041,0.03231622278690338
1790763744331203600,2.55420361328125,0.0003856851253658533,0.030233584344387054,-0.028635812923312187
1790763744341243000,2.564242919921875,0.009199309162795544,0.027287116274237633,-0.06296472996473312
1790763744351280600,2.57428076171875,0.03743414208292961,0.05435042455792427,0.0005420704837888479
1790763744361319700,2.584319580078125,0.028751209378242493,0.07716302573680878,0.04831938445568085
1790763744371357700,2.594357666015625,-0.0018106935312971473,0.06977488100528717,-0.03566259890794754
1790763744381396700,2.604396728515625,-0.0121312802657485,0.02944454364478588,-0.14820560812950134
1790763744391434800,2.614434814453125,-0.0033566965721547604,0.013754263520240784,-0.15976931154727936
1790763744401473800,2.624473876953125,0.009154362604022026,0.042761728167533875,-0.10501493513584137
1790763744411512800,2.634512939453125,0.025197511538863182,0.03811930492520332,-0.10139916837215424
1790763744421550800,2.64455078125,0.034967996180057526,0.0031966480892151594,-0.1358051598072052
1790763744431590000,2.65458984375,0.04580492898821831,0.009028971195220947,-0.1177569180727005
1790763744441627600,2.664627685546875,0.04216444864869118,0.013256518170237541,-0.10751782357692719
1790763744451667000,2.6746669921875,0.026004653424024582,0.012340657413005829,-0.09883777797222137
1790763744461704700,2.68470458984375,0.019351232796907425,0.02221096120774746,-0.07276696711778641
1790763744471743700,2.69474365234375,0.012670427560806274,0.0228237546980381,-0.03060859441757202
1790763744481781800,2.70478173828125,-0.0027327786665409803,0.039889413863420486,0.018738344311714172
1790763744491820800,2.71482080078125,-0.0003108999226242304,0.05556158348917961,0.04695799946784973
1790763744501859600,2.724859619140625,0.015417318791151047,0.0659400150179863,0.07848857343196869
1790763744511897900,2.73489794921875,0.015580303966999054,0.07560861855745316,0.07787178456783295
1790763744521936600,2.7449365234375,-0.004339220467954874,0.04759518802165985,0.02190260961651802
1790763744531975000,2.754974853515625,-0.006756305694580078,0.03368150070309639,0.03166655823588371
1790763744542013700,2.765013671875,-0.0007272019283846021,-0.0007870129775255919,0.10619597882032394
1790763744552051700,2.7750517578125,0.014599289745092392,0.07991156727075577,0.18169739842414856
1790763744562090800,2.7850908203125,0.02997281216084957,0.0503622442483902,0.13931132853031158
1790763744572128800,2.795128662109375,0.029264943674206734,0.01201618742197752,0.056848153471946716
1790763744582167800,2.805167724609375,-0.0037825433537364006,0.015346893109381199,0.05353658273816109
1790763744592206600,2.81520654296875,-0.005329573526978493,0.004564818926155567,0.06980210542678833
1790763744602244900,2.825244873046875,-0.022144727408885956,0.0014632032252848148,0.030261823907494545
1790763744612283600,2.83528369140625,-0.02806626632809639,-0.027383625507354736,-0.04849664121866226
1790763744622322000,2.845322021484375,-0.02565053477883339,-0.04464232549071312,-0.07292191684246063
1790763744632360700,2.855360595703125,-0.026170916855335236,-0.0578012689948082,-0.03917460888624191
1790763744642398700,2.865398681640625,-0.053575657308101654,-0.030987640842795372,-0.012434979900717735
1790763744652437800,2.875437744140625,-0.08566781878471375,-0.05968453362584114,-0.04369116947054863
1790763744662475800,2.885475830078125,-0.09709084779024124,-0.08938665688037872,-0.07905802130699158
1790763744672514600,2.8955146484375,-0.10558899492025375,-0.10433897376060486,-0.08029692620038986
1790763744682552800,2.905552734375,-0.08182629197835922,-0.05522653087973595,-0.040169816464185715
1790763744692591600,2.915591552734375,-0.06202009320259094,-0.04964161664247513,-0.03304266557097435
1790763744702630700,2.925630615234375,-0.07378283888101578,-0.1020856574177742,-0.05044080689549446
1790763744712668700,2.935668701171875,-0.07014469802379608,-0.07032479345798492,0.03809145465493202
1790763744722707700,2.945707763671875,-0.12046711146831512,-0.05378932133316994,0.047531209886074066
1790763744732745700,2.955745849609375,-0.10614383220672607,-0.07415477931499481,0.0038337968289852142
1790763744742784800,2.96578466796875,-0.08260340243577957,-0.05856853350996971,-0.019777990877628326
1790763744752822500,2.975822509765625,-0.06755680590867996,-0.046774722635746,-0.0010421199258416891
1790763744762861800,2.98586181640625,-0.06682565808296204,-0.024704894050955772,0.010665113106369972
1790763744772899800,2.99589990234375,-0.07109630852937698,-0.01759185642004013,-0.009755473583936691
1790763744782938600,3.005938720703125,-0.04562026262283325,-0.01635250635445118,-0.01961512863636017
1790763744792978000,3.01597802734375,-0.04176613688468933,-0.008000567555427551,-0.04611651226878166
1790763744803015700,3.026015625,-0.042029932141304016,0.0017150018829852343,-0.08368697017431259
1790763744813054700,3.0360546875,-0.043882694095373154,0.01224300917237997,-0.0849144235253334
1790763744823092700,3.0460927734375,-0.056749165058135986,0.03629379719495773,-0.1022006943821907
1790763744833131800,3.0561318359375,-0.06644333899021149,0.02092655934393406,-0.06934580951929092
1790763744843169800,3.066169677734375,-0.04106714576482773,0.04537656903266907,0.013194611296057701
1790763744853208800,3.076208740234375,-0.008935577236115932,0.043615419417619705,0.07766654342412949
1790763744863246600,3.08624658203125,0.007086344063282013,0.05854582414031029,0.09518831223249435
1790763744873286000,3.096285888671875,0.0058066947385668755,0.044814299792051315,0.059160538017749786
1790763744883325000,3.106324951171875,-0.0011600450379773974,0.09832525998353958,0.05380890145897865
1790763744893362700,3.11636279296875,0.010465717874467373,0.08533089607954025,0.015222893096506596
1790763744903401700,3.126401611328125,0.01780886948108673,0.006757406052201986,0.04515346884727478
1790763744913439700,3.136439697265625,-0.014160782098770142,0.029369240626692772,0.11992411315441132
1790763744923478800,3.146478759765625,-0.03132839500904083,-0.02184246852993965,0.0830003023147583
1790763744933516800,3.156516845703125,-0.042286768555641174,-0.024404697120189667,0.007574786432087421
1790763744943555800,3.166555908203125,-0.043047018349170685,-0.06372374296188354,-0.0847502127289772
1790763744953593900,3.17659375,-0.059841979295015335,-0.07638813555240631,-0.09797041118144989
1790763744963633000,3.1866328125,-0.09974715113639832,-0.07965471595525742,-0.06298816204071045
1790763744973670700,3.196670654296875,-0.10768816620111465,-0.08928178250789642,-0.0799543634057045
1790763744983709700,3.206709716796875,-0.06350869685411453,-0.09465143084526062,-0.10596482455730438
1790763744993748700,3.216748779296875,-0.04026196897029877,-0.1058281883597374,-0.1053783968091011
1790763745003786800,3.226786865234375,-0.05641508102416992,-0.09164303541183472,-0.041954584419727325
1790763745013825500,3.236825439453125,-0.04298849031329155,-0.0695558413863182,0.05074579268693924
1790763745023863800,3.24686376953125,-0.02807016670703888,-0.021135246381163597,0.084274061024189
1790763745033902600,3.256902587890625,0.0010552278254181147,0.033449169248342514,0.13074569404125214
1790763745043940900,3.26694091796875,0.027143195271492004,0.015565173700451851,0.17884303629398346
1790763745053980000,3.27697998046875,0.02469601482152939,0.03523314744234085,0.15809914469718933
1790763745064017700,3.287017578125,0.05163887143135071,0.02659233659505844,0.1606724113225937
1790763745074057000,3.297056884765625,0.04453781992197037,0.0023791419807821512,0.14890657365322113
1790763745084095700,3.307095703125,0.02301802672445774,-0.04073246568441391,0.12038083374500275
1790763745094133800,3.3171337890625,0.017466135323047638,-0.043401218950748444,0.0668981671333313
1790763745104172800,3.3271728515625,0.011206632480025291,-0.27313369512557983,0.011418135836720467
1790763745114210800,3.3372109375,-0.0391116663813591,-0.05598193407058716,-0.08261222392320633
1790763745124249600,3.34724951171875,0.004791777115315199,-0.05307989567518234,-0.18826700747013092
1790763745134288000,3.357287841796875,-0.17421205341815948,-0.14271363615989685,-0.4193989932537079
1790763745144326700,3.36732666015625,-0.046820901334285736,-0.06716414541006088,0.25092780590057373
1790763745154365000,3.377364990234375,-0.08408678323030472,0.2887246906757355,0.2722826302051544
1790763745164403700,3.38740380859375,-0.12182487547397614,1.3516395092010498,0.3419664204120636
1790763745174442800,3.39744287109375,0.00007306714542210102,0.1247216984629631,0.17482297122478485
1790763745184480800,3.407480712890625,0.00460149347782135,-0.25428539514541626,-0.018151380121707916
1790763745194519800,3.417519775390625,-0.041824061423540115,0.023637818172574043,0.0916970893740654
1790763745204557300,3.427557373046875,-0.07830551266670227,0.24635636806488037,0.18714416027069092
1790763745214596600,3.4375966796875,-0.052606001496315,0.18233422935009003,0.24922724068164825
1790763745224634400,3.44763427734375,-0.03239046409726143,0.05645153671503067,0.20819257199764252
1790763745234673400,3.45767333984375,-0.028348583728075027,0.03687410429120064,0.027894971892237663
1790763745244711400,3.46771142578125,-0.0305513683706522,0.022528592497110367,-0.0633930042386055
1790763745254750500,3.47775048828125,-0.03452347218990326,-0.010825634934008121,-0.07271832972764969
1790763745264788500,3.48778857421875,0.005206812173128128,-0.05444088578224182,-0.011866840533912182
1790763745274827500,3.49782763671875,-0.01539247203618288,-0.022015303373336792,0.027874181047081947
1790763745284866600,3.507866455078125,-0.003544533159583807,0.016888674348592758,-0.0028996749315410852
1790763745294904600,3.517904541015625,0.025459954515099525,0.022114062681794167,-0.0067082615569233894
1790763745304943600,3.527943603515625,0.032333388924598694,0.07301358878612518,0.04872265085577965
1790763745314981400,3.5379814453125,0.02863825485110283,0.11773259192705154,0.09772267937660217
1790763745325020700,3.548020751953125,0.001786871813237667,0.11159715801477432,0.10701174288988113
1790763745335058400,3.558058349609375,-0.024443931877613068,0.09948883205652237,0.06578841060400009
1790763745345097500,3.568097412109375,-0.03227241709828377,0.08471512049436569,0.028671052306890488
1790763745355135500,3.578135498046875,0.0009843399748206139,0.07426594197750092,0.051704466342926025
1790763745365174500,3.588174560546875,0.030794136226177216,0.0850844755768776,0.066498763859272
1790763745375213600,3.598213623046875,0.02324221096932888,0.1345505565404892,0.03679918870329857
1790763745385251600,3.60825146484375,0.019571248441934586,0.12791018187999725,-0.01612238772213459
1790763745395290600,3.61829052734375,0.02368077263236046,0.09109438955783844,-0.0581476055085659
1790763745405328600,3.62832861328125,0.021150898188352585,0.06500129401683807,-0.04143858700990677
1790763745415367700,3.63836767578125,0.003495205892249942,0.04108211398124695,-0.024610871449112892
1790763745425405400,3.648405517578125,-0.016146574169397354,0.009971341118216515,-0.05988392233848572
1790763745435444500,3.658444580078125,-0.013651990331709385,0.003791209077462554,-0.07682429254055023
1790763745445482500,3.668482421875,-0.01061903778463602,0.03431147709488869,-0.045630767941474915
1790763745455521500,3.678521484375,-0.002315301913768053,0.03096281737089157,-0.006336626596748829
1790763745465560300,3.688560302734375,0.012341100722551346,0.04286079481244087,0.03138417750597
1790763745475598600,3.6985986328125,0.04120231047272682,0.02883232571184635,-0.002738636452704668
1790763745485637400,3.708637451171875,0.02744169533252716,0.05866740643978119,-0.059492237865924835
1790763745495675600,3.718675537109375,0.029535207897424698,-0.005532083101570606,-0.0808904692530632
1790763745505714400,3.72871435546875,-0.040769390761852264,0.0033299291972070932,-0.044444724917411804
1790763745515752400,3.73875244140625,-0.05702852085232735,-0.002814249834045768,0.051286060363054276
1790763745525791500,3.74879150390625,-0.03223365545272827,0.03363053873181343,0.09759437292814255
1790763745535829500,3.75882958984375,-0.0072500091046094894,0.02050541527569294,0.12119530886411667
1790763745545868300,3.768868408203125,-0.0016213493654504418,0.03015056811273098,0.11389121413230896
1790763745555907600,3.778907470703125,0.005957474932074547,0.0032726144418120384,0.09692394733428955
1790763745565945300,3.7889453125,0.002944190753623843,-0.001617352245375514,0.05634257197380066
1790763745575984400,3.798984375,0.012537695467472076,-0.01960434392094612,0.01056097075343132
1790763745586022700,3.809022705078125,0.014265365898609161,-0.017380941659212112,0.04175780341029167
1790763745596061400,3.8190615234375,0.024563010782003403,-0.012443174608051777,0.062052689492702484
1790763745606099700,3.829099609375,0.008860045112669468,0.014112541452050209,0.04757625609636307
1790763745616138500,3.839138427734375,0.012608444318175316,0.02724272571504116,0.08645415306091309
1790763745626176500,3.849176513671875,0.02372383140027523,0.05105043202638626,0.11001942306756973
1790763745636215600,3.859215576171875,0.057394180446863174,0.05556262657046318,0.07613842189311981
1790763745646254600,3.869254638671875,0.0567702054977417,0.074434794485569,0.04818081855773926
1790763745656292400,3.879292236328125,0.07381922751665115,0.07152742147445679,0.08479715883731842
1790763745666331600,3.88933154296875,0.0827224850654602,0.09370352327823639,0.1299975961446762
1790763745676369400,3.899369384765625,0.08432410657405853,0.10975812375545502,0.08280611038208008
1790763745686408400,3.909408447265625,0.06037374213337898,0.10721339285373688,-0.008193133398890495
1790763745696446500,3.919446533203125,0.050945889204740524,0.09167970716953278,-0.05763045698404312
1790763745706485500,3.929485595703125,0.024133143946528435,0.07726271450519562,-0.0421941839158535
1790763745716523500,3.9395234375,0.030580392107367516,0.05465061590075493,-0.007576552219688892
1790763745726562600,3.9495625,0.018460381776094437,0.01677350141108036,-0.05893274396657944
1790763745736601600,3.9596015625,0.0027309551369398832,-0.03721383213996887,-0.1521977037191391
1790763745746639600,3.9696396484375,-0.008999630808830261,-0.0619349405169487,-0.15046508610248566
1790763745756678700,3.9796787109375,-0.04986210912466049,-0.04441720247268677,-0.08873912692070007
1790763745766716400,3.98971630859375,-0.08133645355701447,-0.05898652225732803,-0.09392637759447098
1790763745776755500,3.99975537109375,-0.08150795102119446,-0.07837140560150146,-0.09313008934259415
1790763745786793500,4.00979345703125,-0.08841332793235779,-0.0674745962023735,-0.04209624230861664
1790763745796832500,4.01983251953125,-0.09925612807273865,-0.05174623057246208,0.007492613047361374
1790763745806870500,4.02987060546875,-0.10622246563434601,-0.04758840426802635,-0.022837530821561813
1790763745816909600,4.03990966796875,-0.04581771045923233,-0.053557880222797394,-0.04032011702656746
1790763745826948400,4.0499482421875,-0.06305061280727386,-0.0552714467048645,-0.08128441125154495
1790763745836986600,4.059986572265625,0.009376979433000088,-0.0925663560628891,-0.06221697852015495
1790763745847025400,4.070025390625,0.002720713149756193,-0.06849861145019531,-0.021143369376659393
1790763745857063400,4.0800634765625,-0.015984797850251198,-0.06072191148996353,-0.04267236217856407
1790763745867102700,4.090102783203125,-0.016480928286910057,-0.034823592752218246,-0.054717469960451126
1790763745877140500,4.100140380859375,0.00007354747503995895,-0.0009143620263785124,-0.041710324585437775
1790763745887179500,4.110179443359375,-0.0057573155499994755,-0.0013380390591919422,-0.04437926411628723
1790763745897217500,4.120217529296875,0.0038023674860596657,0.00642001535743475,-0.012208014726638794
1790763745907256600,4.130256591796875,0.013396473601460457,0.012625433504581451,0.030115243047475815
1790763745917295400,4.14029541015625,-0.0026381523348391056,0.02507011778652668,0.028195103630423546
1790763745927333600,4.150333740234375,-0.0015652563888579607,0.02472490258514881,0.0026706992648541927
1790763745937372400,4.160372314453125,-0.18042421340942383,-0.1434771567583084,-0.20872490108013153
1790763745947410700,4.17041064453125,-0.1770823895931244,-0.046604543924331665,-0.24493949115276337
1790763745957449500,4.180449462890625,-0.09524799138307571,-0.15912576019763947,-0.08956801146268845
1790763745967487500,4.190487548828125,-0.17323651909828186,-0.11475110799074173,-0.0834837481379509
1790763745977526500,4.200526611328125,-0.34458136558532715,-0.15688684582710266,-0.07584527134895325
1790763745987564500,4.210564453125,-0.5203597545623779,-0.10971903055906296,-0.05879670009016991
1790763745997603300,4.220603271484375,-0.7392987608909607,0.0133240707218647,-0.13488107919692993
1790763746007642600,4.230642578125,-0.9268097877502441,0.014230571687221527,-0.22176197171211243
1790763746017680400,4.240680419921875,-0.7859985828399658,-0.13267524540424347,-0.21343374252319336
1790763746027719400,4.250719482421875,-0.7683576941490173,-0.15429309010505676,-0.13846518099308014
1790763746037757400,4.26075732421875,-0.9963011145591736,-0.07258890569210052,0.028431929647922516
1790763746047796500,4.27079638671875,-1.2501959800720215,0.08483274281024933,-0.06300967931747437
1790763746057834500,4.28083447265625,-0.8360452055931091,-0.04454469308257103,0.07380063086748123
1790763746067873500,4.29087353515625,-0.6343225836753845,-0.05297087877988815,0.14209716022014618
1790763746077911600,4.30091162109375,-0.680622398853302,-0.0181183572858572,0.10115557909011841
1790763746087950600,4.31095068359375,-0.5153554081916809,0.07456417381763458,-0.004081094171851873
1790763746097989600,4.32098974609375,-0.18495060503482819,-0.10257971286773682,-0.0015287206042557955
1790763746108027400,4.33102734375,-0.12045952677726746,-0.06673865020275116,0.1161797046661377
1790763746118066400,4.34106640625,0.0018805023282766342,-0.09179873019456863,0.025072967633605003
1790763746128104400,4.3511044921875,0.006885669194161892,-0.051332443952560425,0.0860421434044838
1790763746138143500,4.3611435546875,-0.0029773476999253035,-0.032207220792770386,0.050838351249694824
1790763746148181500,4.371181396484375,-0.03593496233224869,-0.017433080822229385,0.037761200219392776
1790763746158220500,4.381220458984375,-0.059376105666160583,-0.016092179343104362,0.011719748377799988
1790763746168258300,4.39125830078125,-0.07293018698692322,-0.03793769329786301,-0.05524502694606781
1790763746178297600,4.401297607421875,-0.08207574486732483,-0.07165703922510147,-0.094147689640522
1790763746188336600,4.411336669921875,-0.08495873957872391,-0.0854475125670433,-0.0955512523651123
1790763746198374400,4.42137451171875,-0.08822403848171234,-0.08896900713443756,-0.08014833182096481
1790763746208413700,4.43141357421875,-0.07093819230794907,-0.09926506876945496,-0.06438439339399338
1790763746218451700,4.44145166015625,-0.06037475913763046,-0.08454205095767975,-0.049997467547655106
1790763746228490500,4.451490478515625,-0.05385836213827133,-0.05199802666902542,-0.017226457595825195
1790763746238528800,4.46152880859375,-0.0356639139354229,-0.017357226461172104,0.008705807849764824
1790763746248567600,4.471567626953125,-0.01668287254869938,0.000901724910363555,0.014893685467541218
1790763746258606600,4.481606689453125,-0.010405270382761955,-0.0027521320153027773,0.04099079966545105
1790763746268644600,4.49164453125,-0.01086727250367403,-0.00966106541454792,0.03471856936812401
1790763746278683600,4.50168359375,-0.006784380413591862,-0.01330533530563116,0.038907453417778015
1790763746288721700,4.5117216796875,0.011798097752034664,-0.016532879322767258,0.06681232154369354
1790763746298760700,4.5217607421875,0.012422076426446438,0.006766583304852247,0.09007316827774048
1790763746308798700,4.531798828125,0.011684578843414783,0.028890598565340042,0.09424923360347748
1790763746318837800,4.541837646484375,0.03382503613829613,0.028362493962049484,0.08747734874486923
1790763746328875800,4.551875732421875,0.059655431658029556,0.01984940841794014,0.08408881723880768
1790763746338914600,4.56191455078125,0.08887723088264465,0.02653713896870613,0.05322171375155449
1790763746348953600,4.57195361328125,0.16097880899906158,0.020839668810367584,0.054754696786403656
1790763746358991600,4.58199169921875,0.3258090317249298,-0.024352310225367546,-0.004596245009452105
1790763746369030700,4.59203076171875,0.4418623149394989,-0.0012717056088149548,-0.1313198059797287
1790763746379068700,4.602068603515625,0.33352091908454895,-0.02856910601258278,-0.15076807141304016
1790763746389107700,4.612107666015625,0.2192758023738861,0.02434234879910946,0.027045385912060738
1790763746399145700,4.622145751953125,0.2998025715351105,0.07422256469726562,0.05405756086111069
1790763746409184800,4.632184814453125,0.5685363411903381,0.04085073620080948,0.012233720161020756
1790763746419222500,4.642222412109375,0.6699721813201904,-0.023482443764805794,0.022122303023934364
1790763746429261600,4.652261474609375,0.7729761004447937,-0.05858241021633148,0.016696318984031677
1790763746439300900,4.66230078125,0.8438750505447388,-0.11372502893209457,-0.010971260257065296
1790763746449338600,4.672338623046875,1.0045781135559082,-0.16568917036056519,-0.025694262236356735
1790763746459377700,4.682377685546875,1.1941752433776855,-0.2317291647195816,-0.043268460780382156
1790763746469415700,4.692415771484375,1.2990264892578125,-0.10105082392692566,0.005851353984326124
1790763746479454700,4.702454833984375,1.3272587060928345,0.241256982088089,0.12831975519657135
1790763746489492700,4.71249267578125,1.6459168195724487,-0.19291923940181732,0.2520321011543274
1790763746499531800,4.72253173828125,1.9077763557434082,-0.5608362555503845,0.09957651048898697
1790763746509569500,4.732569580078125,2.1702167987823486,-0.8260828256607056,0.2850174307823181
1790763746519608800,4.74260888671875,2.3313658237457275,0.011183586902916431,0.12588265538215637
1790763746529647600,4.752647705078125,1.8975307941436768,-1.3416208028793335,-0.39346861839294434
1790763746539685600,4.762685546875,1.6633217334747314,0.29397401213645935,0.033602274954319
1790763746549724700,4.772724609375,0.7702596187591553,-0.5985382795333862,-0.10689134150743484
1790763746559762700,4.7827626953125,0.11475984007120132,-0.38969504833221436,-0.15629591047763824
1790763746569801500,4.792801513671875,-0.13257072865962982,-0.03576325252652168,-0.20214107632637024
1790763746579839700,4.80283984375,-0.15311995148658752,0.010616227984428406,-0.12658320367336273
1790763746589878500,4.81287841796875,-0.18511101603507996,0.03556210920214653,-0.09087098389863968
1790763746599917600,4.82291748046875,-0.16338761150836945,0.008703598752617836,-0.10772240161895752
1790763746609955800,4.832955810546875,-0.13687017560005188,-0.040963366627693176,-0.13377010822296143
1790763746619994600,4.84299462890625,-0.1325412094593048,-0.08907949924468994,-0.1333639770746231
1790763746630033000,4.853032958984375,-0.14546377956867218,-0.1115785613656044,-0.12104880809783936
1790763746640071700,4.86307177734375,-0.15815401077270508,-0.12523286044597626,-0.12184721976518631
1790763746650109700,4.873109619140625,-0.21917906403541565,-0.12302147597074509,-0.1341332197189331
1790763746660148700,4.883148681640625,-0.26769307255744934,-0.10812854766845703,-0.19159863889217377
1790763746670186800,4.893186767578125,-0.25697991251945496,-0.08985356241464615,-0.19024544954299927
1790763746680225500,4.9032255859375,-0.12754923105239868,-0.10832497477531433,-0.13300053775310516
1790763746690264600,4.9132646484375,-0.11397213488817215,-0.10641813278198242,-0.11138036847114563
1790763746700302600,4.923302490234375,-0.13316313922405243,-0.08168455213308334,-0.09879612922668457
1790763746710341600,4.933341552734375,-0.14046670496463776,-0.0654742568731308,-0.0885583758354187
1790763746720379600,4.943379638671875,-0.1408722996711731,-0.03971589729189873,-0.05775225907564163
1790763746730418700,4.953418701171875,-0.07651763409376144,-0.03794529289007187,-0.03689958527684212
1790763746740456700,4.963456787109375,-0.0633283331990242,-0.07321779429912567,-0.045436084270477295
1790763746750495700,4.973495849609375,-0.0647108182311058,-0.09284818172454834,-0.04476969689130783
1790763746760533500,4.983533447265625,-0.0594625286757946,-0.07812169939279556,-0.022836435586214066
1790763746770572500,4.993572509765625,-0.06938982754945755,-0.0367785282433033,0.0017770484555512667
1790763746780611800,5.00361181640625,-0.08445000648498535,-0.011744015850126743,0.001703012501820922
1790763746790649600,5.013649658203125,-0.07245922088623047,-0.014338473789393902,-0.006423605605959892
1790763746800688600,5.023688720703125,-0.03034452348947525,-0.0004705952014774084,-0.0023191417567431927
1790763746810726700,5.0337265625,-0.0021990532986819744,-0.0020819236524403095,-0.012836143374443054
1790763746820765700,5.043765625,-0.0008166064508259296,-0.024728380143642426,-0.03759501874446869
1790763746830803700,5.0538037109375,-0.04050768166780472,-0.032106224447488785,-0.05927030369639397
1790763746840842800,5.0638427734375,-0.03842988237738609,0.03458225727081299,-0.04386231675744057
1790763746850881500,5.073881591796875,-0.0018156158039346337,0.04606099799275398,-0.07106487452983856
1790763746860919800,5.083919921875,-0.02404715307056904,0.11509332805871964,-0.06354810297489166
1790763746870958600,5.09395849609375,-0.028142422437667847,0.10243050009012222,-0.10246042162179947
1790763746880996600,5.10399658203125,-0.008315986022353172,0.08806674182415009,-0.07826267927885056
1790763746891035600,5.11403564453125,0.006490577943623066,0.04893166571855545,-0.07866442948579788
1790763746901073700,5.12407373046875,-0.0013042278587818146,0.013788593001663685,-0.09489879757165909
1790763746911112700,5.13411279296875,0.013298211619257927,-0.00425694091245532,-0.07383021712303162
1790763746921150700,5.144150634765625,0.03250013291835785,0.02931193821132183,-0.061608441174030304
1790763746931189800,5.154189697265625,0.039502307772636414,0.05640648305416107,-0.03197798877954483
1790763746941228500,5.164228515625,0.02148948609828949,0.05258537828922272,-0.02818991057574749
1790763746951266800,5.174266845703125,-0.013710174709558487,0.0651773065328598,-0.022082027047872543
1790763746961305600,5.1843056640625,-0.04286326467990875,0.05757478252053261,0.003905364079400897
1790763746971344000,5.19434375,-0.05702587962150574,0.03261848911643028,0.0327448844909668
1790763746981382700,5.204382568359375,-0.05396244302392006,0.008545374497771263,0.07663111388683319
1790763746991420700,5.214420654296875,-0.050685908645391464,0.003529420355334878,0.11910100281238556
1790763747001459700,5.224459716796875,-0.04011475667357445,-0.00762549601495266,0.1342669129371643
1790763747011498800,5.234498779296875,-0.02568206749856472,0.0021702409721910954,0.14994767308235168
1790763747021536500,5.24453662109375,-0.014408905059099197,-0.006874386221170425,0.1389290988445282
1790763747031575600,5.254575439453125,-0.027103988453745842,-0.02698742225766182,0.09457224607467651
1790763747041613600,5.264613525390625,-0.05898549035191536,-0.010102183558046818,0.044281646609306335
1790763747051652600,5.274652587890625,-0.07642468810081482,-0.020138714462518692,0.006578373722732067
1790763747061690600,5.284690673828125,-0.0885564535856247,-0.021486274898052216,-0.013639546930789948
1790763747071729700,5.294729736328125,-0.08902615308761597,-0.03965597599744797,-0.02686305344104767
1790763747081767700,5.304767578125,-0.08945225924253464,-0.04699298366904259,-0.05722282454371452
1790763747091806700,5.314806640625,-0.07860331982374191,-0.05795840546488762,-0.07901936024427414
1790763747101845800,5.324845703125,-0.07259096950292587,-0.053006790578365326,-0.08995136618614197
1790763747111883500,5.334883544921875,-0.07033194601535797,-0.04964931309223175,-0.0922626480460167
1790763747121922800,5.3449228515625,-0.07223904132843018,-0.043299540877342224,-0.10143297910690308
1790763747131960600,5.354960693359375,-0.06379052996635437,-0.028028979897499084,-0.09123331308364868
1790763747141999600,5.36499951171875,-0.054901428520679474,-0.017317479476332664,-0.07924456149339676
1790763747152037600,5.37503759765625,-0.04376603290438652,0.0009971573017537594,-0.07237269729375839
1790763747162076700,5.38507666015625,-0.02367674559354782,0.02923811599612236,-0.04119560122489929
1790763747172115500,5.395115478515625,-0.004123328253626823,0.04128342494368553,0.003045163117349148
1790763747182153700,5.40515380859375,-0.003969930112361908,0.04778207093477249,0.024973364546895027
1790763747192192500,5.415192626953125,-0.015444958582520485,0.04092363268136978,0.053178638219833374
1790763747202230800,5.425230712890625,-0.0401977077126503,0.032951194792985916,0.05786207318305969
1790763747212269800,5.435269775390625,-0.04687736928462982,0.015360405668616295,0.059382617473602295
1790763747222307600,5.4453076171875,-0.020070258527994156,-0.027289586141705513,0.08790001273155212
1790763747232347000,5.455346923828125,0.0019043264910578728,-0.030982958152890205,0.10300406813621521
1790763747242384600,5.465384521484375,-0.011053282767534256,-0.0044203223660588264,0.11420346051454544
1790763747252423700,5.475423583984375,-0.046906616538763046,0.010708504356443882,0.11461730301380157
1790763747262463000,5.485462890625,-0.06627711653709412,-0.004076301120221615,0.09221293032169342
1790763747272500700,5.495500732421875,-0.06137244403362274,-0.01882294937968254,0.049497928470373154
1790763747282539800,5.505539794921875,-0.04916078597307205,-0.02760579064488411,0.010192068293690681
1790763747292577800,5.515577880859375,-0.066102996468544,-0.0503062829375267,-0.0454774871468544
1790763747302616800,5.525616943359375,-0.07832104712724686,-0.08436864614486694,-0.07961016148328781
1790763747312654800,5.53565478515625,-0.06724239140748978,-0.09447002410888672,-0.06883871555328369
1790763747322694000,5.54569384765625,-0.0377098023891449,-0.08879003673791885,-0.043181560933589935
1790763747332732700,5.555732666015625,-0.022156350314617157,-0.07888376712799072,-0.003749685827642679
1790763747342770700,5.565770751953125,-0.015325608663260937,-0.08208328485488892,0.028964051976799965
1790763747352809700,5.575809814453125,-0.023696351796388626,-0.04621535539627075,0.07741890847682953
1790763747362847700,5.58584765625,-0.036385782063007355,-0.03616272285580635,0.08980260789394379
1790763747372886800,5.59588671875,-0.04488779604434967,-0.12448589503765106,0.06354658305644989
1790763747382924800,5.6059248046875,-0.10374338924884796,-0.10172411799430847,0.015463211573660374
1790763747392963600,5.615963623046875,-0.14084680378437042,-0.10500354319810867,0.026012107729911804
1790763747403002600,5.626002685546875,-0.2657221853733063,-0.35178351402282715,0.050215981900691986
1790763747413040600,5.63604052734375,-0.6912842392921448,-0.9128011465072632,0.06674166768789291
1790763747423079700,5.64607958984375,-0.6931069493293762,-0.3597792088985443,0.09276740998029709
1790763747433118000,5.656117919921875,-0.454010009765625,-0.06336218863725662,0.1310812085866928
1790763747443156700,5.66615673828125,-0.25053492188453674,-0.015399722382426262,0.12454340606927872
1790763747453194800,5.67619482421875,-0.13126540184020996,0.026149265468120575,0.05994388833642006
1790763747463233800,5.68623388671875,-0.04931620880961418,0.049974169582128525,0.011368895880877972
1790763747473271800,5.696271728515625,0.006455524824559689,0.04443012923002243,-0.023618772625923157
1790763747483310600,5.706310546875,0.023001212626695633,0.036099232733249664,-0.0301352608948946
1790763747493350000,5.716349853515625,0.010674260556697845,0.050511013716459274,-0.012508763000369072
1790763747503387600,5.7263876953125,-0.03186068311333656,0.09589207172393799,0.002182831522077322
1790763747513426700,5.7364267578125,-0.10313335061073303,0.13724690675735474,-0.004359094426035881
1790763747523464700,5.746464599609375,-0.16916723549365997,0.14571256935596466,-0.012575212866067886
1790763747533503700,5.756503662109375,-0.15604807436466217,0.11655185371637344,-0.025352083146572113
1790763747543541800,5.766541748046875,-0.08671268820762634,0.09809588640928268,-0.017169253900647163
1790763747553580800,5.776580810546875,-0.02652159333229065,0.10110453516244888,-0.030019685626029968
1790763747563619800,5.786619873046875,-0.018329178914427757,0.11138460040092468,-0.03936365246772766
1790763747573657900,5.796657958984375,-0.02577945776283741,0.09452672302722931,-0.05734012648463249
1790763747583697000,5.80669677734375,-0.05383000150322914,0.08078188449144363,-0.04382724687457085
1790763747593734700,5.816734619140625,-0.15660503506660461,0.08957710862159729,-0.04839629307389259
1790763747603774000,5.82677392578125,-0.21361905336380005,0.01693485863506794,-0.06081221625208855
1790763747613811700,5.836811767578125,-0.19774003326892853,0.018009580671787262,-0.04095156490802765
1790763747623850800,5.846850830078125,-0.24540822207927704,-0.01936415582895279,-0.05394779145717621
1790763747633888800,5.856888671875,-0.3178408741950989,0.018990423530340195,-0.06758850812911987
1790763747643927800,5.866927734375,-0.2902640998363495,0.03075067326426506,-0.04155583679676056
1790763747653966600,5.876966552734375,-0.2474060207605362,0.06648518145084381,-0.00666099414229393
1790763747664004900,5.8870048828125,-0.259095162153244,0.0424799844622612,0.017510920763015747
1790763747674043600,5.897043701171875,-0.2631334066390991,-0.016352836042642593,0.036090586334466934
1790763747684082000,5.90708203125,-0.20077495276927948,-0.07966282963752747,0.0717226192355156
1790763747694120700,5.91712060546875,-0.0756707713007927,-0.0235989261418581,0.10548356175422668
1790763747704158700,5.92715869140625,-0.05987103655934334,0.002369024557992816,0.08119020611047745
1790763747714197800,5.93719775390625,-0.24388693273067474,-0.06656002998352051,0.0362943597137928
1790763747724236800,5.94723681640625,-0.32187071442604065,-0.10196356475353241,0.0022599624935537577
1790763747734274800,5.95727490234375,-0.21232196688652039,-0.03051571547985077,0.013675679452717304
1790763747744313600,5.967313720703125,-0.12889045476913452,-0.008608818985521793,-0.009758539497852325
1790763747754351900,5.977351806640625,-0.08384058624505997,-0.024912357330322266,-0.03474752604961395
1790763747764390700,5.987390625,-0.061751533299684525,-0.026651669293642044,-0.04827851429581642
1790763747774429000,5.997428955078125,-0.04565274715423584,-0.03179298713803291,-0.052036069333553314
1790763747784467700,6.0074677734375,-0.04003960266709328,-0.03995024785399437,-0.055238787084817886
1790763747794506800,6.0175068359375,-0.046822305768728256,-0.034796226769685745,-0.04812763258814812
1790763747804544800,6.027544677734375,-0.047528043389320374,-0.027107413858175278,-0.029171518981456757
1790763747814583800,6.037583740234375,-0.03754351660609245,-0.007142567075788975,0.00006176577880978584
1790763747824621600,6.04762158203125,-0.024794435128569603,0.006703473627567291,0.028036141768097878
1790763747834660900,6.057660888671875,-0.008599835447967052,0.015174325555562973,0.062620609998703
1790763747844698600,6.06769873046875,-0.0038671318907290697,0.01672854647040367,0.07993808388710022
1790763747854737700,6.077737548828125,0.00112244114279747,0.027572374790906906,0.09003698080778122
1790763747864775700,6.087775634765625,-0.003936233464628458,0.04010893777012825,0.083489328622818
1790763747874814700,6.097814697265625,-0.02748175337910652,0.06312018632888794,0.06975844502449036
1790763747884853800,6.107853759765625,-0.052951157093048096,0.06834131479263306,0.04732291027903557
1790763747894891800,6.117891845703125,-0.06792102754116058,0.06816098839044571,0.011273922398686409
1790763747904930800,6.127930908203125,-0.062463149428367615,0.04491344839334488,0.010679771192371845
1790763747914968800,6.13796875,-0.043256741017103195,0.04018830135464668,0.03428822383284569
1790763747925008000,6.1480078125,-0.016250424087047577,-0.0052529494278132915,0.01577712595462799
1790763747935045600,6.158045654296875,-0.005124309565871954,-0.016078926622867584,0.00728489737957716
1790763747945085000,6.1680849609375,-0.004617510363459587,0.031628143042325974,0.04096962511539459
1790763747955123700,6.178123779296875,0.00020574103109538555,0.07799111306667328,0.08401349931955338
1790763747965161700,6.18816162109375,-0.019038604572415352,0.06754733622074127,0.035685233771800995
1790763747975200800,6.19820068359375,-0.07365138083696365,0.07137905806303024,0.0511527955532074
1790763747985238800,6.20823876953125,-0.10915158689022064,0.10475406050682068,0.13102686405181885
1790763747995277600,6.218277587890625,-0.11902002990245819,0.039036620408296585,0.12864920496940613
1790763748005315800,6.22831591796875,-0.15908648073673248,0.028760015964508057,0.10777907818555832
1790763748015355000,6.23835498046875,-0.21581430733203888,0.011324969120323658,0.11937753856182098
1790763748025393700,6.2483935546875,-0.2448645979166031,-0.01727684773504734,0.12373340129852295
1790763748035432000,6.258431884765625,-0.25020554661750793,-0.03615005314350128,0.13652732968330383
1790763748045470700,6.268470703125,-0.2454240918159485,-0.04829540103673935,0.1135019063949585
1790763748055508700,6.2785087890625,-0.23619239032268524,-0.08343145996332169,0.05461336672306061
1790763748065547800,6.2885478515625,-0.22237884998321533,-0.08103754371404648,0.0607072189450264
1790763748075585800,6.298585693359375,-0.2201111614704132,-0.10014444589614868,0.07162857055664062
1790763748085624600,6.30862451171875,-0.216315358877182,-0.12620428204536438,0.07165040820837021
1790763748095663900,6.318663818359375,-0.2065540999174118,-0.14353035390377045,0.06268157809972763
1790763748105701600,6.32870166015625,-0.1976708620786667,-0.15403546392917633,0.022573305293917656
1790763748115740700,6.33874072265625,-0.16491708159446716,-0.1558227390050888,0.030210604891180992
1790763748125778700,6.34877880859375,-0.10436292737722397,-0.16549426317214966,0.014402879402041435
1790763748135817700,6.358817626953125,-0.06549182534217834,-0.14348679780960083,-0.022522198036313057
1790763748145855700,6.368855712890625,-0.045924779027700424,-0.12785322964191437,0.02475743368268013
1790763748155894800,6.378894775390625,-0.039643771946430206,-0.12535323202610016,0.054811686277389526
1790763748165932500,6.3889326171875,-0.029872100800275803,-0.11551231890916824,0.06539003551006317
1790763748175971800,6.398971923828125,-0.013071160763502121,-0.107107013463974,0.031120821833610535
1790763748186011000,6.409010986328125,0.012700514867901802,-0.09156960248947144,0.052955012768507004
1790763748196048600,6.419048583984375,0.049473851919174194,-0.06705843657255173,0.08726418018341064
1790763748206088000,6.429087890625,0.09200692921876907,-0.04911778122186661,0.10723522305488586
1790763748216125400,6.43912548828125,0.120486319065094,-0.02370358258485794,0.11288819462060928
1790763748226164500,6.44916455078125,0.14521244168281555,-0.0014573987573385239,0.10063418745994568
1790763748236202500,6.459202392578125,0.16973116993904114,0.027071168646216393,0.1267973929643631
1790763748246241500,6.469241455078125,0.17181189358234406,0.07079814374446869,0.16851207613945007
1790763748256280600,6.479280517578125,0.16052162647247314,0.11647231876850128,0.15667934715747833
1790763748266318600,6.489318603515625,0.1572323590517044,0.16697809100151062,0.13817596435546875
1790763748276357600,6.499357666015625,0.17024211585521698,0.2285696566104889,0.10624392330646515
1790763748286395600,6.509395751953125,0.19957870244979858,0.25129520893096924,0.04287507385015488
1790763748296434700,6.5194345703125,0.20281659066677094,0.2909468710422516,0.04388105496764183
1790763748306472400,6.529472412109375,0.20453061163425446,0.3135454058647156,0.03881252557039261
1790763748316511700,6.53951171875,0.19655542075634003,0.3098275065422058,-0.040017712861299515
1790763748326550500,6.549550537109375,0.17952077090740204,0.31109410524368286,-0.10004110634326935
1790763748336588500,6.559588623046875,0.18783040344715118,0.31697002053260803,-0.10238874703645706
1790763748346627600,6.569627685546875,0.19749023020267487,0.3316565454006195,-0.08395621180534363
1790763748356665600,6.57966552734375,0.21259944140911102,0.32781603932380676,-0.1000695675611496
1790763748366704400,6.589704345703125,0.21163883805274963,0.32964375615119934,-0.11108759790658951
1790763748376742700,6.59974267578125,0.20197072625160217,0.3270093500614166,-0.0785374790430069
1790763748386781400,6.609781494140625,0.18150566518306732,0.3089379370212555,-0.030020538717508316
1790763748396820500,6.619820556640625,0.16195063292980194,0.2795199751853943,0.009736833162605762
1790763748406858500,6.6298583984375,0.15648208558559418,0.2526273727416992,0.04243539273738861
1790763748416897500,6.6398974609375,0.15169785916805267,0.2262067198753357,0.049265678972005844
1790763748426935600,6.649935546875,0.1407911479473114,0.20444123446941376,0.0634177178144455
1790763748436974600,6.659974609375,0.11997296661138535,0.19162386655807495,0.07483931630849838
1790763748447012600,6.6700126953125,0.09615498036146164,0.18092595040798187,0.06693904846906662
1790763748457051400,6.680051513671875,0.07371129840612411,0.16083265841007233,0.05985875427722931
1790763748467090700,6.690090576171875,0.05541431903839111,0.14582228660583496,0.035876721143722534
1790763748477128400,6.70012841796875,0.04219871014356613,0.12480460107326508,0.010775401256978512
1790763748487167500,6.71016748046875,0.03203795105218887,0.08977870643138885,0.005130299367010593
1790763748497205500,6.72020556640625,0.01611643098294735,0.057674117386341095,-0.002373836934566498
1790763748507244500,6.73024462890625,-0.006200327072292566,0.02441922388970852,-0.030584435909986496
1790763748517282600,6.740282470703125,-0.02855459600687027,0.0017199981957674026,-0.05175449699163437
1790763748527321600,6.750321533203125,-0.042593713849782944,-0.019879035651683807,-0.05853543430566788
1790763748537360400,6.7603603515625,-0.04165181890130043,-0.03991451859474182,-0.04973931610584259
1790763748547398700,6.770398681640625,0.014578696340322495,-0.04038722813129425,0.010380212217569351
1790763748557437700,6.780437744140625,0.02501009590923786,0.06304540485143661,0.032148394733667374
1790763748567475500,6.790475341796875,-0.023240257054567337,0.10337791591882706,-0.0669824555516243
1790763748577514800,6.8005146484375,-0.051859162747859955,0.0045859236270189285,-0.08102256804704666
1790763748587552500,6.810552490234375,-0.08622618764638901,-0.06726323068141937,0.06153510883450508
1790763748597591600,6.820591552734375,-0.04255825653672218,-0.04822889715433121,0.1456645131111145
1790763748607630600,6.830630615234375,0.006666813511401415,-0.049061935395002365,0.07576186209917068
1790763748617668600,6.840668701171875,0.02369324304163456,-0.09880056232213974,-0.036130644381046295
1790763748627707400,6.850707275390625,-0.02132003754377365,-0.09084117412567139,-0.025786930695176125
1790763748637745700,6.86074560546875,-0.05985868349671364,-0.09092050045728683,0.023159099742770195
1790763748647784400,6.870784423828125,-0.08591238409280777,-0.04793068394064903,0.0514511913061142
1790763748657822700,6.88082275390625,-0.0785299763083458,-0.027362732216715813,0.02357916347682476
1790763748667861500,6.890861572265625,-0.050750017166137695,-0.05907219275832176,-0.08073312789201736
1790763748677900500,6.900900634765625,-0.03642050921916962,-0.1354931890964508,-0.12556719779968262
1790763748687938600,6.9109384765625,-0.031225215643644333,-0.20634658634662628,-0.04272264614701271
1790763748697977600,6.9209775390625,-0.032230742275714874,-0.2312094122171402,0.0018281908705830574
1790763748708015400,6.931015380859375,-0.04724431410431862,-0.24054405093193054,-0.06155477464199066
1790763748718054700,6.9410546875,-0.08362407237291336,-0.21259836852550507,-0.04388003796339035
1790763748728092400,6.951092529296875,-0.12937265634536743,-0.13598428666591644,0.058938752859830856
1790763748738131500,6.96113134765625,-0.12158910185098648,-0.13196076452732086,0.004422210622578859
1790763748748169700,6.971169677734375,-0.051552753895521164,-0.17072227597236633,-0.06197119876742363
1790763748758208500,6.98120849609375,0.004474587272852659,-0.20806968212127686,-0.08296266943216324
1790763748768247600,6.99124755859375,-0.03389277309179306,-0.34482166171073914,-0.19247743487358093
1790763748778285600,7.00128564453125,-0.1178983673453331,-0.44500571489334106,-0.07071693241596222
1790763748788324600,7.01132470703125,-0.19168123602867126,-0.5553804039955139,0.23389248549938202
1790763748798362400,7.0213623046875,-0.2775503695011139,-0.5576103925704956,0.31712204217910767
1790763748808401700,7.031401611328125,-0.2982625663280487,-0.46021804213523865,0.13876880705356598
1790763748818440400,7.0414404296875,-0.2296723574399948,-0.20909231901168823,-0.06792092323303223
1790763748828478500,7.051478515625,-0.0531439334154129,0.025453876703977585,-0.13690824806690216
1790763748838517800,7.061517822265625,0.15230382978916168,0.05298088490962982,-0.02536969631910324
1790763748848555500,7.071555419921875,0.21474137902259827,0.15000782907009125,0.12031640112400055
1790763748858594600,7.081594482421875,0.24613948166370392,0.11486387252807617,0.10675681382417679
1790763748868632600,7.091632568359375,0.25518864393234253,0.05618831142783165,0.00016459182370454073
1790763748878671600,7.101671630859375,0.22220930457115173,0.06107594072818756,-0.06615917384624481
1790763748888709600,7.111709716796875,0.1641198992729187,0.032758552581071854,-0.05784665048122406
1790763748898748700,7.121748779296875,0.14573149383068085,0.027237894013524055,-0.0033649138640612364
1790763748908787500,7.131787353515625,0.11801517754793167,0.049143463373184204,0.047120098024606705
1790763748918825700,7.14182568359375,0.09600190073251724,0.05088401213288307,0.028639541938900948
1790763748928864500,7.151864501953125,0.08765661716461182,0.053425997495651245,-0.024688128381967545
1790763748938902500,7.161902587890625,0.09694328159093857,0.07600964605808258,-0.057028695940971375
1790763748948941600,7.171941650390625,0.11469165235757828,0.08711502701044083,-0.062395233660936356
1790763748958979600,7.1819794921875,0.13140685856342316,0.10295994579792023,-0.028172630816698074
1790763748969018400,7.192018310546875,0.12132333219051361,0.13691896200180054,-0.031787075102329254
1790763748979057700,7.2020576171875,0.1037469431757927,0.1468786746263504,-0.12663985788822174
1790763748989095400,7.212095458984375,0.0966634675860405,0.1881350427865982,-0.10888056457042694
1790763748999134500,7.222134521484375,0.10414792597293854,0.21577340364456177,-0.020211027935147285
1790763749009172500,7.23217236328125,0.11945018917322159,0.23372603952884674,-0.0017553218640387058
1790763749019211500,7.24221142578125,0.1370031088590622,0.23097346723079681,-0.02601076103746891
1790763749029249500,7.25224951171875,0.13641828298568726,0.24613484740257263,-0.011082676239311695
1790763749039288600,7.26228857421875,0.11101401597261429,0.24349257349967957,-0.009045330807566643
1790763749049327600,7.27232763671875,0.06859491765499115,0.21040013432502747,-0.07000615447759628
1790763749059365600,7.28236572265625,0.03866318240761757,0.1960851550102234,-0.08020548522472382
1790763749069404700,7.29240478515625,0.03287799656391144,0.18406736850738525,0.053749650716781616
1790763749079442400,7.3024423828125,0.04392271488904953,0.17742358148097992,0.10281123965978622
1790763749089481500,7.3124814453125,0.050877559930086136,0.1492750346660614,0.04339425265789032
1790763749099519500,7.32251953125,0.036321479827165604,0.12839247286319733,0.020951326936483383
1790763749109558500,7.33255859375,-0.010852421633899212,0.13127055764198303,-0.05230211466550827
1790763749119597300,7.342597412109375,-0.04363396763801575,0.13423587381839752,-0.1139998659491539
1790763749129635600,7.352635498046875,-0.03729111701250076,0.14062826335430145,-0.09553004056215286
1790763749139674600,7.362674560546875,-0.018108921125531197,0.13502255082130432,-0.039577387273311615
1790763749149712600,7.372712646484375,-0.018447142094373703,0.12854334712028503,-0.06653203815221786
1790763749159751700,7.382751708984375,-0.0411793515086174,0.08720389753580093,-0.13063140213489532
1790763749169789400,7.39278955078125,-0.07852483540773392,0.08063709735870361,-0.07289503514766693
1790763749179828700,7.402828857421875,-0.11590354889631271,0.05320598930120468,-0.08090300858020782
1790763749189867500,7.412867431640625,-0.10987761616706848,0.02878347411751747,-0.04385737329721451
1790763749199905500,7.422905517578125,-0.09711772203445435,0.0631299838423729,0.07463094592094421
1790763749209944600,7.432944580078125,-0.0831662192940712,0.08028314262628555,0.07834285497665405
1790763749219982800,7.44298291015625,-0.08499874174594879,0.07889775931835175,-0.0005471650511026382
1790763749230021600,7.453021728515625,-0.11168920248746872,0.07175915688276291,-0.11633101850748062
1790763749240060000,7.463059814453125,-0.13771051168441772,0.059665024280548096,-0.12913164496421814
1790763749250098700,7.4730986328125,-0.16026827692985535,0.01762702688574791,0.06664956361055374
1790763749260137700,7.4831376953125,-0.15978343784809113,-0.025273866951465607,0.22214853763580322
1790763749270175700,7.49317578125,-0.1422896534204483,-0.07699831575155258,0.07557667046785355
1790763749280214800,7.50321484375,-0.16847389936447144,-0.09650379419326782,-0.21082361042499542
1790763749290252800,7.513252685546875,-0.220677450299263,-0.007374987937510014,-0.23881502449512482
1790763749300291800,7.523291748046875,-0.22991915047168732,-0.07525656372308731,-0.023945331573486328
1790763749310331000,7.533330810546875,-0.25812044739723206,-0.06359964609146118,0.14890927076339722
1790763749320368600,7.54336865234375,-0.2806907892227173,-0.12651023268699646,-0.024744683876633644
1790763749330408000,7.553407958984375,-0.27741801738739014,-0.18962155282497406,-0.08172807842493057
1790763749340445700,7.56344580078125,-0.26711371541023254,-0.1783461570739746,0.11694154143333435
1790763749350484700,7.573484619140625,-0.26450780034065247,-0.16211631894111633,0.13277801871299744
1790763749360522800,7.583522705078125,-0.2822440564632416,-0.16525352001190186,-0.2642923891544342
1790763749370561800,7.593561767578125,-0.3066506087779999,-0.15095233917236328,-0.44330447912216187
1790763749380600600,7.6036005859375,-0.3278084695339203,-0.15663547813892365,0.020865080878138542
1790763749390638800,7.613638916015625,-0.324691504240036,-0.225627601146698,0.3490687906742096
1790763749400677600,7.623677734375,-0.3180764615535736,-0.278255820274353,0.3563249409198761
1790763749410716000,7.6337158203125,-0.3197039067745209,-0.19176408648490906,-0.013424880802631378
1790763749420754700,7.643754638671875,-0.3237968385219574,-0.2869102954864502,-0.6141381859779358
1790763749430792700,7.653792724609375,-0.2816382050514221,-0.14997509121894836,-0.5763537883758545
1790763749440831700,7.663831787109375,-0.243631049990654,-0.09582248330116272,0.5107184648513794
1790763749450870800,7.673870849609375,-0.2672517001628876,-0.24706393480300903,0.7594675421714783
1790763749460908500,7.683908447265625,-0.2900383472442627,-0.32550248503685,0.5518118739128113
1790763749470947800,7.69394775390625,-0.3024934232234955,-0.3155502676963806,0.43666502833366394
1790763749480985600,7.703985595703125,-0.2855393886566162,-0.22606070339679718,0.27112963795661926
1790763749491024600,7.714024658203125,-0.2476319670677185,-0.18763048946857452,-0.046921029686927795
1790763749501063000,7.72406298828125,-0.22022773325443268,-0.19579961895942688,-0.6653108596801758
1790763749511101700,7.734101806640625,-0.22556044161319733,0.055088259279727936,-1.0146090984344482
1790763749521140700,7.744140625,-0.17255918681621552,-0.0988772064447403,0.07423263788223267
1790763749531178800,7.7541787109375,-0.16888989508152008,0.07823445647954941,0.5229174494743347
1790763749541217800,7.7642177734375,-0.10170584917068481,-0.10995946079492569,0.10007164627313614
1790763749551255800,7.774255859375,-0.08343496918678284,-0.10939114540815353,-0.319089412689209
1790763749561294800,7.784294921875,-0.1352268010377884,-0.025508763268589973,-0.7808465957641602
1790763749571332600,7.79433251953125,-0.10752805322408676,-0.03752201795578003,-0.5545588731765747
1790763749581372000,7.804371826171875,-0.0945301353931427,0.12334810197353363,0.4620301127433777
1790763749591410700,7.81441064453125,-0.07735700160264969,0.011158443987369537,0.624963104724884
1790763749601448700,7.82444873046875,-0.038035448640584946,-0.1178952306509018,0.4351973235607147
1790763749611487700,7.83448779296875,-0.05389297381043434,-0.08129673451185226,0.19823057949543
1790763749621525800,7.84452587890625,-0.07379231601953506,-0.017096668481826782,-0.06079667806625366
1790763749631564800,7.854564697265625,-0.08352430909872055,0.00822253618389368,0.03566861152648926
1790763749641602800,7.864602783203125,-0.12672938406467438,0.08410666137933731,0.14698725938796997
1790763749651641900,7.874641845703125,-0.12292639166116714,0.1281076818704605,-0.16628463566303253
1790763749661680600,7.8846806640625,-0.04655314236879349,0.09779119491577148,-0.42458850145339966
1790763749671719000,7.894718994140625,-0.006300793029367924,0.11666474491357803,-0.2307918667793274
1790763749681757700,7.9047578125,0.02414526417851448,0.07494425773620605,0.058882832527160645
1790763749691795700,7.914795654296875,0.02083016000688076,0.007033915258944035,0.00041632528882473707
1790763749701834800,7.924834716796875,-0.010168911889195442,-0.0070893289521336555,-0.3876546323299408
1790763749711872800,7.934872802734375,-0.03430300951004028,0.06564825773239136,-0.6558429002761841
1790763749721911600,7.94491162109375,-0.029656244441866875,0.03250114619731903,-0.3538765609264374
1790763749731950800,7.954950927734375,-0.03636234998703003,0.09307608008384705,0.3432188928127289
1790763749741988600,7.964988525390625,-0.04341689869761467,-0.08864812552928925,0.57822585105896
1790763749752027600,7.975027587890625,-0.08351451903581619,-0.14231295883655548,0.5161340236663818
1790763749762065700,7.985065673828125,-0.09231273829936981,-0.08016964048147202,0.507537841796875
1790763749772104700,7.995104736328125,-0.04476732760667801,-0.07667424529790878,0.2814871668815613
1790763749782142700,8.005142822265626,0.04629116877913475,-0.13688541948795319,0.016282983124256134
1790763749792181800,8.015181640625,0.1040830984711647,0.03815032169222832,-0.8400987982749939
1790763749802220800,8.025220703125,-0.01682072877883911,-0.10620749741792679,-0.9989821910858154
1790763749812258800,8.0352587890625,-0.11033950001001358,0.05630630999803543,0.5049363374710083
1790763749822297900,8.0452978515625,-0.16274531185626984,-0.2137308567762375,0.8634859323501587
1790763749832335600,8.055335693359375,-0.023111239075660706,-0.35508427023887634,0.47888684272766113
1790763749842375000,8.065375,0.018625309690833092,-0.18752558529376984,-0.13090771436691284
1790763749852412700,8.07541259765625,-0.07832440733909607,-0.5158789753913879,-0.9289553761482239
1790763749862451700,8.08545166015625,-0.11810314655303955,-0.32037732005119324,-0.9358260631561279
1790763749872490800,8.09549072265625,-0.13326531648635864,-0.32166787981987,0.6878100037574768
1790763749882528800,8.10552880859375,-0.24449889361858368,-0.35957857966423035,0.8478124737739563
1790763749892567800,8.11556787109375,-0.27887633442878723,-0.20400282740592957,0.39986613392829895
1790763749902605800,8.125605712890625,-0.311923623085022,-0.2180955857038498,-0.1886974424123764
1790763749912644900,8.135644775390626,-0.24757365882396698,-0.4697725772857666,-0.6666059494018555
1790763749922683600,8.14568359375,-0.14936327934265137,-0.3369007408618927,-0.15141360461711884
1790763749932722000,8.155721923828125,-0.18907341361045837,-0.19312945008277893,0.8343623876571655
1790763749942760700,8.1657607421875,-0.1931995302438736,-0.42419448494911194,0.6282514333724976
1790763749952798700,8.175798828125,-0.25618913769721985,-0.16998590528964996,-0.17449723184108734
1790763749962837800,8.185837646484375,-0.26385927200317383,-0.35133448243141174,-1.1161917448043823
1790763749972875800,8.195875732421875,-0.11259463429450989,-0.3646726608276367,0.021743690595030785
1790763749982914600,8.20591455078125,-0.15699534118175507,-0.21556049585342407,1.0061719417572021
1790763749992953900,8.215953857421875,-0.18706348538398743,-0.3650597035884857,1.096321702003479
1790763750002991600,8.22599169921875,-0.15711131691932678,0.0536411814391613,0.5483144521713257
1790763750013030700,8.23603076171875,-0.20590388774871826,-0.025950847193598747,-0.8014107346534729
1790763750023068700,8.246068603515624,-0.15200220048427582,-0.44469085335731506,-1.6241129636764526
1790763750033107700,8.256107666015625,-0.03908871114253998,-0.18047010898590088,-0.9914677739143372
1790763750043145700,8.266145751953125,0.011653255671262741,0.20531252026557922,0.7431544661521912
1790763750053184800,8.276184814453124,0.08827586472034454,-0.028723154217004776,0.6808274984359741
1790763750063223800,8.286223876953125,0.15658985078334808,-0.002613652031868696,0.4268965423107147
1790763750073261800,8.29626171875,0.23812438547611237,0.2269873172044754,0.18126654624938965
1790763750083300900,8.30630078125,0.3168540596961975,0.3654302954673767,0.2064981907606125
1790763750093338600,8.316338623046875,0.3557226359844208,0.32500672340393066,0.35734468698501587
1790763750103378000,8.3263779296875,0.3468821346759796,0.43311646580696106,0.11854187399148941
1790763750113415700,8.336415771484376,0.3865200877189636,0.42053142189979553,-0.23765991628170013
1790763750123454700,8.346454833984374,0.41481247544288635,0.44810381531715393,0.07934797555208206
1790763750133493800,8.35649365234375,0.4393543004989624,0.47870540618896484,0.41756412386894226
1790763750143531800,8.36653173828125,0.5149500966072083,0.3322623372077942,-0.1521703153848648
1790763750153570600,8.376570556640624,0.4937928318977356,0.37200042605400085,-0.7590122818946838
1790763750163608800,8.38660888671875,0.3961387574672699,0.3686380088329315,-0.3723750114440918
1790763750173647600,8.396647705078125,0.343566358089447,0.49125075340270996,0.0010217259405180812
1790763750183686700,8.406686767578124,0.3301170766353607,0.3039432168006897,-0.023709755390882492
1790763750193725000,8.416724853515625,0.32386744022369385,0.24619600176811218,0.21968531608581543
1790763750203763700,8.426763671875,0.30091315507888794,0.321054071187973,-0.0032889770809561014
1790763750213802200,8.43680224609375,0.26145628094673157,0.3610800504684448,-0.400531142950058
1790763750223841300,8.44684130859375,0.24534854292869568,0.31216272711753845,-0.3765548765659332
1790763750233879300,8.45687939453125,0.2194434404373169,0.4428701400756836,0.07670608162879944
1790763750243918000,8.46691796875,0.2492089718580246,0.4304578900337219,0.4408094882965088
1790763750253957400,8.476957275390625,0.3117716908454895,0.37112957239151,0.46864163875579834
1790763750263995400,8.486995361328125,0.4183333218097687,0.3941742479801178,0.3396386206150055
1790763750274034200,8.4970341796875,0.44889071583747864,0.3089560270309448,-0.04699406027793884
1790763750284072400,8.507072509765624,0.30627793073654175,0.0931655690073967,-0.19110922515392303
1790763750294111200,8.517111328125,-0.013074235990643501,0.1472085565328598,0.18172027170658112
1790763750304149500,8.5271494140625,-0.2161402553319931,-0.03989227116107941,0.4618396461009979
1790763750314188300,8.537188232421874,-0.2609955966472626,-0.13936586678028107,0.3244578242301941
1790763750324227300,8.547227294921875,-0.13581082224845886,-0.2770785391330719,0.018002619966864586
1790763750334265300,8.557265380859375,0.03321681544184685,-0.4456545114517212,-0.008938450366258621
1790763750344304400,8.567304443359374,0.056410934776067734,-0.33741429448127747,-0.08753597736358643
1790763750354342100,8.577342041015624,-0.010658112354576588,-0.14768777787685394,-0.41415297985076904
1790763750364381400,8.58738134765625,-0.22931350767612457,0.09638039767742157,-1.0428495407104492
1790763750374419200,8.597419189453126,-0.4480684995651245,-0.38753247261047363,-0.962108314037323
1790763750384458200,8.607458251953124,-0.5152938365936279,-0.2503862679004669,0.01640665903687477
1790763750394497300,8.617497314453125,-0.4897913932800293,-0.44378262758255005,0.28566476702690125
1790763750404535300,8.627535400390625,-0.40237587690353394,-0.7030307650566101,0.33757761120796204
1790763750414574300,8.63757421875,-0.40354713797569275,-0.5016465187072754,0.17009460926055908
1790763750424612400,8.6476123046875,-0.4768788814544678,-0.40197670459747314,-0.16878971457481384
1790763750434651400,8.6576513671875,-0.5560424327850342,-0.6293035745620728,-0.5320931077003479
1790763750444690200,8.667690185546874,-0.6053193211555481,-0.44781458377838135,-0.39290812611579895
1790763750454728400,8.677728515625,-0.5340344905853271,-0.25566941499710083,0.7129573225975037
1790763750464767200,8.687767333984375,-0.4554062783718109,-0.26504209637641907,0.6428825259208679
1790763750474805200,8.69780517578125,-0.23583769798278809,-0.22130528092384338,0.10232583433389664
1790763750484844300,8.70784423828125,-0.01718330755829811,-0.17500770092010498,0.27716782689094543
1790763750494882300,8.71788232421875,-0.030311094596982002,-0.050642598420381546,0.7421613335609436
1790763750504921000,8.727921142578126,-0.0697723850607872,-0.18418367207050323,0.5011388659477234
1790763750514960400,8.73796044921875,-0.10265149921178818,-0.17919796705245972,0.09569814801216125
1790763750524998100,8.747998046875,-0.10468588769435883,-0.057580187916755676,0.043212033808231354
1790763750535037200,8.758037109375,-0.06514089554548264,-0.018352173268795013,-0.16149967908859253
1790763750545075200,8.7680751953125,0.008293968625366688,0.05171702802181244,-0.44034671783447266
1790763750555114200,8.7781142578125,0.12603391706943512,0.13500286638736725,-0.09871825575828552
1790763750565152500,8.788152587890625,0.1452976018190384,0.20167650282382965,0.2161349058151245
1790763750575191300,8.79819140625,0.13784660398960114,0.25155508518218994,-0.016590479761362076
1790763750585230300,8.808230224609375,0.15484067797660828,0.27861499786376953,-0.3992960453033447
1790763750595268400,8.818268310546875,0.1920575499534607,0.31112128496170044,-0.7469893097877502
1790763750605307400,8.828307373046876,0.2917832136154175,0.2981177568435669,-0.484145849943161
1790763750615345200,8.83834521484375,0.3119329512119293,0.4388754069805145,0.14224188029766083
1790763750625384400,8.848384521484375,0.30558323860168457,0.34426552057266235,0.36352214217185974
1790763750635423200,8.85842333984375,0.2662062644958496,0.3405698537826538,0.2748585641384125
1790763750645461200,8.868461181640624,0.2546924650669098,0.3601267337799072,-0.15019768476486206
1790763750655500300,8.878500244140625,0.332341730594635,0.4445872902870178,-0.19729861617088318
1790763750665538300,8.888538330078125,0.4011566936969757,0.5196853280067444,0.3984511196613312
1790763750675577300,8.898577392578124,0.41523441672325134,0.4849502444267273,0.5653090476989746
1790763750685615400,8.908615478515625,0.39875948429107666,0.4131196141242981,0.11011610925197601
1790763750695654400,8.918654296875,0.28998878598213196,0.41461923718452454,-0.30030789971351624
1790763750705693200,8.928693115234376,0.2013482302427292,0.3921910226345062,0.1109655424952507
1790763750715731500,8.9387314453125,0.1625659465789795,0.38479435443878174,0.3229435682296753
1790763750725770200,8.948770263671875,0.18571513891220093,0.22363676130771637,-0.007268304005265236
1790763750735808300,8.958808349609376,0.1933102011680603,0.1675415337085724,-0.1259118616580963
1790763750745847300,8.968847412109374,0.16434866189956665,0.2196400761604309,-0.07316914200782776
1790763750755885300,8.97888525390625,0.07984950393438339,0.13227054476737976,-0.2985186278820038
1790763750765924000,8.988924072265625,0.03432329371571541,0.07779239118099213,-0.31528937816619873
1790763750775963400,8.99896337890625,-0.010669211857020855,0.10492227971553802,-0.14343903958797455
1790763750786001200,9.009001220703125,0.01477068942040205,0.0991801768541336,-0.1852988302707672
1790763750796040200,9.019040283203125,0.055556733161211014,0.10936862975358963,-0.5520645976066589
1790763750806078200,9.029078125,0.07055619359016418,0.10819396376609802,-0.6896064281463623
1790763750816117200,9.0391171875,0.0724869817495346,0.11506225913763046,0.19360719621181488
1790763750826156300,9.04915625,0.012767485342919827,0.0786476656794548,0.44934961199760437
1790763750836194300,9.0591943359375,-0.06574729830026627,0.06342610716819763,0.12326522916555405
1790763750846233300,9.0692333984375,-0.026813482865691185,0.0886916071176529,-0.20268359780311584
1790763750856271400,9.079271240234375,0.04673343896865845,0.05974411219358444,-0.5233020782470703
1790763750866310400,9.089310302734376,0.15509943664073944,0.07199317216873169,0.06225191801786423
1790763750876348200,9.09934814453125,0.12821535766124725,0.23138150572776794,0.8726131916046143
1790763750886387500,9.109387451171875,0.07461471110582352,0.094535231590271,0.5438057780265808
1790763750896426200,9.11942626953125,0.06665798276662827,0.03536326065659523,0.3678011894226074
1790763750906464300,9.12946435546875,0.07889637351036072,0.1444559246301651,0.47429004311561584
1790763750916503300,9.13950341796875,0.11076535284519196,0.29638341069221497,0.07979121804237366
1790763750926541300,9.149541259765625,0.17324358224868774,0.25440311431884766,-0.39641451835632324
1790763750936580000,9.159580078125,0.18999247252941132,0.22861863672733307,-0.20559610426425934
1790763750946618400,9.169618408203124,0.17019683122634888,0.2680148184299469,-0.03978021815419197
1790763750956657400,9.179657470703125,0.14856930077075958,0.0636821985244751,-0.45545464754104614
1790763750966696200,9.1896962890625,0.04536262899637222,-0.004124098923057318,-0.8297575116157532
1790763750976734500,9.199734375,-0.035196397453546524,-0.002129391534253955,-0.49932605028152466
1790763750986773200,9.209773193359375,-0.055527664721012115,-0.0095518808811903,-0.3127734959125519
1790763750996811300,9.219811279296875,-0.05886487290263176,-0.08738329261541367,-0.869216799736023
1790763751006850300,9.229850341796874,0.0008239217568188906,-0.10058778524398804,-0.8599188327789307
1790763751016889300,9.239889404296875,0.08157922327518463,0.023152530193328857,0.04817379266023636
1790763751026927400,9.24992724609375,0.023024197667837143,0.08559145778417587,0.16782990097999573
1790763751036966400,9.25996630859375,0.006560003850609064,0.1120009645819664,-0.3863030672073364
1790763751047004200,9.270004150390625,0.09412473440170288,0.09153370559215546,-0.3841456472873688
1790763751057043200,9.280043212890625,0.10022896528244019,0.18966692686080933,1.0294793844223022
1790763751067081200,9.290081298828126,0.12291713804006577,-0.017107496038079262,1.6293351650238037
1790763751077120300,9.300120361328124,0.18436665832996368,0.06854082643985748,1.6776853799819946
1790763751087159300,9.3101591796875,0.19764859974384308,0.31222203373908997,1.213008165359497
1790763751097197300,9.320197265625,0.12306756526231766,-0.04098716378211975,0.13614264130592346
1790763751107236400,9.330236328125,0.1574738621711731,-0.47890135645866394,-0.7749307751655579
1790763751117274400,9.3402744140625,0.10795770585536957,0.09779419004917145,-0.8149357438087463
1790763751127313400,9.3503134765625,0.08745203912258148,0.16443751752376556,0.8008500337600708
1790763751137351200,9.36035107421875,0.07575064152479172,0.04709889739751816,0.7830883264541626
1790763751147390500,9.370390380859375,0.08860693871974945,0.2506440579891205,0.2798890769481659
1790763751157429200,9.38042919921875,0.17074041068553925,0.07577850669622421,-0.516266405582428
1790763751167467300,9.39046728515625,0.19369879364967346,-0.10992000252008438,-0.6602363586425781
1790763751177506300,9.40050634765625,0.15900073945522308,0.005965059157460928,-0.0004836993757635355
1790763751187544300,9.41054443359375,0.0847620740532875,-0.06357910484075546,0.09436097741127014
1790763751197583000,9.4205830078125,0.08219824731349945,0.31819063425064087,-0.31041499972343445
1790763751207622400,9.430622314453124,0.07271695882081985,0.031372539699077606,-1.1039272546768188
1790763751217659400,9.440659423828125,0.15628109872341156,-0.06688825786113739,-0.9747493863105774
1790763751227698400,9.450698486328125,0.1312921643257141,0.33546319603919983,0.23858225345611572
1790763751237736400,9.460736328125,0.16760356724262238,0.20349664986133575,0.01070807408541441
1790763751247775200,9.470775146484375,0.2420143187046051,0.1598602831363678,0.0018695981707423925
1790763751257813500,9.4808134765625,0.2522376477718353,0.2675747573375702,0.049278125166893005
1790763751267852300,9.490852294921876,0.3338618278503418,0.2480185329914093,0.3931688368320465
1790763751277891300,9.500891357421875,0.3921283185482025,0.359664648771286,0.9080345630645752
1790763751287929300,9.510929443359375,0.3366363048553467,0.42447027564048767,0.32428377866744995
1790763751297968400,9.520968505859376,0.3465888202190399,0.34522125124931335,-0.40163135528564453
1790763751308006400,9.53100634765625,0.38143640756607056,0.33761900663375854,0.1913270801305771
1790763751318045400,9.54104541015625,0.32184579968452454,0.4244809150695801,0.43416741490364075
1790763751328083200,9.551083251953125,0.3092145025730133,0.30198463797569275,-0.253856360912323
1790763751338122200,9.561122314453126,0.29358893632888794,0.2757202684879303,-0.6543771624565125
1790763751348161500,9.57116162109375,0.28392788767814636,0.34908875823020935,-0.021284764632582664
1790763751358199300,9.58119921875,0.30024081468582153,0.31593772768974304,0.03493722900748253
1790763751368238300,9.59123828125,0.32264286279678345,0.22281795740127563,-0.42863720655441284
1790763751378276400,9.6012763671875,0.3736056685447693,0.2647677958011627,0.028646180406212807
1790763751388315400,9.6113154296875,0.324442595243454,0.2623770833015442,0.2898590862751007
1790763751398354200,9.621354248046876,0.2720089256763458,0.5495122075080872,-0.1866302192211151
1790763751408392400,9.631392333984374,0.29553061723709106,0.40997862815856934,-0.7702142596244812
1790763751418431200,9.64143115234375,0.331773042678833,0.36052826046943665,0.007317769341170788
1790763751428469500,9.651469482421875,0.3305380642414093,0.45060762763023376,0.23944619297981262
1790763751438508300,9.66150830078125,0.34149935841560364,0.2859733998775482,-0.00485621951520443
1790763751448546300,9.67154638671875,0.2954849600791931,0.2910076975822449,0.6485089659690857
1790763751458585300,9.68158544921875,0.343985915184021,0.1247742623090744,0.9853549003601074
1790763751468624400,9.691624267578124,0.38937628269195557,0.2685219347476959,0.9825541377067566
1790763751478662400,9.701662353515625,0.3563306927680969,0.47254884243011475,0.6452820897102356
1790763751488701400,9.711701416015625,0.25395381450653076,0.22684746980667114,0.047433286905288696
1790763751498739500,9.721739501953126,0.18756097555160522,0.1033172756433487,-0.4811517298221588
1790763751508778200,9.7317783203125,0.22901685535907745,0.044391095638275146,-0.7329109311103821
1790763751518817500,9.741817626953125,0.11822748929262161,0.22668419778347015,-0.39718860387802124
1790763751528855300,9.751855224609375,-0.03992142900824547,0.44137513637542725,-0.2209479957818985
1790763751538894300,9.761894287109374,0.017024679109454155,-0.06064269691705704,0.2577187418937683
1790763751548932400,9.771932373046875,-0.0094126146286726,0.004260363057255745,0.3751080632209778
1790763751558971400,9.781971435546875,0.042902253568172455,-0.0650569275021553,0.13074277341365814
1790763751569009400,9.792009521484376,0.12606897950172424,-0.22923994064331055,0.1369154304265976
1790763751579048400,9.80204833984375,0.16174867749214172,-0.1578456461429596,0.10596336424350739
1790763751589087500,9.81208740234375,0.10177581012248993,-0.06788591295480728,-0.09328969568014145
1790763751599125500,9.82212548828125,-0.02030295692384243,-0.23914608359336853,-0.24377773702144623
1790763751609164500,9.83216455078125,-0.10182324051856995,0.12364672869443893,-0.23199866712093353
1790763751619202300,9.842202392578125,-0.2054785192012787,0.14216157793998718,-0.09373079985380173
1790763751629241300,9.852241455078126,-0.2245328426361084,-0.056916069239377975,0.03433027118444443
1790763751639279400,9.862279296875,-0.30984190106391907,-0.19569605588912964,0.2257564216852188
1790763751649318400,9.872318359375,-0.36189213395118713,-0.2658635973930359,0.3138948380947113
1790763751659357200,9.882357177734375,-0.3971356153488159,-0.29301559925079346,-0.0575500912964344
1790763751669395500,9.8923955078125,-0.2805595099925995,-0.33196404576301575,-0.2624528408050537
1790763751679434200,9.902434326171875,-0.17885179817676544,-0.21435301005840302,0.1465301364660263
1790763751689472500,9.912472412109375,-0.2935250699520111,-0.19583289325237274,0.16153672337532043
1790763751699511300,9.92251123046875,-0.39838144183158875,-0.2783011198043823,-0.3560478389263153
1790763751709550300,9.93255029296875,-0.45396479964256287,-0.33141472935676575,-0.6711612939834595
1790763751719588400,9.94258837890625,-0.4284101724624634,-0.2875173091888428,0.08155612647533417
1790763751729627400,9.95262744140625,-0.39314568042755127,-0.243707537651062,0.4390445053577423
1790763751739665200,9.9626650390625,-0.39684000611305237,-0.29102498292922974,-0.1016339361667633
1790763751749704400,9.972704345703125,-0.33366814255714417,-0.46110817790031433,-0.6528314352035522
1790763751759742500,9.982742431640625,-0.358895480632782,-0.48763006925582886,-0.7334218621253967
1790763751769781200,9.99278125,-0.43116146326065063,-0.2725163996219635,-0.010924167931079865
1790763751779820500,10.002820556640625,-0.418391615152359,-0.30572202801704407,-0.12732242047786713
1790763751789858300,10.0128583984375,-0.3341415822505951,-0.4491243064403534,-0.2404911369085312
1790763751799897300,10.0228974609375,-0.3435337543487549,-0.46609076857566833,0.29976382851600647
1790763751809935400,10.032935302734375,-0.3997810184955597,-0.6866861581802368,0.7957947254180908
1790763751819974400,10.042974365234375,-0.41722792387008667,-0.3389870524406433,0.5988393425941467
1790763751830013200,10.05301318359375,-0.48635002970695496,-0.02886388450860977,-0.1131848394870758
1790763751840051500,10.063051513671875,-0.514421820640564,-0.5565341114997864,-0.7357394695281982
1790763751850090200,10.07309033203125,-0.42567723989486694,-0.4443064033985138,-0.6051173210144043
1790763751860128500,10.08312841796875,-0.3736039400100708,-0.23918548226356506,-0.055289871990680695
1790763751870167600,10.09316748046875,-0.3705662190914154,-0.3182985782623291,-0.28422975540161133
1790763751880205300,10.103205322265625,-0.2620072364807129,-0.44740062952041626,0.13872627913951874
1790763751890244600,10.11324462890625,-0.25899600982666016,-0.34487006068229675,0.3563275635242462
1790763751900283400,10.123283447265624,-0.3398783504962921,-0.42708370089530945,-0.33976253867149353
1790763751910321400,10.1333212890625,-0.3398377299308777,-0.5836339592933655,-0.7165757417678833
1790763751920360400,10.1433603515625,-0.3769371509552002,-0.5622900724411011,0.44347506761550903
1790763751930398500,10.1533984375,-0.4325679540634155,-0.4343073070049286,0.5819653868675232
1790763751940437200,10.163437255859375,-0.45198479294776917,-0.40681734681129456,0.08582434058189392
1790763751950476300,10.173476318359375,-0.32473140954971313,-0.49980345368385315,-0.06746180355548859
1790763751960514300,10.183514404296876,-0.17861120402812958,-0.28823742270469666,0.281743586063385
1790763751970553300,10.19355322265625,-0.0821131095290184,0.07547558844089508,0.07064806669950485
1790763751980591400,10.20359130859375,-0.0639844462275505,-0.10244221240282059,-0.47533032298088074
1790763751990630400,10.21363037109375,-0.09383654594421387,-0.17732815444469452,0.09962738305330276
1790763752000668200,10.223668212890624,-0.14913149178028107,-0.11604616045951843,-0.23170579969882965
1790763752010707500,10.23370751953125,-0.16467195749282837,-0.35514721274375916,-0.7348353266716003
1790763752020746500,10.24374658203125,-0.16541364789009094,-0.26548975706100464,-0.011162318289279938
1790763752030784300,10.2537841796875,-0.22463898360729218,-0.29772698879241943,-0.050071876496076584
1790763752040823600,10.263823486328125,-0.2402230054140091,-0.3277253806591034,-0.42424386739730835
1790763752050861300,10.273861328125,-0.18905538320541382,-0.2086496204137802,-0.4981091022491455
1790763752060900400,10.283900390625,-0.06771484017372131,-0.10612857341766357,-0.10819409787654877
1790763752070938400,10.2939384765625,0.027458546683192253,0.007387337274849415,0.01894334889948368
1790763752080977400,10.303977294921875,0.030949151143431664,-0.00005087140016257763,-0.38498759269714355
1790763752091016200,10.31401611328125,-0.007019825279712677,-0.08774225413799286,-0.09367997199296951
1790763752101054500,10.324054443359374,-0.10130637884140015,-0.08135811984539032,0.14264175295829773
1790763752111093200,10.33409326171875,-0.12298979610204697,-0.22890986502170563,-0.1218259185552597
1790763752121131500,10.344131591796875,-0.10398095101118088,-0.2134115993976593,0.2740958333015442
1790763752131170300,10.35417041015625,-0.08229350298643112,-0.2258637398481369,0.5046728849411011
1790763752141209300,10.364209228515625,-0.007764056790620089,-0.1403106153011322,0.3930814862251282
1790763752151247400,10.374247314453125,0.08501394093036652,-0.061927251517772675,-0.02284505032002926
1790763752161286400,10.384286376953124,0.09423913061618805,-0.0005626925267279148,-0.1472490280866623
1790763752171324400,10.394324462890625,0.058204203844070435,0.008888501673936844,0.18933558464050293
1790763752181363500,10.404363525390625,-0.005684496369212866,-0.018556704744696617,0.3483515977859497
1790763752191401500,10.4144013671875,0.0022119649220257998,-0.11454536020755768,0.6187440752983093
1790763752201440300,10.424440185546874,0.03765597566962242,-0.18211375176906586,0.7368054389953613
1790763752211480000,10.43447998046875,0.09291344881057739,0.17451368272304535,0.3447614014148712
1790763752221518000,10.44451806640625,0.09298907965421677,-0.054117895662784576,-0.5931413173675537
1790763752231557000,10.45455712890625,0.134304016828537,-0.07458297908306122,-1.05124032497406
1790763752241595100,10.46459521484375,0.09382636845111847,0.019010886549949646,-0.43544477224349976
1790763752251634200,10.47463427734375,0.0036465441808104515,0.12156694382429123,-0.10428024083375931
1790763752261673000,10.4846728515625,0.05101139470934868,-0.0893799215555191,0.43134671449661255
1790763752271711200,10.494711181640625,0.01195325143635273,-0.33985185623168945,0.8996688723564148
1790763752281750000,10.50475,-0.032606758177280426,-0.18177273869514465,1.0371843576431274
1790763752291788000,10.5147880859375,-0.014101170003414154,0.2779470682144165,0.7679493427276611
1790763752301827000,10.5248271484375,0.003042929107323289,0.42893683910369873,0.13890241086483002
1790763752311865000,10.534864990234375,0.027925046160817146,0.15104790031909943,-0.7920141220092773
1790763752321903900,10.54490380859375,0.13681210577487946,-0.3881109058856964,-1.7595685720443726
1790763752331943000,10.55494287109375,0.0822862908244133,0.13813476264476776,-0.29143810272216797
1790763752341981000,10.56498095703125,0.08717771619558334,0.14109274744987488,1.2586030960083008
1790763752352020000,10.57502001953125,0.13942599296569824,0.11070599406957626,0.577170193195343
1790763752362058200,10.585058349609374,0.15209996700286865,0.04661303013563156,-0.028875553980469704
1790763752372097000,10.595096923828125,0.1180902048945427,0.04930078238248825,-0.91718989610672
1790763752382136000,10.605135986328126,0.13080225884914398,0.21649296581745148,-1.321192979812622
1790763752392174000,10.615174072265624,0.19538754224777222,0.15925796329975128,0.2929081916809082
1790763752402213000,10.625213134765625,0.13239791989326477,0.12977197766304016,0.7771102786064148
1790763752412251000,10.6352509765625,0.098292276263237,0.11330488324165344,0.4814763069152832
1790763752422290200,10.645290283203124,0.125863716006279,0.13482269644737244,0.5560559630393982
1790763752432328000,10.655327880859375,0.13596615195274353,0.361589252948761,0.39696967601776123
1790763752442367000,10.665366943359375,0.2415466457605362,0.21847791969776154,-0.42404958605766296
1790763752452406000,10.675406005859376,0.31022489070892334,0.3625912368297577,-0.8633745908737183
1790763752462444000,10.685444091796874,0.3132933974266052,0.3937031030654907,0.11040333658456802
1790763752472483000,10.695483154296875,0.35402825474739075,0.45187652111053467,0.7699795365333557
1790763752482521000,10.70552099609375,0.4427517354488373,0.2965780198574066,1.0957932472229004
1790763752492560100,10.71556005859375,0.47035878896713257,0.3100654184818268,1.198806881904602
1790763752502599000,10.725598876953125,0.5121142864227295,0.48561036586761475,1.188828468322754
1790763752512637200,10.73563720703125,0.4778933823108673,0.5310916900634766,0.759023904800415
1790763752522676000,10.745676025390624,0.35868898034095764,0.29400932788848877,0.5148261785507202
1790763752532714200,10.75571435546875,0.29765012860298157,0.4910263121128082,0.35731297731399536
1790763752542753000,10.7657529296875,0.22561240196228027,0.5269030928611755,-0.5211687684059143
1790763752552791000,10.775791015625,0.2525220215320587,0.12606997787952423,-1.4567151069641113
1790763752562830000,10.785830078125,0.28709676861763,0.15712590515613556,-2.055253505706787
1790763752572869000,10.795869140625,0.2485564798116684,0.8034554123878479,-1.797571063041687
1790763752582907000,10.805906982421876,0.3247590959072113,0.41541820764541626,0.4019991159439087
1790763752592946200,10.8159462890625,0.2519327402114868,0.26823946833610535,0.9069923162460327
1790763752602984000,10.82598388671875,0.25277429819107056,0.5509620308876038,0.5434460639953613
1790763752613023000,10.83602294921875,0.2642289400100708,0.3278292119503021,-0.6195780634880066
1790763752623062000,10.84606201171875,0.32923460006713867,0.14367055892944336,-1.6540682315826416
1790763752633100000,10.85610009765625,0.21904422342777252,0.2930872142314911,-0.19993628561496735
1790763752643139000,10.86613916015625,0.10879307985305786,0.39182496070861816,0.9745209813117981
1790763752653177000,10.876177001953126,0.12524843215942383,0.3028811812400818,0.344570130109787
1790763752663216000,10.886216064453125,0.29495969414711,0.3040449917316437,-0.3054811358451843
1790763752673254000,10.89625390625,0.30437976121902466,0.4256267547607422,-0.9435794353485107
1790763752683293200,10.906293212890626,0.3295396864414215,0.3756307065486908,-0.3928518295288086
1790763752693332000,10.91633203125,0.2392694652080536,0.5171381235122681,0.9955360293388367
1790763752703370000,10.926369873046875,0.12846358120441437,0.393765389919281,0.8928810358047485
1790763752713409000,10.936408935546876,0.08546276390552521,0.13216087222099304,0.8841241598129272
1790763752723447000,10.946447021484374,0.12271452695131302,0.09822899103164673,1.0058979988098145
1790763752733485800,10.95648583984375,0.2183796763420105,0.2461305409669876,1.0614604949951172
1790763752743525000,10.966525146484376,0.3017222285270691,0.8227658867835999,0.599783182144165
1790763752753563100,10.976563232421874,0.24497003853321075,0.019800757989287376,-0.5211758613586426
1790763752763602000,10.986601806640625,0.23289500176906586,0.1440177708864212,-1.0652239322662354
1790763752773640200,10.99664013671875,0.1939886212348938,0.43229952454566956,-1.2923526763916016
1790763752783679000,11.006678955078126,0.03857161104679108,0.3625803589820862,-0.17249126732349396
1790763752793717200,11.01671728515625,0.10737961530685425,0.37776657938957214,0.7729243636131287
1790763752803756000,11.026756103515625,0.1454007774591446,0.11406329274177551,1.0447136163711548
1790763752813795000,11.036795166015626,0.20455849170684814,0.09325212240219116,1.2558293342590332
1790763752823833000,11.0468330078125,0.2507145404815674,0.9678001403808594,0.6672603487968445
1790763752833872100,11.0568720703125,0.16986234486103058,-0.1107332780957222,-0.5721823573112488
1790763752843910000,11.066909912109375,0.03968702256679535,0.1968700885772705,-1.135971188545227
1790763752853949200,11.07694921875,-0.038059744983911514,0.12510144710540771,-1.661036729812622
1790763752863988200,11.08698828125,-0.1193186417222023,0.22122052311897278,-2.0464730262756348
1790763752874026000,11.09702587890625,-0.0022129942663013935,0.2235538363456726,-0.40818503499031067
1790763752884065000,11.10706494140625,0.022599410265684128,0.5038619041442871,1.0695788860321045
1790763752894103000,11.11710302734375,0.02780275046825409,0.432770699262619,0.5587608218193054
1790763752904142000,11.12714208984375,0.22870735824108124,0.28308746218681335,-0.17540207505226135
1790763752914180000,11.13718017578125,0.17953313887119293,0.3958299160003662,-0.37631237506866455
1790763752924219100,11.14721923828125,0.022614095360040665,0.24189411103725433,0.8103615641593933
1790763752934258000,11.1572578125,-0.03228965774178505,0.2759464979171753,1.02298104763031
1790763752944296200,11.167296142578126,0.020450519397854805,0.27536699175834656,0.7006341814994812
1790763752954335000,11.1773349609375,0.083645761013031,0.19618362188339233,0.08591943234205246
1790763752964373000,11.187373046875,0.055815190076828,0.06401440501213074,-0.8188067078590393
1790763752974412000,11.197412109375,-0.008795678615570068,-0.14267712831497192,-0.912638247013092
1790763752984451000,11.207451171875,-0.16084407269954681,0.2697458565235138,0.5317633748054504
1790763752994488800,11.21748876953125,-0.2479233741760254,-0.026904499158263206,0.47878241539001465
1790763753004528000,11.227528076171875,-0.23386481404304504,-0.11716195940971375,-0.15225334465503693
1790763753014566000,11.23756591796875,-0.21147653460502625,-0.1602143794298172,-0.821601927280426
1790763753024605000,11.24760498046875,-0.2145034819841385,-0.21235188841819763,-1.0044032335281372
1790763753034643000,11.257642822265625,-0.27813592553138733,-0.2568768262863159,0.43839791417121887
1790763753044682000,11.267681884765626,-0.3841438591480255,-0.5747261047363281,1.2632910013198853
1790763753054721000,11.277720947265625,-0.43972715735435486,-0.5291226506233215,1.5781798362731934
1790763753064759000,11.287759033203125,-0.42395538091659546,0.2705572843551636,1.247363805770874
1790763753074798000,11.297798095703126,-0.33452552556991577,-0.47791045904159546,0.06577493250370026
1790763753084836000,11.307836181640624,-0.27272820472717285,-0.4010753333568573,-1.0467065572738647
1790763753094875100,11.317875244140625,-0.1998882293701172,-0.9580835103988647,-2.136155843734741
1790763753104914000,11.327913818359375,-0.32011449337005615,-0.33876699209213257,-1.6377180814743042
1790763753114952200,11.3379521484375,-0.42267733812332153,0.11926335841417313,1.2999290227890015
1790763753124991000,11.347990966796875,-0.37971124053001404,-0.3559976816177368,1.1808804273605347
1790763753135029000,11.358029052734375,-0.14924894273281097,-0.3446015417575836,0.7164223194122314
1790763753145068000,11.368068115234376,-0.011468445882201195,-0.21312502026557922,0.16440735757350922
1790763753155106000,11.37810595703125,-0.19488833844661713,-0.49178993701934814,-0.5896549820899963
1790763753165145000,11.38814501953125,-0.28715649247169495,-0.43974244594573975,-0.5652247071266174
1790763753175184100,11.39818408203125,-0.4219914376735687,-0.29387110471725464,1.1956833600997925
1790763753185222100,11.40822216796875,-0.37026432156562805,-0.4330793023109436,0.8251621127128601
1790763753195261000,11.418260986328125,-0.20724326372146606,-0.6078200936317444,-0.2420511096715927
1790763753205299200,11.42829931640625,-0.0705525204539299,-0.5632049441337585,-1.3042700290679932
1790763753215337700,11.438337646484374,-0.19919206202030182,-0.6698864698410034,-0.6967427730560303
1790763753225376800,11.448376708984375,-0.5543552041053772,-0.5218807458877563,0.68588787317276
1790763753235414800,11.458414794921875,-0.6096562147140503,-0.8949131965637207,0.6187807321548462
1790763753245453800,11.468453857421874,-0.5349090099334717,-0.886584460735321,0.41865426301956177
1790763753255491800,11.478491943359375,-0.5143148899078369,-0.4864720404148102,-0.005355723202228546
1790763753265531000,11.48853076171875,-0.44695714116096497,-0.6820631623268127,-0.6043693423271179
1790763753275568600,11.498568603515626,-0.4561200737953186,-0.6193932890892029,-0.8884059190750122
1790763753285608000,11.50860791015625,-0.3383995592594147,0.1167328804731369,-0.5861573815345764
1790763753295647000,11.51864697265625,-0.160841703414917,-0.1746794879436493,0.5797919034957886
1790763753305684700,11.528684814453126,-0.1487581431865692,-0.297908753156662,0.8512862920761108
1790763753315723800,11.538723876953124,-0.09936195611953735,-0.2056545466184616,0.10772179067134857
1790763753325761800,11.54876171875,-0.06688178330659866,-0.47456270456314087,-1.0450268983840942
1790763753335800800,11.55880078125,-0.012878986075520515,-0.34138280153274536,-0.9083622097969055
1790763753345839600,11.568839599609374,-0.014876089990139008,-0.0642089769244194,0.6273679733276367
1790763753355878000,11.5788779296875,-0.02410007081925869,-0.33973807096481323,0.7025020718574524
1790763753365916700,11.588916748046875,-0.014451171271502972,-0.16396570205688477,0.4226920008659363
1790763753375955000,11.598954833984376,-0.0063051520846784115,0.09150975942611694,-0.07274734228849411
1790763753385993700,11.60899365234375,0.05102791264653206,-0.09393173456192017,-0.6510258913040161
1790763753396031700,11.61903173828125,0.1927272081375122,0.2915981411933899,-0.5125653743743896
1790763753406070800,11.62907080078125,0.2874247133731842,0.10685120522975922,0.0066948141902685165
1790763753416109800,11.63910986328125,0.24439987540245056,0.2490154504776001,0.5622777938842773
1790763753426147600,11.649147705078125,0.292070209980011,-0.0880238264799118,1.406764030456543
1790763753436187000,11.659186767578126,0.35035020112991333,0.3479747176170349,1.2066359519958496
1790763753446224600,11.669224609375,0.30237042903900146,0.1156512200832367,0.6608986258506775
1790763753456263700,11.679263671875,0.2244706153869629,0.15219475328922272,0.072586290538311
1790763753466303000,11.689302978515625,0.25544077157974243,0.05214058980345726,-0.6229581832885742
1790763753476340700,11.6993408203125,0.33799219131469727,-0.03205481916666031,-1.7507727146148682
1790763753486379800,11.7093798828125,0.2915325462818146,0.14170633256435394,-1.3147329092025757
1790763753496417800,11.719417724609375,0.1656305193901062,0.5775420069694519,0.64348304271698
1790763753506456800,11.729456787109376,0.13616663217544556,0.12372259050607681,0.4002532958984375
1790763753516494800,11.739494873046874,0.23583248257637024,0.05443531274795532,-0.12043286114931107
1790763753526534000,11.749533935546875,0.21020328998565674,0.1790933609008789,-0.5837606191635132
1790763753536572700,11.75957275390625,0.16991780698299408,0.2376304268836975,-0.6606518626213074
1790763753546611000,11.76961083984375,0.1971811205148697,0.29242897033691406,-0.4435237944126129
1790763753556649700,11.779649658203125,0.222411647439003,0.2794397175312042,0.23246610164642334
1790763753566687700,11.789687744140625,0.23112018406391144,0.1861281394958496,1.215527892112732
1790763753576727000,11.79972705078125,0.22976502776145935,0.4305512309074402,1.1555298566818237
1790763753586765800,11.809765869140625,0.2423521876335144,0.39487022161483765,0.6499377489089966
1790763753596803800,11.819803955078125,0.17306998372077942,0.1621624082326889,-0.49803441762924194
1790763753606843000,11.8298427734375,0.20639120042324066,0.06283049285411835,-1.1354916095733643
1790763753616881000,11.839880859375,0.16610951721668243,0.47810521721839905,-1.0491491556167603
1790763753626919700,11.849919677734375,0.028978820890188217,0.24831677973270416,-0.05372055247426033
1790763753636958000,11.8599580078125,0.01617024466395378,0.2090521901845932,0.02426188439130783
1790763753646996700,11.869996826171874,0.0938250869512558,0.12171807140111923,-0.3774551749229431
1790763753657035800,11.880035888671875,0.12132452428340912,0.15982690453529358,-0.39069509506225586
1790763753667073800,11.89007373046875,0.10386350750923157,0.1973268687725067,0.22577399015426636
1790763753677112800,11.90011279296875,0.017955299466848373,-0.043433111160993576,0.8401452302932739
1790763753687150600,11.910150634765625,-0.07720637321472168,-0.4081309139728546,1.5215578079223633
1790763753697190000,11.92018994140625,-0.07141448557376862,-0.09877970069646835,1.6085827350616455
1790763753707229000,11.93022900390625,-0.08900785446166992,1.2412692308425903,0.6558152437210083
1790763753717266700,11.9402666015625,0.029043763875961304,0.38017478585243225,-0.3367175757884979
1790763753727306000,11.950305908203125,0.07052329927682877,0.31470629572868347,-0.9428149461746216
1790763753737343700,11.96034375,0.1371620148420334,0.01977062039077282,-1.9240775108337402
1790763753747382800,11.9703828125,0.165826678276062,-0.028212618082761765,-2.1229026317596436
1790763753757420800,11.9804208984375,-0.20644713938236237,0.017268816009163857,0.8449968695640564
1790763753767459800,11.9904599609375,-0.21065813302993774,-0.005298279691487551,1.3358851671218872
1790763753777498600,12.00049853515625,-0.14146485924720764,0.233059823513031,0.8606308698654175
1790763753787537000,12.010536865234375,-0.11674726009368896,0.17460131645202637,-0.18617360293865204
1790763753797575700,12.02057568359375,-0.053531620651483536,-0.09839008003473282,-1.3234226703643799
1790763753807614000,12.030614013671874,0.019401976838707924,0.022054307162761688,-1.9204593896865845
1790763753817652700,12.04065283203125,-0.23638364672660828,0.04296259209513664,-0.29699307680130005
1790763753827691800,12.05069189453125,-0.28159216046333313,0.07567046582698822,1.5019017457962036
1790763753837729800,12.060729736328126,-0.164479061961174,-0.14436665177345276,1.6612905263900757
1790763753847768800,12.070768798828125,-0.021944016218185425,0.19958804547786713,1.4649492502212524
1790763753857806600,12.080806640625,-0.05235915258526802,-0.09335573017597198,0.2852783799171448
1790763753867846000,12.090845947265626,-0.09655697643756866,-0.39064839482307434,-0.760480523109436
1790763753877885000,12.100885009765625,0.012224648147821426,-0.28191497921943665,-1.5820566415786743
1790763753887922700,12.110922607421875,-0.09677480161190033,0.11705106496810913,-2.0461578369140625
1790763753897961700,12.120961669921876,-0.3733276128768921,-0.12737500667572021,-0.11483679711818695
1790763753907999700,12.130999755859374,-0.3996247351169586,-0.20372703671455383,0.9173045754432678
1790763753918038800,12.141038818359375,-0.34794700145721436,-0.41816654801368713,1.0232244729995728
1790763753928076800,12.151076904296875,-0.22442294657230377,-0.6036130785942078,1.3204576969146729
1790763753938115800,12.16111572265625,-0.2007930427789688,-0.5537396669387817,1.6544545888900757
1790763753948154600,12.171154541015625,-0.2729833424091339,0.21507473289966583,1.239314317703247
1790763753958193000,12.18119287109375,0.027439290657639503,-0.2771854102611542,-1.4758208990097046
1790763753968231700,12.191231689453126,0.0395076721906662,-0.07707548141479492,-3.1935718059539795
1790763753978269700,12.201269775390625,-0.010195417329668999,0.10426589846611023,-4.403737545013428
1790763753988309000,12.21130908203125,-0.7462776899337769,0.3061657249927521,-0.361244797706604
1790763753998346800,12.2213466796875,-0.6754234433174133,-0.667022168636322,2.983224391937256
1790763754008385800,12.2313857421875,-0.667809247970581,-1.1373980045318604,4.204769611358643
1790763754018424800,12.2414248046875,-0.7088289856910706,-0.7270686030387878,4.518965244293213
1790763754028462800,12.251462890625,-0.7146275043487549,1.5317134857177734,3.3685035705566406
1790763754038501600,12.261501708984374,-0.4766034483909607,0.3513043522834778,1.5980224609375
1790763754048540000,12.271539794921875,-0.4510272443294525,-0.30174508690834045,1.1958487033843994
1790763754058578700,12.28157861328125,-0.3235852122306824,0.004135435447096825,0.39204511046409607
1790763754068617700,12.29161767578125,-0.3214719891548157,-0.4150157570838928,0.36232638359069824
1790763754078655700,12.30165576171875,-0.11876321583986282,-0.33234548568725586,0.3252401649951935
1790763754088694800,12.31169482421875,-0.14540201425552368,-0.19098806381225586,0.030011463910341263
1790763754098732800,12.32173291015625,-0.10079742223024368,-0.3814893066883087,-0.4773519039154053
1790763754108771800,12.331771728515625,-0.041016917675733566,-0.41208982467651367,-1.0968436002731323
