time,seconds_elapsed,z,y,x
1790763741839133000,0.0621328125,-0.4710836410522461,-0.024389762431383133,0.08184639364480972
1790763741849172200,0.072172119140625,-0.3756183683872223,-0.07328832894563675,0.14376382529735565
1790763741859210000,0.0822099609375,-0.355426549911499,0.15628227591514587,0.18407689034938812
1790763741869249000,0.0922490234375,-0.37001746892929077,0.44043463468551636,0.19235320389270782
1790763741879287000,0.102287109375,-0.4175458252429962,0.6149193644523621,0.19266025722026825
1790763741889326000,0.112326171875,-0.5125482678413391,0.8193387985229492,0.17427459359169006
1790763741899364000,0.122364013671875,-0.5402587056159973,1.1745179891586304,0.18648679554462433
1790763741909403100,0.132403076171875,-0.44049564003944397,1.3331654071807861,0.2652015686035156
1790763741919442000,0.14244189453125,-0.1495058685541153,1.5468825101852417,0.33886247873306274
1790763741929480200,0.152480224609375,0.2653405964374542,1.727471947669983,0.34897342324256897
1790763741939519000,0.16251904296875,0.5027483701705933,1.7157233953475952,0.31312090158462524
1790763741949557000,0.172556884765625,0.6254942417144775,1.5393366813659668,0.2832644581794739
1790763741959596000,0.182595947265625,0.6278910636901855,1.054771065711975,0.2759040296077728
1790763741969634000,0.192634033203125,0.6082633137702942,0.43052342534065247,0.30992403626441956
1790763741979673000,0.202673095703125,0.5080411434173584,-0.4889553189277649,0.27944043278694153
1790763741989712000,0.2127119140625,0.44959965348243713,-0.6291294693946838,0.26920270919799805
1790763741999750100,0.222750244140625,0.34880831837654114,-0.6223897933959961,0.2549297511577606
1790763742009789000,0.232788818359375,0.21776854991912842,-0.6956334114074707,0.23827329277992249
1790763742019827200,0.2428271484375,0.10073300451040268,-0.7168973684310913,0.2565968930721283
1790763742029866000,0.252865966796875,0.03669516369700432,-0.6079461574554443,0.29850971698760986
1790763742039904000,0.262904052734375,0.05862735956907272,-0.2877119481563568,0.36423760652542114
1790763742049943000,0.272943115234375,0.11272921413183212,0.15079669654369354,0.502093493938446
1790763742059982000,0.282982177734375,0.14253903925418854,0.4675179123878479,0.6758288145065308
1790763742070019800,0.293019775390625,0.1250348836183548,0.8076350092887878,0.8191041946411133
1790763742080059100,0.30305908203125,0.06228441372513771,1.246488332748413,0.8784679174423218
1790763742090097000,0.313096923828125,0.07155753672122955,1.5246222019195557,0.8568225502967834
1790763742100136000,0.323135986328125,0.1104535385966301,1.6557157039642334,0.7739313840866089
1790763742110174000,0.333174072265625,0.22811119258403778,1.6232070922851562,0.6519647240638733
1790763742120213000,0.343212890625,0.3128577768802643,1.43832266330719,0.5497099757194519
1790763742130251000,0.3532509765625,0.4028521180152893,1.188458800315857,0.49264004826545715
1790763742140290000,0.3632900390625,0.4450336694717407,0.9017543196678162,0.4804403781890869
1790763742150329000,0.3733291015625,0.4410293400287628,0.6262274384498596,0.5133147239685059
1790763742160367000,0.3833671875,0.40776991844177246,0.3219018578529358,0.6074190735816956
1790763742170406100,0.39340625,0.43250852823257446,0.023870445787906647,0.7670721411705017
1790763742180444000,0.40344384765625,0.41616472601890564,-0.11737482994794846,0.9812070727348328
1790763742190483200,0.413483154296875,0.2265806794166565,-0.06003537401556969,1.18793523311615
1790763742200520400,0.4235205078125,0.026818031445145607,-0.04704154282808304,1.3379247188568115
1790763742210559500,0.4335595703125,-0.1751031130552292,-0.06511721760034561,1.4623616933822632
1790763742220598500,0.4435986328125,-0.2903468608856201,-0.24522067606449127,1.5204510688781738
1790763742230636500,0.453636474609375,-0.36491990089416504,-0.5038410425186157,1.521012306213379
1790763742240675300,0.46367529296875,-0.39066895842552185,-0.8493249416351318,1.5072189569473267
1790763742250713600,0.473713623046875,-0.39730900526046753,-1.396020531654358,1.5843757390975952
1790763742260752400,0.48375244140625,-0.45398053526878357,-1.6072715520858765,1.664937973022461
1790763742270790700,0.493790771484375,-0.5155826807022095,-1.6319899559020996,1.7798131704330444
1790763742280829400,0.503829345703125,-0.5150532126426697,-1.6603914499282837,1.8662577867507935
1790763742290868500,0.513868408203125,-0.4911758601665497,-1.6648954153060913,1.9447203874588013
1790763742300906500,0.523906494140625,-0.469451904296875,-1.5851565599441528,1.9936660528182983
1790763742310945500,0.533945556640625,-0.3981276750564575,-1.5157240629196167,1.950425386428833
1790763742320983300,0.5439833984375,-0.35447072982788086,-1.4834105968475342,1.9282244443893433
1790763742331022600,0.554022705078125,-0.3770412802696228,-1.490025281906128,1.8812437057495117
1790763742341060400,0.564060302734375,-0.373659610748291,-1.5202140808105469,1.7973564863204956
1790763742351099400,0.574099365234375,-0.43076443672180176,-1.5521280765533447,1.7286442518234253
1790763742361137400,0.584137451171875,-0.5513569116592407,-1.506834864616394,1.6606793403625488
1790763742371176400,0.594176513671875,-0.6166075468063354,-1.4876679182052612,1.6270257234573364
1790763742381215500,0.604215576171875,-0.5864376425743103,-1.4807969331741333,1.667468786239624
1790763742391253500,0.61425341796875,-0.5458276271820068,-1.3801145553588867,1.7380210161209106
1790763742401292500,0.62429248046875,-0.5312918424606323,-1.2357664108276367,1.827006220817566
1790763742411330600,0.63433056640625,-0.49733415246009827,-1.107177495956421,1.8969800472259521
1790763742421369600,0.64436962890625,-0.4238434135913849,-0.9908850193023682,1.9210221767425537
1790763742431407400,0.654407470703125,-0.30167248845100403,-0.8123389482498169,1.853142499923706
1790763742441446700,0.66444677734375,-0.17649593949317932,-0.5931573510169983,1.6770966053009033
1790763742451485400,0.6744853515625,-0.039020635187625885,-0.4293798506259918,1.446013331413269
1790763742461523500,0.6845234375,0.09823788702487946,-0.3556792736053467,1.2059807777404785
1790763742471562500,0.6945625,0.27060192823410034,-0.4259001612663269,0.9909251928329468
1790763742481600500,0.7046005859375,0.38541534543037415,-0.5519494414329529,0.7964596152305603
1790763742491639600,0.7146396484375,0.46542254090309143,-0.6417794823646545,0.5923059582710266
1790763742501677600,0.724677490234375,0.5486196875572205,-0.7513970732688904,0.37539440393447876
1790763742511716600,0.734716552734375,0.6438604593276978,-0.9872609972953796,0.1952078491449356
1790763742521754600,0.744754638671875,0.658420741558075,-1.1799217462539673,0.06263621896505356
1790763742531793700,0.754793701171875,0.5689473152160645,-1.2226356267929077,-0.010938134975731373
1790763742541832400,0.76483251953125,0.418342649936676,-1.144368290901184,-0.03380030766129494
1790763742551870500,0.774870361328125,0.23606126010417938,-0.9978230595588684,-0.044810615479946136
1790763742561909500,0.784909423828125,0.12980380654335022,-1.0037983655929565,-0.04615684226155281
1790763742571947500,0.794947509765625,0.1680593192577362,-1.243446707725525,-0.04442152753472328
1790763742581986300,0.804986328125,0.33834847807884216,-1.529767394065857,-0.049664758145809174
1790763742592024600,0.815024658203125,0.6511053442955017,-1.8031837940216064,-0.05001336708664894
1790763742602063400,0.8250634765625,0.948087215423584,-2.070356607437134,0.010212689638137817
1790763742612101600,0.8351015625,1.1311120986938477,-2.109340190887451,0.12728045880794525
1790763742622140400,0.845140380859375,1.2350950241088867,-1.934525489807129,0.2415764033794403
1790763742632179500,0.855179443359375,1.331519603729248,-1.5980764627456665,0.2975432574748993
1790763742642217500,0.865217529296875,1.446382999420166,-1.1693079471588135,0.27353858947753906
1790763742652256500,0.875256591796875,1.5366308689117432,-0.6652451157569885,0.20625729858875275
1790763742662294300,0.885294189453125,1.6061497926712036,-0.1526196300983429,0.14850318431854248
1790763742672333600,0.89533349609375,1.662466049194336,0.18662713468074799,0.16689284145832062
1790763742682371600,0.90537158203125,1.6527221202850342,0.5361396074295044,0.17921023070812225
1790763742692410400,0.915410400390625,1.5965442657470703,0.802395224571228,0.16892537474632263
1790763742702449700,0.92544970703125,1.494331955909729,0.859775185585022,0.17716465890407562
1790763742712487400,0.9354873046875,1.394381046295166,0.7266333699226379,0.18924902379512787
1790763742722526500,0.9455263671875,1.325873613357544,0.6427749395370483,0.10911503434181213
1790763742732564500,0.955564453125,1.3480881452560425,0.3997844159603119,0.021036043763160706
1790763742742603500,0.965603515625,1.412906289100647,0.0935528501868248,0.007535947021096945
1790763742752641500,0.9756416015625,1.4480568170547485,-0.1169937327504158,0.08437799662351608
1790763742762680600,0.9856806640625,1.4113539457321167,-0.1752636879682541,0.22068843245506287
1790763742772718300,0.99571826171875,1.3370929956436157,-0.1333194375038147,0.39963263273239136
1790763742782757600,1.005757568359375,1.2609859704971313,0.019114572554826736,0.5568389892578125
1790763742792796700,1.015796630859375,1.1766066551208496,0.12580479681491852,0.6695591807365417
1790763742802834400,1.02583447265625,1.1382139921188354,0.15295705199241638,0.6967383027076721
1790763742812873700,1.035873779296875,1.1486575603485107,0.1230849102139473,0.6456714272499084
1790763742822911500,1.045911376953125,1.1647590398788452,0.07662340253591537,0.5365148186683655
1790763742832950500,1.055950439453125,0.8850389719009399,1.5633578300476074,0.849241316318512
1790763742842988500,1.065988525390625,-0.526534378528595,5.012179851531982,2.3228986263275146
1790763742853027600,1.076027587890625,-0.24275538325309753,4.591980934143066,2.185213088989258
1790763742863065600,1.086065673828125,0.3061436712741852,3.297867774963379,1.7220017910003662
1790763742873104600,1.096104736328125,0.7921721935272217,1.9875290393829346,1.2081129550933838
1790763742883143400,1.106143310546875,1.2862468957901,0.6384909749031067,0.6259546875953674
1790763742893181400,1.116181396484375,1.661579966545105,-0.4939250349998474,0.04238234460353851
1790763742903220500,1.126220458984375,1.7653518915176392,-0.7001165747642517,-0.18667933344841003
1790763742913258500,1.136258544921875,1.7380225658416748,1.101419448852539,0.5108574032783508
1790763742923297300,1.14629736328125,1.856283187866211,0.48347318172454834,0.5057039260864258
1790763742933335600,1.15633544921875,1.8236643075942993,-0.18200735747814178,0.3898753225803375
1790763742943374300,1.166374267578125,1.5996053218841553,-0.41066715121269226,0.3888995349407196
1790763742953412600,1.17641259765625,1.350372552871704,-0.6715554594993591,0.3312264084815979
1790763742963451600,1.18645166015625,1.0741785764694214,-0.6931401491165161,0.2733660340309143
1790763742973490400,1.196490478515625,0.8581144213676453,-0.5511526465415955,0.1887267678976059
1790763742983528700,1.20652880859375,0.7095526456832886,-0.3419109880924225,0.09856145828962326
1790763742993567500,1.2165673828125,0.5623112916946411,-0.14272519946098328,0.03670661523938179
1790763743003605500,1.22660546875,0.3862971067428589,0.061653777956962585,0.005528189707547426
1790763743013644500,1.23664453125,0.18257194757461548,0.2465629130601883,0.02305658347904682
1790763743023682600,1.2466826171875,0.07898003607988358,0.29402709007263184,0.11317076534032822
1790763743033721300,1.256721435546875,0.19215932488441467,0.13330985605716705,0.34659841656684875
1790763743043759600,1.266759521484375,-0.005968144163489342,0.1642984002828598,0.4416269361972809
1790763743053798400,1.27679833984375,-0.1548023670911789,0.005726595409214497,0.49661776423454285
1790763743063837400,1.28683740234375,-0.3188655972480774,-0.1683724969625473,0.45042282342910767
1790763743073875500,1.29687548828125,-0.5058032870292664,-0.3490309715270996,0.3230683207511902
1790763743083914500,1.30691455078125,-0.31279945373535156,-0.9113960266113281,0.32889506220817566
1790763743093952500,1.316952392578125,-0.31255683302879333,-1.0460329055786133,0.18511313199996948
1790763743103991600,1.326991455078125,-0.5358794331550598,-1.1091578006744385,-0.014505705796182156
1790763743114029300,1.337029296875,-0.7382658123970032,-1.2529808282852173,-0.17958520352840424
1790763743124068600,1.347068603515625,-1.054705023765564,-1.2620855569839478,-0.38967451453208923
1790763743134106400,1.3571064453125,-1.3104521036148071,-1.299048900604248,-0.5489784479141235
1790763743144145400,1.3671455078125,-1.4810045957565308,-1.4478517770767212,-0.6165942549705505
1790763743154184700,1.377184814453125,-1.5369068384170532,-1.6991372108459473,-0.6240449547767639
1790763743164222500,1.387222412109375,-1.4446322917938232,-1.957818865776062,-0.6134580969810486
1790763743174261500,1.397261474609375,-1.0971951484680176,-0.6543485522270203,-1.339142084121704
1790763743184299500,1.407299560546875,-0.791847825050354,0.2072802186012268,-1.9105101823806763
1790763743194338600,1.417338623046875,-0.6252809166908264,-0.5480063557624817,-1.53557550907135
1790763743204376800,1.427376953125,-0.5217667818069458,-0.9512052536010742,-1.0645371675491333
1790763743214416100,1.437416015625,-0.48522475361824036,-0.8632319569587708,-0.6454101800918579
1790763743224454000,1.447453857421875,-0.4857832193374634,0.6041284799575806,-0.11286982893943787
1790763743234493000,1.457492919921875,-0.3374243676662445,1.5122448205947876,0.14465518295764923
1790763743244532200,1.4675322265625,-0.24994565546512604,1.3656032085418701,0.35682761669158936
1790763743254570000,1.477570068359375,-0.23127982020378113,1.3023320436477661,0.5136438608169556
1790763743264609000,1.487609130859375,-0.20415766537189484,1.52215576171875,0.5447887182235718
1790763743274647000,1.49764697265625,-0.20094935595989227,1.5457695722579956,0.6104729771614075
1790763743284686000,1.50768603515625,-0.21706733107566833,1.3637323379516602,0.7147929668426514
1790763743294724000,1.51772412109375,-0.28523918986320496,1.447718858718872,0.6449414491653442
1790763743304763100,1.52776318359375,-0.3371487259864807,1.364725947380066,0.5148937106132507
1790763743314801000,1.53780078125,-0.406085729598999,1.1231589317321777,0.3842632472515106
1790763743324840200,1.547840087890625,-0.5383598804473877,1.1027963161468506,0.1776227205991745
1790763743334879000,1.55787890625,-0.585561990737915,0.9086255431175232,0.03603576496243477
1790763743344917000,1.5679169921875,-0.5323384404182434,0.5124318599700928,-0.01648603193461895
1790763743354956000,1.5779560546875,-0.461603045463562,0.3455696403980255,-0.14335450530052185
1790763743364994000,1.587994140625,-0.2615450620651245,-0.036078374832868576,0.06837719678878784
1790763743375032800,1.59803271484375,0.1427992284297943,-0.0012966931099072099,0.47001782059669495
1790763743385071000,1.608071044921875,0.5628684163093567,0.773023784160614,0.7291048169136047
1790763743395110000,1.61810986328125,0.47970640659332275,1.5564693212509155,0.8598667979240417
1790763743405148000,1.62814794921875,0.24113911390304565,1.5421843528747559,0.5932412147521973
1790763743415187200,1.638187255859375,0.09458562731742859,0.8327068090438843,0.23075039684772491
1790763743425226000,1.64822607421875,-0.21087788045406342,0.39033499360084534,-0.14118775725364685
1790763743435264000,1.658263916015625,-0.5037521123886108,0.13333329558372498,-0.44704967737197876
1790763743445303000,1.668302978515625,-0.7953770160675049,-0.055500276386737823,-0.5401596426963806
1790763743455341000,1.678341064453125,-1.0591495037078857,-0.13647235929965973,-0.6487069129943848
1790763743465379800,1.6883798828125,-1.2046692371368408,-0.4761233925819397,-0.7691928148269653
1790763743475418000,1.698418212890625,-1.3258105516433716,-0.8504940867424011,-0.8762984871864319
1790763743485457000,1.708456787109375,-1.2764203548431396,-0.9180014729499817,-0.9848369359970093
1790763743495495200,1.7184951171875,-1.18374764919281,-0.3662581443786621,-1.0405625104904175
1790763743505534000,1.728533935546875,-1.0575652122497559,-0.2576941251754761,-0.6288532614707947
1790763743515573000,1.738572998046875,-0.857454776763916,-0.20491479337215424,-0.20509962737560272
1790763743525611000,1.748611083984375,-0.4279577434062958,0.3099527955055237,-0.2443695366382599
1790763743535650000,1.758650146484375,-0.1788262128829956,0.2697116434574127,-0.28150278329849243
1790763743545687800,1.768687744140625,-0.0391058586537838,-0.13586515188217163,-0.2338380515575409
1790763743555727000,1.77872705078125,-0.023901071399450302,-0.02237774431705475,-0.40989911556243896
1790763743565764900,1.788764892578125,-0.07551047205924988,0.08861561864614487,-0.5479168891906738
1790763743575804000,1.798803955078125,-0.20123110711574554,0.09370438754558563,-0.6260361671447754
1790763743585842000,1.808842041015625,-0.31883710622787476,-0.0014114753575995564,-0.6575288772583008
1790763743595881000,1.818880859375,-0.35409656167030334,-0.10014311224222183,-0.6976552605628967
1790763743605920000,1.828919921875,-0.3119957149028778,-0.03940067067742348,-0.7442147731781006
1790763743615958000,1.8389580078125,-0.3941829800605774,0.8220714926719666,0.06774043291807175
1790763743625997000,1.8489970703125,-0.23348625004291534,0.24711205065250397,0.07761117070913315
1790763743636035000,1.85903515625,-0.3186410963535309,0.49695464968681335,0.12477708607912064
1790763743646074000,1.86907421875,-0.519371509552002,0.2564890384674072,0.1367463916540146
1790763743656111900,1.87911181640625,-0.6656704545021057,0.11322802305221558,0.17405754327774048
1790763743666151200,1.889151123046875,-0.8005827069282532,-0.12066143751144409,0.2954505681991577
1790763743676189000,1.89918896484375,-0.8619357943534851,0.14559714496135712,0.2319735735654831
1790763743686228000,1.90922802734375,-0.8308772444725037,0.052029114216566086,0.25246527791023254
1790763743696266000,1.919265869140625,-0.4857294261455536,-0.024408936500549316,0.38382384181022644
1790763743706305000,1.929304931640625,-0.09823815524578094,0.6886119842529297,0.3929843008518219
1790763743716344000,1.939343994140625,0.025542911142110825,0.6694316267967224,0.6648728251457214
1790763743726382000,1.949382080078125,0.07676029205322266,0.2701262831687927,1.0069901943206787
1790763743736421000,1.959421142578125,0.18968258798122406,0.187092125415802,1.0873793363571167
1790763743746459000,1.969458984375,0.283968061208725,0.8614071607589722,0.6904764175415039
1790763743756498200,1.979498291015625,0.339997261762619,0.5214064717292786,0.6450943350791931
1790763743766536000,1.989535888671875,0.4924725294113159,0.16406510770320892,0.7966521382331848
1790763743776575000,1.999574951171875,0.5276598334312439,0.4306754767894745,0.8108704686164856
1790763743786613000,2.009613037109375,0.4349503815174103,0.324907511472702,0.8624663352966309
1790763743796652000,2.019652099609375,0.26394668221473694,0.26902827620506287,0.7323279976844788
1790763743806690800,2.02969091796875,0.41439637541770935,0.35898905992507935,0.5930278897285461
1790763743816729000,2.03972900390625,0.5130600929260254,0.20099808275699615,0.47436678409576416
1790763743826768000,2.049767822265625,0.6430878639221191,-0.01955585740506649,0.49936720728874207
1790763743836806100,2.05980615234375,0.7170486450195312,-0.017307883128523827,0.5936763882637024
1790763743846845000,2.069844970703125,0.3943270742893219,0.5364101529121399,0.4206279218196869
1790763743856883000,2.079883056640625,-0.9802765846252441,1.8860735893249512,0.16200275719165802
1790763743866922000,2.089921875,-0.7105750441551208,1.9241735935211182,0.30942124128341675
1790763743876960000,2.0999599609375,-0.7908416390419006,1.6168376207351685,0.06696971505880356
1790763743886998800,2.109998779296875,-0.7365970611572266,1.0591785907745361,-0.20356537401676178
1790763743897038000,2.1200380859375,-0.40432724356651306,0.2952609360218048,-0.3317188024520874
1790763743907076000,2.130076171875,-0.2600422203540802,0.14273637533187866,-0.6879171133041382
1790763743917115000,2.140114990234375,-0.14510446786880493,-0.0033784860279411077,-0.5431966781616211
1790763743927153200,2.150153076171875,0.012852681800723076,0.01438453234732151,-0.2921586334705353
1790763743937192000,2.16019189453125,0.11487625539302826,0.061828214675188065,-0.0640314444899559
1790763743947230200,2.170230224609375,0.15371552109718323,0.035645611584186554,0.09578751027584076
1790763743957269000,2.18026904296875,0.07212319225072861,0.07845965772867203,0.28418591618537903
1790763743967307000,2.19030712890625,0.04482126608490944,0.27139049768447876,0.39846962690353394
1790763743977346000,2.200345947265625,0.055028099566698074,0.042453449219465256,0.49529069662094116
1790763743987384000,2.210384033203125,0.11237447708845139,-0.050926562398672104,0.5639296770095825
1790763743997422800,2.2204228515625,0.06384076178073883,-0.1747923195362091,0.5490924119949341
1790763744007462100,2.230462158203125,-0.011947473511099815,-0.43794193863868713,0.5214437246322632
1790763744017500000,2.2405,-0.15940962731838226,-0.32577836513519287,0.558734118938446
1790763744027539000,2.2505390625,-0.4597284495830536,-0.019591277465224266,0.48893001675605774
1790763744037577000,2.260576904296875,-0.7507001161575317,0.5958380699157715,0.3675961196422577
1790763744047616000,2.270615966796875,-0.7710402607917786,0.694349467754364,-0.002350772265344858
1790763744057654000,2.280654052734375,-0.6446743011474609,0.4883829951286316,-0.41227757930755615
1790763744067693000,2.290693115234375,-0.41201284527778625,0.21381188929080963,-0.8312828540802002
1790763744077730800,2.300730712890625,-0.2666870951652527,0.48896676301956177,-1.2131364345550537
1790763744087770000,2.31077001953125,-0.2018553614616394,0.7813562750816345,-1.5346646308898926
1790763744097809200,2.32080908203125,-0.1765606552362442,0.9685240387916565,-1.7661408185958862
1790763744107847000,2.330846923828125,-0.23770762979984283,2.0507028102874756,-2.210322856903076
1790763744117886000,2.340885986328125,-0.2357235699892044,0.4191967248916626,-1.6750800609588623
1790763744127924000,2.350924072265625,0.022051239386200905,-0.8049446940422058,0.04308834671974182
1790763744137963000,2.360962890625,0.030879884958267212,0.8154937624931335,0.8477334380149841
1790763744148001000,2.3710009765625,-0.024084297940135002,0.946742594242096,0.602143406867981
1790763744158040000,2.3810400390625,-0.04193493351340294,0.3867975175380707,0.17153659462928772
1790763744168077800,2.391077880859375,0.017248228192329407,0.024113591760396957,-0.2142651528120041
1790763744178117000,2.4011171875,0.054006777703762054,-0.10552642494440079,-0.4720578193664551
1790763744188155000,2.41115478515625,-0.003933755215257406,-0.692636251449585,-0.3865591585636139
1790763744198194000,2.42119384765625,0.0009592706337571144,-0.33953359723091125,-0.09319119900465012
1790763744208232700,2.431232666015625,-0.020606741309165955,0.22775593400001526,0.1642661690711975
1790763744218270700,2.441270751953125,-0.05047915130853653,0.14237365126609802,0.10102888196706772
1790763744228309800,2.451309814453125,-0.022554045543074608,0.028268655762076378,-0.004553738981485367
1790763744238347800,2.46134765625,-0.019455457106232643,-0.00014514227223116904,-0.10834378749132156
1790763744248386800,2.47138671875,-0.0043779704719781876,-0.05260355770587921,-0.10908600687980652
1790763744258424800,2.4814248046875,-0.017721738666296005,0.012673983350396156,-0.02533118985593319
1790763744268463900,2.4914638671875,-0.017612548545002937,-0.02057158760726452,0.01320874597877264
1790763744278501600,2.501501708984375,0.00264824740588665,0.023001190274953842,0.05808913707733154
1790763744288541000,2.511541015625,0.015474297106266022,0.04609079658985138,0.015684952959418297
1790763744298579700,2.521579833984375,0.024506142362952232,0.03236246854066849,-0.0375060960650444
1790763744308617700,2.53161767578125,0.024654746055603027,0.02972700260579586,-0.00250470289029181
1790763744318656800,2.54165673828125,0.009938917122781277,0.050395261496305466,0.03628982976078987
1790763744328694800,2.55169482421875,0.0029758161399513483,0.038186002522706985,-0.010289122350513935
1790763744338733600,2.561733642578125,0.00729413190856576,0.03812794387340546,-0.0647110864520073
1790763744348771800,2.571771728515625,0.03317233547568321,0.04752890393137932,-0.024890435859560966
1790763744358810600,2.581810546875,0.03833487257361412,0.07675043493509293,0.04531475156545639
1790763744368849000,2.591848876953125,0.008978048339486122,0.07296662032604218,-0.008200671523809433
1790763744378887700,2.6018876953125,-0.01474831998348236,0.05350663512945175,-0.12566791474819183
1790763744388925700,2.61192578125,-0.003621100215241313,0.018014153465628624,-0.1695951521396637
1790763744398964700,2.62196484375,0.005435511935502291,0.04475069418549538,-0.11890481412410736
1790763744409003800,2.632003662109375,0.024103738367557526,0.04189072549343109,-0.097255177795887
1790763744419041800,2.642041748046875,0.03309643268585205,0.01949540339410305,-0.13464969396591187
1790763744429080800,2.652080810546875,0.04404575377702713,0.00953864399343729,-0.12565912306308746
1790763744439118800,2.662118896484375,0.0470692403614521,0.01438373327255249,-0.11009135097265244
1790763744449157600,2.67215771484375,0.0322471521794796,0.020491959527134895,-0.10571710765361786
1790763744459196000,2.68219580078125,0.02202167920768261,0.02412957139313221,-0.08317824453115463
1790763744469234700,2.692234619140625,0.0173180028796196,0.023430224508047104,-0.043903809040784836
1790763744479273000,2.70227294921875,0.0016223976854234934,0.04081214591860771,0.006676811259239912
1790763744489311700,2.712311767578125,-0.0017132115317508578,0.0584942027926445,0.04307929426431656
1790763744499350800,2.722350830078125,0.011384214274585247,0.056234776973724365,0.06800168752670288
1790763744509388800,2.732388916015625,0.019086075946688652,0.07799573242664337,0.08520091325044632
1790763744519427800,2.742427734375,0.0013619405217468739,0.06348603218793869,0.03376701846718788
1790763744529465600,2.752465576171875,-0.005119927227497101,0.02936960570514202,0.017550498247146606
1790763744539504600,2.762504638671875,-0.0013041499769315124,0.00809361319988966,0.08003544807434082
1790763744549542700,2.772542724609375,0.014064153656363487,0.08407440036535263,0.17254327237606049
1790763744559581700,2.782581787109375,0.027335749939084053,0.053702909499406815,0.15764741599559784
1790763744569619700,2.79261962890625,0.035702336579561234,0.02550882287323475,0.06740487366914749
1790763744579658800,2.80265869140625,0.0030216225422918797,0.015393337234854698,0.04103318601846695
1790763744589697800,2.81269775390625,-0.0025398568250238895,0.005042961798608303,0.06650125980377197
1790763744599735800,2.82273583984375,-0.016741961240768433,0.015625031664967537,0.04453897103667259
1790763744609774800,2.83277490234375,-0.02424595132470131,-0.01161804050207138,-0.03310602158308029
1790763744619812600,2.8428125,-0.02623932622373104,-0.034871961921453476,-0.07353121042251587
1790763744629852000,2.852851806640625,-0.023907730355858803,-0.04939018562436104,-0.05179182440042496
1790763744639889700,2.8628896484375,-0.03754870593547821,-0.026257969439029694,-0.012818593531847
1790763744649928700,2.8729287109375,-0.07852117717266083,-0.04742743819952011,-0.03922703117132187
1790763744659966700,2.882966796875,-0.09153258055448532,-0.0818495899438858,-0.07519994676113129
1790763744670005800,2.893005859375,-0.10634162276983261,-0.0714036077260971,-0.08299315720796585
1790763744680043800,2.903043701171875,-0.09016211330890656,-0.04360659793019295,-0.04815474525094032
1790763744690082800,2.913082763671875,-0.058044660836458206,-0.056781258434057236,-0.03856683149933815
1790763744700121600,2.92312158203125,-0.07292959839105606,-0.08588667958974838,-0.05770856887102127
1790763744710160000,2.933159912109375,-0.06374569237232208,-0.056896571069955826,0.022353243082761765
1790763744720199000,2.943198974609375,-0.11470501124858856,-0.054010502994060516,0.052025385200977325
1790763744730236700,2.953236572265625,-0.10652297735214233,-0.0818149745464325,0.012241486459970474
1790763744740276000,2.96327587890625,-0.0873974859714508,-0.05294949933886528,-0.017255419865250587
1790763744750313700,2.973313720703125,-0.0647028312087059,-0.052613675594329834,-0.01070777140557766
1790763744760352800,2.983352783203125,-0.06345780193805695,-0.010253436863422394,0.009106412529945374
1790763744770390800,2.993390869140625,-0.07002115994691849,-0.00740225613117218,-0.005476790945976973
1790763744780429800,3.003429931640625,-0.052691441029310226,-0.0013393036788329482,-0.017547035589814186
1790763744790468600,3.013468505859375,-0.03536757826805115,-0.010450243949890137,-0.03750476613640785
1790763744800507000,3.0235068359375,-0.043121106922626495,-0.010064885020256042,-0.08507814258337021
1790763744810545700,3.033545654296875,-0.037872813642024994,0.004607268609106541,-0.09034240990877151
1790763744820584000,3.043583984375,-0.05282406508922577,0.024410268291831017,-0.09890234470367432
1790763744830622700,3.053622802734375,-0.06223514303565025,0.03416356444358826,-0.08775914460420609
1790763744840660700,3.06366064453125,-0.04893345385789871,0.054659515619277954,-0.008842227049171925
1790763744850699800,3.07369970703125,-0.013160277158021927,0.048826396465301514,0.0642935037612915
1790763744860737800,3.08373779296875,0.008688828907907009,0.05871870741248131,0.09867118299007416
1790763744870776600,3.093776611328125,0.006352438125759363,0.05458761006593704,0.06737611442804337
1790763744880815900,3.10381591796875,0.00714552728459239,0.05613197758793831,0.050271693617105484
1790763744890853600,3.113853515625,-0.0009187905816361308,0.08278143405914307,0.018668493255972862
1790763744900892700,3.123892578125,0.031495340168476105,0.011771970428526402,0.019246932119131088
1790763744910931000,3.133930908203125,-0.005840578582137823,0.054066963493824005,0.1116357147693634
1790763744920969700,3.1439697265625,-0.023421170189976692,-0.0003251719754189253,0.09607379883527756
1790763744931007700,3.1540078125,-0.040700025856494904,-0.014270815066993237,0.031555794179439545
1790763744941046800,3.164046875,-0.04273947328329086,-0.04965250939130783,-0.07061371207237244
1790763744951084800,3.174084716796875,-0.045520346611738205,-0.07818374782800674,-0.10351680219173431
1790763744961123600,3.18412353515625,-0.0944516733288765,-0.09446525573730469,-0.07323266565799713
1790763744971161900,3.194161865234375,-0.10985779017210007,-0.08199100941419601,-0.07204490154981613
1790763744981200600,3.20420068359375,-0.07222413271665573,-0.0880209356546402,-0.10584280639886856
1790763744991239700,3.21423974609375,-0.03910665586590767,-0.10190239548683167,-0.10744736343622208
1790763745001277700,3.224277587890625,-0.048713743686676025,-0.10382679849863052,-0.06169319152832031
1790763745011316700,3.234316650390625,-0.04728655517101288,-0.07684977352619171,0.02190583199262619
1790763745021354800,3.244354736328125,-0.030704649165272713,-0.003951864782720804,0.08169779181480408
1790763745031393800,3.254393798828125,-0.003750795964151621,0.02857545204460621,0.1206129640340805
1790763745041431600,3.264431640625,0.02050820365548134,0.015779228881001472,0.17109717428684235
1790763745051470800,3.274470947265625,0.0215926431119442,0.05573942884802818,0.16075479984283447
1790763745061508600,3.284508544921875,0.038784414529800415,0.031503863632678986,0.15396399796009064
1790763745071547600,3.294547607421875,0.051117513328790665,0.01378372311592102,0.1574615240097046
1790763745081587000,3.3045869140625,0.024167653173208237,-0.01811908185482025,0.12067767977714539
1790763745091624700,3.314624755859375,0.01691693253815174,-0.012672917917370796,0.09330464899539948
1790763745101663700,3.324663818359375,0.05741375684738159,-0.24454370141029358,0.001187503570690751
1790763745111701800,3.33470166015625,-0.031919848173856735,-0.00598545465618372,-0.03718997910618782
1790763745121740800,3.34474072265625,-0.03379817679524422,-0.11909709870815277,-0.14430205523967743
1790763745131778800,3.35477880859375,-0.11444428563117981,-0.1347263902425766,-0.48862987756729126
1790763745141817900,3.36481787109375,-0.09531719982624054,-0.178799569606781,0.08038511872291565
1790763745151855600,3.374855712890625,-0.05546991527080536,0.3209066390991211,0.33761000633239746
1790763745161895000,3.38489501953125,-0.057732004672288895,1.0270179510116577,0.8733692765235901
1790763745171933700,3.39493359375,-0.059608202427625656,0.054660581052303314,0.1825844645500183
1790763745181971700,3.4049716796875,0.023686952888965607,-0.08728377521038055,0.02936933934688568
1790763745192010800,3.4150107421875,-0.0222025066614151,-0.01955745555460453,0.06030062586069107
1790763745202048800,3.425048828125,-0.07198204845190048,0.2312939465045929,0.1633652299642563
1790763745212087300,3.43508740234375,-0.06269799917936325,0.21740742027759552,0.2299083024263382
1790763745222125600,3.44512548828125,-0.027166107669472694,0.0767965093255043,0.2436874955892563
1790763745232164600,3.45516455078125,-0.03021089918911457,0.050818972289562225,0.06811966747045517
1790763745242202600,3.46520263671875,-0.025143170729279518,0.02528351917862892,-0.05302753299474716
1790763745252241700,3.47524169921875,-0.03461204096674919,0.014219416305422783,-0.0810258761048317
1790763745262279400,3.485279541015625,0.0024780714884400368,-0.042451586574316025,-0.029219137504696846
1790763745272318700,3.495318603515625,-0.010041449218988419,-0.021326061338186264,0.019990751519799232
1790763745282357500,3.505357421875,-0.011183146387338638,0.012339490465819836,0.007920507341623306
1790763745292395500,3.5153955078125,0.024698155000805855,0.008885903283953667,-0.013008742593228817
1790763745302434600,3.5254345703125,0.03688051924109459,0.0644141435623169,0.02876506932079792
1790763745312472600,3.53547265625,0.03148122876882553,0.11530928313732147,0.0889064371585846
1790763745322511400,3.545511474609375,0.013319533318281174,0.12061003595590591,0.10660820454359055
1790763745332549600,3.555549560546875,-0.01600639708340168,0.10691046714782715,0.07903702557086945
1790763745342588400,3.56558837890625,-0.03428580239415169,0.08920684456825256,0.029824741184711456
1790763745352626700,3.575626708984375,-0.00464588450267911,0.07921493053436279,0.03882382810115814
1790763745362665500,3.58566552734375,0.024629445746541023,0.08646458387374878,0.06599659472703934
1790763745372704500,3.59570458984375,0.032822929322719574,0.12058606743812561,0.04236556589603424
1790763745382742500,3.605742431640625,0.0199875570833683,0.14173157513141632,-0.002514823107048869
1790763745392781600,3.615781494140625,0.025170333683490753,0.10127308964729309,-0.05908941850066185
1790763745402819300,3.6258193359375,0.02510029263794422,0.07438395172357559,-0.05278784781694412
1790763745412858400,3.6358583984375,0.007801996544003487,0.05210208147764206,-0.028852419927716255
1790763745422896600,3.645896728515625,-0.008440623059868813,0.023366309702396393,-0.05375564098358154
1790763745432935400,3.655935302734375,-0.009413208812475204,0.001044491771608591,-0.08473379909992218
1790763745442973700,3.6659736328125,-0.009637713432312012,0.02690751478075981,-0.05597724765539169
1790763745453012500,3.676012451171875,-0.00018269284919369966,0.025135979056358337,-0.021871743723750114
1790763745463051500,3.686051513671875,0.005660282447934151,0.04645857959985733,0.024955950677394867
1790763745473089500,3.696089599609375,0.056349292397499084,0.04784421995282173,0.001484712352976203
1790763745483128600,3.706128662109375,0.035357989370822906,0.060681987553834915,-0.04349661245942116
1790763745493166300,3.716166259765625,0.03606506064534187,0.0091170659288764,-0.07455439865589142
1790763745503205600,3.72620556640625,-0.02460361272096634,-0.01079965103417635,-0.0624505952000618
1790763745513243400,3.736243408203125,-0.062308114022016525,-0.01721041277050972,0.030297985300421715
1790763745523282400,3.746282470703125,-0.038240596652030945,0.052617140114307404,0.08312657475471497
1790763745533320400,3.756320556640625,-0.013575729914009571,0.024810275062918663,0.11545335501432419
1790763745543359500,3.766359375,0.0025132251903414726,0.03075658157467842,0.11799268424510956
1790763745553398500,3.7763984375,0.0019323896849527955,0.006683735176920891,0.09883283823728561
1790763745563436500,3.7864365234375,0.008408664725720882,0.004923918284475803,0.0751863643527031
1790763745573475600,3.7964755859375,0.012881443835794926,-0.015352058224380016,0.010395116172730923
1790763745583513600,3.806513671875,0.014881744049489498,-0.020597154274582863,0.02851739525794983
1790763745593552600,3.816552734375,0.027108849957585335,-0.012943761423230171,0.058635082095861435
1790763745603590400,3.82659033203125,0.009702694602310658,0.003906590864062309,0.04915156587958336
1790763745613629700,3.836629638671875,0.01261166576296091,0.027001257985830307,0.06879211217164993
1790763745623667500,3.84666748046875,0.021586252376437187,0.050210971385240555,0.10415969043970108
1790763745633706500,3.85670654296875,0.055580705404281616,0.05673065781593323,0.08749815821647644
1790763745643745500,3.86674560546875,0.05645075812935829,0.07482896745204926,0.04709747061133385
1790763745653783600,3.876783447265625,0.07253971695899963,0.07571925967931747,0.06788530945777893
1790763745663822300,3.886822265625,0.08335507661104202,0.08941163867712021,0.12525779008865356
1790763745673860600,3.896860595703125,0.08917807787656784,0.11654791980981827,0.09997426718473434
1790763745683899400,3.9068994140625,0.06948746740818024,0.1126120314002037,0.009967412799596786
1790763745693937700,3.916937744140625,0.054602257907390594,0.10189919918775558,-0.05312926322221756
1790763745703976400,3.9269765625,0.03606452792882919,0.07708972692489624,-0.057861968874931335
1790763745714014500,3.937014404296875,0.027873976156115532,0.07329631596803665,-0.012324044480919838
1790763745724053500,3.947053466796875,0.028776787221431732,0.02514609880745411,-0.04138365760445595
1790763745734092500,3.957092529296875,0.009875267744064331,-0.0206924956291914,-0.13503211736679077
1790763745744130600,3.967130615234375,-0.004287156742066145,-0.050035204738378525,-0.16382302343845367
1790763745754169300,3.97716943359375,-0.03440671041607857,-0.04314134642481804,-0.10128773748874664
1790763745764207600,3.98720751953125,-0.07841624319553375,-0.04735872521996498,-0.08948434144258499
1790763745774246400,3.997246337890625,-0.08422300219535828,-0.0832352340221405,-0.10508807003498077
1790763745784284700,4.00728466796875,-0.08930590748786926,-0.06617795675992966,-0.06135337054729462
1790763745794323500,4.017323486328125,-0.09420692920684814,-0.04927673563361168,-0.003772101365029812
1790763745804361500,4.027361572265625,-0.11061226576566696,-0.04384681582450867,-0.01583089493215084
1790763745814400500,4.037400390625,-0.05937277898192406,-0.050749730318784714,-0.030894266441464424
1790763745824439600,4.047439453125,-0.06321891397237778,-0.060509949922561646,-0.07463322579860687
1790763745834477300,4.057477294921875,-0.004442152567207813,-0.07966180890798569,-0.07884953916072845
1790763745844516600,4.0675166015625,0.018267953768372536,-0.0738300159573555,-0.026161562651395798
1790763745854554400,4.077554443359375,-0.016768060624599457,-0.052811283618211746,-0.036554280668497086
1790763745864593400,4.087593505859375,-0.01230620127171278,-0.046363238245248795,-0.05829872563481331
1790763745874631400,4.09763134765625,-0.0008711199625395238,-0.007535414304584265,-0.045466016978025436
1790763745884670500,4.10767041015625,-0.0022234732750803232,0.006159359123557806,-0.04874783009290695
1790763745894708500,4.11770849609375,0.002132392954081297,0.011053450405597687,-0.027663584798574448
1790763745904747500,4.12774755859375,0.014212225563824177,0.012837767601013184,0.021625399589538574
1790763745914786600,4.13778662109375,0.0032690302468836308,0.023669110611081123,0.032465264201164246
1790763745924824600,4.147824462890625,-0.0013648699969053268,0.029148830100893974,0.007130081299692392
1790763745934863600,4.157863525390625,-0.08670692890882492,-0.06587568670511246,-0.1050686314702034
1790763745944901400,4.1679013671875,-0.2339339256286621,-0.02052658051252365,-0.3101269602775574
1790763745954940700,4.177940673828125,-0.08213029056787491,-0.17724774777889252,-0.09656648337841034
1790763745964978400,4.187978515625,-0.15313363075256348,-0.09778860956430435,-0.09365751594305038
1790763745975017500,4.198017578125,-0.2778894007205963,-0.15750041604042053,-0.07757255434989929
1790763745985055500,4.208055419921875,-0.504784345626831,-0.07946419715881348,-0.06739208847284317
1790763745995094500,4.218094482421875,-0.6642009019851685,-0.05110606178641319,-0.10134153813123703
1790763746005133300,4.22813330078125,-0.9484544396400452,0.060084640979766846,-0.22546455264091492
1790763746015171600,4.238171630859375,-0.8158863186836243,-0.16659244894981384,-0.2111540585756302
1790763746025210600,4.248210693359375,-0.7235457301139832,-0.1992071121931076,-0.1633436530828476
1790763746035248600,4.25824853515625,-0.9381064772605896,-0.0775938630104065,-0.005468268413096666
1790763746045287700,4.26828759765625,-1.2541574239730835,0.12718512117862701,-0.056289106607437134
1790763746055325400,4.278325439453125,-0.9149124622344971,0.004535629414021969,0.03910665586590767
1790763746065364500,4.288364501953125,-0.6486754417419434,-0.038918636739254,0.11799747496843338
1790763746075402500,4.298402587890625,-0.657360315322876,0.014207165688276291,0.1053093746304512
1790763746085441500,4.308441650390625,-0.6582151651382446,-0.036012064665555954,0.08425282686948776
1790763746095480300,4.318480224609375,-0.191575825214386,-0.19661691784858704,-0.05963217094540596
1790763746105518600,4.3285185546875,-0.15683941543102264,-0.07262387126684189,0.14103302359580994
1790763746115557400,4.338557373046875,-0.007239536847919226,-0.1067485511302948,0.02093697339296341
1790763746125595600,4.348595703125,0.0010266485624015331,-0.054489076137542725,0.07853475213050842
1790763746135634400,4.358634521484375,0.003576092654839158,-0.04523778706789017,0.06337630748748779
1790763746145672400,4.36867236328125,-0.03683285042643547,-0.041733331978321075,0.040598560124635696
1790763746155711500,4.37871142578125,-0.05490000173449516,-0.02420041151344776,0.022101573646068573
1790763746165749500,4.38874951171875,-0.07077084481716156,-0.03630287945270538,-0.0404166653752327
1790763746175788300,4.398788330078125,-0.0724576860666275,-0.058106180280447006,-0.09070034325122833
1790763746185827600,4.40882763671875,-0.08149193227291107,-0.07061637938022614,-0.09957452863454819
1790763746195865300,4.418865234375,-0.08950059115886688,-0.08253615349531174,-0.08843079954385757
1790763746205904400,4.428904296875,-0.07065606117248535,-0.09796784073114395,-0.06817452609539032
1790763746215942700,4.438942626953125,-0.061830077320337296,-0.08676392585039139,-0.05944415181875229
1790763746225981700,4.448981689453125,-0.054298657923936844,-0.056531984359025955,-0.027905667200684547
1790763746236019700,4.459019775390625,-0.038429681211709976,-0.020977187901735306,0.0010913633741438389
1790763746246058800,4.469058837890625,-0.020002203062176704,0.001853826455771923,0.010259827598929405
1790763746256097500,4.47909765625,-0.004394748248159885,-0.002398176584392786,0.03437262028455734
1790763746266135800,4.4891357421875,-0.009584982879459858,-0.0035502600949257612,0.03721101954579353
1790763746276174800,4.4991748046875,-0.00959883164614439,-0.011025486513972282,0.029985861852765083
1790763746286212600,4.509212646484375,0.009878729470074177,-0.013627128675580025,0.060024987906217575
1790763746296251600,4.519251708984375,0.020915135741233826,0.000026365294615970924,0.08268369734287262
1790763746306289700,4.52928955078125,0.010838000103831291,0.026932548731565475,0.09387136995792389
1790763746316328700,4.53932861328125,0.029377862811088562,0.03297632560133934,0.0855572447180748
1790763746326366700,4.54936669921875,0.05752960592508316,0.021322865039110184,0.0890989825129509
1790763746336405800,4.55940576171875,0.08086501806974411,0.027480892837047577,0.05421636626124382
1790763746346444500,4.569444580078125,0.13499324023723602,0.03454572707414627,0.05420811101794243
1790763746356482800,4.57948291015625,0.290314644575119,0.0019148128340020776,0.01512915175408125
1790763746366521600,4.589521484375,0.41842201352119446,0.0043830303475260735,-0.1002267375588417
1790763746376559600,4.5995595703125,0.3795020580291748,-0.04668654501438141,-0.17646238207817078
1790763746386598700,4.6095986328125,0.24292422831058502,0.0152561841532588,-0.013157613575458527
1790763746396636700,4.61963671875,0.24956269562244415,0.062442339956760406,0.06321358680725098
1790763746406675500,4.629675537109375,0.5151230096817017,0.06145643815398216,0.015542208217084408
1790763746416713700,4.639713623046875,0.6510222554206848,-0.002993126632645726,0.016224509105086327
1790763746426752500,4.64975244140625,0.7588320374488831,-0.06423624604940414,0.018514296039938927
1790763746436791600,4.65979150390625,0.8168604969978333,-0.06161702424287796,0.0010602044640108943
1790763746446829600,4.66982958984375,0.9712308645248413,-0.1506877839565277,-0.04754035547375679
1790763746456868600,4.67986865234375,1.1589200496673584,-0.22657348215579987,-0.051651742309331894
1790763746466907000,4.689906982421875,1.2774549722671509,-0.1701062172651291,-0.002490588231012225
1790763746476945700,4.699945556640625,1.3393268585205078,0.0645827203989029,0.11411672085523605
1790763746486983700,4.709983642578125,1.5216865539550781,0.08271751552820206,0.23807993531227112
1790763746497022700,4.720022705078125,1.8830146789550781,-0.8282526731491089,0.2979579269886017
1790763746507060700,4.730060791015625,2.1011710166931152,-0.8367021083831787,0.29301217198371887
1790763746517099500,4.740099609375,2.312375783920288,-0.05814319849014282,0.11656096577644348
1790763746527138800,4.750138916015625,2.053171157836914,-1.1048110723495483,-0.20324473083019257
1790763746537176600,4.760176513671875,1.8195481300354004,0.2402554750442505,0.14671221375465393
1790763746547215600,4.770215576171875,1.0048511028289795,-0.5116856694221497,-0.19223548471927643
1790763746557253600,4.780253662109375,0.1406838744878769,-0.5573657751083374,-0.17342504858970642
1790763746567292700,4.790292724609375,-0.11688880622386932,-0.0777488574385643,-0.2275354266166687
1790763746577330700,4.80033056640625,-0.14414918422698975,-0.005429386626929045,-0.1431899219751358
1790763746587369700,4.81036962890625,-0.18206274509429932,0.0438593327999115,-0.09533876925706863
1790763746597408800,4.82040869140625,-0.16989582777023315,0.02172553539276123,-0.10286912322044373
1790763746607446800,4.83044677734375,-0.14153608679771423,-0.02226509153842926,-0.12985865771770477
1790763746617485800,4.84048583984375,-0.12513048946857452,-0.07506518810987473,-0.139439657330513
1790763746627523600,4.850523681640625,-0.14643657207489014,-0.10402680188417435,-0.12353631854057312
1790763746637562600,4.860562744140625,-0.14409032464027405,-0.1192595511674881,-0.12475764751434326
1790763746647600600,4.8706005859375,-0.20104601979255676,-0.11928990483283997,-0.12923547625541687
1790763746657639700,4.8806396484375,-0.2604462206363678,-0.10793951898813248,-0.18193171918392181
1790763746667677700,4.890677734375,-0.26079216599464417,-0.08943507075309753,-0.20027770102024078
1790763746677716700,4.900716796875,-0.1533687859773636,-0.09198079258203506,-0.1473013013601303
1790763746687755500,4.910755615234375,-0.10450191050767899,-0.10977629572153091,-0.11746617406606674
1790763746697793800,4.920793701171875,-0.13107040524482727,-0.07956566661596298,-0.10106509923934937
1790763746707832600,4.93083251953125,-0.13071434199810028,-0.06839636713266373,-0.09477151930332184
1790763746717870600,4.94087060546875,-0.14722833037376404,-0.04042305797338486,-0.06709621101617813
1790763746727909600,4.95090966796875,-0.09144629538059235,-0.02949610725045204,-0.04096793755888939
1790763746737947600,4.96094775390625,-0.0572664849460125,-0.06046148017048836,-0.04267236217856407
1790763746747986400,4.970986328125,-0.0646548941731453,-0.08652424067258835,-0.05095266178250313
1790763746758024700,4.981024658203125,-0.057437725365161896,-0.07871851325035095,-0.03117469698190689
1790763746768063700,4.991063720703125,-0.06228068470954895,-0.046367231756448746,-0.006523679476231337
1790763746778102500,5.0011025390625,-0.07903756201267242,-0.00869095977395773,0.001680720946751535
1790763746788140800,5.011140869140625,-0.07516292482614517,-0.011401524767279625,-0.008107727393507957
1790763746798179600,5.0211796875,-0.03886404260993004,-0.0017454357584938407,-0.006423544604331255
1790763746808217900,5.0312177734375,-0.006277336739003658,0.0062403189949691296,-0.009460613131523132
1790763746818256600,5.041256591796875,0.004228034522384405,-0.015063637867569923,-0.033119335770606995
1790763746828294700,5.051294677734375,-0.030052173882722855,-0.027465179562568665,-0.05899061635136604
1790763746838333700,5.061333740234375,-0.04483724758028984,0.019330289214849472,-0.05293858051300049
1790763746848372700,5.071372802734375,-0.0078571243211627,0.03009585104882717,-0.06306924670934677
1790763746858410500,5.081410400390625,-0.01601012609899044,0.1337876319885254,-0.043779972940683365
1790763746868449800,5.09144970703125,-0.02822178415954113,0.10570672154426575,-0.10767479985952377
1790763746878487600,5.101487548828125,-0.011659585870802402,0.09997932612895966,-0.08374176919460297
1790763746888526600,5.111526611328125,0.007728226948529482,0.061411160975694656,-0.08111508935689926
1790763746898564600,5.121564697265625,0.006946056615561247,0.011809521354734898,-0.08786007761955261
1790763746908603600,5.131603759765625,0.005586246494203806,0.022582540288567543,-0.07497730851173401
1790763746918641700,5.1416416015625,0.02996748685836792,0.028023112565279007,-0.06896255910396576
1790763746928680700,5.1516806640625,0.04231363534927368,0.055080827325582504,-0.040221188217401505
1790763746938719700,5.1617197265625,0.029030585661530495,0.06022552400827408,-0.029709426686167717
1790763746948757800,5.1717578125,-0.000847950461320579,0.06454730033874512,-0.025888854637742043
1790763746958796800,5.181796875,-0.03525519371032715,0.06141755357384682,-0.008521582931280136
1790763746968834600,5.19183447265625,-0.05476471036672592,0.045996785163879395,0.02382836677134037
1790763746978873900,5.201873779296875,-0.05357268080115318,0.013324327766895294,0.05997731536626816
1790763746988911600,5.21191162109375,-0.049670085310935974,0.011907791718840599,0.11037444323301315
1790763746998950700,5.22195068359375,-0.042803920805454254,-0.004574511665850878,0.1269425004720688
1790763747008989700,5.23198974609375,-0.027112843468785286,0.004002731293439865,0.14655481278896332
1790763747019027700,5.24202783203125,-0.014523549005389214,0.0013728595804423094,0.14317233860492706
1790763747029066500,5.25206640625,-0.016919860616326332,-0.01775449514389038,0.10767187178134918
1790763747039104800,5.262104736328125,-0.05150633305311203,-0.008448878303170204,0.05042615532875061
1790763747049143800,5.272143798828125,-0.07018335163593292,-0.012460930272936821,0.014823420904576778
1790763747059181600,5.282181640625,-0.08547522127628326,-0.016477510333061218,-0.014376808889210224
1790763747069220900,5.292220947265625,-0.0887375921010971,-0.031203193590044975,-0.02238200418651104
1790763747079258600,5.302258544921875,-0.08877141773700714,-0.04393816366791725,-0.05433168262243271
1790763747089297700,5.312297607421875,-0.08032573014497757,-0.05182617902755737,-0.07755311578512192
1790763747099336700,5.322336669921875,-0.07201400399208069,-0.05161312595009804,-0.08867421001195908
1790763747109374700,5.332374755859375,-0.06917667388916016,-0.043418046087026596,-0.09596914052963257
1790763747119413500,5.34241357421875,-0.07027256488800049,-0.03797987103462219,-0.10484146326780319
1790763747129451800,5.35245166015625,-0.06311026215553284,-0.027781030163168907,-0.09495341032743454
1790763747139490600,5.362490478515625,-0.05536791682243347,-0.016330769285559654,-0.08458385616540909
1790763747149528800,5.37252880859375,-0.045879874378442764,0.002560629276558757,-0.07628491520881653
1790763747159567600,5.382567626953125,-0.027237746864557266,0.026748789474368095,-0.05306534841656685
1790763747169606700,5.392606689453125,-0.006915430538356304,0.040520261973142624,-0.010582070797681808
1790763747179644700,5.402644775390625,0.00010679275874281302,0.056295763701200485,0.019512981176376343
1790763747189683700,5.41268359375,-0.00842677429318428,0.039567913860082626,0.0420696884393692
1790763747199721500,5.422721435546875,-0.033315613865852356,0.03869413211941719,0.0563274547457695
1790763747209760800,5.4327607421875,-0.04730280116200447,0.02419508434832096,0.05746994912624359
1790763747219798800,5.442798828125,-0.025666480883955956,-0.027340810745954514,0.07601220905780792
1790763747229837600,5.452837646484375,0.00010120012302650139,-0.02556767873466015,0.0979960709810257
1790763747239875800,5.462875732421875,-0.0017656758427619934,-0.007984423078596592,0.10999148339033127
1790763747249914600,5.47291455078125,-0.03587144985795021,0.01507002953439951,0.11321870237588882
1790763747259953700,5.48295361328125,-0.06244979426264763,0.007481618318706751,0.10080357640981674
1790763747269991700,5.49299169921875,-0.061520084738731384,-0.013834322802722454,0.05775544047355652
1790763747280030700,5.50303076171875,-0.04796060174703598,-0.021222997456789017,0.017472999170422554
1790763747290069000,5.513069091796875,-0.05674823373556137,-0.03915645554661751,-0.03313504904508591
1790763747300107800,5.523107666015625,-0.0751488134264946,-0.07221933454275131,-0.07682447135448456
1790763747310145800,5.533145751953125,-0.06975005567073822,-0.08996584266424179,-0.07706096023321152
1790763747320184800,5.543184814453125,-0.040343429893255234,-0.0863756313920021,-0.052374523133039474
1790763747330223900,5.553223876953125,-0.022067485377192497,-0.07882024347782135,-0.01642264984548092
1790763747340261600,5.56326171875,-0.01625060848891735,-0.07629130780696869,0.01925412192940712
1790763747350300700,5.57330078125,-0.018332934007048607,-0.05036117509007454,0.0642349123954773
1790763747360338700,5.583338623046875,-0.03224741667509079,-0.028086496517062187,0.08913440257310867
1790763747370377700,5.593377685546875,-0.03491830453276634,-0.1168573796749115,0.08901802450418472
1790763747380415700,5.603415771484375,-0.08389223366975784,-0.11093050986528397,0.010205499827861786
1790763747390454800,5.613454833984375,-0.13048051297664642,-0.10045097023248672,0.03020903468132019
1790763747400493800,5.623493896484375,-0.1866130232810974,-0.19870883226394653,0.02696583792567253
1790763747410531800,5.63353173828125,-0.6099062561988831,-0.8127080798149109,0.07526732236146927
1790763747420571000,5.64357080078125,-0.7227230668067932,-0.4858255684375763,0.06646690517663956
1790763747430608600,5.653608642578125,-0.5169289112091064,-0.10928867012262344,0.12644316256046295
1790763747440648000,5.66364794921875,-0.28999242186546326,-0.011150921694934368,0.13252554833889008
1790763747450685700,5.673685791015625,-0.14706242084503174,0.013455354608595371,0.0739637091755867
1790763747460724700,5.683724853515625,-0.07011570781469345,0.05164215341210365,0.01798059791326523
1790763747470762800,5.6937626953125,0.001466336427256465,0.04803010821342468,-0.015447932295501232
1790763747480801800,5.7038017578125,0.02370106801390648,0.04044036567211151,-0.03610127791762352
1790763747490840600,5.713840576171875,0.018604842945933342,0.04712516814470291,-0.018761703744530678
1790763747500878800,5.72387890625,-0.017600299790501595,0.09097971022129059,-0.0027808728627860546
1790763747510917600,5.733917724609375,-0.08046901226043701,0.12500505149364471,-0.0041247038170695305
1790763747520956000,5.743955810546875,-0.1536761075258255,0.15280473232269287,-0.014748852699995041
1790763747530994700,5.75399462890625,-0.16124828159809113,0.12475604563951492,-0.024929318577051163
1790763747541032700,5.76403271484375,-0.10575944930315018,0.11829601973295212,-0.02107199653983116
1790763747551071700,5.77407177734375,-0.03351135551929474,0.1044025719165802,-0.022418223321437836
1790763747561110800,5.78411083984375,-0.015058844350278378,0.10768012702465057,-0.042332544922828674
1790763747571148800,5.794148681640625,-0.020058929920196533,0.10328271239995956,-0.056361809372901917
1790763747581187800,5.804187744140625,-0.04408863186836243,0.08690746873617172,-0.049319878220558167
1790763747591225900,5.814225830078125,-0.118817999958992,0.09577659517526627,-0.04698188975453377
1790763747601264600,5.8242646484375,-0.21479591727256775,0.03368525952100754,-0.061638329178094864
1790763747611303000,5.834302978515625,-0.19195106625556946,0.011316836811602116,-0.0495435856282711
1790763747621341700,5.844341796875,-0.2262384593486786,-0.005029912106692791,-0.04631343483924866
1790763747631380000,5.8543798828125,-0.3025806248188019,0.013484649360179901,-0.07105926424264908
1790763747641418800,5.864418701171875,-0.2990415692329407,0.03441949188709259,-0.050627224147319794
1790763747651457800,5.874457763671875,-0.25187644362449646,0.06236271187663078,-0.01631132885813713
1790763747661495800,5.884495849609375,-0.25290149450302124,0.05848754569888115,0.009719472378492355
1790763747671534800,5.894534912109375,-0.2521153390407562,0.002028263406828046,0.03283943980932236
1790763747681572600,5.904572509765625,-0.24223314225673676,-0.06332038342952728,0.05387255176901817
1790763747691611600,5.914611572265625,-0.09686875343322754,-0.037278927862644196,0.10250560194253922
1790763747701649700,5.924649658203125,-0.04808550328016281,0.007394266780465841,0.08955331891775131
1790763747711688700,5.934688720703125,-0.17575904726982117,-0.03311401233077049,0.04604845121502876
1790763747721727700,5.944727783203125,-0.32662898302078247,-0.10099878907203674,0.003424825146794319
1790763747731765800,5.954765869140625,-0.2443586140871048,-0.04532114416360855,0.010235593654215336
1790763747741804800,5.9648046875,-0.1358446478843689,0.0007880293414928019,-0.006314621306955814
1790763747751842800,5.9748427734375,-0.09237334132194519,-0.018747055903077126,-0.02917785942554474
1790763747761881900,5.9848818359375,-0.06426367163658142,-0.022068284451961517,-0.048414669930934906
1790763747771919600,5.994919677734375,-0.047933969646692276,-0.02634931541979313,-0.05345150828361511
1790763747781959000,6.004958984375,-0.03888588026165962,-0.03316274657845497,-0.05732693895697594
1790763747791997700,6.014997802734375,-0.04373310133814812,-0.031980834901332855,-0.05360756814479828
1790763747802035700,6.02503564453125,-0.04693474993109703,-0.02532106824219227,-0.0374179445207119
1790763747812074800,6.03507470703125,-0.0372307263314724,-0.011502192355692387,-0.010027866810560226
1790763747822112800,6.04511279296875,-0.025859294459223747,0.00609384523704648,0.018871691077947617
1790763747832151600,6.055151611328125,-0.01122149545699358,0.017129186540842056,0.04968126863241196
1790763747842189800,6.06518994140625,-0.0030064424499869347,0.020979316905140877,0.0754992812871933
1790763747852228600,6.075228515625,0.0012708604335784912,0.025102956220507622,0.0865015983581543
1790763747862267000,6.085266845703125,0.00039175100391730666,0.04093172028660774,0.0842198058962822
1790763747872306000,6.095305908203125,-0.01781734637916088,0.06012192741036415,0.07076258957386017
1790763747882344700,6.1053447265625,-0.0453011691570282,0.07256288081407547,0.05289623886346817
1790763747892383000,6.115383056640625,-0.06217043101787567,0.07481352239847183,0.018608838319778442
1790763747902421800,6.125421875,-0.06561176478862762,0.054252587258815765,0.002228799508884549
1790763747912459800,6.135459716796875,-0.0471976064145565,0.05658311769366264,0.03363572433590889
1790763747922498800,6.145498779296875,-0.020377710461616516,0.005228584166616201,0.017370468005537987
1790763747932536800,6.155536865234375,-0.005139368120580912,-0.012182630598545074,0.004340952727943659
1790763747942575600,6.16557568359375,-0.0029822078067809343,0.02377750165760517,0.02894563227891922
1790763747952615000,6.175614990234375,0.0014567491598427296,0.06360054761171341,0.07119668275117874
1790763747962652700,6.185652587890625,-0.00509888818487525,0.13046853244304657,0.05592025816440582
1790763747972691700,6.195691650390625,-0.060204219073057175,0.048047419637441635,0.030283603817224503
1790763747982729700,6.205729736328125,-0.10082381963729858,0.10329575836658478,0.11637454479932785
1790763747992768800,6.215768798828125,-0.11413056403398514,0.06096907705068588,0.1358656883239746
1790763748002806800,6.225806884765625,-0.14194515347480774,0.03399258852005005,0.10495650768280029
1790763748012845800,6.235845703125,-0.20027583837509155,0.020327642560005188,0.10748038440942764
1790763748022884900,6.245884765625,-0.24515490233898163,-0.007302387617528439,0.12135571986436844
1790763748032922600,6.255922607421875,-0.24619512259960175,-0.028924325481057167,0.13102273643016815
1790763748042962000,6.2659619140625,-0.24555756151676178,-0.03650661185383797,0.12280847877264023
1790763748052999700,6.275999755859375,-0.2387087196111679,-0.06907680630683899,0.06100103631615639
1790763748063038700,6.286038818359375,-0.2234213650226593,-0.07639703899621964,0.054785218089818954
1790763748073076700,6.29607666015625,-0.21900612115859985,-0.09126546233892441,0.06906775385141373
1790763748083115800,6.30611572265625,-0.21612697839736938,-0.11809681355953217,0.06742271780967712
1790763748093154600,6.316154541015625,-0.20586395263671875,-0.1392364501953125,0.06802112609148026
1790763748103192800,6.32619287109375,-0.19807925820350647,-0.15088485181331635,0.029111811891198158
1790763748113231600,6.336231689453125,-0.1742439717054367,-0.1514371931552887,0.021991850808262825
1790763748123270000,6.346269775390625,-0.11862172186374664,-0.1485082507133484,0.02906068041920662
1790763748133308700,6.35630859375,-0.0729205459356308,-0.1462072730064392,-0.02791125886142254
1790763748143346700,6.3663466796875,-0.04568785801529884,-0.13032205402851105,0.010277139022946358
1790763748153385700,6.3763857421875,-0.04086753726005554,-0.12149953097105026,0.04566016420722008
1790763748163423700,6.386423828125,-0.02996082790195942,-0.11408742517232895,0.06437552720308304
1790763748173462800,6.396462890625,-0.01429078821092844,-0.10379883646965027,0.03627891093492508
1790763748183501800,6.406501708984375,0.0080336919054389,-0.09327055513858795,0.03936764597892761
1790763748193539800,6.416539794921875,0.042452916502952576,-0.06828770786523819,0.08043652027845383
1790763748203578600,6.42657861328125,0.08453432470560074,-0.05296654626727104,0.0989510789513588
1790763748213616600,6.43661669921875,0.1176145151257515,-0.024757543578743935,0.11593086272478104
1790763748223655400,6.446655517578125,0.14083142578601837,-0.00004394215648062527,0.1005532369017601
1790763748233693700,6.456693603515625,0.1668262630701065,0.023926371708512306,0.11420779675245285
1790763748243732500,6.466732421875,0.1771971434354782,0.05992218852043152,0.15868417918682098
1790763748253771500,6.476771484375,0.1655692607164383,0.10811235755681992,0.1664600819349289
1790763748263809500,6.4868095703125,0.15864503383636475,0.15101908147335052,0.13687263429164886
1790763748273848600,6.4968486328125,0.16395990550518036,0.22304905951023102,0.11892319470643997
1790763748283886300,6.50688623046875,0.19617244601249695,0.24962927401065826,0.05522757023572922
1790763748293925600,6.516925537109375,0.2058628797531128,0.28432920575141907,0.03705975040793419
1790763748303963600,6.526963623046875,0.20855480432510376,0.3135635256767273,0.04602954164147377
1790763748314002400,6.53700244140625,0.20216907560825348,0.31458723545074463,-0.022608639672398567
1790763748324041700,6.547041748046875,0.18586812913417816,0.31509724259376526,-0.09177279472351074
1790763748334079500,6.55707958984375,0.1865701526403427,0.31636595726013184,-0.10793658345937729
1790763748344118500,6.567118408203125,0.19842414557933807,0.3321166932582855,-0.08816394954919815
1790763748354156500,6.577156494140625,0.21246938407421112,0.3335270881652832,-0.09362076222896576
1790763748364195600,6.587195556640625,0.21560952067375183,0.33053237199783325,-0.11590103805065155
1790763748374233600,6.597233642578125,0.20765012502670288,0.33374467492103577,-0.0906505435705185
1790763748384272600,6.607272705078125,0.18712647259235382,0.3196467161178589,-0.0444023534655571
1790763748394311400,6.6173115234375,0.16817329823970795,0.29101720452308655,-0.001659948262386024
1790763748404349400,6.627349365234375,0.15971136093139648,0.26185745000839233,0.03500032797455788
1790763748414388700,6.637388671875,0.15644100308418274,0.2364111989736557,0.04663114994764328
1790763748424426500,6.647426513671875,0.14661847054958344,0.21188588440418243,0.0572209432721138
1790763748434465500,6.657465576171875,0.12914839386940002,0.198409765958786,0.07189815491437912
1790763748444503600,6.667503662109375,0.10431309044361115,0.1879563182592392,0.06698409467935562
1790763748454542600,6.67754248046875,0.0814804807305336,0.16999410092830658,0.05897809937596321
1790763748464581400,6.687581298828125,0.06216909736394882,0.15333814918994904,0.04072319343686104
1790763748474619600,6.69761962890625,0.047273505479097366,0.13444596529006958,0.012224175967276096
1790763748484658400,6.707658447265625,0.036677852272987366,0.10323264449834824,0.0024559672456234694
1790763748494696700,6.71769677734375,0.021141504868865013,0.0691433846950531,-0.0018255969043821096
1790763748504735500,6.727735595703125,0.0022208099253475666,0.037767086178064346,-0.024752484634518623
1790763748514773500,6.7377734375,-0.02183579094707966,0.009640377014875412,-0.0485353097319603
1790763748524812500,6.7478125,-0.03820757195353508,-0.013877999037504196,-0.061466023325920105
1790763748534851600,6.7578515625,-0.03316780552268028,-0.03434519097208977,-0.05667686089873314
1790763748544889300,6.767889404296875,-0.00018375810759607702,-0.04169365018606186,-0.013503025285899639
1790763748554928600,6.7779287109375,0.050395794212818146,0.0393412820994854,0.036928724497556686
1790763748564966400,6.78796630859375,-0.017602961510419846,0.11100747436285019,-0.03663976863026619
1790763748575005400,6.79800537109375,-0.03183942288160324,0.009581521153450012,-0.08093160390853882
1790763748585043500,6.80804345703125,-0.10174766927957535,-0.054963383823633194,0.023813720792531967
1790763748595082500,6.81808251953125,-0.03190706670284271,-0.05992112308740616,0.14779132604599
1790763748605121500,6.82812158203125,-0.016042882576584816,-0.02376658283174038,0.09421198815107346
1790763748615159600,6.83815966796875,0.04114264249801636,-0.09378214925527573,-0.02196095883846283
1790763748625198600,6.848198486328125,-0.006103698629885912,-0.08200325816869736,-0.04574698209762573
1790763748635236600,6.858236572265625,-0.04941016063094139,-0.08459185063838959,0.008816128596663475
1790763748645275600,6.868275634765625,-0.08266931027173996,-0.047317180782556534,0.04668601229786873
1790763748655313400,6.8783134765625,-0.08014436811208725,-0.024461135268211365,0.03611938655376434
1790763748665352700,6.888352783203125,-0.05565926805138588,-0.04406359791755676,-0.0566270612180233
1790763748675391500,6.8983916015625,-0.0379636287689209,-0.10925964266061783,-0.1309305876493454
1790763748685429500,6.908429443359375,-0.0291134100407362,-0.19405576586723328,-0.07315197587013245
1790763748695468500,6.918468505859375,-0.03080478496849537,-0.22341471910476685,0.001255946815945208
1790763748705506600,6.928506591796875,-0.04354534670710564,-0.23506391048431396,-0.048719070851802826
1790763748715545600,6.938545654296875,-0.06926615536212921,-0.2186468541622162,-0.06893352419137955
1790763748725583600,6.94858349609375,-0.12430810183286667,-0.15247662365436554,0.035981435328722
1790763748735622700,6.95862255859375,-0.13218146562576294,-0.116568423807621,0.029320605099201202
1790763748745660400,6.968660400390625,-0.0709679126739502,-0.16018913686275482,-0.060748036950826645
1790763748755699700,6.97869970703125,-0.001356347929686308,-0.18073223531246185,-0.06641657650470734
1790763748765738500,6.988738525390625,-0.015222095884382725,-0.3057894706726074,-0.1709214150905609
1790763748775776500,6.998776611328125,-0.08820202946662903,-0.41895386576652527,-0.13430027663707733
1790763748785815600,7.008815673828125,-0.17349669337272644,-0.540808379650116,0.1607436090707779
1790763748795853600,7.018853515625,-0.2535395920276642,-0.5571995973587036,0.32647159695625305
1790763748805892400,7.028892333984375,-0.30060723423957825,-0.4868023991584778,0.19274121522903442
1790763748815931600,7.038931640625,-0.25408607721328735,-0.28036215901374817,-0.024406006559729576
1790763748825969400,7.048969482421875,-0.10421428829431534,-0.018999790772795677,-0.14345569908618927
1790763748836008400,7.059008544921875,0.11605709791183472,0.05578337237238884,-0.06816254556179047
1790763748846046500,7.06904638671875,0.20651082694530487,0.1378297656774521,0.09325990825891495
1790763748856085500,7.07908544921875,0.24098891019821167,0.1313798576593399,0.12246812134981155
1790763748866123500,7.08912353515625,0.2579447329044342,0.07080120593309402,0.02479110099375248
1790763748876162600,7.09916259765625,0.2347685694694519,0.0627954751253128,-0.057067014276981354
1790763748886200300,7.109200439453125,0.18239431083202362,0.04237888380885124,-0.07011677324771881
1790763748896239600,7.119239501953125,0.14664696156978607,0.03494413569569588,-0.02267814800143242
1790763748906278700,7.129278564453125,0.12874838709831238,0.048102013766765594,0.038117025047540665
1790763748916316400,7.13931640625,0.10172902792692184,0.05372341722249985,0.03827228769659996
1790763748926355700,7.149355712890625,0.09033308923244476,0.05576499551534653,-0.01601438596844673
1790763748936393500,7.1593935546875,0.09499522298574448,0.07343506813049316,-0.05126718059182167
1790763748946432500,7.1694326171875,0.11103517562150955,0.08991151303052902,-0.06659527122974396
1790763748956470500,7.179470458984375,0.13362863659858704,0.10251891613006592,-0.040889110416173935
1790763748966509600,7.189509521484375,0.12734383344650269,0.13347923755645752,-0.019115105271339417
1790763748976548400,7.19954833984375,0.10853633284568787,0.15091334283351898,-0.10860157757997513
1790763748986586600,7.209586669921875,0.09692974388599396,0.18530380725860596,-0.12787966430187225
1790763748996625700,7.219625732421875,0.10340841114521027,0.20722801983356476,-0.04213893041014671
1790763749006663700,7.22966357421875,0.11865288019180298,0.23492595553398132,0.0012418320402503014
1790763749016702700,7.23970263671875,0.13504303991794586,0.23541678488254547,-0.026186596602201462
1790763749026740500,7.249740478515625,0.14221812784671783,0.24679780006408691,-0.017559552565217018
1790763749036779500,7.259779541015625,0.12301753461360931,0.24942633509635925,-0.007078948430716991
1790763749046818600,7.269818603515625,0.08402246236801147,0.22478170692920685,-0.052382782101631165
1790763749056856600,7.279856689453125,0.04676404222846031,0.20134030282497406,-0.09421385079622269
1790763749066895400,7.289895263671875,0.03632844612002373,0.19032573699951172,0.013101421296596527
1790763749076933600,7.29993359375,0.04436853155493736,0.1891677975654602,0.10567370057106018
1790763749086972400,7.309972412109375,0.052087970077991486,0.16503342986106873,0.05471358075737953
1790763749097010700,7.3200107421875,0.04550196975469589,0.1329798847436905,0.025537583976984024
1790763749107049500,7.330049560546875,0.003961718175560236,0.13867531716823578,-0.031605064868927
1790763749117088500,7.340088623046875,-0.03861556947231293,0.13469602167606354,-0.10777466744184494
1790763749127126500,7.35012646484375,-0.04043104499578476,0.14041677117347717,-0.10861196368932724
1790763749137165600,7.36016552734375,-0.019396601244807243,0.1374896913766861,-0.05582811310887337
1790763749147203300,7.370203369140625,-0.014614362269639969,0.13927426934242249,-0.047753673046827316
1790763749157242600,7.38024267578125,-0.03212597966194153,0.09738621115684509,-0.12797847390174866
1790763749167280400,7.3902802734375,-0.06511295586824417,0.08764249831438065,-0.0879407748579979
1790763749177319400,7.4003193359375,-0.10695840418338776,0.06761286407709122,-0.07511552423238754
1790763749187358700,7.410358642578125,-0.11183545738458633,0.02564411051571369,-0.07069254666566849
1790763749197396500,7.420396484375,-0.09827596694231033,0.05517643690109253,0.04874517023563385
1790763749207435500,7.430435546875,-0.08621211349964142,0.08557162433862686,0.08816980570554733
1790763749217473800,7.440473876953125,-0.07740823924541473,0.0768793374300003,0.023421436548233032
1790763749227512800,7.450512939453125,-0.10106829553842545,0.0781741663813591,-0.09110168367624283
1790763749237550800,7.46055078125,-0.12803280353546143,0.06657849252223969,-0.14428900182247162
1790763749247590000,7.47058984375,-0.15388570725917816,0.027601001784205437,0.003427754621952772
1790763749257628700,7.480628662109375,-0.16055504977703094,-0.004729773849248886,0.20465007424354553
1790763749267667000,7.4906669921875,-0.14489300549030304,-0.06760034710168839,0.13730885088443756
1790763749277705700,7.500705810546875,-0.15134131908416748,-0.10090237855911255,-0.1555515080690384
1790763749287743700,7.51074365234375,-0.2137943059206009,-0.02815733477473259,-0.2596241235733032
1790763749297782800,7.52078271484375,-0.22408902645111084,-0.05813014879822731,-0.0957755297422409
1790763749307821800,7.53082177734375,-0.24546967446804047,-0.05440065637230873,0.13850940763950348
1790763749317859600,7.540859619140625,-0.2751641869544983,-0.10340974479913712,0.028203941881656647
1790763749327898600,7.550898681640625,-0.27768567204475403,-0.18954595923423767,-0.10739436745643616
1790763749337936600,7.5609365234375,-0.2677161395549774,-0.17552176117897034,0.06336698681116104
1790763749347975700,7.5709755859375,-0.26317891478538513,-0.1546175330877304,0.17101702094078064
1790763749358014000,7.581013916015625,-0.2719915807247162,-0.1671421229839325,-0.15037858486175537
1790763749368052700,7.591052734375,-0.29696616530418396,-0.1513109654188156,-0.47156378626823425
1790763749378091800,7.601091796875,-0.32045018672943115,-0.17275339365005493,-0.11641822010278702
1790763749388129800,7.6111298828125,-0.3279578983783722,-0.19438092410564423,0.2950651943683624
1790763749398168800,7.6211689453125,-0.31621336936950684,-0.2747916281223297,0.4078117311000824
1790763749408206600,7.63120654296875,-0.31327828764915466,-0.19435270130634308,0.08681771904230118
1790763749418246000,7.641245849609375,-0.32483986020088196,-0.26436400413513184,-0.446695476770401
1790763749428283600,7.65128369140625,-0.28767386078834534,-0.08606670796871185,-0.7236679196357727
1790763749438322700,7.66132275390625,-0.24024589359760284,-0.17988693714141846,0.24459536373615265
1790763749448362000,7.671362060546875,-0.26161855459213257,-0.1264876276254654,0.7921602129936218
1790763749458399700,7.681399658203125,-0.27835333347320557,-0.34116530418395996,0.5868837237358093
1790763749468438800,7.691438720703125,-0.30290529131889343,-0.323859840631485,0.4602794647216797
1790763749478476800,7.701476806640625,-0.2899681627750397,-0.22959670424461365,0.32237938046455383
1790763749488515800,7.711515869140625,-0.25816550850868225,-0.1994936615228653,0.05614236369729042
1790763749498553900,7.721553955078125,-0.2169027477502823,-0.19807259738445282,-0.4917433559894562
1790763749508593000,7.731593017578125,-0.21317166090011597,-0.08972056210041046,-1.0493525266647339
1790763749518631700,7.741631591796875,-0.2036772221326828,-0.16380757093429565,-0.27187731862068176
1790763749528670000,7.751669921875,-0.17300213873386383,0.16249783337116241,0.5587854981422424
1790763749538708700,7.761708740234375,-0.11453643441200256,-0.14618436992168427,0.19689522683620453
1790763749548746800,7.771746826171875,-0.07716136425733566,-0.13037371635437012,-0.2075747698545456
1790763749558785800,7.781785888671875,-0.11698920279741287,-0.0706201046705246,-0.6925707459449768
1790763749568823800,7.79182373046875,-0.12247904390096664,0.09831325709819794,-0.7183642387390137
1790763749578862600,7.801862548828125,-0.08424670249223709,0.048355281352996826,0.22636869549751282
1790763749588901600,7.811901611328125,-0.08375295251607895,0.07736536115407944,0.6540044546127319
1790763749598939600,7.821939697265625,-0.04487026855349541,-0.10787852853536606,0.47555428743362427
1790763749608978700,7.831978759765625,-0.042929623275995255,-0.08939672261476517,0.25969335436820984
1790763749619016700,7.8420166015625,-0.07247979193925858,-0.015915850177407265,-0.01708204858005047
1790763749629055700,7.8520556640625,-0.07534162700176239,-0.005216599907726049,-0.024263793602585793
1790763749639093800,7.86209375,-0.11451992392539978,0.05047116428613663,0.1501452922821045
1790763749649132800,7.8721328125,-0.13505156338214874,0.13324007391929626,-0.06484717130661011
1790763749659171800,7.882171875,-0.0660509243607521,0.11028922349214554,-0.3947499692440033
1790763749669209600,7.892209716796875,-0.014590660110116005,0.11073131114244461,-0.3188379108905792
1790763749679249000,7.902248779296875,0.01884213089942932,0.10344357043504715,0.005572664551436901
1790763749689286700,7.91228662109375,0.02899410016834736,0.010056096129119396,0.05306534841656685
1790763749699325700,7.92232568359375,0.0010705908061936498,0.003875964554026723,-0.2798231244087219
1790763749709363700,7.93236376953125,-0.030421821400523186,0.035182755440473557,-0.6317247152328491
1790763749719402800,7.94240283203125,-0.02744201011955738,0.029464680701494217,-0.505618691444397
1790763749729441500,7.952441650390625,-0.03447222337126732,0.10008585453033447,0.19346080720424652
1790763749739479800,7.962479736328125,-0.036366261541843414,-0.02485261857509613,0.5580188035964966
1790763749749518800,7.972518798828125,-0.06978493928909302,-0.14688265323638916,0.5244006514549255
1790763749759556900,7.982556884765625,-0.09186281263828278,-0.09177839010953903,0.5166556239128113
1790763749769596000,7.992595947265625,-0.06195924058556557,-0.0605352483689785,0.3437885344028473
1790763749779633700,8.002633544921874,0.022836873307824135,-0.12972471117973328,0.0937802866101265
1790763749789673000,8.0126728515625,0.09221674501895905,-0.02546141855418682,-0.577264130115509
1790763749799711700,8.022711669921875,0.047991495579481125,0.11928458511829376,-1.1945604085922241
1790763749809749800,8.032749755859374,-0.08299075812101364,-0.21370163559913635,0.18882663547992706
1790763749819788800,8.042788818359375,-0.17001433670520782,-0.035710327327251434,0.8934740424156189
1790763749829826800,8.052826904296875,-0.06346020102500916,-0.3803454637527466,0.5953896045684814
1790763749839865600,8.062865478515626,0.029937125742435455,-0.18672408163547516,0.04625990614295006
1790763749849903900,8.07290380859375,-0.04675712063908577,-0.40813183784484863,-0.7577531933784485
1790763749859942700,8.082942626953125,-0.11857085675001144,-0.4411454498767853,-1.1374555826187134
1790763749869981700,8.092981689453126,-0.10841568559408188,-0.4372473657131195,0.338917076587677
1790763749880019700,8.103019775390624,-0.23843494057655334,-0.318073570728302,0.9474294185638428
1790763749890058800,8.113058837890625,-0.2726360559463501,-0.22606056928634644,0.5036042928695679
1790763749900096800,8.1230966796875,-0.3054105043411255,-0.17183753848075867,-0.01998675800859928
1790763749910135800,8.1331357421875,-0.270328164100647,-0.46056440472602844,-0.5986306667327881
1790763749920174800,8.1431748046875,-0.15249580144882202,-0.21880212426185608,-0.3812352418899536
1790763749930212900,8.153212890625,-0.17098186910152435,-0.24709047377109528,0.6710572242736816
1790763749940252000,8.163251953125,-0.1871592402458191,-0.42745038866996765,0.7701377272605896
1790763749950289700,8.17328955078125,-0.23819498717784882,-0.17886614799499512,0.05895093455910683
1790763749960328700,8.18332861328125,-0.27235695719718933,-0.39250972867012024,-0.9675016403198242
1790763749970366700,8.19336669921875,-0.15607082843780518,-0.44505149126052856,-0.44083571434020996
1790763749980405800,8.20340576171875,-0.13799434900283813,-0.06084097921848297,0.9263683557510376
1790763749990444500,8.213444580078125,-0.17345088720321655,-0.40036019682884216,1.080214023590088
1790763750000482800,8.22348291015625,-0.14989522099494934,-0.0326109416782856,0.7429457902908325
1790763750010521600,8.233521484375,-0.20541679859161377,0.2276587188243866,-0.4665445387363434
1790763750020560000,8.243559814453125,-0.16080085933208466,-0.3953143060207367,-1.5048471689224243
1790763750030598700,8.2535986328125,-0.1076849177479744,-0.1618403047323227,-1.4050294160842896
1790763750040636700,8.26363671875,0.018372615799307823,-0.07104514539241791,0.46326619386672974
1790763750050676000,8.273676025390625,0.07742208987474442,0.12454964965581894,0.7575598955154419
1790763750060714800,8.28371484375,0.13996775448322296,0.021798506379127502,0.4964483678340912
1790763750070752800,8.293752685546876,0.2205616682767868,0.14981426298618317,0.2383611649274826
1790763750080791800,8.303791748046875,0.28821447491645813,0.39772605895996094,0.19332019984722137
1790763750090829800,8.313829833984375,0.3613044023513794,0.29822343587875366,0.29987725615501404
1790763750100868600,8.32386865234375,0.34432968497276306,0.46274900436401367,0.23887330293655396
1790763750110907000,8.333906982421874,0.3733687996864319,0.43820318579673767,-0.20620696246623993
1790763750120945700,8.343945556640625,0.41724756360054016,0.44139364361763,-0.06912846863269806
1790763750130984700,8.353984619140626,0.4285971522331238,0.45896464586257935,0.42497819662094116
1790763750141022700,8.364022705078124,0.49428829550743103,0.3287248909473419,0.039266712963581085
1790763750151061800,8.374061767578125,0.5194492936134338,0.3481457233428955,-0.6855133771896362
1790763750161099800,8.384099853515625,0.4125601351261139,0.3318288028240204,-0.5385870337486267
1790763750171138800,8.394138916015624,0.3583128750324249,0.49820953607559204,-0.0003989415417890996
1790763750181177900,8.404177734375,0.33258435130119324,0.3430319130420685,-0.061767492443323135
1790763750191215900,8.4142158203125,0.33139684796333313,0.2551044523715973,0.17529858648777008
1790763750201255000,8.4242548828125,0.3077809810638428,0.3199545741081238,0.11074036359786987
1790763750211293200,8.434293212890625,0.27057555317878723,0.3238374590873718,-0.34161484241485596
1790763750221332200,8.444332275390625,0.25592073798179626,0.3473302721977234,-0.4415837824344635
1790763750231370200,8.454370361328126,0.22456279397010803,0.41579774022102356,-0.035961996763944626
1790763750241409300,8.4644091796875,0.23968370258808136,0.43860745429992676,0.3584100902080536
1790763750251448300,8.4744482421875,0.28867068886756897,0.401268869638443,0.48106488585472107
1790763750261486300,8.484486328125,0.3979492485523224,0.3762628436088562,0.41347599029541016
1790763750271525400,8.494525390625,0.4574336111545563,0.3337521255016327,0.05915014073252678
1790763750281563400,8.5045634765625,0.3722284138202667,0.1222635954618454,-0.2279578000307083
1790763750291602400,8.5146025390625,0.06430761516094208,0.1610701084136963,0.08734715729951859
1790763750301640200,8.52464013671875,-0.17823418974876404,0.018546786159276962,0.4046199321746826
1790763750311679500,8.534679443359375,-0.26160311698913574,-0.10103952884674072,0.40711504220962524
1790763750321718300,8.54471826171875,-0.17835615575313568,-0.26054877042770386,0.06766986101865768
1790763750331756300,8.55475634765625,0.0013307816116139293,-0.404971182346344,-0.00959909800440073
1790763750341795300,8.56479541015625,0.06418218463659286,-0.34062284231185913,-0.06636970490217209
1790763750351833300,8.574833251953125,0.017139039933681488,-0.16513222455978394,-0.3115813136100769
1790763750361872100,8.5848720703125,-0.15913265943527222,0.047564055770635605,-0.863513708114624
1790763750371910400,8.594910400390624,-0.4145985245704651,-0.3354954421520233,-1.1810972690582275
1790763750381949200,8.60494921875,-0.49941807985305786,-0.270889550447464,-0.19740627706050873
1790763750391988200,8.61498828125,-0.5031914710998535,-0.4156949520111084,0.28630632162094116
1790763750402026500,8.625026611328124,-0.41873255372047424,-0.7443596720695496,0.37842878699302673
1790763750412065300,8.635065185546875,-0.39040663838386536,-0.5230054259300232,0.1909068375825882
1790763750422103300,8.645103271484375,-0.45610174536705017,-0.3615472912788391,-0.07571793347597122
1790763750432142300,8.655142333984376,-0.5281205773353577,-0.6000956892967224,-0.4495263993740082
1790763750442181400,8.665181396484375,-0.6131371855735779,-0.40968072414398193,-0.5401418209075928
1790763750452219100,8.67521923828125,-0.5266773700714111,-0.3781774044036865,0.4678918421268463
1790763750462258400,8.685258544921876,-0.4819301664829254,-0.24470534920692444,0.7840654850006104
1790763750472296200,8.695296142578124,-0.30227571725845337,-0.20180076360702515,0.19993574917316437
1790763750482335200,8.705335205078125,-0.0378083661198616,-0.1563214361667633,0.14744457602500916
1790763750492373200,8.715373291015625,-0.0220352616161108,-0.05120246857404709,0.6875328421592712
1790763750502412300,8.725412353515624,-0.054601725190877914,-0.16661667823791504,0.6016536355018616
1790763750512451300,8.735451416015625,-0.09578485041856766,-0.1952539086341858,0.17187002301216125
1790763750522489300,8.7454892578125,-0.1079496368765831,-0.07031277567148209,0.04698748141527176
1790763750532528400,8.7555283203125,-0.07562419027090073,-0.009530121460556984,-0.07482044398784637
1790763750542566400,8.76556640625,-0.017226124182343483,0.03816043585538864,-0.425370991230011
1790763750552605400,8.77560546875,0.10677704960107803,0.1121760755777359,-0.2302025705575943
1790763750562643200,8.785643310546876,0.1462152600288391,0.20727142691612244,0.19299395382404327
1790763750572682500,8.7956826171875,0.14372681081295013,0.2220945805311203,0.07386543601751328
1790763750582721300,8.80572119140625,0.14599235355854034,0.288784384727478,-0.2987038791179657
1790763750592759300,8.81575927734375,0.1880979984998703,0.26255732774734497,-0.6987343430519104
1790763750602798300,8.82579833984375,0.26793983578681946,0.36546799540519714,-0.6269224882125854
1790763750612836400,8.83583642578125,0.31512385606765747,0.40353333950042725,0.0062424493953585625
1790763750622875100,8.845875244140625,0.31230437755584717,0.36350682377815247,0.33131614327430725
1790763750632914400,8.85591455078125,0.28034377098083496,0.3373836278915405,0.32900506258010864
1790763750642952200,8.8659521484375,0.2515701949596405,0.3797262907028198,-0.04190430790185928
1790763750652991200,8.8759912109375,0.31054481863975525,0.42721736431121826,-0.26857152581214905
1790763750663029200,8.886029296875,0.3880675733089447,0.482561856508255,0.24137799441814423
1790763750673068300,8.896068359375,0.41651013493537903,0.5039553046226501,0.5998280048370361
1790763750683106300,8.906106201171875,0.40950921177864075,0.4462161064147949,0.2558581531047821
1790763750693145300,8.916145263671876,0.32429471611976624,0.4131351113319397,-0.26180869340896606
1790763750703184400,8.926184326171875,0.21749450266361237,0.37173280119895935,-0.044924598187208176
1790763750713222100,8.93622216796875,0.16928783059120178,0.44211962819099426,0.35290879011154175
1790763750723261400,8.946261474609376,0.18217432498931885,0.279147207736969,0.07886552065610886
1790763750733299200,8.95629931640625,0.19648349285125732,0.17452600598335266,-0.12872788310050964
1790763750743338200,8.966338134765625,0.18123769760131836,0.20053842663764954,-0.06607861816883087
1790763750753376300,8.976376220703125,0.10532855242490768,0.1668795347213745,-0.22521793842315674
1790763750763415300,8.986415283203126,0.04422818124294281,0.07435039430856705,-0.35006481409072876
1790763750773454000,8.9964541015625,0.00012064119800925255,0.08990698307752609,-0.1800571233034134
1790763750783492400,9.006492431640625,0.0029755497816950083,0.10128933936357498,-0.15075302124023438
1790763750793531100,9.01653125,0.05124747380614281,0.11535642296075821,-0.4422397315502167
1790763750803569400,9.0265693359375,0.06540670245885849,0.1390441656112671,-0.752103328704834
1790763750813608400,9.0366083984375,0.08171110600233078,0.09121859073638916,-0.05946119502186775
1790763750823647200,9.046647216796876,0.030834877863526344,0.11756950616836548,0.48507988452911377
1790763750833685500,9.056685546875,-0.05097822844982147,0.07693419605493546,0.19314202666282654
1790763750843724300,9.066724365234375,-0.046719301491975784,0.08570371568202972,-0.09986161440610886
1790763750853762300,9.07676220703125,0.0312279611825943,0.012047342024743557,-0.4980263113975525
1790763750863801300,9.08680126953125,0.13655145466327667,0.128683939576149,-0.18613524734973907
1790763750873839400,9.09683935546875,0.14425651729106903,0.24206936359405518,0.7908589839935303
1790763750883878100,9.106878173828125,0.08911948651075363,0.10981890559196472,0.6641673445701599
1790763750893917400,9.11691748046875,0.062306251376867294,0.005679457448422909,0.3314005732536316
1790763750903955200,9.126955078125,0.0778077095746994,0.10346513986587524,0.48703864216804504
1790763750913994200,9.136994140625,0.10540498793125153,0.29608413577079773,0.2177262008190155
1790763750924032300,9.1470322265625,0.14767920970916748,0.21792247891426086,-0.32149919867515564
1790763750934071300,9.1570712890625,0.19971631467342377,0.21869824826717377,-0.3322376012802124
1790763750944109300,9.167109375,0.1743267923593521,0.2868235111236572,-0.004020574036985636
1790763750954148400,9.1771484375,0.16361530125141144,0.09766317903995514,-0.33574363589286804
1790763750964187400,9.1871875,0.0753948912024498,0.014004765078425407,-0.7850660681724548
1790763750974225400,9.197225341796875,-0.020360665395855904,-0.03377500921487808,-0.6409419178962708
1790763750984264400,9.207264404296875,-0.044727522879838943,0.02756265178322792,-0.267938494682312
1790763750994302200,9.21730224609375,-0.05868115648627281,-0.05113668739795685,-0.7205634713172913
1790763751004341200,9.22734130859375,-0.025193769484758377,-0.08430715650320053,-1.003585934638977
1790763751014380300,9.23738037109375,0.07852569967508316,-0.009809753857553005,-0.15770681202411652
1790763751024418300,9.247418212890626,0.04770920053124428,0.07359299063682556,0.23692280054092407
1790763751034457000,9.25745703125,-0.00034354778472334146,0.15813663601875305,-0.22418808937072754
1790763751044495400,9.267495361328125,0.07443055510520935,0.1447174996137619,-0.5368304252624512
1790763751054534100,9.2775341796875,0.10291200131177902,0.12905465066432953,0.6339377760887146
1790763751064572400,9.287572509765624,0.11258353292942047,0.0749349594116211,1.6015348434448242
1790763751074611200,9.297611083984375,0.16620388627052307,0.04670385643839836,1.6829761266708374
1790763751084650200,9.307650146484375,0.20186814665794373,0.25029054284095764,1.3765251636505127
1790763751094688500,9.3176884765625,0.14998097717761993,0.020118584856390953,0.4273574650287628
1790763751104727300,9.327727294921875,0.14768746495246887,-0.3873586356639862,-0.5894648432731628
1790763751114765300,9.337765380859375,0.15133945643901825,-0.15911056101322174,-1.0282691717147827
1790763751124804400,9.347804443359376,0.06408657133579254,0.13417324423789978,0.4292110204696655
1790763751134842400,9.35784228515625,0.07461351901292801,0.11195716261863708,0.93426114320755
1790763751144881200,9.367881103515625,0.07652407139539719,0.23989088833332062,0.43471071124076843
1790763751154920400,9.37792041015625,0.15437492728233337,0.11517000198364258,-0.32769450545310974
1790763751164958200,9.387958251953124,0.19110390543937683,-0.13421213626861572,-0.7329086065292358
1790763751174997200,9.397997314453125,0.18038468062877655,0.07980455458164215,-0.20776917040348053
1790763751185035300,9.40803515625,0.11215823143720627,-0.14431323111057281,0.14473028481006622
1790763751195074300,9.41807421875,0.09300237894058228,0.23271048069000244,-0.1738777905702591
1790763751205113300,9.42811328125,0.07724259048700333,0.24131035804748535,-0.905956506729126
1790763751215150300,9.438150390625,0.12190166860818863,0.09887544810771942,-1.2136651277542114
1790763751225189400,9.448189453125,0.15462206304073334,0.20359812676906586,0.048893507570028305
1790763751235227400,9.458227294921874,0.14794819056987762,0.2147866040468216,0.08586377650499344
1790763751245266400,9.468266357421875,0.23766209185123444,0.1224803775548935,-0.029265476390719414
1790763751255304400,9.478304443359375,0.2590312957763672,0.231944277882576,0.049007490277290344
1790763751265343500,9.488343505859374,0.3132258355617523,0.254975289106369,0.2281964123249054
1790763751275382300,9.49838232421875,0.39016562700271606,0.350309818983078,0.8627041578292847
1790763751285420500,9.508420654296875,0.3536504805088043,0.4325633943080902,0.5478604435920715
1790763751295459300,9.518459228515624,0.3216395378112793,0.3370656371116638,-0.3246009945869446
1790763751305497300,9.528497314453125,0.38592877984046936,0.2754337191581726,-0.037814490497112274
1790763751315536400,9.538536376953125,0.33904969692230225,0.5217739939689636,0.512485921382904
1790763751325574400,9.548574462890626,0.3166053891181946,0.3432324528694153,-0.08074011653661728
1790763751335613400,9.558613525390625,0.3047313988208771,0.31631988286972046,-0.6510614156723022
1790763751345652200,9.56865234375,0.28089237213134766,0.30747127532958984,-0.23217837512493134
1790763751355690500,9.5786904296875,0.2967829406261444,0.3687277138233185,0.1299995481967926
1790763751365729300,9.588729248046874,0.31117013096809387,0.29111865162849426,-0.3627398610115051
1790763751375767600,9.598767578125,0.37440264225006104,0.2387515902519226,-0.17352385818958282
1790763751385806300,9.608806396484376,0.33469730615615845,0.28383758664131165,0.34703439474105835
1790763751395845400,9.618845458984374,0.27944281697273254,0.48775050044059753,-0.034377679228782654
1790763751405883400,9.62888330078125,0.28288283944129944,0.4253627359867096,-0.7390599250793457
1790763751415922400,9.63892236328125,0.32698318362236023,0.31358802318573,-0.2518484890460968
1790763751425960200,9.648960205078126,0.3268201947212219,0.47367969155311584,0.34057381749153137
1790763751435999500,9.65899951171875,0.3466458320617676,0.32359829545021057,-0.04127154126763344
1790763751446037200,9.669037353515625,0.316206693649292,0.289828896522522,0.4314371645450592
1790763751456076300,9.679076171875,0.31790128350257874,0.21017667651176453,0.9821085333824158
1790763751466115600,9.689115478515625,0.38108131289482117,0.24093112349510193,0.9820936322212219
1790763751476153300,9.6991533203125,0.37380874156951904,0.4002957344055176,0.7679134607315063
1790763751486192400,9.7091923828125,0.2907354235649109,0.318032830953598,0.20600509643554688
1790763751496230400,9.71923046875,0.1878676414489746,0.1667032241821289,-0.3684147894382477
1790763751506269400,9.72926953125,0.225665882229805,-0.0044141896069049835,-0.6944085955619812
1790763751516308200,9.73930810546875,0.16494661569595337,0.24588699638843536,-0.5019291639328003
1790763751526346500,9.749346435546874,-0.012095279060304165,0.4964989721775055,-0.24461133778095245
1790763751536385300,9.75938525390625,0.014391189441084862,-0.15162068605422974,0.10503800213336945
1790763751546423600,9.769423583984375,0.0012956279097124934,0.02094709314405918,0.4311197102069855
1790763751556462300,9.77946240234375,0.02871127240359783,-0.08382326364517212,0.1644643098115921
1790763751566500400,9.789500244140624,0.10670594125986099,-0.1711946576833725,0.14080877602100372
1790763751576539400,9.799539306640625,0.1637982577085495,-0.18237167596817017,0.1045871302485466
1790763751586578400,9.809578369140626,0.13416099548339844,-0.0422864705324173,-0.025794845074415207
1790763751596616200,9.8196162109375,0.011176488362252712,-0.23503142595291138,-0.2181171476840973
1790763751606655200,9.8296552734375,-0.08162642270326614,0.0647134855389595,-0.2499730885028839
1790763751616693500,9.839693603515625,-0.1758735626935959,0.07130347192287445,-0.14153635501861572
1790763751626732300,9.849732177734374,-0.22461925446987152,0.0720965638756752,0.007420632056891918
1790763751636770600,9.8597705078125,-0.2840663492679596,-0.16294418275356293,0.18259963393211365
1790763751646809300,9.869809326171875,-0.3474048376083374,-0.2685459852218628,0.32783937454223633
1790763751656848400,9.879848388671874,-0.3871043026447296,-0.2625839412212372,0.05842975527048111
1790763751666886400,9.889886474609375,-0.33046793937683105,-0.34549054503440857,-0.2758291959762573
1790763751676925400,9.899925537109375,-0.18083076179027557,-0.29276955127716064,0.030170684680342674
1790763751686963200,9.909963134765626,-0.26673927903175354,-0.11622114479541779,0.22900442779064178
1790763751697002500,9.92000244140625,-0.3686419427394867,-0.25106099247932434,-0.1960587203502655
1790763751707041300,9.930041259765625,-0.44751012325286865,-0.3352440297603607,-0.6800171136856079
1790763751717079300,9.940079345703126,-0.4376239478588104,-0.3167997896671295,-0.1692124605178833
1790763751727118600,9.95011865234375,-0.39606237411499023,-0.18138070404529572,0.4862455427646637
1790763751737156400,9.96015625,-0.3969244360923767,-0.2973981201648712,0.041617218405008316
1790763751747195400,9.9701953125,-0.34798645973205566,-0.43111756443977356,-0.5386536121368408
1790763751757233400,9.9802333984375,-0.3345226049423218,-0.44564858078956604,-0.8119586706161499
1790763751767272400,9.9902724609375,-0.4205935597419739,-0.36257579922676086,-0.16395777463912964
1790763751777311200,10.000311279296875,-0.4244095981121063,-0.24448378384113312,-0.03178988769650459
1790763751787349500,10.010349609375,-0.3569227159023285,-0.39180371165275574,-0.2757985591888428
1790763751797388300,10.02038818359375,-0.3363218307495117,-0.4508052468299866,0.1317894607782364
1790763751807426600,10.030426513671875,-0.3771052062511444,-0.6321566700935364,0.7283228635787964
1790763751817465300,10.04046533203125,-0.41554340720176697,-0.4505954086780548,0.6733176708221436
1790763751827504400,10.05050439453125,-0.4617577791213989,0.0740012601017952,0.146426722407341
1790763751837542400,10.06054248046875,-0.5083175301551819,-0.5222496390342712,-0.6827330589294434
1790763751847581400,10.07058154296875,-0.4586203098297119,-0.5332793593406677,-0.7507326006889343
1790763751857619200,10.080619140625,-0.3549133539199829,-0.34952178597450256,-0.12266706675291061
1790763751867658500,10.090658447265625,-0.3964264392852783,-0.23979687690734863,-0.2411992996931076
1790763751877696300,10.1006962890625,-0.2796039581298828,-0.39510577917099,0.005132177844643593
1790763751887735300,10.1107353515625,-0.25317686796188354,-0.37811559438705444,0.39935776591300964
1790763751897774300,10.1207744140625,-0.31780245900154114,-0.36516544222831726,-0.1338675171136856
1790763751907812400,10.130812255859375,-0.34868794679641724,-0.48788151144981384,-0.7724727988243103
1790763751917851400,10.140851318359376,-0.365817666053772,-0.6131047010421753,0.11204957216978073
1790763751927889400,10.150889404296874,-0.40852516889572144,-0.4761641323566437,0.6838531494140625
1790763751937928400,10.160928466796875,-0.4695741534233093,-0.37567028403282166,0.19998528063297272
1790763751947967200,10.17096728515625,-0.35843324661254883,-0.5142795443534851,-0.08585711568593979
1790763751958005500,10.181005615234374,-0.22700145840644836,-0.297708660364151,0.1945982426404953
1790763751968044300,10.191044189453125,-0.08350181579589844,-0.04234931990504265,0.16610269248485565
1790763751978082300,10.201082275390625,-0.06769835203886032,-0.07716056704521179,-0.41345149278640747
1790763751988121300,10.211121337890624,-0.08153853565454483,-0.18755552172660828,-0.08646911382675171
1790763751998159400,10.221159423828125,-0.14139121770858765,-0.05861803889274597,0.003299390198662877
1790763752008198100,10.2311982421875,-0.16283684968948364,-0.31308653950691223,-0.7707681059837341
1790763752018237400,10.241237548828124,-0.15030108392238617,-0.3230030834674835,-0.19668883085250854
1790763752028275500,10.251275390625,-0.19932802021503448,-0.2818279564380646,0.057372480630874634
1790763752038314200,10.261314208984375,-0.2514399588108063,-0.28926563262939453,-0.3444063663482666
1790763752048352500,10.2713525390625,-0.20602400600910187,-0.25130733847618103,-0.5331645607948303
1790763752058391300,10.281391357421874,-0.10360895097255707,-0.12135519087314606,-0.23847462236881256
1790763752068429600,10.2914296875,0.02532293274998665,0.0357968807220459,0.08372126519680023
1790763752078468400,10.30146826171875,0.03181518614292145,0.02996162697672844,-0.30748724937438965
1790763752088507400,10.31150732421875,0.010567156597971916,-0.07165954262018204,-0.2583037316799164
1790763752098545400,10.32154541015625,-0.07827376574277878,-0.04452991858124733,0.19075876474380493
1790763752108584400,10.33158447265625,-0.11995010823011398,-0.18943490087985992,-0.11523231863975525
1790763752118622200,10.341622314453126,-0.10719329863786697,-0.21387048065662384,0.16690988838672638
1790763752128661500,10.35166162109375,-0.0846797302365303,-0.2216799259185791,0.46991369128227234
1790763752138700500,10.361700439453125,-0.03116271272301674,-0.16191965341567993,0.45096850395202637
1790763752148738300,10.37173828125,0.06581389904022217,-0.050704989582300186,0.09373874217271805
1790763752158777600,10.381777587890625,0.09997773170471191,-0.01798272877931595,-0.1793183535337448
1790763752168815400,10.3918154296875,0.07526519149541855,-0.01098474022001028,0.10133621096611023
1790763752178854400,10.4018544921875,0.011692075990140438,0.008802546188235283,0.30116036534309387
1790763752188892400,10.411892333984374,-0.0008018778171390295,-0.08387891948223114,0.5475366115570068
1790763752198931500,10.421931396484375,0.02875974215567112,-0.2434621900320053,0.7707641124725342
1790763752208971000,10.431970947265626,0.08754129707813263,0.12588335573673248,0.46718981862068176
1790763752219009300,10.44200927734375,0.08475829660892487,0.009332781657576561,-0.34942004084587097
1790763752229048000,10.452048095703125,0.12591931223869324,-0.1413011997938156,-1.0443754196166992
1790763752239086000,10.462086181640625,0.11082984507083893,-0.042385805398225784,-0.6194691061973572
1790763752249125000,10.472125,0.002389121800661087,0.21593362092971802,-0.14984169602394104
1790763752259164200,10.4821640625,0.05270262435078621,-0.026789003983139992,0.26372724771499634
1790763752269202000,10.492201904296875,0.02924230694770813,-0.28115445375442505,0.8307501673698425
1790763752279241000,10.502240966796874,-0.026309633627533913,-0.22908617556095123,0.99202561378479
1790763752289279000,10.512279052734375,-0.03238856419920921,0.16921912133693695,0.899604082107544
1790763752299318000,10.522318115234375,0.013703028671443462,0.5286933779716492,0.37167420983314514
1790763752309356000,10.53235595703125,0.012064652517437935,0.0906289666891098,-0.5708299279212952
1790763752319395000,10.54239501953125,0.11122159659862518,-0.2918158769607544,-1.5626672506332397
1790763752329434000,10.55243408203125,0.09095307439565659,-0.20370624959468842,-0.9748599529266357
1790763752339472100,10.56247216796875,0.0876488909125328,0.3666831851005554,1.230964183807373
1790763752349511200,10.57251123046875,0.15069550275802612,0.05964016169309616,0.7547765970230103
1790763752359549000,10.582548828125,0.1558721512556076,0.023801203817129135,0.14902064204216003
1790763752369588200,10.592588134765625,0.13842099905014038,0.09167639166116714,-0.682985246181488
1790763752379627000,10.602626953125,0.12492702156305313,0.17679794132709503,-1.391550898551941
1790763752389665000,10.6126650390625,0.1848183125257492,0.15763676166534424,-0.1814214587211609
1790763752399704000,10.6227041015625,0.1579558104276657,0.22958631813526154,0.8534523248672485
1790763752409742000,10.6327421875,0.09636887907981873,0.18403135240077972,0.4659583866596222
1790763752419780900,10.64278076171875,0.1177830919623375,0.08583901077508926,0.5521460175514221
1790763752429819100,10.652819091796875,0.1313692033290863,0.2922230660915375,0.5067129731178284
1790763752439858000,10.66285791015625,0.2203507423400879,0.42925843596458435,-0.20275656878948212
1790763752449897000,10.67289697265625,0.302269846200943,0.31073737144470215,-0.8516533374786377
1790763752459935000,10.68293505859375,0.3049125075340271,0.29052984714508057,-0.21113914251327515
1790763752469974000,10.69297412109375,0.3392297327518463,0.4618872106075287,0.6494978666305542
1790763752480012000,10.703011962890624,0.4243840277194977,0.3338906168937683,1.0395220518112183
1790763752490051000,10.713051025390625,0.4816606342792511,0.25802063941955566,1.1712182760238647
1790763752500090000,10.723090087890625,0.5220687985420227,0.465973824262619,1.2327921390533447
1790763752510128000,10.733128173828124,0.49332237243652344,0.6138807535171509,0.8563932180404663
1790763752520167200,10.743167236328125,0.3913933336734772,0.30964893102645874,0.5322625637054443
1790763752530205000,10.753204833984375,0.29437437653541565,0.3941342532634735,0.4760432243347168
1790763752540244200,10.763244140625,0.23870472609996796,0.6943668127059937,-0.22654180228710175
1790763752550282000,10.773281982421874,0.24736319482326508,0.19152362644672394,-1.2758240699768066
1790763752560321000,10.783321044921875,0.29274478554725647,0.06075495854020119,-1.9620122909545898
1790763752570360000,10.793360107421876,0.25580674409866333,0.4821629226207733,-2.093930721282959
1790763752580398000,10.803398193359374,0.30232179164886475,0.40078815817832947,-0.1327846795320511
1790763752590436900,10.813436767578125,0.2500450015068054,0.4592165946960449,0.9467939734458923
1790763752600475100,10.82347509765625,0.2402496188879013,0.5321453809738159,0.7028049826622009
1790763752610514200,10.83351416015625,0.2634851634502411,0.3652549386024475,-0.3060387372970581
1790763752620553000,10.843552978515625,0.3057367503643036,0.1321047693490982,-1.525282859802246
1790763752630591200,10.85359130859375,0.2516026794910431,0.16029992699623108,-0.76756751537323
1790763752640630000,10.863630126953124,0.1376556009054184,0.6108260750770569,0.9937700033187866
1790763752650668000,10.87366796875,0.11044181883335114,0.33575910329818726,0.5073063373565674
1790763752660707000,10.88370703125,0.2751657962799072,0.2931261360645294,-0.1487649828195572
1790763752670745000,10.8937451171875,0.31311529874801636,0.3949390649795532,-0.8169891238212585
1790763752680784000,10.903783935546874,0.3326735496520996,0.4263734221458435,-0.7097790241241455
1790763752690823200,10.9138232421875,0.2789517343044281,0.4876077473163605,0.7460020184516907
1790763752700861000,10.92386083984375,0.16059580445289612,0.3360770642757416,0.999269962310791
1790763752710900000,10.93389990234375,0.08554819226264954,0.2178223431110382,0.8240467309951782
1790763752720938000,10.94393798828125,0.10744470357894897,0.13893364369869232,0.9463977217674255
1790763752730977000,10.95397705078125,0.18982559442520142,0.10375702381134033,1.1206635236740112
1790763752741016000,10.96401611328125,0.29798534512519836,0.6235219240188599,0.7369597554206848
1790763752751054000,10.97405419921875,0.26082679629325867,0.3984648287296295,-0.2901093065738678
1790763752761093000,10.984093017578125,0.2339744120836258,0.242812380194664,-0.9428173303604126
1790763752771131100,10.994131103515626,0.2280169278383255,0.2164686620235443,-1.33542001247406
1790763752781170200,11.004170166015625,0.027124028652906418,0.2859121859073639,-0.5503190755844116
1790763752791208000,11.0142080078125,0.09636009484529495,0.44574180245399475,0.6350510120391846
1790763752801247200,11.024247314453126,0.1425749957561493,0.17469005286693573,0.9937774538993835
1790763752811286000,11.0342861328125,0.18894222378730774,-0.06430628150701523,1.291486382484436
1790763752821324000,11.044323974609375,0.2603309154510498,0.7282432317733765,0.8513268232345581
1790763752831363000,11.054363037109376,0.21657651662826538,0.2098562866449356,-0.3595685660839081
1790763752841401000,11.064401123046874,0.04135782644152641,0.26566281914711,-0.9589625000953674
1790763752851439900,11.07443994140625,-0.007178816944360733,0.0869535431265831,-1.562771201133728
1790763752861479200,11.084479248046875,-0.10180572420358658,0.06297843158245087,-2.032184600830078
1790763752871517000,11.094516845703126,-0.04952014982700348,0.22826139628887177,-1.0764838457107544
1790763752881556000,11.104555908203125,0.014785869978368282,0.7045462131500244,1.03057062625885
1790763752891594000,11.114593994140625,0.01690414920449257,0.3898793160915375,0.7033637166023254
1790763752901633000,11.124633056640626,0.1963849663734436,0.29058095812797546,-0.006652310024946928
1790763752911671000,11.134671142578124,0.22320406138896942,0.3363058567047119,-0.46591949462890625
1790763752921710000,11.1447099609375,0.04247981682419777,0.2790350914001465,0.5157656073570251
1790763752931749000,11.1547490234375,-0.024462731555104256,0.22636017203330994,1.058967113494873
1790763752941787000,11.164786865234374,-0.007465905509889126,0.27794507145881653,0.8230238556861877
1790763752951826200,11.174826171875,0.08625978976488113,0.2463189661502838,0.25810477137565613
1790763752961864000,11.184864013671875,0.06049636751413345,0.08337584882974625,-0.55784010887146
1790763752971903000,11.194903076171874,0.039135683327913284,0.009370598942041397,-1.1129989624023438
1790763752981942000,11.20494189453125,-0.1231411024928093,0.15806153416633606,0.22333161532878876
1790763752991980000,11.21497998046875,-0.2269202321767807,0.014937404543161392,0.6144666075706482
1790763753002018800,11.225018798828126,-0.2445322424173355,-0.054300256073474884,-0.01901150867342949
1790763753012057000,11.23505712890625,-0.21114206314086914,-0.14274144172668457,-0.637413740158081
1790763753022096100,11.24509619140625,-0.21415117383003235,-0.12188409268856049,-1.0895447731018066
1790763753032134100,11.255134033203126,-0.24231064319610596,-0.24528992176055908,-0.04482872411608696
1790763753042173200,11.265173095703124,-0.36933621764183044,-0.4600093960762024,1.260794758796692
1790763753052212000,11.2752119140625,-0.44329461455345154,-0.591526448726654,1.5028630495071411
1790763753062250200,11.285250244140625,-0.42836201190948486,0.06548180431127548,1.39766526222229
1790763753072289000,11.2952890625,-0.36111265420913696,-0.24168053269386292,0.4171588718891144
1790763753082327000,11.3053271484375,-0.281941682100296,-0.3388369083404541,-0.7606903910636902
1790763753092366000,11.315365966796875,-0.21423426270484924,-0.866943359375,-1.9101368188858032
1790763753102405000,11.325405029296874,-0.22841931879520416,-0.11198139190673828,-2.1530160903930664
1790763753112443000,11.33544287109375,-0.41162189841270447,-0.25244343280792236,0.6977418065071106
1790763753122482200,11.345482177734375,-0.3964863717556,-0.47756630182266235,1.2971255779266357
1790763753132520000,11.35552001953125,-0.22900575399398804,-0.3130021095275879,0.8295901417732239
1790763753142559000,11.36555908203125,-0.02009488269686699,-0.246958926320076,0.34018659591674805
1790763753152597000,11.375596923828125,-0.13507473468780518,-0.42909783124923706,-0.4329748749732971
1790763753162636000,11.385635986328126,-0.2862336337566376,-0.6028331518173218,-0.797903835773468
1790763753172675000,11.395675048828124,-0.402761846780777,-0.3476732671260834,0.7178364396095276
1790763753182713000,11.405713134765625,-0.4068215489387512,-0.5420688390731812,1.0741881132125854
1790763753192752000,11.415752197265626,-0.2431844174861908,-0.24367710947990417,-0.013026053085923195
1790763753202790100,11.4257900390625,-0.11260057985782623,-0.7123135328292847,-1.0507917404174805
1790763753212829000,11.435828857421875,-0.11236542463302612,-0.637417197227478,-1.1259546279907227
1790763753222867700,11.44586767578125,-0.4790875017642975,-0.35664573311805725,0.5486671328544617
1790763753232906000,11.455906005859376,-0.6079871654510498,-0.8472005128860474,0.658489465713501
1790763753242944800,11.46594482421875,-0.5462468266487122,-0.8782128095626831,0.4432373642921448
1790763753252982800,11.475982666015625,-0.5088506937026978,-0.5685758590698242,0.13187573850154877
1790763753263021800,11.486021728515626,-0.4636121392250061,-0.6175630688667297,-0.47383520007133484
1790763753273059800,11.496059814453124,-0.44460541009902954,-0.6334546804428101,-0.8340634107589722
1790763753283098600,11.5060986328125,-0.3810477554798126,0.1965242475271225,-0.7433004975318909
1790763753293137700,11.5161376953125,-0.18255703151226044,-0.22459502518177032,0.3373301029205322
1790763753303175700,11.52617578125,-0.15202096104621887,-0.2637333869934082,0.9083051681518555
1790763753313214700,11.536214599609375,-0.10844578593969345,-0.1676502525806427,0.3343428373336792
1790763753323252700,11.546252685546875,-0.081132672727108,-0.3969966173171997,-0.7493570446968079
1790763753333291800,11.556291748046876,-0.001874332781881094,-0.29799893498420715,-1.250608205795288
1790763753343330800,11.566330810546875,-0.011003915220499039,-0.0923999696969986,0.36547011137008667
1790763753353368800,11.576368896484375,-0.01008086372166872,-0.3404041826725006,0.7622856497764587
1790763753363408000,11.586407958984376,-0.03517769277095795,-0.2181488424539566,0.5052741169929504
1790763753373445600,11.596445556640624,0.005105546209961176,0.0254592876881361,0.09130168706178665
1790763753383485000,11.60648486328125,0.029638852924108505,-0.05916132405400276,-0.579351544380188
1790763753393522700,11.616522705078125,0.13588273525238037,0.03340322896838188,-0.6303086876869202
1790763753403561700,11.626561767578124,0.28613296151161194,0.16033640503883362,-0.12116929888725281
1790763753413600800,11.636600830078125,0.24173566699028015,0.26215970516204834,0.3665902316570282
1790763753423638800,11.646638671875,0.2675185203552246,0.053466953337192535,1.3182756900787354
1790763753433677800,11.656677734375,0.35062938928604126,0.19631119072437286,1.2671294212341309
1790763753443715800,11.6667158203125,0.3323957920074463,0.3155675530433655,0.8362440466880798
1790763753453755000,11.6767548828125,0.2297695428133011,0.2023286074399948,0.22443337738513947
1790763753463793700,11.686793701171876,0.25079306960105896,0.12223003804683685,-0.4086546003818512
1790763753473832000,11.69683203125,0.3103863596916199,-0.0732012465596199,-1.4956555366516113
1790763753483870700,11.70687060546875,0.35530775785446167,0.3458878993988037,-1.7667056322097778
1790763753493909000,11.716908935546876,0.18007203936576843,0.38823267817497253,0.33719348907470703
1790763753503947800,11.72694775390625,0.1446642428636551,0.11911068111658096,0.5537143349647522
1790763753513985800,11.73698583984375,0.20494969189167023,0.06420028954744339,-0.015330486930906773
1790763753524024800,11.74702490234375,0.22952187061309814,0.14007721841335297,-0.48265108466148376
1790763753534063900,11.75706396484375,0.1612141877412796,0.23126943409442902,-0.6903408765792847
1790763753544101600,11.7671015625,0.20186947286128998,0.25345250964164734,-0.5306723713874817
1790763753554141000,11.777140869140625,0.2025861293077469,0.2667515277862549,-0.015617841854691505
1790763753564178700,11.7871787109375,0.2316334992647171,0.265882283449173,1.0447652339935303
1790763753574217700,11.7972177734375,0.23003773391246796,0.3505582809448242,1.2140792608261108
1790763753584256800,11.8072568359375,0.2464023232460022,0.4606861174106598,0.8766233921051025
1790763753594294800,11.817294677734376,0.18417783081531525,0.18003767728805542,-0.249125137925148
1790763753604333800,11.827333740234375,0.197663813829422,0.06107933446764946,-1.028791069984436
1790763753614371800,11.837371826171875,0.19567762315273285,0.3392755389213562,-1.1860731840133667
1790763753624411000,11.847410888671876,0.042574625462293625,0.23994335532188416,-0.31204044818878174
1790763753634448600,11.85744873046875,0.014905712567269802,0.28679367899894714,0.1175956055521965
1790763753644488000,11.867488037109375,0.07262333482503891,0.12628629803657532,-0.29325130581855774
1790763753654526700,11.877526611328125,0.11870694160461426,0.15444283187389374,-0.4772786796092987
1790763753664564700,11.887564697265624,0.11461605876684189,0.1985330581665039,0.08243708312511444
1790763753674603800,11.897603759765625,0.044667068868875504,0.06668635457754135,0.6097704172134399
1790763753684641800,11.907641845703125,-0.06676597893238068,-0.4069427251815796,1.4039943218231201
1790763753694680600,11.9176806640625,-0.05804945528507233,-0.313889741897583,1.6903905868530273
1790763753704720000,11.927719970703125,-0.10634081810712814,1.0135998725891113,0.8500871658325195
1790763753714757600,11.937757568359375,0.0070304786786437035,1.022134780883789,0.0057130130007863045
1790763753724796700,11.947796630859376,0.05363153666257858,0.3353250026702881,-0.674778163433075
1790763753734835000,11.9578349609375,0.12691640853881836,0.08367252349853516,-1.728647232055664
1790763753744873700,11.967873779296875,0.19083146750926971,-0.24072206020355225,-2.350064516067505
1790763753754912000,11.977912109375,-0.19991524517536163,-0.1638999879360199,0.01918701082468033
1790763753764950800,11.98795068359375,-0.21660074591636658,0.40431153774261475,1.617327094078064
1790763753774989800,11.99798974609375,-0.18919548392295837,0.21476610004901886,1.0036391019821167
1790763753785027800,12.00802783203125,-0.10413945466279984,0.14611247181892395,0.1214422732591629
1790763753795067000,12.01806689453125,-0.06758836656808853,-0.037464551627635956,-1.0803587436676025
1790763753805104600,12.028104736328125,0.02209358476102352,-0.288338840007782,-1.8709872961044312
1790763753815144000,12.03814404296875,-0.1728287637233734,0.03666267171502113,-0.9536332488059998
1790763753825183000,12.048182861328126,-0.29347288608551025,0.3167007267475128,1.3395252227783203
1790763753835220700,12.058220703125,-0.19639082252979279,-0.1537988781929016,1.5825389623641968
1790763753845260000,12.068260009765625,-0.034809380769729614,0.07168377190828323,1.6408571004867554
1790763753855297800,12.0782978515625,-0.03322932496666908,0.05126585066318512,0.6269171833992004
1790763753865336800,12.0883369140625,-0.09748394787311554,-0.2523267865180969,-0.5679622292518616
1790763753875375900,12.0983759765625,-0.004002464935183525,-0.38902658224105835,-1.3820616006851196
1790763753885414000,12.108413818359375,-0.03134593740105629,-0.053826745599508286,-2.0857295989990234
1790763753895452700,12.11845263671875,-0.33344507217407227,-0.1436128318309784,-0.7869212031364441
1790763753905491000,12.128490966796875,-0.40044674277305603,-0.08015342801809311,0.8745315074920654
1790763753915529700,12.13852978515625,-0.3787848651409149,-0.32178229093551636,0.9487311840057373
1790763753925567700,12.148567626953126,-0.242178812623024,-0.6268966794013977,1.248955488204956
1790763753935606800,12.158606689453125,-0.19020935893058777,-0.6603427529335022,1.6523287296295166
1790763753945645800,12.168645751953125,-0.253215491771698,-0.03934687376022339,1.450575590133667
1790763753955683600,12.17868359375,-0.0762614831328392,0.13025227189064026,-0.7396681904792786
1790763753965723000,12.188722900390625,0.02111354097723961,0.015265772119164467,-2.6675608158111572
1790763753975760600,12.1987607421875,0.05937863886356354,-0.2325485497713089,-4.340972423553467
1790763753985799700,12.208799560546876,-0.6580561995506287,0.12328358739614487,-1.9032752513885498
1790763753995837700,12.218837646484374,-0.6698933839797974,0.15765461325645447,2.534750461578369
1790763754005876700,12.228876708984375,-0.6738873720169067,-0.9657729864120483,3.9021663665771484
1790763754015915800,12.238915771484375,-0.7364969253540039,-0.8774436712265015,4.439680576324463
1790763754025953800,12.248953857421874,-0.6792083382606506,0.9100428819656372,3.79740571975708
1790763754035992800,12.258992919921875,-0.6413682699203491,1.5729825496673584,2.3679723739624023
1790763754046030800,12.26903076171875,-0.4267500042915344,-0.30161604285240173,1.4038091897964478
1790763754056070000,12.27906982421875,-0.30831122398376465,-0.29393067955970764,0.5222765207290649
1790763754066108700,12.289108642578125,-0.353337824344635,-0.48358476161956787,0.3050142228603363
1790763754076147000,12.29914697265625,-0.15194399654865265,-0.32578155398368835,0.32083234190940857
1790763754086185700,12.309185791015626,-0.1478336751461029,-0.1401941180229187,0.1626080870628357
1790763754096223700,12.3192236328125,-0.12135598808526993,-0.30553194880485535,-0.33713915944099426
1790763754106262800,12.3292626953125,-0.05278198793530464,-0.3645923435688019,-0.9378018379211426
1790763754116301800,12.3393017578125,-0.06689221411943436,-0.3512757420539856,-1.5740456581115723
1790763754126339800,12.34933984375,-0.09686289727687836,-0.45538750290870667,-1.9007688760757446
