time,seconds_elapsed,z,y,x
1790006672568434700,0.0384345703125,8.556128545379638,4.046200805664062,-1.505354293823242
1790006672578446600,0.048446533203125,8.729109615325926,4.128800762939453,-1.4229039741516112
1790006672588458800,0.058458740234375,8.75903713607788,4.204068477630615,-1.1924620643615722
1790006672598470700,0.068470703125,8.85480520248413,4.2700586608886715,-0.9714473236083984
1790006672608481500,0.0784814453125,9.094075730895996,4.34772057723999,-0.8530839790344238
1790006672618493700,0.08849365234375,9.307458953857422,4.461145880889893,-0.787841983795166
1790006672628505600,0.098505615234375,9.273491217803954,4.4662335594177245,-0.7044938385009765
1790006672638517500,0.108517578125,9.207052121734618,4.16261886138916,-0.45459904022216796
1790006672648529700,0.11852978515625,9.121758687591552,4.0057986526489255,-0.008379705810546874
1790006672658541600,0.12854150390625,9.457545470428466,4.024054440307617,-0.03441664886474609
1790006672668552700,0.138552734375,9.725995331573486,3.949834188842773,0.05386953735351562
1790006672678564900,0.14856494140625,9.841365924072266,3.9510312896728514,-0.2050035171508789
1790006672688576800,0.15857666015625,9.906607919311522,3.9920319931030273,-0.5244798011779784
1790006672698589000,0.1685888671875,9.620500820922851,3.9154175399780273,-0.7224503509521484
1790006672708600800,0.178600830078125,9.03392141418457,3.8949171882629394,-0.6995557975769042
1790006672718612700,0.18861279296875,8.490886550140381,3.910180223846435,-0.6655880615234374
1790006672728625000,0.198625,8.039729174804688,3.930231662750244,-0.725293465423584
1790006672738635800,0.2086357421875,7.7121724601745605,4.267664459228516,-0.7882908966064452
1790006672748647700,0.218647705078125,7.372345462036132,4.812794249725341,-0.7474398307800293
1790006672758659800,0.228659912109375,7.091475679779053,5.311087470245361,-0.6702268272399902
1790006672768672000,0.238672119140625,6.988824283599853,5.690119520568848,-0.5708674583435058
1790006672778684000,0.248683837890625,7.018302891540527,5.830030680084228,-0.4396352798461914
1790006672788696000,0.258696044921875,7.191283961486816,5.743839420318603,-0.2050035171508789
1790006672798708000,0.2687080078125,7.421875508880615,5.529558371734619,0.07556698989868163
1790006672808718800,0.27871875,7.6838909530639645,5.313780947113036,0.21906945190429686
1790006672818731000,0.28873095703125,7.969998051452636,5.1039890266418455,0.11372457885742186
1790006672828743000,0.298742919921875,8.264335218048096,4.896292032623291,-0.16894085464477537
1790006672838754800,0.3087548828125,8.77878929977417,4.671985264587402,-0.5542576843261718
1790006672848767000,0.31876708984375,9.016264176940917,4.581304876708984,-0.730979694366455
1790006672858779000,0.32877880859375,9.019107291412354,4.682010984039306,-0.8973767097473144
1790006672868791000,0.338791015625,8.864681284332274,4.867561612701416,-1.0992378372192382
1790006672878802200,0.34880224609375,8.53577783126831,5.0206408813476555,-1.2316671165466309
1790006672888814000,0.35881396484375,8.217498648071288,5.258115758514404,-1.2240355987548828
1790006672898826000,0.368825927734375,7.861810063934326,5.484367815399169,-1.1502642601013182
1790006672908838100,0.378838134765625,7.660248211669922,5.580435157012939,-1.0108020133972166
1790006672918850000,0.38885009765625,7.806144875335693,5.684732566833496,-0.8378209434509277
1790006672928862200,0.3988623046875,8.31910258102417,5.828085391235351,-0.6652887863159179
1790006672938873000,0.408873046875,8.718485345458983,5.824494088745117,-0.4740519287109375
1790006672948885000,0.418885009765625,8.667608560180664,5.645677152252197,-0.1958756233215332
1790006672958897000,0.42889697265625,8.270021446990967,5.340266802978515,-0.012569558715820313
1790006672968909000,0.438908935546875,7.602637734222411,5.118952787017822,0.035464112091064454
1790006672978921000,0.4489208984375,6.867019274139404,5.08782816543579,-0.026485855865478514
1790006672988933000,0.45893310546875,5.9959787826538085,5.05655390625,-0.3865139305114746
1790006672998945000,0.468945068359375,4.959588739013672,5.069722015380859,-1.1008838508605956
1790006673008956000,0.478955810546875,4.395903885650634,5.315127685546875,-2.3561937088012694
1790006673018967800,0.4889677734375,4.59043277053833,5.5078609191894525,-2.895936545562744
1790006673028980000,0.49897998046875,5.390844313049316,5.244049823760986,-1.9735703559875488
1790006673038992000,0.508991943359375,6.512976703643798,4.893299280548096,-0.974888988494873
1790006673049004000,0.519004150390625,7.5713634750366205,4.876839144134522,-0.40761283264160153
1790006673059016000,0.529015869140625,8.196699021148682,4.974851774597168,0.22670096969604492
1790006673069027800,0.53902783203125,8.310124324798583,5.137507849884033,0.9916484001159668
1790006673079039000,0.5490390625,8.17889214630127,5.360018966674804,1.6112977172851561
1790006673089051100,0.559051025390625,7.783848872375488,5.844246252441406,1.4489409172058105
1790006673099063000,0.56906298828125,7.366210320281982,6.108057347869873,0.4578910675048828
1790006673109075000,0.579074951171875,7.444620424652099,5.831826331329346,-0.4908113403320312
1790006673119087000,0.589087158203125,8.135497241210937,5.279364298248291,-1.0703577796936035
1790006673129099000,0.59909912109375,9.068038787841797,4.852747489929199,-1.3232453300476072
1790006673139111200,0.609111083984375,9.804854348754882,4.541501274108886,-1.5514426757812498
1790006673149122000,0.6191220703125,10.060136100769043,4.953303959655761,-0.5138555313110351
1790006673159134000,0.629134033203125,7.761702507019042,8.899097933197021,5.462820000457763
1790006673169146000,0.63914599609375,6.3162032546997064,12.095955699920653,4.442291542816162
1790006673179158000,0.649157958984375,9.717914900970458,9.93339305038452,4.685452648925781
1790006673189170000,0.659169921875,10.084676667785644,5.924003095245361,0.8418611587524414
1790006673199182000,0.66918212890625,9.847501065826416,4.280982205963134,-0.7989151664733887
1790006673209193000,0.67919287109375,9.829843828582764,4.849156187438965,-0.4709095390319824
1790006673219204900,0.689204833984375,8.775048359680175,5.531204385375976,-0.008080430603027343
1790006673229217000,0.699217041015625,9.645191025543213,5.02468109664917,0.8824129493713379
1790006673239229000,0.70922900390625,10.676194115447997,4.739771099090576,-0.16759411621093748
1790006673249240800,0.71924072265625,10.244339990997315,5.243451273345947,-0.5057751007080078
1790006673259253000,0.7292529296875,8.896554093933105,5.306448704528808,-0.9988310050964355
1790006673269265000,0.739264892578125,8.052448371124267,4.968118082427978,-1.4395137481689453
1790006673279275800,0.74927587890625,8.168417514038085,4.670339250946045,-1.6778864509582518
1790006673289288000,0.759287841796875,8.134898690795898,5.08199229888916,-1.5885528015136718
1790006673299299800,0.7692998046875,7.60398447265625,5.202151294708251,-1.192611701965332
1790006673309311700,0.779311767578125,7.947402773284912,5.361664980316162,-0.7522282341003418
1790006673319324000,0.789323974609375,8.691700214385985,5.45863014755249,-0.7823053924560547
1790006673329335800,0.799335693359375,8.834753763580322,5.3761798278808595,-0.637755467224121
1790006673339347000,0.809346923828125,8.849567886352538,5.459079060363769,-0.16071078643798828
1790006673349359000,0.819359130859375,8.573037594604491,5.611110865783691,-0.5295674797058105
1790006673359371000,0.82937109375,8.170063527679442,5.959317569732666,-1.4009072463989256
1790006673369383200,0.839383056640625,8.10901138534546,6.229263806915283,-1.465251416015625
1790006673379395000,0.84939501953125,7.868244480895996,6.469432160949706,-1.509843421936035
1790006673389407000,0.859406982421875,7.2140288772583006,6.005705226898193,-1.7622820594787596
1790006673399419100,0.869419189453125,6.48634121017456,4.73737689743042,-0.20814590682983397
1790006673409430000,0.879429931640625,5.728277109527587,3.1323639595031736,1.4074913009643555
1790006673419442000,0.88944189453125,5.562927557373047,3.63903688583374,0.4037222549438476
1790006673429454000,0.8994541015625,6.166266375732421,5.129577056884766,-1.5107412475585937
1790006673439466000,0.909466064453125,5.7591024559021,6.681917558288574,-2.678213832092285
1790006673449478000,0.919477783203125,5.785139398956298,7.784597060394287,-2.920327474975586
1790006673459490000,0.929489990234375,6.591386808013915,7.879018388366699,-2.4919150154113767
1790006673469502000,0.939501953125,7.131877832794189,7.949796974945068,-0.263661457824707
1790006673479512800,0.949512939453125,8.581716575622558,6.546046614074706,1.2446855880737304
1790006673489525000,0.95952490234375,10.29147583618164,5.079897372436523,2.2381296394348142
1790006673499537000,0.969536865234375,11.559055977630615,5.559785167694091,2.9242180526733397
1790006673509548800,0.979548828125,12.080393389129638,5.828983216857909,2.689436652374267
1790006673519561000,0.98956103515625,11.87389349594116,5.981463935089111,1.758241844177246
1790006673529572900,0.99957275390625,11.597662479400634,6.102071843719482,1.0133458526611328
1790006673539584000,1.009583984375,11.63252804107666,6.3241340476989745,0.1913864952087402
1790006673549596200,1.01959619140625,11.355399198913574,6.630142947387695,-0.7695861961364746
1790006673559608000,1.029608154296875,7.513453722381591,7.08668727645874,-2.218078200531006
1790006673569620000,1.039619873046875,7.68044928817749,8.687659999084472,-3.705326344299316
1790006673579632000,1.049632080078125,6.6243070808410645,9.783007258605956,-4.529829541015625
1790006673589644000,1.05964404296875,6.070199034118652,9.094375006103515,-2.954594486236572
1790006673599655000,1.069655029296875,6.967875019073486,7.752724250793457,-1.0001777435302734
1790006673609667000,1.0796669921875,8.50360574645996,7.1038956008911125,-0.07751227874755859
1790006673619679000,1.089678955078125,9.703400053405762,6.264578281402588,0.6533177780151367
1790006673629691000,1.09969091796875,9.998784683227539,6.278045665740966,0.8681973770141601
1790006673639703000,1.109703125,10.06267994003296,6.956203285980224,0.6218938812255859
1790006673649715000,1.11971484375,10.146177722930908,7.3192241127014155,0.2742857276916504
1790006673659725800,1.129725830078125,9.695918173217773,7.371746911621093,-0.18091186294555664
1790006673669738000,1.139738037109375,9.089736240386962,7.345859606170654,-0.46148236999511716
1790006673679750000,1.14975,8.417564124298096,7.5619363059997555,-0.6069301208496093
1790006673689761800,1.15976171875,7.3549875,7.66099639968872,-1.3141174362182617
1790006673699774000,1.16977392578125,5.699546689605713,7.592462377166748,-2.325667637634277
1790006673709785900,1.179785888671875,3.2345664428710936,7.942614369964599,-3.309684519958496
1790006673719798000,1.189798095703125,0.3511994560241699,8.225429441070556,-4.251204322814941
1790006673729809200,1.19980908203125,-1.4044985488891601,8.310872512817383,-4.535066857147217
1790006673739821000,1.209821044921875,-0.5578489868164063,7.994239343261718,-3.6688147689819335
1790006673749833000,1.2198330078125,1.113453409576416,7.663091326141357,-2.4316110610961914
1790006673759845000,1.22984521484375,1.668160006713867,7.698854713439941,-1.790114653778076
1790006673769856300,1.239856201171875,1.3024457031249999,8.19116242980957,-1.5102923347473143
1790006673779868200,1.2498681640625,0.531812043762207,8.84268455657959,-1.4583680862426758
1790006673789879300,1.25987939453125,-0.5301660301208496,9.619602995300292,-1.3461398834228515
1790006673799891200,1.26989111328125,-0.2389712532043457,10.071807833862303,-1.1540052001953125
1790006673809903000,1.279903076171875,0.9344868354797363,9.271246653747559,-0.7092822418212891
1790006673819915300,1.289915283203125,1.3537714012145996,7.764395983886718,-0.2346317626953125
1790006673829927200,1.29992724609375,0.8649053497314453,6.747458828735351,-0.22310966720581055
1790006673839939000,1.30993896484375,-0.26276363220214843,6.572382832336426,-0.3716998077392578
1790006673849950200,1.3199501953125,-1.230918928527832,7.084592350006103,-0.2518400871276855
1790006673859962000,1.329962158203125,-1.3678373359680176,7.708880432891846,0.5083189399719238
1790006673869974000,1.33997412109375,-1.0670657524108886,7.851784344482422,1.8831892433166504
1790006673879986200,1.349986083984375,-0.3274070770263672,7.279719785308838,3.219602682495117
1790006673889998000,1.359998046875,0.06374561920166015,7.189189035034179,3.4103906272888183
1790006673900010200,1.37001025390625,0.16699556579589842,7.621940985107422,2.7766753753662106
1790006673910022100,1.380022216796875,1.061828436279297,7.770830400848388,2.275987953186035
1790006673920033300,1.390033203125,1.7443255470275878,7.748684035491943,2.467524085998535
1790006673930045200,1.400045166015625,1.638980673980713,7.7581112045288085,2.577358087158203
1790006673940057300,1.410057373046875,1.1040262405395507,7.841309712219238,2.678213832092285
1790006673950069200,1.4200693359375,0.19826982498168944,7.914781775665283,2.884564087677002
1790006673960081400,1.430081298828125,-0.7633014167785644,7.95518392868042,2.8344354904174804
1790006673970093300,1.44009326171875,-0.93852705078125,7.838017684936523,2.548478029632568
1790006673980104200,1.450104248046875,-0.8138789268493651,7.613860554504394,2.586037068176269
1790006673990116000,1.4601162109375,-0.6455366226196289,7.398382405090332,2.8884546653747556
1790006674000128300,1.470128173828125,-0.3778349494934082,7.237372343444823,3.7401919059753417
1790006674010140200,1.48014013671875,-0.6096235977172851,7.160907527923584,4.907963765716552
1790006674020152300,1.49015234375,-1.4139257179260254,7.275829207611084,5.315277323150634
1790006674030164200,1.500164306640625,-2.614767488098144,7.512256621551513,4.795436287689209
1790006674040175000,1.510175048828125,-3.347093920898437,8.167220413208007,4.387374542236328
1790006674050187300,1.520187255859375,-2.2713491874694824,9.389011447906494,4.015225821685791
1790006674060199200,1.53019921875,0.22655133209228515,9.95942999343872,2.787449282836914
1790006674070211000,1.540211181640625,2.6613047828674317,10.439617063903809,0.4064157318115234
1790006674080223200,1.55022314453125,1.3587094421386718,11.265915911865234,0.8945335952758788
1790006674090235100,1.560235107421875,-0.2512415367126465,10.965593241119384,3.545663021087646
1790006674100247000,1.5702470703125,-0.08813654861450194,9.403227020263671,4.134486991882324
1790006674110258400,1.580258544921875,-0.7694365585327148,8.163180197906494,4.235043461608886
1790006674120270300,1.590270263671875,-0.4616320075988769,8.131457025909423,3.9797617095947264
1790006674130282200,1.6002822265625,0.45415012741088867,8.608052793884276,3.7204397422790527
1790006674140294400,1.61029443359375,0.5409399375915527,9.149441644287108,3.4849101539611813
1790006674150306300,1.620306396484375,0.8411129707336426,9.575160626983642,3.493439497375488
1790006674160318200,1.630318115234375,1.4781202499389647,9.54403600540161,4.016871835327148
1790006674170329300,1.640329345703125,0.7493851196289062,9.311499169158935,4.0806174545288085
1790006674180341200,1.65034130859375,-0.5783493385314941,9.259126007843017,3.6878187446594235
1790006674190353200,1.660353271484375,-1.167023671722412,9.399486080169677,3.2028432708740233
1790006674200365300,1.670365234375,-1.0027215827941893,9.71073229598999,3.127276280975342
1790006674210377200,1.680377197265625,-0.4113537727355957,10.066121604919433,3.3182138633728027
1790006674220389000,1.69038916015625,-0.6184522163391113,10.06881508178711,3.0922610816955562
1790006674230401300,1.7004013671875,-0.5952583877563477,10.147374823760986,2.9735984619140625
1790006674240412200,1.710412109375,-0.49889177093505854,10.201244361114501,3.1383494636535643
1790006674250424000,1.720424072265625,0.028880057525634766,10.242693977355957,3.186383134460449
1790006674260436200,1.730436279296875,0.6316203254699707,10.284592506408691,2.33659118270874
1790006674270448000,1.7404482421875,0.7127239067077636,10.166827712249756,1.6549918975830078
1790006674280460000,1.7504599609375,0.5728127471923827,10.188525164794921,1.6952444129943847
1790006674290472200,1.76047216796875,0.19348142166137694,10.422558377075195,1.6946458625793457
1790006674300484000,1.770484130859375,-0.06479308242797852,10.667066221618652,1.41093296585083
1790006674310495200,1.7804951171875,-0.4230255058288574,10.898256319427489,1.2355576942443847
1790006674320507400,1.79050732421875,-0.14125789794921875,11.20456449432373,1.0372878692626952
1790006674330519300,1.800519287109375,0.25094226150512694,11.304522413635253,1.0030208580017088
1790006674340531500,1.810531494140625,-0.2563292152404785,11.05178450088501,0.9759364517211914
1790006674350543400,1.82054345703125,-0.8390180442810058,10.791863983154297,0.6600514701843261
1790006674360555300,1.83055517578125,-1.3269862701416015,10.57249525604248,0.2193687271118164
1790006674370567400,1.8405673828125,-1.5900491775512695,10.261099402618408,-0.08424597091674804
1790006674380578300,1.850578369140625,-1.1788450424194334,9.96601404800415,-0.3321954803466797
1790006674390590200,1.860590087890625,-0.23089082260131835,9.680804775238036,-0.6910264541625977
1790006674400602400,1.870602294921875,0.4242226066589355,9.534309561157226,-0.9386766883850097
1790006674410614300,1.8806142578125,0.7215525253295898,9.457246195220947,-0.5581482620239258
1790006674420626200,1.890626220703125,0.7079355033874511,9.486275890350342,-0.3042132484436035
1790006674430638300,1.900638427734375,0.4369418029785156,9.894936186218262,-0.9955389778137207
1790006674440650200,1.910650146484375,0.2973299186706543,10.832266136169434,-1.6252140144348144
1790006674450661000,1.9206611328125,0.3067570877075195,13.590386448669433,-0.6289268486022949
1790006674460673300,1.93067333984375,0.8252513847351074,13.205219256591796,-0.8952817832946777
1790006674470685200,1.940685302734375,0.2876034744262695,13.033884200286865,-1.2271779884338379
1790006674480697000,1.950697021484375,-0.3227683113098144,13.150451893615722,-1.9750667320251463
1790006674490709200,1.960709228515625,-0.7272387542724609,11.1213659866333,-2.3247698120117186
1790006674500721200,1.97072119140625,0.8898948295593261,10.408941355133056,-1.4232032493591307
1790006674510733000,1.980733154296875,1.5780781692504882,11.193042398834228,-1.4258967262268065
1790006674520745200,1.9907451171875,0.538845011138916,11.414356414794922,-1.910273649597168
1790006674530756400,2.00075634765625,1.094898346710205,10.524611222839354,-1.8095675422668456
1790006674540768300,2.010768310546875,2.8275521606445313,9.920075303649902,-1.294065997314453
1790006674550780400,2.020780517578125,3.854066122436523,9.407117597961426,-0.9985317298889159
1790006674560792300,2.030792236328125,2.4078186820983887,9.158719175720215,-1.1183914505004882
1790006674570804200,2.04080419921875,-0.14933832855224607,9.296984321594238,-1.5070003074645995
1790006674580816400,2.05081640625,-1.0218751960754393,8.857049766540527,-0.6476315490722656
1790006674590828300,2.060828369140625,-1.5925930168151854,9.006088819885253,-0.12973580245971678
1790006674600840400,2.07084033203125,-2.248454634094238,11.840823585510254,0.6947673942565917
1790006674610851300,2.080851318359375,-2.1529858428955078,9.91438907470703,-1.0673650276184081
1790006674620863200,2.09086328125,-3.845836054229736,8.916755170440673,-1.0268132369995118
1790006674630875400,2.10087548828125,-2.6165631393432616,9.866355403900146,0.3838204536437988
1790006674640887300,2.11088720703125,-1.878251202392578,9.915286900329589,-0.16280571289062498
1790006674650899200,2.120899169921875,-1.3057377304077147,9.674819271087646,-0.9195230751037597
1790006674660911400,2.130911376953125,-0.5473743545532226,9.328408218383789,-0.6796539962768554
1790006674670923300,2.14092333984375,-0.1318307289123535,8.887875112915038,-0.41629181365966794
1790006674680935200,2.15093505859375,0.2632125450134277,8.623465467071533,-0.3821744400024414
1790006674690947300,2.160947265625,0.2690484115600586,8.506748136138915,-0.5864297691345215
1790006674700958200,2.170958251953125,-0.22266075439453123,8.226327266693115,-0.565031591796875
1790006674710970000,2.18097021484375,-0.6096235977172851,7.875427085876464,-0.3338414939880371
1790006674720982300,2.190982177734375,-0.4095581214904785,8.113949426269532,-0.6323685134887695
1790006674730994200,2.200994140625,0.076614453125,8.462156130218505,-0.610371785736084
1790006674741006000,2.211006103515625,-0.20380641632080077,8.186822939300537,0.7823053924560547
1790006674751018200,2.221018310546875,-1.5279495719909668,8.431181146240235,1.5158289260864257
1790006674761030100,2.231030029296875,-2.801814492797851,9.009680122375487,2.295141566467285
1790006674771042600,2.24104248046875,-3.1190462127685543,9.937882178497313,2.965368393707275
1790006674781053400,2.251053466796875,-3.5125931106567383,10.66152963027954,2.5553613594055173
1790006674791065600,2.261065673828125,-4.064157318115234,11.582249806213378,2.402431728363037
1790006674801077500,2.271077392578125,-3.370437387084961,9.13492679672241,2.4712650260925293
1790006674811089400,2.28108935546875,-4.939238024902344,9.672574707031249,3.8162078086853026
1790006674821101600,2.2911015625,-4.451868349456787,9.100959060668945,4.632181661987304
1790006674831113500,2.301113525390625,-4.629488185119628,9.187748870849608,4.6447512207031245
1790006674841125600,2.311125732421875,-4.579808500671386,9.290250629425048,4.395006060028076
1790006674851137500,2.321137451171875,-4.32841732635498,9.195081113433837,4.170100741577148
1790006674861149400,2.3311494140625,-3.8549639480590816,9.030030836486816,3.620631460571289
1790006674871160600,2.34116064453125,-3.0852281143188476,8.680627031707763,2.986168020629883
1790006674881172700,2.3511728515625,-2.944269491577148,8.626458219146729,2.761861252593994
1790006674891184600,2.3611845703125,-3.2537200561523436,9.064746760559082,3.368492098236084
1790006674901196800,2.37119677734375,-3.51768078918457,9.441085334014891,3.9146693519592284
1790006674911208700,2.381208740234375,-3.697096276092529,9.374346962738036,3.169773360443115
1790006674921220600,2.391220703125,-3.037643356323242,8.781931689453124,1.9678841270446776
1790006674931232800,2.401232666015625,-1.6111480796813964,8.405144203186035,1.3377601776123047
1790006674941244700,2.41124462890625,-0.9558850128173828,8.391227906036377,0.6335656143188476
1790006674951255600,2.421255615234375,-0.7550713485717773,8.363694586944579,0.5834370170593262
1790006674961267700,2.431267822265625,-0.4508581001281738,8.089708134460448,0.6464344482421874
1790006674971279600,2.441279541015625,-0.35942952423095703,7.895628162384033,0.5562029731750487
1790006674981291500,2.45129150390625,0.46686932373046874,8.614038298034668,0.3254617881774902
1790006674991303700,2.4613037109375,0.8017582809448242,9.227402835845947,-0.18300678939819334
1790006675001315600,2.471315673828125,0.9317933586120605,9.120711224365234,-1.3319243110656738
1790006675011327500,2.481327392578125,0.7758709754943848,8.534431092834472,-2.446874096679687
1790006675021339600,2.491339599609375,1.2933178092956543,8.090306684875488,-2.5944167739868162
1790006675031351600,2.5013515625,1.8287211555480956,8.213308795166014,-2.4007857147216796
1790006675041362400,2.511362548828125,1.5945383056640625,9.005639907073974,-2.0319290214538572
1790006675051374600,2.52137451171875,0.8304887008666991,10.113856000518798,-1.577629256439209
1790006675061386500,2.531386474609375,-0.2127846725463867,10.8279266456604,-1.23211602935791
1790006675071398400,2.5413984375,-1.0084078117370605,11.501894412994384,-0.9293991569519042
1790006675081410600,2.55141064453125,-1.0500070655822753,12.230928818511963,-0.730381143951416
1790006675091422500,2.56142236328125,-1.2599486236572266,13.570335009765625,-0.24615385818481444
1790006675101434600,2.5714345703125,-2.0687398719787597,14.560487033843993,0.0743698890686035
1790006675111446500,2.581446533203125,-3.0023288818359375,14.558392107391356,0.5348047958374023
1790006675121458400,2.59145849609375,-2.9513024589538572,12.603825727081299,0.5793968017578125
1790006675131469800,2.6014697265625,-2.2934955528259278,12.259509600830077,0.8206126190185546
1790006675141481700,2.611481689453125,-1.9310732765197753,13.256844229888916,0.46417584686279295
1790006675151493600,2.62149365234375,-2.025644242095947,13.02400811843872,0.2672527603149414
1790006675161505800,2.631505859375,-4.001608799743652,12.029366966247558,0.532410594177246
1790006675171517700,2.641517578125,-1.5228618934631346,11.693879458618163,0.07302315063476562
1790006675181529600,2.651529541015625,2.8101941986083983,11.148899305725097,-0.30466216125488277
1790006675191541800,2.661541748046875,0.2693476867675781,10.89182190246582,-1.4781202499389647
1790006675201553700,2.6715537109375,0.18420389022827147,9.33424408493042,-0.9434650917053222
1790006675211565600,2.681565673828125,1.5355810897827147,9.287407514953612,-1.3989619575500487
1790006675221576700,2.69157666015625,1.5819687469482422,9.009979397583008,-2.247856083679199
1790006675231588600,2.701588623046875,1.9789573097229003,8.677634279632567,-2.19638074798584
1790006675241600500,2.7116005859375,1.968931590270996,8.378508709716796,-2.420837153625488
1790006675251612700,2.72161279296875,2.1027076080322264,8.183830187225341,-2.1746832954406736
1790006675261624600,2.73162451171875,1.8978537284851074,7.659649661254883,-1.5970821449279784
1790006675271636700,2.74163671875,2.016665985870361,7.69960290145874,-1.702726293182373
1790006675281648600,2.751648681640625,1.5774796188354492,8.028955267333984,-1.594089392852783
1790006675291660500,2.76166064453125,0.3537432952880859,8.143876947021484,-1.0324994659423827
1790006675301671400,2.77167138671875,-0.4216787673950195,8.304138820648193,-0.5455787033081054
1790006675311683600,2.78168359375,-0.5267243652343749,8.902240322875976,-0.19931728820800781
1790006675321695500,2.791695556640625,-0.23178864822387693,9.48058966140747,-0.2602197929382324
1790006675331707600,2.801707763671875,-0.04578910675048828,9.488221179199218,-0.30196868438720703
1790006675341719600,2.811719482421875,-0.2950853546142578,9.307159678649901,-0.18390461502075195
1790006675351731500,2.8217314453125,-0.9063549659729003,9.208099584960937,-0.26351182022094727
1790006675361743600,2.83174365234375,-1.535431452178955,9.273341580200194,-0.3607762626647949
1790006675371755500,2.841755615234375,-1.2942156349182128,9.920224941253661,-0.05746083984375
1790006675381766700,2.8517666015625,-0.9229647399902343,10.63609123764038,0.09247603912353515
1790006675391778800,2.86177880859375,-0.9020154754638672,10.967688167572021,0.2376245147705078
1790006675401790700,2.871790771484375,-1.1860276473999023,10.87865379333496,-0.010175357055664061
1790006675411802600,2.881802734375,-1.2943652725219725,10.724527061462402,0.017208324432373044
1790006675421814800,2.891814697265625,-1.371428638458252,10.688314761352538,0.36436756515502927
1790006675431826700,2.90182666015625,-1.5521908638000488,10.603021327209472,0.4155436256408691
1790006675441838600,2.911838623046875,-1.4341267944335936,10.375572169494628,0.28535891036987304
1790006675451850800,2.921850830078125,-0.9379285003662109,10.020033222961425,0.5339069702148437
1790006675461862700,2.931862548828125,-0.6040870063781738,10.522366658782959,-0.053420624542236325
1790006675471873500,2.94187353515625,-0.656310530090332,10.327239223480223,0.3859153800964355
1790006675481885700,2.9518857421875,-0.7811082916259765,9.968408249664305,0.32606033859252925
1790006675491897600,2.961897705078125,-1.0411784469604493,9.786000010681152,-0.061650692749023434
1790006675501909500,2.971909423828125,-2.391508183288574,9.421333170318603,-0.43978491744995113
1790006675511921700,2.981921630859375,-3.009361849212646,9.18101517868042,-0.5193921226501464
1790006675521933600,2.99193359375,-2.1862053909301755,9.202862268829346,0.01780687484741211
1790006675531945700,3.00194580078125,-1.3474866218566894,9.209745598602295,-0.002992752075195312
1790006675541957600,3.01195751953125,-0.981323405456543,9.119214848327637,-0.1788169364929199
1790006675551968500,3.021968505859375,-1.0063128852844239,9.10365253753662,-0.24929624786376953
1790006675561980700,3.031980712890625,-1.1947066284179686,9.163357941436766,-0.3904045082092285
1790006675571992600,3.04199267578125,-1.1974001052856444,9.335890098571777,-0.28356325912475583
1790006675582004500,3.05200439453125,-1.1412860038757324,9.738115977478026,-0.12000935821533203
1790006675592016600,3.0620166015625,-1.1722609878540038,9.920224941253661,-0.11671733093261719
1790006675602028500,3.072028564453125,-0.8946832328796386,9.701454764556884,-0.07915829238891602
1790006675612040400,3.08204052734375,-0.488417138671875,9.323170902252198,-0.28446108474731446
1790006675622052600,3.092052490234375,-0.0020949264526367185,9.10395181274414,-0.6980594215393066
1790006675632064500,3.102064453125,0.20126257705688474,9.1041014503479,-0.8119336380004882
1790006675642075600,3.11207568359375,0.05955576629638672,9.127295278930664,-0.8221089950561523
1790006675652087800,3.122087890625,0.009277531433105468,9.088838414764403,-0.9087491676330566
1790006675662099700,3.132099609375,0.00239420166015625,9.04634133529663,-1.0969932731628418
1790006675672111600,3.142111572265625,0.037409400939941405,9.03437032699585,-1.1037269653320312
1790006675682123800,3.152123779296875,0.29433716659545894,9.072827191162109,-1.0193313568115234
1790006675692135700,3.1621357421875,0.3687070556640625,9.120711224365234,-1.1145008728027344
1790006675702147800,3.17214794921875,0.37708676147460934,9.090035515594481,-1.0752958206176757
1790006675712159700,3.18215966796875,0.4236240562438965,9.055319591522217,-1.1354501373291015
1790006675722171600,3.192171630859375,0.22056582794189453,8.98319426651001,-1.2424410240173338
1790006675732182500,3.2021826171875,0.09561842880249023,8.88039323272705,-1.265335577392578
1790006675742194700,3.212194580078125,0.12808978881835936,8.599224175262451,-1.537227103424072
1790006675752206600,3.22220654296875,0.20141221466064452,8.374917407226562,-1.5547347030639647
1790006675762218800,3.23221875,-0.08768763580322265,8.603264390563965,-1.6443676277160644
1790006675772231000,3.24223095703125,-0.2376245147705078,9.07776523208618,-1.7161936775207518
1790006675782242800,3.252242919921875,-0.07003039855957031,9.43599765548706,-1.8938135131835936
1790006675792255000,3.2622548828125,0.007930792999267577,9.559598316192627,-2.0724808120727536
1790006675802267000,3.272266845703125,0.14395137481689452,9.522787465667724,-2.0233996780395507
1790006675812277800,3.28227783203125,0.1767220100402832,9.568426934814452,-1.83859723739624
1790006675822290000,3.2922900390625,0.06643909606933593,9.63441711807251,-1.8001403732299803
1790006675832301800,3.3023017578125,-0.26007015533447264,9.497049797821044,-1.8887258346557616
1790006675842313700,3.312313720703125,-0.5425859512329101,9.29578722076416,-1.6651672546386718
1790006675852326000,3.322325927734375,-0.6536170532226562,9.304017288970947,-1.6059107635498047
1790006675862337800,3.332337890625,-0.7861959701538086,9.400234268188475,-1.58960026473999
1790006675872350000,3.342349853515625,-0.6994061599731445,9.323769452667236,-1.5342343513488768
1790006675882361900,3.35236181640625,-0.7013514488220215,9.219920955657958,-1.424849263000488
1790006675892373800,3.362373779296875,-0.7167641220092773,22.516568788146973,-0.4150947128295898
1790006675902384600,3.372384521484375,-1.8028338500976562,12.5394815574646,-2.6497826873779293
1790006675912396800,3.382396728515625,-1.7362451164245605,8.169614614868163,0.18210896377563476
1790006675922408700,3.39240869140625,-1.9710265167236327,10.203788200378417,-2.565237441253662
1790006675932420900,3.4024208984375,-0.44143093109130854,7.864503540802001,-2.412008535003662
1790006675942432800,3.412432861328125,0.088735099029541,9.041552931976318,-3.9044939949035644
1790006675952444700,3.422444580078125,0.33324294357299805,7.959673056793212,-2.7549779228210447
1790006675962456800,3.432456787109375,0.412401235961914,9.06549494857788,-2.835183678436279
1790006675972468700,3.44246875,-0.06150105514526367,9.140613025665283,-2.098517755126953
1790006675982480000,3.45247998046875,-0.27174188842773433,9.850344180297851,-1.9656395629882812
1790006675992492000,3.462491943359375,0.009576806640625,9.545532381439209,-1.2720692695617675
1790006676002504000,3.47250390625,0.09337386474609374,10.3544732673645,-1.3533224884033201
1790006676012515800,3.482515869140625,0.37843349990844727,9.770288062286376,-0.6625953094482422
1790006676022528000,3.492528076171875,0.4355950645446777,9.358036463928222,-0.4234744186401367
1790006676032540000,3.502539794921875,0.33414076919555663,9.750984811401366,-0.6031891807556152
1790006676042551800,3.5125517578125,0.022744915771484374,9.801861596679688,-0.6337152519226074
1790006676052564000,3.52256396484375,-0.04638765716552734,9.721955116271973,-0.3295020034790039
1790006676062575900,3.532575927734375,0.07107786178588867,9.70354969100952,0.1897404815673828
1790006676072586800,3.542586669921875,-0.4492120864868164,9.32107597579956,0.535702621459961
1790006676082599000,3.552598876953125,-0.3802291511535644,9.579350479888916,1.10447515335083
1790006676092610800,3.56261083984375,-1.0239701225280762,9.963769483947754,0.8852560638427733
1790006676102622700,3.572622802734375,-1.759438945007324,9.48058966140747,0.6385036552429199
1790006676112635000,3.582634765625,-1.6240169136047362,9.102156161499023,0.105344873046875
1790006676122646800,3.592646728515625,-0.9187748870849609,8.359953646850585,0.13257891693115234
1790006676132659000,3.602658935546875,0.388159944152832,9.11053586730957,0.2608183433532715
1790006676142670800,3.6126708984375,0.7050923889160156,9.045892422485352,-0.148739778137207
1790006676152681700,3.622681640625,0.40357261734008787,8.51632494277954,0.2458545829772949
1790006676162694000,3.63269384765625,-0.23478140029907224,9.019705841827392,0.028431144714355466
1790006676172705800,3.642705810546875,-0.8023568313598632,9.081655809783935,-0.4791396072387695
1790006676182717700,3.6527177734375,-0.5355529838562011,8.634538649749755,-0.8613140472412109
1790006676192729900,3.662729736328125,0.8032546569824218,8.176647582244872,-1.1153986984252928
1790006676202741800,3.67274169921875,0.9449614677429199,8.084021905517577,-1.983596075439453
1790006676212753700,3.682753662109375,0.0025438392639160153,7.802104660034179,-1.762730972290039
1790006676222765800,3.692765869140625,-0.987009634399414,7.593809115600585,-1.408987677001953
1790006676232777700,3.70277783203125,-1.9818004241943359,7.666383353424072,-1.4802151763916014
1790006676242788900,3.712788818359375,-2.372204932403564,7.792078940582275,-1.1761515655517578
1790006676252801000,3.722801025390625,-1.7636287979125975,8.49836843032837,-0.8167220413208007
1790006676262813000,3.73281298828125,-1.7808371223449706,8.870666788482666,-0.3730465461730957
1790006676272824800,3.742824951171875,-2.3445219757080076,8.9255837890625,-0.22340894241333006
1790006676282837000,3.7528369140625,-2.468272274017334,8.916755170440673,-0.10848726272583008
1790006676292849000,3.762848876953125,-2.544737089538574,8.833107749938964,0.20605098037719724
1790006676302861000,3.772861083984375,-2.9288568183898924,8.99486599960327,0.4887164138793945
1790006676312873000,3.782873046875,-2.77083950881958,9.308356779479979,0.6209960556030273
1790006676322883800,3.7928837890625,-2.4856302360534666,9.381080654907226,0.47120881423950195
1790006676332895700,3.802895751953125,-2.357839722442627,9.361178853607177,0.2962824554443359
1790006676342908000,3.812907958984375,-2.0784663162231443,9.241917683410644,0.3098994773864746
1790006676352919800,3.822919921875,-1.9431939224243162,8.904035974121093,0.6385036552429199
1790006676362932000,3.832931884765625,-1.8294693435668945,9.214534001922607,1.0438719238281249
1790006676372944000,3.84294384765625,0.4634276588439941,11.552471923065184,2.6439468208312986
1790006676382955800,3.852955810546875,0.15382745666503905,5.604676448822021,-0.24226328048706053
1790006676392968000,3.862968017578125,-1.1831845329284667,8.808866458129883,0.08948328704833984
1790006676402979800,3.872979736328125,0.22505495605468748,9.354594799041747,0.12345102310180664
1790006676412990700,3.88299072265625,0.5258265396118164,9.143456140136719,-0.09127893829345703
1790006676423003000,3.8930029296875,0.974888988494873,10.500519568634033,0.5798457145690917
1790006676433014800,3.903014892578125,2.533813544464111,13.595474127197265,0.5163993705749511
1790006676443026700,3.913026611328125,2.2093992195129393,12.358120781707763,-0.10025719451904297
1790006676453038800,3.923038818359375,0.5767033248901366,9.925911170196533,1.1318588348388672
1790006676463050800,3.93305078125,-0.699705435180664,10.801740065002441,2.118120281219482
1790006676473062700,3.943062744140625,-2.4334067123413083,14.429254855346679,1.2075754623413084
1790006676483074800,3.95307470703125,0.74699091796875,13.211803311157226,2.497002693939209
1790006676493086700,3.963086669921875,-1.3220482292175293,12.758850284576415,3.245041075134277
1790006676503097900,3.973097900390625,-2.2465093452453613,11.400440117645264,2.658012755584717
1790006676513110000,3.983110107421875,-1.3729250144958496,10.497377178955077,1.5810709213256835
1790006676523122000,3.993121826171875,-0.6341641647338867,9.703100778198241,1.0187328063964842
1790006676533133800,4.0031337890625,-0.07317278823852538,10.372130504608153,0.1862988166809082
1790006676543146000,4.01314599609375,-0.5725134719848632,11.266664099884032,-0.2651578338623047
1790006676553158000,4.023157958984375,-1.9385551567077635,10.656142676544189,-0.34102409896850583
1790006676563170000,4.033170166015625,-1.9627964485168456,9.172186560058593,-0.07646481552124022
1790006676573182000,4.043181884765625,-1.43008657913208,7.767987286376953,1.1067197174072265
1790006676583192800,4.05319287109375,-1.1739070014953612,6.86267978363037,1.839345425415039
1790006676593205000,4.063205078125,-0.6714239280700683,6.880636296081542,1.1990461189270019
1790006676603217000,4.073216796875,-1.0685621284484863,8.901941047668457,-0.1762730972290039
1790006676613228800,4.083228759765625,-0.41195232315063474,10.886135673522949,-1.2574047843933105
1790006676623241000,4.093240966796875,0.41838674011230464,12.011709729003906,-0.22071546554565427
1790006676633252900,4.1032529296875,0.6106710609436035,12.193369779968261,1.5969325073242187
1790006676643264800,4.1132646484375,0.45819034271240233,11.4784013092041,1.6584335624694824
1790006676653277000,4.12327685546875,0.3847182792663574,10.206780952453613,1.4719851081848143
1790006676663288800,4.133288818359375,0.42931028518676756,8.911817129516601,1.6774375381469726
1790006676673299700,4.1432998046875,0.5373486351013184,8.359205458831786,1.795800882720947
1790006676683311900,4.153311767578125,-0.024390929412841794,8.954164571380614,1.304390991973877
1790006676693323800,4.16332373046875,-0.39444472351074217,10.58476553955078,1.3857938484191894
1790006676703335700,4.173335693359375,-0.06943184814453125,11.729493208312988,1.0377367820739745
1790006676713347800,4.183347900390625,1.102529864501953,11.933299624633788,0.5210381362915039
1790006676723359700,4.19335986328125,1.8350059349060057,12.001684009552001,0.10295067138671875
1790006676733372000,4.203371826171875,1.458068811035156,11.470320878601074,0.9503484214782715
1790006676743383800,4.2133837890625,0.30137013397216794,9.95987890625,1.8439841911315917
1790006676753395000,4.22339501953125,0.0948702407836914,8.604910404205322,1.435772808074951
1790006676763406800,4.23340673828125,1.4691419937133787,8.023119400787353,0.7152677459716796
1790006676773419000,4.2434189453125,2.039859814453125,7.761403231811523,0.0987608184814453
1790006676783431000,4.253430908203125,1.699583903503418,7.443273686218261,-0.21487959899902342
1790006676793443000,4.263443115234375,1.265934127807617,7.755417727661133,0.2813186950683594
1790006676803455000,4.273455078125,0.9014169250488281,8.647706758880615,1.0931026954650878
1790006676813467000,4.283466796875,-0.21398177337646482,9.26421368637085,1.135749412536621
1790006676823479000,4.29347900390625,-0.6907271789550781,9.705943892669676,2.2891560623168945
1790006676833491000,4.303490966796875,0.7387608497619629,9.28202056121826,1.7702128524780272
1790006676843501800,4.313501708984375,0.5237316131591797,8.520514795684814,0.9133879333496093
1790006676853514000,4.323513916015625,0.2889502128601074,9.144054690551757,1.7069161460876463
1790006676863526000,4.33352587890625,0.12509703674316405,10.650905360412597,0.945560018157959
1790006676873538000,4.3435380859375,0.4900631523132324,12.186336812591552,-1.1023802268981933
1790006676883550000,4.353550048828125,1.0830769760131835,13.110797928619384,-2.635417477416992
1790006676893561900,4.363561767578125,1.488894157409668,13.037924415588378,-2.7256489524841307
1790006676903574000,4.373573974609375,2.1779753227233885,12.569409078216552,-1.89620771484375
1790006676913586000,4.3835859375,1.9847931762695312,11.291055029296874,-0.8460510116577148
1790006676923596800,4.3935966796875,1.9033903198242186,9.147945268249511,-0.4438251327514648
1790006676933609000,4.40360888671875,0.3854664672851562,9.53131680908203,-0.4382885414123535
1790006676943620900,4.413620849609375,-0.21832126388549802,9.964667309570311,-1.1486182464599608
1790006676953632800,4.4236328125,1.1777975791931152,9.758616329193115,-1.449838742828369
1790006676963645000,4.43364501953125,2.206406467437744,9.773879364776612,-1.0660182891845702
1790006676973656800,4.44365673828125,1.7699135772705077,9.638606970977783,-1.6702549331665038
1790006676983668700,4.453668701171875,1.1164461616516113,9.581744681549072,-2.211494145965576
1790006676993681000,4.463680908203125,0.6801029090881348,9.516502686309813,-2.107944924163818
1790006677003692800,4.47369287109375,0.20425532913208005,9.260622383880614,-1.8257284034729002
1790006677013704000,4.483703857421875,0.826149210357666,8.734197293853759,-1.4031518104553222
1790006677023716000,4.493716064453125,1.0688614036560058,9.790788414001463,-0.9469067565917968
1790006677033728000,4.50372802734375,0.9641150810241699,9.184307205963135,-1.372027188873291
1790006677043740000,4.513739990234375,1.0369885940551757,8.805424793243407,-0.600794979095459
1790006677053752000,4.523751953125,1.2678794166564942,8.654440451049805,-0.3945943611145019
1790006677063764000,4.533763916015625,2.1122844146728514,10.856507427978515,-1.496525675201416
1790006677073776000,4.543776123046875,1.4604630126953124,11.22341883239746,-1.5747861419677733
1790006677083788000,4.5537880859375,1.681627391052246,9.779715231323241,-0.24779987182617186
1790006677093800000,4.563800048828125,1.745522647857666,8.686163623046875,-0.45459904022216796
1790006677103810800,4.573810791015625,1.8840870689392089,8.929923279571533,-0.9434650917053222
1790006677113823000,4.583822998046875,1.6736965980529783,9.764901108551024,-0.7558195365905761
1790006677123835000,4.5938349609375,1.1917138763427733,9.957484704589843,-0.598849690246582
1790006677133847000,4.603846923828125,1.3500304611206053,10.483909794616698,-0.6042366439819336
1790006677143859000,4.61385888671875,1.4182652084350584,10.722432135009765,-0.9829694190979004
1790006677153870800,4.623870849609375,1.4040496360778807,10.548104326629637,-0.7799111907958984
1790006677163883000,4.633883056640625,1.9324200149536133,10.318709880065917,-0.2346317626953125
1790006677173895000,4.64389501953125,2.1288941886901855,9.896282924652098,0.08978256225585937
1790006677183905800,4.65390576171875,1.6027683738708496,9.875034384918212,0.01945288848876953
1790006677193918000,4.66391796875,2.5463831031799313,9.503783489990234,-0.2889502128601074
1790006677203929900,4.673929931640625,2.3695114555358887,9.590573300170897,-0.32995091629028317
1790006677213941800,4.683941650390625,0.9539397239685058,9.619902270507811,-0.6708253776550293
1790006677223954000,4.693953857421875,1.7145476638793944,9.67137760620117,-0.7029974624633789
1790006677233965800,4.7039658203125,1.7169418655395507,9.756970315551758,-0.6937199310302734
1790006677243977700,4.713977783203125,1.4469956283569334,9.644293199920654,-0.5140051689147949
1790006677253990000,4.723989990234375,1.3741221153259278,9.579500117492675,-0.4676175117492676
1790006677264001800,4.734001708984375,1.3431471313476562,9.590872575378418,-0.600794979095459
1790006677274013000,4.744012939453125,1.3202525779724121,9.65297218093872,-0.613514175415039
1790006677284024800,4.75402490234375,1.3962684806823729,9.657610946655273,-0.5626373901367188
1790006677294037000,4.764037109375,1.703923394012451,9.841665199279785,-0.608426496887207
1790006677304049000,4.774048828125,1.6211737991333006,9.749787710571288,-0.3598784370422363
1790006677314060800,4.784060791015625,1.3379098152160644,9.728988083648682,-0.17253215713500974
1790006677324073000,4.794072998046875,1.356015965270996,9.578751929473876,-0.314089330291748
1790006677334084900,4.8040849609375,1.4782698875427245,9.645939213562011,-0.5265747276306152
1790006677344097000,4.814096923828125,1.1755530151367186,9.594014965057372,-0.541388850402832
1790006677354108000,4.82410791015625,1.5484499237060545,9.726144969177245,-0.38187516479492184
1790006677364120000,4.8341201171875,1.6735469604492186,9.816077169036864,-0.4038718925476074
1790006677374132000,4.844132080078125,1.567304261779785,9.772981539154053,-0.5608417388916015
1790006677384144000,4.854143798828125,1.439663385772705,9.673771807861328,-0.5768529624938965
1790006677394156000,4.864156005859375,1.3091793952941895,9.558850128173827,-0.4713584518432617
1790006677404168000,4.87416796875,1.2542623947143554,9.554660275268555,-0.510114591217041
1790006677414179800,4.884179931640625,1.4417583122253417,9.648931965637207,-0.47973815765380856
1790006677424192000,4.89419189453125,1.4763245986938476,9.65925696029663,-0.5241805259704589
1790006677434204000,4.904203857421875,1.544409708404541,9.726593881988524,-0.41973347854614257
1790006677444214800,4.91421484375,1.5192705909729003,9.72300257949829,-0.304512523651123
1790006677454227000,4.92422705078125,1.7048212196350097,9.763255094909667,-0.33414076919555663
1790006677464238800,4.93423876953125,1.6106991668701172,9.742156192779541,-0.3616740882873535
1790006677474250800,4.944250732421875,1.4894927078247069,9.663297175598144,-0.43020811080932614
1790006677484263000,4.954262939453125,1.540519130706787,9.617508068847656,-0.5131073432922363
1790006677494274800,4.96427490234375,1.5020622665405272,9.604788872528076,-0.4531026641845703
1790006677504287000,4.974286865234375,1.4411597618103027,9.587430910491943,-0.4068646446228027
1790006677514299000,4.984298828125,1.5702970138549803,9.673173257446289,-0.421978042602539
1790006677524309800,4.994309814453125,1.7386393180847166,9.748740247344971,-0.4724059150695801
1790006677534321700,5.00432177734375,1.55129303817749,9.680655137634277,-0.4987421333312988
1790006677544333800,5.014333740234375,1.4444517890930175,9.644592475128173,-0.4382885414123535
1790006677554345700,5.024345703125,1.6038158370971678,9.623493572998047,-0.6239888076782226
1790006677564358000,5.03435791015625,1.6997335411071777,9.635314943695068,-0.60648120803833
1790006677574369800,5.044369873046875,1.53213942489624,9.636362406921386,-0.48677112503051756
1790006677584381700,5.054381591796875,1.587804613494873,9.645191025543213,-0.6121674369812011
1790006677594393900,5.064393798828125,1.6897078216552734,9.712677584838866,-0.6015431671142578
1790006677604405800,5.07440576171875,1.654094071960449,9.663446813201904,-0.6114192489624023
1790006677614417000,5.0844169921875,1.6514005950927733,9.591022212982176,-0.8447042732238769
1790006677624429000,5.094428955078125,1.737292579650879,9.612719665527344,-0.7685387329101562
1790006677634441000,5.10444091796875,1.772307778930664,9.59625952911377,-0.7564180870056152
1790006677644452900,5.114452880859375,1.7386393180847166,9.609128363037108,-0.762253953552246
1790006677654465000,5.124465087890625,1.9107225624084472,9.44183352203369,-0.4686649749755859
1790006677664477000,5.134476806640625,1.1532570121765136,6.056432374572753,-2.8049568824768065
1790006677674488800,5.14448876953125,2.747196767425537,4.542698374938965,-7.473949394989013
1790006677684501000,5.1545009765625,2.5004443588256833,10.733056404876708,0.7453449043273925
1790006677694511900,5.164511962890625,0.7855974197387695,13.13204646835327,3.749319799804687
1790006677704523800,5.174523681640625,3.5476083099365234,12.879907106018065,0.1970727241516113
1790006677714536000,5.184535888671875,2.8893524909973145,11.08979245223999,-2.4914661026000977
1790006677724547800,5.1945478515625,2.2005706008911132,9.995642293548583,-2.1459528755187987
1790006677734560000,5.20456005859375,2.4527099632263183,9.638906246185302,-2.995595189666748
1790006677744572000,5.214572021484375,1.903839232635498,8.475024964141845,-3.5244144813537597
1790006677754583800,5.224583740234375,2.864213373565674,8.671349500274658,-3.77311217880249
1790006677764596000,5.234595947265625,2.473958502960205,8.86812294921875,-3.368941011047363
1790006677774606000,5.244606201171875,2.1248539733886718,10.790966157531738,-1.7238251953125
1790006677784618200,5.2546181640625,2.7816134162902832,9.599701194000243,-3.135506349182129
1790006677794630100,5.264630126953125,3.2047885597229,9.021651130676268,-4.5139679550170895
1790006677804642000,5.27464208984375,1.9282301620483397,8.955660947418213,-3.984400475311279
1790006677814654200,5.284654296875,2.0020015007019043,8.789263932037352,-4.256591276550293
1790006677824666000,5.294666015625,2.215983274078369,9.613018940734863,-2.1775264099121094
1790006677834678000,5.304677978515625,2.308608950805664,9.868599967956543,0.0665887336730957
1790006677844690200,5.314690185546875,2.4938603042602536,9.890447058105469,1.004966146850586
1790006677854701000,5.324701171875,2.300977433013916,10.047267266845703,1.8174983352661132
1790006677864713000,5.334712890625,1.7028759307861328,9.682750064086914,1.0356418556213378
1790006677874725000,5.34472509765625,1.591695191192627,9.277381795501709,-0.8053495834350586
1790006677884737000,5.354737060546875,2.148347077178955,9.552266073608397,-0.36750995483398435
1790006677894749000,5.3647490234375,2.257432890319824,9.905859731292724,0.7448959915161132
1790006677904761000,5.374760986328125,1.7108067237854003,9.848847804260254,0.5466261665344238
1790006677914773000,5.38477294921875,1.4851532173156738,9.682001876068115,0.32665888900756834
1790006677924785200,5.39478515625,1.6660650802612305,9.65955623550415,-0.31379005508422847
1790006677934796000,5.404796142578125,1.6549918975830078,9.058461981201171,-0.9065046035766601
1790006677944808000,5.414807861328125,1.600523809814453,9.996390481567381,-0.4182371025085449
1790006677954819800,5.42481982421875,2.0033482391357422,10.012551342773437,-0.38202480239868164
1790006677964832000,5.43483203125,2.1953332847595215,9.67811129837036,-0.40237551651000975
1790006677974844000,5.444843994140625,2.0540753868103026,9.04050546875,0.26051906814575193
1790006677984856000,5.45485595703125,1.7067665084838866,7.379528067016601,1.4954782119750976
1790006677994868000,5.464867919921875,1.1598410667419432,6.628796208953857,0.21966800231933592
1790006678004880000,5.4748798828125,0.845901374053955,6.732195793151855,-1.1634323692321777
1790006678014892000,5.48489208984375,1.2633902885437012,7.832181818389892,-1.6168343086242676
1790006678024903200,5.494903076171875,1.4103344154357909,8.741978449249267,-1.0226233840942383
1790006678034915000,5.5049150390625,1.2578536972045897,9.626785600280762,-0.5792471641540528
1790006678044927200,5.51492724609375,1.1456254943847655,10.505307971954345,-0.3450643142700195
1790006678054939100,5.524939208984375,1.3265373573303223,11.68310555114746,-0.5451297904968262
1790006678064951000,5.534950927734375,1.5705962890624998,11.516558898162842,-1.3397054664611816
1790006678074963200,5.544963134765625,1.4339771568298338,11.425728872680663,-2.1588217094421385
1790006678084975000,5.55497509765625,1.3031938911437988,11.170447120666504,-3.263446500396728
1790006678094987000,5.564987060546875,1.3907318893432616,10.641777466583251,-2.564638890838623
1790006678104998100,5.574998046875,1.1004349380493164,9.944166957855224,-1.8171990600585937
1790006678115010000,5.585010009765625,1.0702081420898437,9.32107597579956,-1.720533168029785
1790006678125022000,5.59502197265625,1.3007996894836424,9.010278672790527,-0.9771335525512694
1790006678135034000,5.6050341796875,1.2859855667114257,9.515904135894775,-0.527322915649414
1790006678145046000,5.6150458984375,1.1960533668518065,10.263194329071045,-0.5811924530029297
1790006678155058200,5.62505810546875,1.44280577545166,10.595988359832763,-0.4879682258605957
1790006678165070000,5.635070068359375,1.5707459266662598,10.583867713928223,-0.05027823486328125
1790006678175082000,5.64508203125,1.5246575447082518,9.758466691589355,0.20245967788696287
1790006678185092900,5.6550927734375,1.470937644958496,9.233986890411376,-0.20141221466064452
1790006678195105000,5.66510498046875,1.4796166259765624,8.503306471252442,-0.6865373260498047
1790006678205117000,5.675116943359375,1.3251906188964844,9.25703108139038,-0.8156745780944824
1790006678215129000,5.685129150390625,1.3590087173461913,9.687987380218505,-1.304390991973877
1790006678225141000,5.69514111328125,1.402702897644043,9.739013803100585,-0.7052420265197753
1790006678235153000,5.70515283203125,1.4847043045043944,9.483732051086426,0.1862988166809082
1790006678245165000,5.7151650390625,1.2642881141662596,9.379584278869629,0.37334582138061523
1790006678255177000,5.725177001953125,1.4609119255065917,9.318232861328125,0.21742343826293944
1790006678265188000,5.73518798828125,1.563563321685791,9.261669847106933,0.27563246612548825
1790006678275200300,5.7452001953125,1.4736311218261717,9.769539874267577,0.47165772705078124
1790006678285212200,5.755212158203125,1.460163737487793,10.234763184356689,-0.04863222122192382
1790006678295224000,5.76522412109375,1.5933412048339843,9.784503634643555,-0.29089550170898437
1790006678305236200,5.775236328125,1.5644611473083496,9.086893125915527,0.12913725204467771
1790006678315248000,5.785248046875,1.4613608383178711,9.44198315963745,0.2262520568847656
1790006678325260000,5.795260009765625,1.6262614776611328,9.356091175079346,0.3010708587646484
1790006678335272200,5.805272216796875,1.5692495506286621,9.430610701751709,0.2941875289916992
1790006678345284000,5.8152841796875,1.677736813354492,9.566780921173095,-0.6405985816955566
1790006678355295000,5.825294921875,1.492635097503662,9.242815509033203,-0.38621465530395505
1790006678365307100,5.83530712890625,1.3298293846130371,9.55735375213623,-0.44427404556274414
1790006678375319000,5.845319091796875,1.8586486763000487,10.242095426940917,-1.3507786491394043
1790006678385331000,5.8553310546875,1.9291279876708982,10.271274759674071,-1.1968015548706055
1790006678395343000,5.865343017578125,1.6913538352966309,9.954940865325927,-1.3245920684814452
1790006678405355000,5.87535498046875,1.713649838256836,10.152761777496337,-1.882141780090332
1790006678415367200,5.8853671875,1.7378911300659179,10.043526326751708,-1.5551836158752441
1790006678425379000,5.895379150390625,1.6771382629394531,9.982174909210205,-1.1290157203674316
1790006678435390000,5.905389892578125,1.6514005950927733,9.795576817321777,-1.156249764251709
1790006678445402000,5.915402099609375,1.6635212409973144,10.40549969024658,-1.5364789154052734
1790006678455414000,5.9254140625,1.750011775970459,10.531494552612305,-1.6136919189453125
1790006678465426000,5.935426025390625,1.9348142166137694,8.859443968200683,-1.2192471954345703
1790006678475438000,5.94543798828125,1.226429800415039,9.976039767456054,-0.7993640792846679
1790006678485450000,5.955449951171875,1.753154165649414,9.035567427825928,-1.2639888389587401
1790006678495462000,5.9654619140625,2.0266917053222655,7.7866919868469235,-0.5006874221801757
1790006678505474000,5.97547412109375,1.4694412689208984,9.513659571838378,-0.9683049339294433
1790006678515485000,5.98548486328125,1.4823101028442383,10.065074141693115,-1.727566135406494
1790006678525496800,5.995496826171875,1.8043302261352538,10.492289500427246,-1.4513351188659667
1790006678535509000,6.005509033203125,1.751208876800537,10.554987656402588,-1.4987702392578124
1790006678545521000,6.01552099609375,1.7923592178344725,9.521590364837646,-1.009455274963379
1790006678555533000,6.025532958984375,1.9366098678588866,8.870517150878905,0.04878185882568359
1790006678565545000,6.035544921875,1.636287197113037,9.574113163757323,-0.0757166275024414
1790006678575557000,6.04555712890625,1.4902408958435058,10.59134959411621,-0.7447463539123534
1790006678585569000,6.055569091796875,1.7565958305358886,10.485705445861816,-1.030404539489746
1790006678595580200,6.065580078125,2.0121768577575683,9.539995790100097,-0.8016086433410644
1790006678605592000,6.075592041015625,1.8778022895812987,9.29593685836792,-0.7848492317199707
1790006678615604000,6.08560400390625,1.7943045066833494,9.673921445465087,-0.70868369140625
1790006678625616100,6.0956162109375,1.9961656341552734,7.58438194656372,-0.0469862075805664
1790006678635628000,6.1056279296875,1.6778864509582518,8.289923248291014,0.43185412445068355
1790006678645640200,6.11564013671875,1.3213000411987303,10.2019925491333,-1.2005424949645995
1790006678655652000,6.125652099609375,1.6825252166748046,10.27262149810791,-1.3193547523498534
1790006678665664000,6.1356640625,2.028936269378662,10.160842208099364,-1.1278186195373534
1790006678675675000,6.1456748046875,1.974617819213867,10.109366872406005,-0.903362213897705
1790006678685687000,6.15568701171875,1.989431941986084,9.654917469787597,-0.6069301208496093
1790006678695699000,6.165698974609375,1.8400936134338377,9.42297918395996,-0.48228199691772455
1790006678705711000,6.175711181640625,1.648557480621338,9.948955361175537,-1.0410288093566893
1790006678715723000,6.185722900390625,1.7815853103637693,10.333075090026854,-1.5234604438781738
1790006678725735000,6.19573486328125,1.9406500831604003,9.784204359436034,-1.1716624374389648
1790006678735747000,6.2057470703125,1.956810944366455,9.401281731414795,-1.0518027168273925
1790006678745759000,6.215759033203125,2.0967221038818358,8.716988969421386,-0.7855974197387695
1790006678755771000,6.22577099609375,1.0230722969055175,8.230217844390868,-0.2905962265014648
1790006678765782000,6.235781982421875,1.6870143447875976,9.67811129837036,-1.1508628105163574
1790006678775794700,6.245794677734375,1.8864812705993652,9.773729727172851,-1.115249060821533
1790006678785806600,6.255806640625,1.8371008613586424,10.123133531951904,-1.1471218704223631
1790006678795818800,6.26581884765625,2.054374662017822,9.70369932861328,-1.0422259101867675
1790006678805830700,6.27583056640625,2.070834798431396,9.997587582397461,-1.313967798614502
1790006678815842600,6.285842529296875,1.9779098464965819,9.97903251953125,-1.5921441040039062
1790006678825854700,6.295854736328125,1.863586717224121,9.46098713531494,-0.9011176498413085
1790006678835866600,6.30586669921875,1.6774375381469726,9.937582903289794,-0.4713584518432617
1790006678845877800,6.315877685546875,1.6481085678100584,9.58967547454834,-0.6745663177490234
1790006678855890000,6.325889892578125,1.8203414497375487,9.301174174499511,-0.865054987335205
1790006678865901800,6.33590185546875,1.901893943786621,9.581894319152832,-0.9047089523315429
1790006678875913700,6.345913818359375,1.922244657897949,9.809942027282714,-1.0173860679626465
1790006678885926000,6.35592578125,1.8781015647888182,9.439140045166015,-0.7790133651733397
1790006678895937800,6.365937744140625,1.8007389236450195,9.681403325653076,-0.4948515556335449
1790006678905950000,6.375949951171875,1.8276736923217773,10.249577307128906,-0.6705261024475098
1790006678915961900,6.3859619140625,1.9551649307250976,9.370007472229004,-0.8195651557922363
1790006678925972700,6.39597265625,1.8953098892211913,9.38512087020874,-0.22056582794189453
1790006678935985000,6.40598486328125,1.8944120635986328,10.859051267242432,0.2677016731262207
1790006678945996800,6.415996826171875,1.9680337646484374,9.91483798751831,-0.4317044868469238
1790006678956008700,6.4260087890625,1.9536685546875,9.519345800781249,-0.38890813217163084
1790006678966020900,6.436020751953125,1.7244237457275389,9.624092123413085,-0.304512523651123
1790006678976032800,6.44603271484375,1.792808130645752,9.54463455581665,-0.4917091659545898
1790006678986044700,6.456044677734375,1.8269255043029784,9.54508346862793,-0.5997475158691405
1790006678996056800,6.466056884765625,1.817647972869873,9.623194297790526,-0.6624456718444823
1790006679006067700,6.476067626953125,1.9348142166137694,9.28276874923706,-0.66394204788208
1790006679016079600,6.48607958984375,1.9801544105529785,9.464129524993895,-0.6582558189392089
1790006679026091800,6.496091796875,1.5432126075744628,7.98645818786621,-0.2871545616149902
1790006679036103700,6.506103759765625,1.6959926010131834,10.117746578216552,-0.6703764648437499
1790006679046115600,6.516115478515625,2.0274398933410644,11.08964281463623,-1.279401512145996
1790006679056127700,6.526127685546875,2.107944924163818,9.572616787719726,-0.7989151664733887
1790006679066139600,6.5361396484375,1.9211971946716306,9.408613973999023,-0.6959644950866699
1790006679076151800,6.54615185546875,1.8436849159240722,9.50004254989624,-0.7275380294799805
1790006679086162700,6.55616259765625,1.6823755790710448,7.9934911552429195,-0.4358943397521972
1790006679096174600,6.566174560546875,1.6665139930725097,9.551966798400878,-0.7761702507019043
1790006679106186800,6.576186767578125,1.8510171585083006,11.257386568450928,-1.25126964263916
1790006679116198700,6.58619873046875,2.3636755889892576,9.459790034484863,-0.7178115852355956
1790006679126210800,6.5962109375,1.8861819953918455,9.71058265838623,-0.7152677459716796
1790006679136222700,6.60622265625,1.7955016075134276,10.104877744293212,-0.579696076965332
1790006679146234600,6.616234619140625,2.1830630012512207,9.303418738555907,-0.6950666694641113
1790006679156246800,6.626246826171875,1.7399860565185545,8.863933096313476,-0.6774094322204589
1790006679166257700,6.636257568359375,1.573738678741455,7.991994779205322,-0.5172971961975097
1790006679176269800,6.646269775390625,1.7700632148742674,10.500669206237792,-1.2425906616210938
1790006679186281700,6.65628173828125,2.030881558227539,10.340257695007324,-1.1882722114562987
1790006679196294000,6.6662939453125,2.197577848815918,10.123881719970703,-0.9530418983459472
1790006679206305800,6.676305908203125,1.8559551994323729,9.2443118850708,-0.9322422714233398
1790006679216317700,6.686317626953125,1.8257284034729002,8.250718196105957,-0.8182184173583984
1790006679226329900,6.696329833984375,1.8695722213745116,10.48914711074829,-0.5253776268005371
1790006679236341800,6.706341796875,2.1498434532165525,10.108618684387206,-0.8843582382202148
1790006679246352600,6.7163525390625,1.8739117118835449,9.9215716796875,-0.6290764862060546
1790006679256364800,6.72636474609375,2.2711995498657225,10.392930131530761,-0.558597174835205
1790006679266376700,6.736376708984375,2.2246622550964354,9.6917283203125,-0.5713163711547852
1790006679276388600,6.746388671875,1.8640356300354002,9.606584523773193,-0.4300584732055664
1790006679286400800,6.75640087890625,1.709759260559082,9.380781379699707,-0.3366846084594726
1790006679296412700,6.76641259765625,1.7772458198547363,9.426271211242675,-0.4391863670349121
1790006679306424600,6.776424560546875,1.944091748046875,9.516203411102294,-0.6691793640136718
1790006679316436700,6.786436767578125,2.010530844116211,9.670180505371093,-0.8132803764343262
1790006679326448600,6.79644873046875,2.0452467681884765,9.604040684509277,-0.8014590057373047
1790006679336459500,6.80645947265625,2.055122850036621,10.01778865890503,-0.7742249618530272
1790006679346471700,6.8164716796875,1.976712745666504,9.5890769241333,-0.751480046081543
1790006679356483600,6.826483642578125,1.853411360168457,9.503633852386473,-0.6118681617736816
1790006679366495700,6.836495849609375,1.8442834663391112,9.540295065307618,-0.6346130775451659
1790006679376507600,6.846507568359375,1.8631378044128417,9.53760158843994,-0.7287351303100585
1790006679386519600,6.85651953125,1.9349638542175291,9.673622170257568,-0.8233060958862304
1790006679396531700,6.86653173828125,1.9840449882507323,9.681552963256836,-0.8396165946960449
1790006679406542800,6.87654296875,2.0144214218139647,9.693972884368895,-0.728435855102539
1790006679416554800,6.8865546875,1.9372084182739258,9.639205521392821,-0.546476528930664
1790006679426567000,6.89656689453125,1.8189947113037108,9.594463877868652,-0.4734533782958984
1790006679436578800,6.906578857421875,1.804180588531494,9.600299744415283,-0.534355883026123
1790006679446590700,6.9165908203125,1.868674395751953,9.61481459197998,-0.626981559753418
1790006679456603000,6.926602783203125,1.928679074859619,9.625289224243163,-0.6624456718444823
1790006679466614800,6.93661474609375,1.9238906715393065,9.617059156036376,-0.7116764434814453
1790006679476626700,6.946626708984375,2.156726782989502,9.640851535034178,-1.590947003173828
1790006679486638800,6.956638916015625,2.0896891365051267,9.39185456237793,-2.139368820953369
1790006679496649700,6.966649658203125,1.7398364189147948,9.852888019561767,0.18899229354858396
1790006679506661600,6.97666162109375,2.007238816833496,9.585036708831787,-0.7139210075378417
1790006679516673800,6.986673828125,1.7145476638793944,9.449913952636718,-0.22535423126220702
1790006679526685700,6.996685791015625,1.721131718444824,9.43644656829834,-0.08529343414306641
1790006679536697600,7.006697509765625,1.889025109863281,9.426720124053954,0.1657984649658203
1790006679546709800,7.016709716796875,2.1040543464660644,10.213813919830322,2.1627122871398923
1790006679556721700,7.0267216796875,2.158522434234619,9.743951844024657,-0.017357962036132813
1790006679566733800,7.03673388671875,1.9336171157836912,9.673921445465087,-0.21862053909301757
1790006679576744700,7.04674462890625,1.9276316116333008,9.647884502410887,-0.48677112503051756
1790006679586756600,7.056756591796875,1.8173486976623534,9.464129524993895,-0.6070797584533691
1790006679596768500,7.0667685546875,1.8484733192443847,9.473107781219483,-0.4531026641845703
1790006679606780700,7.07678076171875,1.9502268898010253,9.452308154296874,-0.45070846252441404
1790006679616792600,7.08679248046875,2.0772692153930663,9.469217203521728,-0.6200982299804687
1790006679626804700,7.0968046875,2.0382138008117674,9.582193594360351,-0.8381202186584472
1790006679636816600,7.106816650390625,1.817049422454834,9.5124624710083,-0.6651391487121582
1790006679646828500,7.11682861328125,2.083254719543457,9.865008665466307,-0.7215525253295898
1790006679656840000,7.12683984375,2.1128829650878904,9.735572138214112,-0.8716390419006347
1790006679666851800,7.136851806640625,2.028337718963623,9.714772511291503,-1.0372878692626952
1790006679676863700,7.14686376953125,1.9633949989318846,9.493907408142089,-1.0082581741333008
1790006679686876000,7.1568759765625,1.8116624687194822,9.30177272491455,-1.0534487304687499
1790006679696887800,7.1668876953125,1.9470845001220702,9.478644372558593,-1.002871220397949
1790006679706899700,7.176899658203125,2.145653600311279,9.696367086029053,-1.216852993774414
1790006679716911900,7.186911865234375,2.24097275390625,9.827299989318847,-1.440261936187744
1790006679726923800,7.196923828125,2.1534347557067868,9.728090258026123,-1.3296797470092772
1790006679736934700,7.2069345703125,2.0163667106628416,9.536554125213623,-1.2642881141662596
1790006679746946800,7.21694677734375,1.9449895736694334,9.397241516113281,-1.3423989433288575
1790006679756958700,7.226958740234375,1.922992845916748,9.36596725692749,-1.4631564895629883
1790006679766970600,7.236970703125,2.0765210273742674,9.528922607421874,-1.4100351402282714
1790006679776982500,7.246982421875,2.2041619033813475,9.623792848205566,-1.228375089263916
1790006679786994400,7.256994384765625,2.190544881439209,9.765948571777344,-1.0284592506408692
1790006679797006600,7.267006591796875,2.046294231414795,9.619303720092773,-0.8476970252990722
1790006679807018500,7.2770185546875,1.9674352142333984,9.564985269927979,-0.6289268486022949
1790006679817029400,7.287029296875,2.032677209472656,9.562291793060302,-0.4730044654846191
1790006679827041500,7.29704150390625,2.1218612213134764,9.53236427230835,-0.485873299407959
1790006679837053400,7.307053466796875,2.2073042930603024,9.655964933013916,-0.7109282554626465
1790006679847065300,7.3170654296875,2.0109797569274903,9.53820013885498,-0.745644179534912
1790006679857077500,7.327077392578125,1.9864391899108886,9.680505500030517,-0.4537012145996093
1790006679867089400,7.33708935546875,1.9571102195739745,9.565134907531737,-0.05401917495727539
1790006679877101300,7.347101318359375,1.9726725303649901,9.713425772857665,0.14814122772216795
1790006679887113500,7.357113525390625,1.9048866958618162,9.612570027923583,0.2314893730163574
1790006679897125400,7.36712548828125,2.0507833595275877,9.721955116271973,0.18555062866210936
1790006679907136500,7.377136474609375,2.0726304496765136,9.683647889709473,0.12150573425292968
1790006679917148700,7.387148681640625,1.8556559242248534,9.646088851165771,0.10190320816040038
1790006679927160600,7.39716064453125,1.6418237884521483,9.561842880249023,0.2271498825073242
1790006679937172500,7.40717236328125,1.6440683525085449,9.671676881408692,0.37753567428588863
1790006679947184600,7.4171845703125,1.7571943809509276,9.766397484588623,0.5348047958374023
1790006679957196500,7.427196533203125,1.7718588661193846,9.823409411621093,0.5557540603637695
1790006679967208700,7.437208740234375,1.7597382202148437,9.776123928833007,0.37334582138061523
1790006679977220600,7.447220703125,1.6524480583190917,9.6787098487854,-0.009576806640625
1790006679987231500,7.4572314453125,1.3959692054748534,9.516652323913574,-0.24121581726074218
1790006679997243600,7.46724365234375,1.3379098152160644,9.508571893310547,-0.11103110198974608
1790006680007255600,7.477255615234375,1.562216583251953,9.721506203460693,-0.008678981018066407
1790006680017267500,7.487267333984375,1.8864812705993652,9.900323139953613,-0.1945288848876953
1790006680027279600,7.497279541015625,2.0944775398254394,9.968258612060547,-0.8053495834350586
1790006680037291500,7.50729150390625,1.9680337646484374,9.892841259765625,-1.7387889556884764
1790006680047303400,7.517303466796875,1.168968960571289,9.227103560638428,-1.8983026412963866
1790006680057315600,7.527315673828125,1.2663830406188965,8.980500789642333,-1.671452033996582
1790006680067326500,7.537326416015625,2.0389619888305663,9.468768290710448,-0.9039607643127441
1790006680077338400,7.54733837890625,2.356492984008789,9.64638812637329,-1.3136685234069823
1790006680087350500,7.5573505859375,1.9587562332153319,9.569025485229492,-1.2761094848632812
1790006680097362400,7.567362548828125,1.7591396697998045,9.564685994720458,-0.6681319007873535
1790006680107374300,7.577374267578125,1.767818650817871,9.696067810821532,0.1497872413635254
1790006680117386500,7.587386474609375,1.8007389236450195,9.638307695770264,0.6006453414916992
1790006680127398400,7.5973984375,1.9916765060424804,9.83852280960083,0.40013095245361324
1790006680137410600,7.60741064453125,1.9566613067626952,9.724798230743408,0.15996259841918944
1790006680147422500,7.61742236328125,1.9557634811401365,9.605985973358154,0.3507505432128906
1790006680157433600,7.62743359375,1.9710265167236327,9.573813888549804,0.44891281127929683
1790006680167445500,7.637445556640625,1.7772458198547363,9.580248305511475,0.14918869094848633
1790006680177457700,7.647457763671875,1.6711527587890624,9.728688808441161,0.06958148574829101
1790006680187469600,7.657469482421875,2.024297503662109,9.907056832122802,0.2154781494140625
1790006680197481700,7.667481689453125,2.305167285919189,9.915885450744629,0.15741875915527342
1790006680207493600,7.67749365234375,2.0688895095825193,9.584288520812988,-0.18001403732299803
1790006680217505500,7.687505615234375,1.9174562545776366,9.42253027114868,-0.5551555099487304
1790006680227517700,7.697517578125,2.048239520263672,9.546879119873047,-0.6012438919067382
1790006680237528600,7.707528564453125,2.0546739372253415,9.643844287109374,-0.4843769233703613
1790006680247540500,7.71754052734375,2.0075380920410155,9.709086282348633,-0.5451297904968262
1790006680257552600,7.727552734375,2.053177561187744,9.679906949615479,-0.8933364944458008
1790006680267564500,7.737564453125,1.949777976989746,9.572616787719726,-0.9618705169677734
1790006680277576400,7.747576416015625,1.9499276145935058,9.552864624023437,-0.780809016418457
1790006680287588600,7.757588623046875,2.131737303161621,9.549273321533203,-0.7269394790649414
1790006680297600500,7.7676005859375,2.1232079597473144,9.543587092590332,-0.9733926124572754
1790006680307612400,7.7776123046875,1.9583073204040526,9.541791441345215,-1.1837830833435057
1790006680317624600,7.78762451171875,2.0747253761291504,9.621997196960448,-0.9913491249084472
1790006680327635500,7.797635498046875,2.316839019012451,9.712079034423828,-0.6132149002075195
1790006680337647400,7.8076474609375,2.170194167327881,9.690381581878661,-0.5374982727050781
1790006680347659500,7.817659423828125,1.9379566062927245,9.618405894470214,-0.8713397666931152
1790006680357671400,7.82767138671875,1.9910779556274414,9.55106897277832,-1.2222399475097656
1790006680367683300,7.837683349609375,2.127248175048828,9.557653027343749,-1.2668319534301757
1790006680377695500,7.847695556640625,2.1417630226135254,9.567978022003173,-1.195754091644287
1790006680387707400,7.857707275390625,2.1716905433654783,9.55091933517456,-1.2442366752624512
1790006680397719600,7.867719482421875,2.398391513061523,9.656563483428954,-1.0218751960754393
1790006680407731500,7.8777314453125,2.314145542144775,9.449465039825439,-0.47854105682373044
1790006680417742600,7.88774267578125,2.5516204193115235,9.571718962097167,-0.018255787658691406
1790006680427754800,7.897754638671875,2.3841759407043455,9.502137476348876,0.32576106338500976
1790006680437766700,7.9077666015625,2.04285256652832,9.433004903411865,-0.6539163284301758
1790006680447778600,7.917778564453125,1.8082208038330077,9.272443754577637,-1.2054805358886718
1790006680457790700,7.927790771484375,1.8983026412963866,9.528174419403076,-1.7524059776306151
1790006680467802600,7.937802734375,1.6460136413574218,9.506925879669188,-1.2785036865234374
1790006680477814500,7.947814453125,1.5611691200256346,9.594014965057372,-1.0969932731628418
1790006680487826700,7.95782666015625,1.6298527801513671,9.629329439544676,-1.1581950531005858
1790006680497837600,7.967837646484375,1.3415011177062988,9.305812940216065,-1.3220482292175293
1790006680507849500,7.977849365234375,1.182436344909668,9.476699083709716,-0.8969277969360351
1790006680517861600,7.987861572265625,1.2262801628112792,9.558101940155028,-0.3651157531738281
1790006680527873500,7.99787353515625,1.5840636734008788,10.031854593658446,-0.2066495307922363
1790006680537885400,8.007885498046875,1.4540285957336425,9.900921690368651,-0.25827450408935543
1790006680547897600,8.017897705078125,1.037437506866455,9.522937103271484,-0.016609774017333982
1790006680557909500,8.027909423828126,0.6530185028076172,9.195081113433837,0.5466261665344238
1790006680567921700,8.037921630859374,0.6227917068481444,9.11682064666748,0.7315782447814941
1790006680577933600,8.04793359375,0.9838672447204589,9.515754498291015,0.5125087928771972
1790006680587944400,8.0579443359375,1.2298714653015137,9.74290438079834,0.44981063690185547
1790006680597956400,8.067956298828125,1.0941501586914062,9.744999307250977,0.6868366012573242
1790006680607968500,8.077968505859374,0.6827963859558105,9.42327845916748,1.045069024658203
1790006680617980400,8.08798046875,0.4212298545837402,9.221716606903076,1.1499649848937987
1790006680627992600,8.09799267578125,0.6868366012573242,9.585485621643066,2.0202572883605954
1790006680638004500,8.10800439453125,0.9308955329895019,9.742605105590819,1.8288707931518553
1790006680648016400,8.118016357421874,0.8412626083374023,9.684396077728271,1.8795979408264158
1790006680658028500,8.128028564453125,0.5550058723449707,9.561693242645264,1.8305168067932127
1790006680668040400,8.13804052734375,0.3238157745361328,9.396493328094483,1.770362490081787
1790006680678051600,8.148051513671875,0.49859249572753905,9.553912087249754,2.1938369087219236
1790006680688063700,8.158063720703124,0.845302823638916,9.790339501190186,2.599803727722168
1790006680698075600,8.16807568359375,0.8821136741638184,9.515455223083496,2.2278046447753903
1790006680708087600,8.178087646484375,0.8002619049072265,9.256731806182861,2.062604730224609
1790006680718099700,8.188099609375,0.8186673301696776,9.195829301452637,1.8875287338256834
1790006680728111600,8.198111572265624,0.9439140045166015,9.2956375831604,1.9770120208740234
1790006680738123500,8.20812353515625,0.9867103591918944,9.489867192840576,2.11318224029541
1790006680748135700,8.2181357421875,0.9277531433105468,9.648034140014648,2.561945413970947
1790006680758146600,8.228146484375,0.8749310691833495,9.833135855865478,2.766200743103027
1790006680768158700,8.23815869140625,0.7121253562927246,9.65970587310791,3.1817443687438964
1790006680778170600,8.248170654296874,1.0657190139770507,9.704896429443359,4.4464813957214355
1790006680788182800,8.258182861328125,0.4052186309814453,10.121786793518066,4.855440966796874
1790006680798194700,8.268194580078125,0.7064391273498535,10.246285279846191,5.568763423919678
1790006680808206600,8.27820654296875,0.761655403137207,9.815628256225585,3.8813001663208007
1790006680818218800,8.28821875,0.9151835845947265,9.816974994659423,2.9686604209899903
1790006680828230700,8.298230712890625,0.939125601196289,9.874884747314452,2.2489035469055176
1790006680838242800,8.308242919921875,0.9925462257385254,9.832986218261718,1.331026485443115
1790006680848253700,8.318253662109376,1.0218751960754393,9.838672447204589,0.9362824867248535
1790006680858265600,8.328265625,0.9864110839843749,9.731232647705077,1.0934019706726072
1790006680868277500,8.338277587890625,0.9843161575317382,9.5001921875,1.0160393295288086
1790006680878289700,8.34828955078125,1.1037269653320312,9.345766180419922,1.0940005210876464
1790006680888301600,8.358301513671876,1.3344681503295899,9.53236427230835,1.0571896705627442
1790006680898313700,8.368313720703124,1.3051391799926757,9.758616329193115,0.9192237998962401
1790006680908325600,8.37832568359375,1.132607022857666,9.720458740234374,0.9407716148376464
1790006680918337500,8.388337646484375,1.0740987197875975,9.496301609802245,0.960823053741455
1790006680928349700,8.398349609375,1.3826514587402343,9.574262801361083,1.2054805358886718
1790006680938360600,8.408360595703124,1.7161936775207518,9.873687646484374,1.3911808021545409
1790006680948372500,8.41837255859375,1.7230770072937012,10.020781410980224,1.37906015625
1790006680958384600,8.428384521484375,1.4092869522094726,9.701754039764404,1.1137526847839354
1790006680968396500,8.438396484375,1.1581950531005858,9.440187508392333,0.8159738533020019
1790006680978408400,8.448408447265624,1.1614870803833006,9.499443999481201,0.7528267845153808
1790006680988420600,8.458420654296875,1.3106757713317871,9.500790737915038,0.9611223289489745
1790006680998432500,8.4684326171875,1.5726912155151367,9.590872575378418,1.1719617126464843
1790006681008444700,8.478444580078126,1.6027683738708496,9.468917928314209,1.1568483146667479
1790006681018456600,8.48845654296875,1.7474679367065429,9.909899946594237,1.2636895637512207
1790006681028467700,8.4984677734375,1.6020201858520506,9.751882637023925,1.5469535476684568
1790006681038479600,8.508479736328125,1.3519757499694824,9.413103102111815,1.8887258346557616
1790006681048491800,8.51849169921875,1.2259808876037597,9.143306502532958,1.9563620315551757
1790006681058503700,8.528503662109374,1.5589245559692382,9.215282189941405,1.81315884475708
1790006681068515600,8.538515625,2.158672071838379,9.837176071166992,1.6852186935424804
1790006681078527700,8.54852783203125,2.1918916198730467,10.017489383697509,1.76841720123291
1790006681088539600,8.55853955078125,1.596782869720459,9.676465284729003,1.956212393951416
1790006681098551800,8.5685517578125,1.031751277923584,9.005340631866455,2.166153952026367
1790006681108563700,8.578563720703125,1.29601128616333,8.889970039367675,2.279728893280029
1790006681118574600,8.58857470703125,2.1288941886901855,9.285312588500975,2.5418939750671385
1790006681128586800,8.598586669921875,2.5089737022399903,9.473107781219483,2.6200048042297364
1790006681138598700,8.6085986328125,2.505831312561035,9.648483052825927,2.5336639068603515
1790006681148610600,8.618610595703124,1.9069816223144531,9.675118546295165,2.5411457870483396
1790006681158622700,8.628622802734375,1.3576619789123534,9.150339469909667,2.709488091278076
1790006681168634600,8.638634521484375,1.7200842552185058,9.035567427825928,2.8853122756958007
1790006681178646500,8.648646484375,2.373701308441162,9.388712172698973,3.286191416168213
1790006681188658700,8.65865869140625,2.7219080123901365,9.768791686248779,3.049165451812744
1790006681198670600,8.668670654296875,2.769043857574463,9.722703304290771,2.994996639251709
1790006681208681500,8.678681396484375,2.438195115661621,9.676614922332764,3.0174422798156737
1790006681218693600,8.688693603515626,1.7121534622192383,8.864980559539795,2.957138325500488
1790006681228705500,8.69870556640625,1.6819266662597656,8.667458922576904,2.8080992721557614
1790006681238717400,8.708717529296875,2.242768405151367,9.0657942237854,2.5757120735168457
1790006681248729600,8.7187294921875,2.7980735527038574,9.804405435943602,2.8088474601745603
1790006681258741500,8.728741455078126,2.901173861694336,9.986514399719237,3.075202394866943
1790006681268753700,8.738753662109374,2.75168589553833,9.535805937194823,3.1476269950866698
1790006681278765600,8.748765625,2.3286603897094724,8.750358155059814,3.094356008148193
1790006681288777500,8.758777587890625,1.8243816650390623,8.590694831848143,2.886359738922119
1790006681298788600,8.76878857421875,2.084002907562256,9.117269559478759,3.021033582305908
1790006681308800800,8.77880078125,2.7959786262512205,9.800963771057129,3.1289222946166992
1790006681318812700,8.788812744140625,2.902370962524414,9.928903922271727,3.0807389862060544
1790006681328824800,8.798824951171875,2.323123798370361,9.206752846527099,3.032106764984131
1790006681338836700,8.808836669921876,1.8625392539978027,8.381052548980712,2.939930001068115
1790006681348848600,8.8188486328125,2.0822072563171385,8.544756087493896,2.748992418670654
1790006681358860800,8.82886083984375,2.327762564086914,8.989479045867919,2.511367903900146
1790006681368872700,8.838872802734375,2.62374574432373,9.745897132873534,2.3322516921997067
1790006681378884600,8.848884521484376,2.8821698860168454,10.394426507568358,2.4830863967895507
1790006681388896800,8.858896728515624,2.2545897758483884,9.70459715423584,2.7181670722961426
1790006681398907600,8.86890771484375,1.8463783927917479,9.148992731475829,2.7346272087097168
1790006681408919600,8.87891943359375,1.8655320060729979,8.488193073272704,2.466326985168457
1790006681418931700,8.888931640625,2.335992632293701,9.045293872070312,2.206556105041504
1790006681428943600,8.898943603515624,2.610577635192871,9.783007258605956,2.2405238410949706
1790006681438955500,8.90895556640625,2.271049912261963,9.803806885528564,2.4902690017700193
1790006681448967700,8.9189677734375,1.7929577682495117,9.414749115753173,2.7762264625549316
1790006681458979600,8.9289794921875,1.7937059562683104,8.977508037567139,2.909852842712402
1790006681468991700,8.93899169921875,2.3127988037109373,8.884134172821044,2.9741970123291015
1790006681479003600,8.949003662109375,3.0303111137390135,9.513958847045897,2.8877064773559566
1790006681489014500,8.9590146484375,3.206733848571777,10.18328784866333,2.7838579803466796
1790006681499026400,8.9690263671875,2.3594857360839843,9.524882392120361,2.921524575805664
1790006681509038600,8.97903857421875,1.4782698875427245,8.783577703094481,3.008763298797607
1790006681519050500,8.989050537109375,1.6490063934326171,8.661772693634033,3.5501521492004393
1790006681529062700,8.999062744140625,2.533364631652832,9.054721041107177,3.3857004226684566
1790006681539074600,9.009074462890625,3.1485248207092282,9.4098110748291,3.1145570846557615
1790006681549086500,9.01908642578125,3.28798706741333,9.720608377838134,3.0104093124389646
1790006681559098600,9.0290986328125,2.7328315574645994,9.038410542297363,3.107224842071533
1790006681569110500,9.039110595703125,2.3413795860290527,8.799439289093018,3.2492309280395504
1790006681579122400,9.049122314453125,2.776376100158691,8.918101908874512,3.276464971923828
1790006681589133800,9.0591337890625,4.257339464569092,9.472808506011962,3.259406285095215
1790006681599145700,9.069145751953124,3.1727661125183104,9.529970070648194,3.5045126800537107
1790006681609157600,9.07915771484375,2.8164789779663084,9.937732540893554,3.543867369842529
1790006681619169800,9.089169677734375,1.8378490493774413,8.975862023925782,3.296366773223877
1790006681629181700,9.099181640625,2.595613874816894,9.2826191116333,3.4458547393798824
1790006681639193600,9.109193603515624,3.186383134460449,9.166649968719481,3.6290111663818356
1790006681649205800,9.119205810546875,2.764854004669189,8.734197293853759,3.551049974822998
1790006681659217700,9.1292177734375,2.001702225494385,8.569446292114257,3.5281554214477535
1790006681669229800,9.139229736328126,1.458816999053955,8.942492838287354,3.6176387084960937
1790006681679240700,9.14924072265625,1.6807295654296874,10.01689083328247,3.7858313751220702
1790006681689252600,9.159252685546875,2.159270622253418,10.324396109008788,3.6834792541503902
1790006681699264800,9.1692646484375,2.270152086639404,9.771335525512695,3.132663234710693
1790006681709276700,9.179276611328126,1.7642273483276367,9.144204328155517,2.6343700141906736
1790006681719288600,9.18928857421875,1.0402806213378906,8.514828566741944,2.4699182876586914
1790006681729300700,9.19930078125,0.9050082275390624,8.757540760040282,2.424877368927002
1790006681739312600,9.209312744140625,1.1846809089660644,9.677662385559081,2.4444798950195312
1790006681749324500,9.219324462890626,1.2228384979248046,10.075997686767577,2.3828292022705075
1790006681759336700,9.229336669921874,1.368735161590576,10.300005179595948,2.2738930267333983
1790006681769347300,9.239347412109375,1.7037737564086912,10.433631559753417,2.164807213592529
1790006681779359200,9.249359130859375,1.3730746520996093,9.664793551635741,1.9158102409362792
1790006681789371100,9.25937109375,0.694617756652832,8.872013526916504,1.5825672973632812
1790006681799383300,9.26938330078125,0.31184476623535157,8.727912514495848,1.3795090690612792
1790006681809395200,9.279395263671875,0.3987842140197754,8.751106343078613,0.9243114784240722
1790006681819407400,9.289407470703125,1.2867337547302244,9.738265615081787,1.0003273811340332
1790006681829419300,9.299419189453126,2.4021324531555175,10.409689543151854,0.994042601776123
1790006681839431200,9.30943115234375,3.0793922477722164,10.517428617858886,0.8378209434509277
1790006681849443300,9.319443359375,2.421435704040527,9.58952583694458,0.4216787673950195
1790006681859455200,9.329455322265625,1.2835913650512694,8.19789612197876,0.06045359191894531
1790006681869466400,9.33946630859375,1.4278420150756834,8.083722630310058,-0.6893804405212401
1790006681879478500,9.349478515625,2.4353520011901852,8.985289192962647,-0.5086182151794433
1790006681889490400,9.359490478515625,3.536086214447021,10.146776273345946,-0.11552023010253906
1790006681899502300,9.36950244140625,3.68362889175415,10.475679726409911,0.022445640563964843
1790006681909514500,9.379514404296875,2.9324481208801267,9.96586441040039,0.06673837127685546
1790006681919526400,9.3895263671875,2.079813054656982,9.027786272430419,0.0896329246520996
1790006681929538300,9.399538330078125,1.8701707717895506,8.336460543060301,0.28311434631347654
1790006681939550500,9.409550537109375,2.4429835189819333,8.923189587402343,0.44322658233642576
1790006681949562400,9.419562255859375,2.7742811737060546,9.41025998764038,0.34865561676025386
1790006681959573200,9.4295732421875,3.0259716232299803,10.134057077026366,0.3676595924377441
1790006681969585400,9.43958544921875,2.4666262603759765,10.081384640502929,0.4773439559936523
1790006681979597300,9.449597412109375,1.4604630126953124,9.034519964599609,0.6049848320007324
1790006681989609200,9.459609130859375,1.727566135406494,9.329904594421386,0.6979097839355468
1790006681999621400,9.469621337890626,2.3555951583862305,9.315838659667968,0.575206948852539
1790006682009633300,9.47963330078125,2.886808651733398,9.825953250885009,0.5853823059082031
1790006682019645400,9.4896455078125,2.4404396797180175,9.471761042785644,0.5523123954772949
1790006682029657300,9.4996572265625,1.8815432296752927,9.413701652526855,0.48512511138916015
1790006682039669200,9.509669189453126,1.6258125648498534,9.329156406402587,0.608426496887207
1790006682049680400,9.519680419921874,2.1966800231933594,9.472808506011962,0.8435071723937988
1790006682059692300,9.5296923828125,3.068319065093994,9.756072489929199,1.039981346130371
1790006682069704200,9.5397041015625,3.01983648147583,9.36596725692749,1.1896189498901366
1790006682079716400,9.54971630859375,2.366817978668213,8.946383415985107,1.2765583976745605
1790006682089728300,9.559728271484374,2.2227169662475585,8.96269391479492,1.3741221153259278
1790006682099740200,9.569740234375,2.5727193214416504,9.234136528015137,1.6385317611694334
1790006682109752300,9.57975244140625,2.8610709838867185,9.662249712371825,1.906383071899414
1790006682119764200,9.58976416015625,2.9881133094787597,9.680804775238036,1.9617489852905272
1790006682129776400,9.5997763671875,2.8847137252807618,9.653720368957519,1.8544588233947752
1790006682139787500,9.60978759765625,2.3042694602966307,9.262567672729492,1.6885107208251953
1790006682149799400,9.61979931640625,2.0507833595275877,9.023446781921386,1.6617255897521972
1790006682159811300,9.629811279296876,2.3433248748779296,9.123853614044188,1.7051204948425291
1790006682169823500,9.639823486328124,2.401234627532959,9.270648103332519,1.7805378471374511
1790006682179835400,9.64983544921875,2.2156839988708494,9.466074813842773,1.9681834022521971
1790006682189847600,9.65984765625,2.422782442474365,9.960627094268798,2.1881506797790524
1790006682199859500,9.669859375,2.173785469818115,9.835978970336914,2.622099730682373
1790006682209871400,9.679871337890624,1.561618032836914,9.317634310913085,2.7225065628051754
1790006682219883500,9.689883544921875,1.3733739273071288,9.205106832885741,2.731933731842041
1790006682229894400,9.699894287109375,1.6352397338867186,9.307010041046142,2.4762030670166015
1790006682239906300,9.70990625,2.1538836685180662,9.759663792419433,2.1061492729187012
1790006682249918500,9.71991845703125,2.4633342330932617,9.944166957855224,1.7800889343261719
1790006682259930400,9.729930419921875,2.3835773902893065,9.814131880187988,1.7299603370666503
1790006682269942300,9.7399423828125,1.9346645790100097,9.272593392181395,1.9276316116333008
1790006682279954400,9.749954345703125,1.5556325286865234,8.818742539978027,2.058265239715576
1790006682289966300,9.75996630859375,1.6282067665100097,8.85555339050293,2.005293527984619
1790006682299978200,9.769978271484375,2.4105121589660645,9.635165306091308,1.8013374740600585
1790006682309990400,9.779990478515625,2.938882537841797,10.170867927551269,1.6840215927124023
1790006682320002300,9.790002197265625,2.5661352668762207,9.883563728332518,1.6729484100341796
1790006682330013200,9.80001318359375,2.20251588973999,9.553463174438477,1.728314323425293
1790006682340025300,9.810025390625,1.95995333404541,9.016413814544677,1.8766051887512205
1790006682350037200,9.820037353515625,1.8517653465270996,8.818742539978027,1.8971055404663084
1790006682360049200,9.830049072265625,2.1074960113525387,9.105448188781738,2.006490628814697
1790006682370061300,9.840061279296876,2.297685405731201,9.463381336975097,2.083105081939697
1790006682380073200,9.8500732421875,2.2049100914001465,9.67182651901245,2.067393133544922
1790006682390085400,9.86008544921875,2.099864493560791,9.663895726013182,2.043451116943359
1790006682400097300,9.87009716796875,2.1529858428955078,9.687987380218505,1.993172882080078
1790006682410108400,9.8801083984375,1.9686323150634764,9.515754498291015,1.889025109863281
1790006682420120600,9.89012060546875,1.6373346603393553,9.21872385482788,1.7497125007629393
1790006682430132500,9.900132568359375,1.5270517463684081,9.181464091491698,1.6862661567687987
1790006682440144400,9.910144287109375,1.5185224029541016,9.40352629547119,1.8468273056030273
1790006682450156500,9.920156494140626,1.6150386573791502,9.639205521392821,2.136076793670654
1790006682460168400,9.93016845703125,1.7308581626892088,9.847800341033935,2.2694038986206055
1790006682470180400,9.940180419921875,1.6039654747009275,9.657910221862792,2.2258593559265134
1790006682480192500,9.950192626953125,1.472882933807373,9.536554125213623,2.196979298400879
1790006682490204400,9.960204345703126,1.4199112220764158,9.49360813293457,2.3801357254028317
1790006682500215300,9.97021533203125,1.3575123413085937,9.53894832687378,2.5912743843078614
1790006682510227500,9.9802275390625,1.2211924842834472,9.51964507598877,2.627785959625244
1790006682520239400,9.9902392578125,1.013196215057373,9.379434641265869,2.82186593170166
1790006682530251300,10.000251220703126,1.0646715507507323,9.291148455047606,2.75797067489624
1790006682540263400,10.010263427734374,1.2913725204467772,9.448417576599121,2.685994987487793
1790006682550275300,10.020275390625,1.5270517463684081,9.851541281127929,2.5692776565551756
1790006682560287500,10.03028759765625,1.4621090263366698,10.015993007659912,2.4748563285827636
1790006682570299400,10.04029931640625,1.1650783828735352,10.107421583557128,2.5535657081604004
1790006682580311300,10.050311279296874,0.8466495620727539,9.858274973297119,2.5932196731567383
1790006682590322200,10.060322265625,0.6157587394714356,9.36551834411621,2.4658780723571776
1790006682600334300,10.070334228515625,0.7199065116882324,9.228450299072264,2.2010195137023922
1790006682610346200,10.08034619140625,0.7176619476318359,9.057863430786131,1.9961656341552734
1790006682620358400,10.0903583984375,0.9056067779541015,9.609726913452148,1.9406500831604003
1790006682630370300,10.100370361328125,1.1532570121765136,10.27262149810791,1.999607299041748
1790006682640382200,10.11038232421875,1.0720037933349609,10.367342101287841,1.9904794052124022
1790006682650394400,10.120394287109375,0.6863876884460449,9.885209741973876,2.037764888000488
1790006682660406300,10.13040625,0.30885201416015623,9.312396994781494,1.9707272415161132
1790006682670418200,10.140418212890625,0.528669654083252,9.497797985839844,1.8294693435668945
1790006682680429600,10.1504296875,0.7640496047973633,9.771634800720214,1.5708955642700195
1790006682690441500,10.16044140625,0.8975263473510742,10.229376230621337,1.4336778816223144
1790006682700453400,10.170453369140626,0.6821978355407714,9.999233596038819,1.568651000213623
1790006682710465500,10.180465576171875,0.14859014053344727,9.036315615844726,1.820790362548828
1790006682720477400,10.1904775390625,0.2059013427734375,9.23772783050537,1.9773112960815429
1790006682730489300,10.2004892578125,0.570119270324707,9.866355403900146,1.9684826774597166
1790006682740501500,10.21050146484375,0.8815151237487793,10.850521923828124,1.9144635025024412
1790006682750513400,10.220513427734375,0.6759130561828612,10.446949306488037,1.990629042816162
1790006682760524300,10.230524169921875,0.3333925811767578,9.65252326812744,2.0784663162231443
1790006682770536700,10.24053662109375,0.1406593475341797,9.337536112213135,2.2207716773986816
1790006682780548900,10.250548828125,0.47285482788085936,9.701604402160644,2.3237223487854
1790006682790560800,10.260560791015624,0.40985739669799803,9.479392560577391,2.404975567626953
1790006682800573000,10.270572998046875,-0.09277531433105468,9.2948893951416,2.4157494750976563
1790006682810584800,10.280584716796875,0.5328595069885254,10.42495257873535,2.4666262603759765
1790006682820596700,10.2905966796875,0.8880991783142089,10.206332039642334,2.771587696838379
1790006682830609000,10.30060888671875,0.8406640579223632,10.224587827301026,2.9300539192199704
1790006682840620800,10.310620849609375,0.5093664031982421,10.283694680786132,3.3999159950256344
1790006682850631700,10.320631591796875,-0.038756139373779294,9.143605777740477,3.2537200561523436
1790006682860643800,10.330643798828126,-0.2066495307922363,8.93141965560913,3.009511486816406
1790006682870655700,10.34065576171875,0.5636848533630371,9.96661259841919,2.8923452430725094
1790006682880667600,10.350667724609375,1.5487491989135742,11.027243933868407,2.853289828491211
1790006682890679800,10.3606796875,1.0600327850341795,10.104728106689452,2.8387749809265137
1790006682900691700,10.370691650390626,-0.1571194839477539,9.293393019104004,2.874987281036377
1790006682910703600,10.38070361328125,-0.6842927619934082,8.636932851409911,2.7994202911376953
1790006682920715800,10.3907158203125,0.22789807052612304,8.86064106903076,2.736123584747314
1790006682930727700,10.400727783203125,2.065896757507324,10.914267543029785,2.7582699501037595
1790006682940738600,10.410738525390625,1.5327379753112793,10.223091451263427,2.5790041007995606
1790006682950750700,10.420750732421874,-0.03845686416625976,9.07866305770874,2.1877017669677734
1790006682960762600,10.4307626953125,-0.299424845123291,8.686013985443115,1.8561048370361326
1790006682970774800,10.44077490234375,1.2440870376586914,9.672724344635009,1.5306430488586424
1790006682980786700,10.45078662109375,1.8359037605285644,9.820117384338378,1.1273697067260742
1790006682990798600,10.460798583984374,1.4665981544494628,9.846004689788817,0.9325415466308593
1790006683000810800,10.470810791015625,1.3709797256469727,9.8449572265625,0.7270891166687011
1790006683010822700,10.48082275390625,1.0778396598815918,8.91840118408203,0.4171896392822265
1790006683020833800,10.490833740234375,1.9062334342956542,9.395745140075682,0.24480711975097655
1790006683030846000,10.500845947265624,2.735674671936035,9.33349589691162,-0.0752677146911621
1790006683040857900,10.51085791015625,2.8380267929077148,9.163657216644287,-1.0926537826538085
1790006683050869800,10.520869873046875,3.2344168052673337,9.785551097869872,-1.8381483245849608
1790006683060882000,10.5308818359375,3.3750761528015136,9.613916766357422,-1.6068085891723631
1790006683070893800,10.540893798828124,2.656666017150879,8.615983586883544,-1.0377367820739745
1790006683080905700,10.55090576171875,2.8859108261108397,9.222464794921875,-0.0857423469543457
1790006683090918000,10.56091796875,3.685723818206787,9.00115077896118,0.5707178207397461
1790006683100929800,10.5709296875,4.44333900604248,9.51859761276245,0.9735422500610351
1790006683110940700,10.580940673828126,4.023455889892578,9.94671079711914,0.8004115425109862
1790006683120952800,10.590952880859374,3.9824551864624023,10.215160658264159,0.38531682968139647
1790006683130964700,10.60096484375,3.2588077346801754,9.176825325775146,0.15083470458984374
1790006683140976600,10.6109765625,2.6789620201110838,8.870966063690185,0.07287351303100585
1790006683150988800,10.62098876953125,2.2623709312438964,8.354117780303955,0.43843817901611326
1790006683161000700,10.631000732421874,2.580650114440918,8.883086709594727,0.6836942115783691
1790006683171012900,10.641012939453125,3.3195606018066406,9.950002824401855,0.37723639907836914
1790006683181024800,10.651024658203125,3.3726819511413573,10.708515837860107,-0.01705868682861328
1790006683191035600,10.66103564453125,2.5890298202514646,10.20782841567993,-0.7544727981567383
1790006683201047600,10.671047607421874,1.6270096656799315,9.268702814483643,-1.2087725631713866
1790006683211059700,10.681059814453125,0.9982324546813964,8.091653423309326,-1.4791677131652832
1790006683221071600,10.691071533203125,1.4317325927734375,8.49163473815918,-0.15472528228759766
1790006683231083800,10.701083740234376,2.5450363647460934,10.0748005859375,2.728641704559326
1790006683241095700,10.711095703125,2.11333187789917,10.4065471534729,6.014384207916259
1790006683251107600,10.721107666015625,1.4884452445983887,9.873837284088134,7.257423782348632
1790006683261119700,10.73111962890625,1.346439158630371,9.035567427825928,7.343016491699219
1790006683271131600,10.741131591796876,1.1249755050659178,8.703970497894286,6.5586161727905266
1790006683281142800,10.751142822265624,1.204732347869873,8.968829056549072,6.195894621276855
1790006683291155000,10.761155029296875,0.3254617881774902,8.021922299957275,6.487239035797119
1790006683301166800,10.771166748046875,1.234061318206787,9.706841718292235,7.042993096160888
1790006683311178800,10.7811787109375,2.486827336883545,11.241674620056152,7.813177842712402
1790006683321191000,10.79119091796875,1.3819032707214354,10.103680643463134,7.901164753723144
1790006683331202800,10.801202880859375,0.1331774673461914,9.124601802062987,7.195922727203369
1790006683341215000,10.811215087890625,0.7134720947265625,8.634389012145995,2.3114520652770993
1790006683351227000,10.821226806640626,1.5915455535888672,8.905083437347411,-1.1763012031555176
1790006683361237800,10.83123779296875,2.529922966766357,9.391106374359131,-3.193565739440918
1790006683371249700,10.841249755859375,1.8490718696594237,9.194482563018799,-4.361187961578369
1790006683381261800,10.85126171875,3.427898226928711,8.926780889892578,-5.5075616439819335
1790006683391273700,10.861273681640625,4.030488857269287,10.281001203918457,-7.175272737884521
1790006683401286000,10.871285888671874,1.4085387641906737,10.279504827880858,-3.7683237754821777
1790006683411297800,10.8812978515625,2.858078231811523,10.647912608337402,-1.178545767211914
1790006683421309700,10.891309814453125,5.475539196777343,10.376769270324706,-3.183390382385254
1790006683431321900,10.90132177734375,3.4712931320190425,9.433902729034424,-4.190601093292236
1790006683441333800,10.911333740234374,0.25348610076904293,7.827991965484618,-4.223820641326904
1790006683451344600,10.9213447265625,1.5536872398376464,10.179995821380615,-3.4766800857543942
1790006683461356800,10.931356689453125,1.4956278495788573,10.24613564224243,-3.259256647491455
1790006683471368700,10.94136865234375,1.0308534523010253,10.814159986114502,-4.150797490692138
1790006683481380600,10.951380615234376,2.071732624053955,11.269357576751709,-4.8320975006103515
1790006683491392800,10.961392822265625,1.8778022895812987,9.071181177520751,-5.008819510650635
1790006683501404700,10.97140478515625,1.6258125648498534,8.792855234527588,-5.099200623321533
1790006683511416600,10.98141650390625,0.5035305366516113,8.381651099395752,-4.763563478088378
1790006683521428700,10.9914287109375,1.0390835205078124,9.038410542297363,-5.308543630981445
1790006683531439900,11.00143994140625,2.3618799377441406,9.802609784698486,-5.622782598876952
1790006683541451800,11.01145166015625,3.4503438674926756,10.577582934570312,-5.379471855163574
1790006683551464000,11.0214638671875,4.061613478851318,11.314997045898437,-5.424512773895263
1790006683561475800,11.031475830078126,2.5487773048400877,9.541043253326416,-5.3679497596740715
1790006683571487700,11.04148779296875,1.9800047729492187,8.61239228439331,-4.122665621185303
1790006683581500000,11.0515,1.7645266235351562,7.7413517929077145,-2.101211231994629
1790006683591511800,11.06151171875,2.6824036849975585,9.188197783660888,-0.13422493057250975
1790006683601524000,11.07152392578125,3.3080385063171387,10.535235492706299,0.047884033203124995
1790006683611536000,11.081535888671874,2.93065246963501,10.720037933349609,-1.0467150382995605
1790006683621546800,11.091546630859375,3.499873914337158,11.541249102783203,-0.4492120864868164
1790006683631559000,11.101558837890625,2.8802245971679685,8.166472225189208,1.150413897705078
1790006683641570800,11.11157080078125,1.1073182678222655,6.720673697662353,1.3251906188964844
1790006683651582700,11.121582763671874,0.2953846298217773,7.902810767364501,0.8794201972961425
1790006683661595000,11.131594970703125,2.526481301879883,9.25718071899414,1.5753846923828123
1790006683671606800,11.141606689453125,2.989759323120117,10.428843156433105,1.8005892860412596
1790006683681618700,11.15161865234375,2.849698526000976,11.445331398773193,2.8022634056091307
1790006683691630800,11.161630859375,3.2007483444213864,10.718242282104491,4.779724339294433
1790006683701641700,11.171641845703125,3.0597897216796874,9.475651620483397,4.607192182159424
1790006683711653600,11.181653564453125,0.012569558715820313,6.903830124664307,4.884321024322509
1790006683721665800,11.191665771484375,-0.06823474731445311,7.292738256835937,4.995202488708496
1790006683731677700,11.201677734375,5.446808776855469,11.344326016235351,5.7709238265991205
1790006683741689600,11.211689697265625,5.56711741027832,10.097844776916503,4.067748620605468
1790006683751701800,11.22170166015625,0.8643067993164062,8.284237019348144,3.1536124992370604
1790006683761713700,11.231713623046875,0.6263830093383789,9.173982211303711,3.4489971290588377
1790006683771725600,11.2417255859375,3.6816836029052733,10.504559783935546,2.583193953704834
1790006683781737500,11.251737548828125,5.160402403259277,11.234192739868163,1.976712745666504
1790006683791748600,11.26174853515625,2.3515549430847167,10.388291365814208,2.016067435455322
1790006683801760800,11.2717607421875,3.018938655853271,7.690475007629394,1.5515923133850096
1790006683811772700,11.281772705078126,-0.03202244720458984,5.859060375213622,0.6118681617736816
1790006683821784600,11.29178466796875,-2.7042507751464844,7.209839024353027,0.5144540817260742
1790006683831796700,11.301796630859375,-4.43106872253418,10.339359869384765,2.831891651153564
1790006683841808600,11.31180859375,0.28490999755859375,17.20518204269409,5.5838768218994135
1790006683851820800,11.32182080078125,9.539995790100097,10.479869579315185,6.810156984710693
1790006683861832700,11.331832763671875,-2.639906605529785,7.8821607780456535,0.18480244064331053
1790006683871843600,11.341843505859375,1.0829273384094238,9.517101236724853,-2.610727272796631
1790006683881855700,11.351855712890625,4.167107989501953,9.731980835723876,-5.323956304168701
1790006683891867600,11.36186767578125,0.6813000099182128,7.911190473175048,-0.06853402252197265
1790006683901879600,11.371879638671874,-0.05282207412719726,8.123226957702636,4.325873487091064
1790006683911891700,11.3818916015625,1.48111300201416,11.193640949249266,4.399644825744629
1790006683921903600,11.391903564453125,3.37732071685791,12.774412595367432,2.3650223274230955
1790006683931915500,11.40191552734375,3.076399495697021,10.614244147491455,1.8652327308654784
1790006683941927700,11.411927734375,-0.4493617240905761,7.700201451873779,4.031386682891846
1790006683951938600,11.4219384765625,-2.721608737182617,6.031592532348633,5.330241083526611
1790006683961950500,11.431950439453125,-1.036090768432617,8.583362589263915,5.205592959594727
1790006683971962600,11.441962646484376,2.6280852348327635,12.707973499298095,4.141968872070312
1790006683981974500,11.451974609375,2.079962692260742,12.108974171447754,3.538779691314697
1790006683991986400,11.461986328125,0.43200376205444335,10.12552773361206,4.309862263488769
1790006684001998600,11.47199853515625,-1.910273649597168,7.887996644592285,5.135861836242675
1790006684012010500,11.482010498046876,-2.868403226470947,7.599495344543457,5.169380659484863
1790006684022022700,11.492022705078124,-0.49844285812377925,8.95147109451294,5.990142916107177
1790006684032034600,11.50203466796875,2.111236951446533,10.287285983276366,7.535899362945556
1790006684042045700,11.512045654296875,2.9773394020080564,11.387272008514403,7.1483379692077635
1790006684052057600,11.5220576171875,1.615936483001709,9.911845235443115,4.722263499450683
1790006684062069800,11.53206982421875,-0.5466261665344238,8.320000406646727,3.1856349464416502
1790006684072081700,11.54208154296875,-1.3245920684814452,7.6747630592346185,2.5924714851379393
1790006684082093800,11.55209375,0.2467524085998535,8.774300171661377,3.7957074569702147
1790006684092105700,11.562105712890625,2.723703663635254,10.053701683807372,4.30926371307373
1790006684102117600,11.57211767578125,3.565564822387695,10.960056649780272,2.96237564163208
1790006684112129800,11.5821298828125,1.2603975364685058,9.286509689331055,1.744175909423828
1790006684122140700,11.592140625,-0.028730419921875,8.847024047088622,0.792929662322998
1790006684132152600,11.602152587890625,-0.09501987838745117,8.735544032287597,0.4212298545837402
1790006684142164700,11.612164794921876,0.5734112976074218,8.499266255950927,-0.3479074287414551
1790006684152176600,11.6221767578125,2.6466402976989745,11.066299348449707,-1.201589958190918
1790006684162188500,11.6321884765625,2.24067347869873,10.740538285064696,-1.6756418869018554
1790006684172200700,11.64220068359375,0.5852326683044433,9.158419900512694,-2.5354595581054684
1790006684182212600,11.652212646484376,0.7401075881958007,9.619902270507811,-2.495506317901611
1790006684192224500,11.662224609375,0.6947673942565917,9.603442134094237,-2.1262007118225097
1790006684202235600,11.672235595703125,0.4900631523132324,8.969128331756592,-2.43235924911499
1790006684212247600,11.68224755859375,1.8427870903015136,9.858424610900878,-3.418171782684326
1790006684222259500,11.692259521484376,2.544886727142334,11.013776549530029,-3.6433763763427733
1790006684232271600,11.702271728515624,0.6913257293701172,9.120112673950194,-3.7370495162963864
1790006684242283500,11.712283447265625,1.3733739273071288,9.861716638183593,-4.692934529113769
1790006684252295400,11.72229541015625,1.1001356628417969,9.423877009582519,-3.7448306716918944
1790006684262307600,11.7323076171875,1.2271779884338379,9.85124200592041,-2.8235119453430175
1790006684272319500,11.742319580078124,2.032677209472656,9.951798475646973,-1.5465046348571776
1790006684282330600,11.75233056640625,2.3383868339538574,9.395445864868163,-1.0850222648620604
1790006684292342800,11.7623427734375,2.449567573547363,10.570400329589843,-1.0781389350891113
1790006684302354700,11.772354736328126,0.6856395004272461,8.980500789642333,-1.4007576087951659
1790006684312366800,11.782366943359374,1.0431237358093262,10.261099402618408,-1.4012065216064453
1790006684322378800,11.792378662109375,0.912340470123291,10.147374823760986,-1.0154407791137694
1790006684332390700,11.802390625,1.008108536529541,10.155305616760254,-0.6379051048278809
1790006684342402800,11.81240283203125,1.5400702178955077,10.273668961334227,0.17911621170043945
1790006684352414700,11.822414794921874,0.8819640365600585,9.19986951675415,0.29284079055786133
1790006684362426600,11.832426513671875,1.0926537826538085,9.28246947402954,0.03696048812866211
1790006684372437800,11.842437744140625,2.0872949348449708,9.984419473266602,-0.21877017669677734
1790006684382449700,11.85244970703125,1.4036007232666015,8.984391367340088,-0.44532150878906246
1790006684392461600,11.862461669921874,1.296759474182129,10.051157844543457,-0.21787235107421873
1790006684402473700,11.8724736328125,2.1071967361450192,9.83852280960083,0.16864157943725586
1790006684412485600,11.882485595703125,3.288585617828369,10.766126315307616,0.5419874008178711
1790006684422497500,11.89249755859375,1.7802385719299316,8.946682691192626,1.301248602294922
1790006684432509700,11.902509765625,1.6352397338867186,9.32107597579956,2.0579659645080564
1790006684442521600,11.912521484375,2.290802075958252,10.281150841522216,2.5954642372131347
1790006684452532500,11.922532470703125,1.2714707191467285,9.113528619384764,3.2133179031372068
1790006684462544600,11.932544677734375,1.9638439117431639,9.740959091949462,3.296217135620117
1790006684472556500,11.942556640625,2.935291235351562,9.586533084869384,3.11545491027832
1790006684482568400,11.952568359375,3.1940146522521973,10.154856703948974,2.3897125320434567
1790006684492580600,11.96258056640625,1.1996446693420408,8.148515712738037,1.9000982925415038
1790006684502592500,11.972592529296875,0.7104793426513671,8.603862940979003,1.7802385719299316
1790006684512604700,11.982604736328126,1.583914035797119,9.761010530853271,1.9237410339355467
1790006684522616600,11.992616455078124,2.405125205230713,10.218602323150634,1.9913772308349609
1790006684532627500,12.00262744140625,2.9319992080688473,10.486303996276854,2.0968717414855957
1790006684542639600,12.0126396484375,2.384026303100586,9.829993466186522,2.3139959045410157
1790006684552651500,12.022651611328126,1.0812813247680664,8.594884684753417,2.61761060256958
1790006684562663700,12.03266357421875,0.7240963645935058,9.343371978759764,2.7971757270812985
1790006684572675600,12.042675537109375,1.1291653579711913,9.297882147216797,2.525733113861084
1790006684582687700,12.052687744140625,2.1767782218933105,9.783007258605956,2.0172645362854005
1790006684592699600,12.06269970703125,2.600252640533447,10.1123596244812,1.7770961822509765
1790006684602711600,12.072711669921874,1.4959271247863768,8.942941751098632,1.3865420364379881
1790006684612722700,12.08272265625,1.4642039527893065,10.045321977996826,1.6174328590393066
1790006684622734600,12.092734619140625,0.7529764221191406,9.045293872070312,1.9092261863708495
1790006684632746800,12.102746826171876,1.9942203453063965,10.340706607818603,2.1417630226135254
1790006684642758700,12.112758544921874,1.9152116905212402,8.380453998565674,1.5898995399475098
1790006684652770600,12.1227705078125,3.1726164749145505,10.748768353271483,0.7586626510620117
1790006684662782700,12.13278271484375,3.0541034927368162,10.274566786956786,-0.7968202400207519
1790006684672794600,12.142794677734376,2.2575825279235837,9.923217693328857,-1.8836381561279296
1790006684682806500,12.152806640625,1.3497311859130858,8.97047507019043,-1.5355810897827147
1790006684692818700,12.162818603515625,2.094627177429199,9.893290172576904,-1.4236521621704101
1790006684702829600,12.17282958984375,2.724900764465332,9.970503176116942,-1.2922703460693359
1790006684712841500,12.182841552734375,2.245312244415283,9.311499169158935,-1.9656395629882812
1790006684722853600,12.192853515625,1.6998831787109374,9.281721286010741,-2.683900061035156
1790006684732865500,12.202865478515625,2.0705355232238767,10.20887587890625,-3.3264439315795897
1790006684742877700,12.212877685546875,1.8598457771301269,9.543138179779053,-2.906860090637207
1790006684752889600,12.2228896484375,2.032527571868896,9.376441889190673,-2.810942386627197
1790006684762901500,12.232901611328124,2.724900764465332,10.957812085723877,-2.7741315361022947
1790006684772914200,12.2429140625,1.9544167427062986,10.244190353393554,-3.251475492095947
1790006684782925000,12.252925048828125,0.8852560638427733,9.686790279388427,-4.132691340637207
1790006684792937000,12.26293701171875,0.1954267105102539,9.015515988922118,-5.224596935272216
1790006684802949000,12.27294921875,1.7923592178344725,10.491840587615966,-5.869834282684326
1790006684812961000,12.2829609375,3.257460996246338,11.69642329788208,-7.139210075378418
1790006684822973000,12.292972900390625,1.4636054023742675,9.441534246826171,-5.182848043823242
1790006684832985000,12.302985107421875,1.4806640892028808,9.800963771057129,-4.939986212921142
1790006684842997000,12.3129970703125,1.5147814628601073,9.286060776519776,-4.7089457527160645
1790006684853009200,12.323009033203125,0.605882657623291,7.988253839111327,-4.872649291229248
1790006684863020300,12.333020263671875,2.8287492614746093,11.209352897644042,-5.2171150550842285
1790006684873032200,12.3430322265625,1.6762404373168944,8.29306563796997,-4.421641553497314
1790006684883044000,12.353044189453126,1.4821604652404785,9.331700245666504,-4.339191233825684
1790006684893056300,12.36305615234375,1.1318588348388672,8.604162216186523,-3.7995980346679685
1790006684903068200,12.373068115234375,1.7375918548583984,9.488071541595458,-4.136581918334961
1790006684913080300,12.383080322265625,2.026392430114746,9.43599765548706,-3.273322582244873
1790006684923092200,12.39309228515625,2.693027954864502,10.034248795318604,-2.440888592529297
1790006684933104000,12.403104248046875,3.263596138000488,9.78629928588867,-0.8677484642028808
1790006684943115000,12.413114990234375,2.142810485839844,8.606855693054198,-0.11148001480102539
1790006684953127200,12.423127197265625,2.508375151824951,9.298779972839355,-0.4321533996582031
1790006684963139000,12.43313916015625,2.0266917053222655,9.559149403381348,-0.7993640792846679
1790006684973151200,12.443151123046874,1.5945383056640625,8.930821105194092,-1.2623428253173827
1790006684983163100,12.4531630859375,2.4824878463745117,9.209296685791015,-0.7251438278198242
1790006684993175000,12.463175048828125,2.558054836273193,9.170091633605956,-0.4492120864868164
1790006685003187200,12.473187255859376,3.3916859268188473,10.686818385314941,0.47629649276733393
1790006685013199000,12.48319921875,1.8127099319458007,8.592490483093261,1.9648913749694823
1790006685023211000,12.4932109375,1.3666402351379394,8.886378736877441,1.2581529724121092
1790006685033222100,12.50322216796875,1.8388965126037597,9.178620977020262,1.4140753555297851
1790006685043234000,12.513234130859376,2.90476516418457,9.44228243484497,1.594837580871582
1790006685053246000,12.523245849609374,3.853467572021484,10.781838263702392,1.3201029403686522
1790006685063258000,12.533258056640625,2.881421697998047,10.178349807739258,2.467673723602295
1790006685073270000,12.54327001953125,0.9470563941955565,8.591143744659423,2.0714333488464356
1790006685083282000,12.553281982421876,0.4086602958679199,7.4788874359130855,1.5931915672302246
1790006685093294000,12.563294189453124,2.7054478759765623,9.918728565216064,2.0877438476562498
1790006685103306000,12.573305908203125,3.7120600364685057,10.58521445236206,2.1369746192932126
1790006685113317000,12.583317138671875,2.993649900817871,10.224288552093505,2.56000012512207
1790006685123329300,12.593329345703125,1.3115735969543456,8.924685963439941,2.865260836791992
1790006685133341200,12.603341064453126,1.6009727226257324,10.099191515350341,2.402282090759277
1790006685143353300,12.613353271484375,0.8479963005065917,8.146570423889159,2.520495797729492
1790006685153365200,12.623365234375,2.283170558166504,10.436773949432373,2.1472996139526366
1790006685163377200,12.633377197265625,2.063352918243408,10.10712230834961,1.9346645790100097
1790006685173389300,12.643389404296874,1.135749412536621,8.990227233886719,2.0950760902404784
1790006685183401200,12.653401123046875,0.7811082916259765,9.585186346435547,2.0600608909606932
1790006685193412000,12.663412109375,1.3763666793823242,9.080907621765137,1.8083704414367674
1790006685203424300,12.67342431640625,3.2959178604125974,11.1596732131958,2.0409072776794432
1790006685213436200,12.683436279296876,2.386719779968262,9.455450543975829,2.4818892959594727
1790006685223448000,12.693447998046874,1.4036007232666015,9.305064752197264,3.240701584625244
1790006685233460200,12.703460205078125,0.8131307388305664,9.873986921691895,4.013879083251953
1790006685243472100,12.71347216796875,0.9759364517211914,10.147374823760986,3.7574002304077148
1790006685253484000,12.723484130859376,1.5614683952331543,9.545831656646728,2.677016731262207
1790006685263496200,12.73349609375,3.3173160377502438,11.515661072540283,3.060687547302246
1790006685273507000,12.743507080078125,1.2222399475097656,8.722525560760497,3.470993856811523
1790006685283519000,12.75351904296875,0.33788170928955075,8.451082947540282,3.9688381645202635
1790006685293531100,12.76353125,0.939125601196289,8.526201024627685,3.2224457969665528
1790006685303543000,12.77354296875,2.734477571105957,10.109516510009765,2.482787121582031
1790006685313555000,12.783554931640625,3.6563948478698727,11.61382334060669,2.4109610717773435
1790006685323567000,12.793567138671875,0.8680477394104004,9.035417790222168,2.6499323249816893
1790006685333579000,12.8035791015625,-0.31797990798950193,8.805724068450926,3.0033763450622555
1790006685343591200,12.813591064453124,1.2009914077758788,10.344447547912598,3.1144074470520016
1790006685353602000,12.82360205078125,2.3123498908996583,10.497077903747558,2.9785365028381348
1790006685363614200,12.8336142578125,2.1812673500061033,10.076446599578857,3.008314385986328
1790006685373626000,12.843626220703126,1.1754033775329589,9.07851342010498,3.174412126159668
1790006685383638000,12.853637939453124,1.1635820068359375,9.133729695892333,3.0588918960571285
1790006685393650200,12.863650146484375,1.281346800994873,9.345466905212401,2.91119958114624
1790006685403662000,12.873662109375,2.0916344253540036,9.954791227722167,2.8886043029785156
