time,seconds_elapsed,z,y,x
1790006672582200800,0.052200927734375,-0.27105799781680107,0.2583212658405304,-0.7406625186648219
1790006672592212700,0.062212646484375,-0.2274947504222393,0.30161008020788427,-0.5792084395788609
1790006672602225000,0.072224853515625,-0.12877543299496172,0.3267497821614146,-0.4114118230657652
1790006672612236800,0.08223681640625,0.10633154599666594,0.361762643353641,-0.3414215007882565
1790006672622248700,0.092248779296875,0.3621662557184696,0.4307876642629504,-0.32090584190618243
1790006672632260900,0.1022607421875,0.3795347391486168,0.42010260411947964,-0.2732298254305497
1790006672642271700,0.112271728515625,0.31645839751064775,0.10570756887942552,-0.06778148712161929
1790006672652283600,0.12228369140625,0.2359995439171791,-0.15433423714339733,0.3997821755485609
1790006672662295800,0.1322958984375,0.5641881267100572,-0.1952653824687004,0.3886606236839667
1790006672672307700,0.1423076171875,0.9018447950720786,-0.3429141504988074,0.45611057729627935
1790006672682319600,0.152319580078125,1.0609902318894862,-0.44392304016798734,0.21462883910834787
1790006672692331800,0.162331787109375,1.19865799639225,-0.4957257081195712,-0.13419453543424606
1790006672702342700,0.1723427734375,1.0303776514828205,-0.6906628815472126,-0.3691885921033099
1790006672712354600,0.1823544921875,0.5273071335583925,-0.8487953419297933,-0.35889234861433505
1790006672722366700,0.19236669921875,0.04128653463423252,-0.962917395672202,-0.3256492370409891
1790006672732378600,0.202378662109375,-0.3365700421690941,-1.0774000994205475,-0.36527452393211424
1790006672742390500,0.212390625,-0.6194564249455928,-0.9008955315232277,-0.44839832241851835
1790006672752402700,0.222402587890625,-0.8875660943508148,-0.4520265593856573,-0.4150711858235299
1790006672762414800,0.232414794921875,-1.1538614078104494,-0.005880874732136726,-0.36347565781660374
1790006672772426000,0.242426025390625,-1.2481599861860275,0.35337095484435554,-0.27027338677775115
1790006672782438100,0.252438232421875,-1.2222341022908687,0.5180816245734692,-0.13585581970997154
1790006672792450000,0.262449951171875,-1.0838105509847402,0.4562573288232088,0.10057714718841015
1790006672802462200,0.272462158203125,-0.8466694358170032,0.26297522912621496,0.39768173267059026
1790006672812474000,0.28247412109375,-0.6129933664113283,0.05543079532086849,0.5946075591647997
1790006672822486000,0.292486083984375,-0.3262462165534496,-0.12321779886782169,0.5476612452032045
1790006672832498200,0.302498291015625,-0.06231587865948677,-0.32022739465534683,0.33547088528815655
1790006672842509000,0.312509033203125,0.4371428785085678,-0.5245511128485203,-0.010855886665731668
1790006672852521000,0.32252099609375,0.713124304202199,-0.6322738209426403,-0.14106635743249207
1790006672862533000,0.332533203125,0.7394774735987186,-0.5556716427773237,-0.2512498661495745
1790006672872545000,0.342544921875,0.6351385627239943,-0.3859831846356392,-0.4012331415418535
1790006672882557000,0.352556884765625,0.32633506388068195,-0.2610439688026905,-0.5169290935374796
1790006672892569000,0.362569091796875,0.029147184029221535,-0.06116553958058357,-0.5079327901985496
1790006672902581000,0.3725810546875,-0.2932072857826948,0.12915946387648583,-0.42549606066085394
1790006672912592000,0.382591796875,-0.5003144972145557,0.19896657507419585,-0.2819942562423646
1790006672922604000,0.39260400390625,-0.3759276545673609,0.2658838100492954,-0.094097941236943
1790006672932616000,0.402615966796875,0.12090250766277312,0.3729115216165781,0.09390380690433084
1790006672942627800,0.4126279296875,0.5890560259848833,0.3697036654859781,0.282055046518892
1790006672952640000,0.422639892578125,0.6219722071588039,0.16378829418718813,0.5886650539059192
1790006672962652000,0.43265185546875,0.29491701231002804,-0.17637480403780936,0.8247197620764374
1790006672972663800,0.442663818359375,-0.30956162373423574,-0.4558902490764856,0.9444846440114081
1790006672982675200,0.45267529296875,-1.006905590480566,-0.5572457602262496,0.9619025926064699
1790006672992687000,0.46268701171875,-1.789124473696947,-0.6266273394882679,0.6943704308282583
1790006673002699000,0.472698974609375,-2.8217794224619865,-0.6749076785326004,0.05428586306944489
1790006673012711200,0.482711181640625,-3.4379461582124233,-0.4876660280436277,-1.1689798472914843
1790006673022723000,0.49272314453125,-3.3543425768524404,-0.27048750445246694,-1.9796970221742987
1790006673032735000,0.50273486328125,-2.6146277873665094,-0.466799765625596,-1.3014169445991515
1790006673042746000,0.51274609375,-1.5473258881121872,-0.8431763330042362,-0.3987557916428894
1790006673052758000,0.522758056640625,-0.45964930934906,-0.8766787896335124,0.08324976295363158
1790006673062770000,0.53277001953125,0.22603344569802283,-0.8106950361162424,0.5680473959540948
1790006673072782000,0.542781982421875,0.3892530000865459,-0.6461971323549747,1.2628227177888154
1790006673082794000,0.5527939453125,0.2893383353948593,-0.46335284004211424,1.841813715224713
1790006673092806100,0.56280615234375,-0.05804068555831909,-0.009871990194916724,1.761524226848781
1790006673102818000,0.572818115234375,-0.5133785614490509,0.31085575519800185,0.7501833573345095
1790006673112829000,0.582828857421875,-0.5097416662514209,0.10377426272928714,-0.2935470208647661
1790006673122840800,0.5928408203125,0.09206687380075454,-0.41444823161959643,-1.0102679065205156
1790006673132853000,0.60285302734375,1.0007219334095716,-0.8325333584368229,-1.3531620371446014
1790006673142865000,0.612864990234375,1.743586711359024,-1.130602112776041,-1.6125959404021502
1790006673152877000,0.622876953125,2.1162878050953147,-0.9106482792526484,-1.2055046474166213
1790006673162889000,0.632888916015625,0.15173369925618171,2.600643101155758,4.819647184360027
1790006673172900900,0.64290087890625,-1.8223340848594902,6.38225481275618,4.51852810253948
1790006673182912000,0.652912109375,1.1735521967083216,4.853773325845599,4.576450130154192
1790006673192924000,0.662923828125,2.1413696393817663,0.8348580019921064,1.501088306941837
1790006673202935800,0.672935791015625,1.6092933917254209,-1.14022743473351,-0.8043552386354654
1790006673212948000,0.682947998046875,1.783253535836935,-0.6768062056303024,-0.15647691172789782
1790006673222959900,0.6929599609375,0.6265647956460714,0.10502338600754738,0.11042710821460931
1790006673232972000,0.702971923828125,1.2697124773025512,-0.24196166719198225,1.3835231270082293
1790006673242983200,0.712983154296875,2.4349708929181095,-0.6705278560131788,0.47859581921827044
1790006673252995000,0.7229951171875,2.198532957583666,-0.180032742023468,0.23374577364102003
1790006673263007000,0.733007080078125,0.9041203387886285,-0.043455110844969745,-0.11160473715923726
1790006673273019100,0.74301904296875,-0.07338672325015068,-0.32735213196873664,-0.477040589132905
1790006673283031000,0.753031005859375,-0.03368950363397598,-0.6751636991202831,-0.6509441076863557
1790006673293043000,0.76304296875,0.002865326303243637,-0.27339491633176805,-0.5290063386917114
1790006673303055000,0.77305517578125,-0.5291863714337348,-0.07720540475547313,-0.07763868160620331
1790006673313066000,0.78306591796875,-0.337448578569293,0.0663227762132883,0.45862800347730515
1790006673323078000,0.793077880859375,0.45973698763251303,0.19949732095003128,0.5339965481944382
1790006673333090000,0.803090087890625,0.6805863086909055,0.09831307471394539,0.6701447019144893
1790006673343102000,0.81310205078125,0.7324374919593334,0.12345453023314475,1.192604833833128
1790006673353113900,0.82311376953125,0.550710220977664,0.2059229700833559,0.9564227729558944
1790006673363126000,0.8331259765625,0.1388806474238634,0.47371349053680895,-0.0065821548692882054
1790006673373137000,0.843136962890625,0.10478314751088619,0.6813508633226156,-0.20735797132253644
1790006673383148800,0.853148681640625,-0.061413376861810684,0.8869540999323129,-0.32444735043793915
1790006673393161000,0.863160888671875,-0.6205231773942709,0.4203963263690471,-0.7224925826586782
1790006673403172900,0.8731728515625,-1.3413643395841122,-0.7445885330021381,0.3709975046887994
1790006673413184800,0.883184814453125,-2.0565391465753318,-2.540824300009012,2.3261108513571322
1790006673423197000,0.893197021484375,-2.353846268892288,-2.2923563196629284,1.5565201251760123
1790006673433208800,0.903208740234375,-1.73199388872087,-0.8475175770789385,-0.28420879048667846
1790006673443220000,0.913219970703125,-2.053610107386112,0.7363339148759841,-1.6034885048389433
1790006673453232000,0.923232177734375,-2.2218623952448366,2.031427501672506,-1.9231129651650785
1790006673463244000,0.933244140625,-1.5049042119681835,2.2828666067838665,-1.6809136898249386
1790006673473256000,0.943255859375,-1.0569938557296992,2.5394173558205364,0.3758385880444199
1790006673483268000,0.95326806640625,0.17553893773555754,1.4293430672883987,2.0314327623695134
1790006673493280000,0.963280029296875,1.8483862254828214,-0.0622621026456356,3.0638983260422945
1790006673503291000,0.973290771484375,3.128467536586523,0.3660299454092979,3.8670638434365388
1790006673513303000,0.983302978515625,3.7160587507158516,0.7849883479297161,3.8245571193575856
1790006673523315000,0.99331494140625,3.5517934866666794,0.9734528182119131,2.988787263217568
1790006673533327000,1.0033271484375,3.256214795577526,1.0964841545969246,2.264181195536256
1790006673543339000,1.013339111328125,3.2756782054603097,1.2594751609265804,1.5237217251628636
1790006673553351000,1.023350830078125,3.2736212729305025,1.5115847126454114,0.6087383393153548
1790006673563363000,1.033363037109375,-0.38145664712190624,1.7571815214693545,-0.7028418335102498
1790006673573374000,1.0433740234375,-0.47396658851504325,3.163216778406501,-2.1617491411961614
1790006673583385900,1.0533857421875,-1.294601419365406,4.345348002889752,-3.291005830712616
1790006673593398000,1.06339794921875,-1.997330001759529,3.779460671046376,-2.0886836127243935
1790006673603410000,1.073409912109375,-1.2020774494469164,2.301963521441817,-0.18226269303262232
1790006673613421800,1.083421875,0.3772323074251413,1.478625276851654,0.7109663224507122
1790006673623434000,1.09343408203125,1.7576660901159047,0.5166705887317657,1.2887290202006696
1790006673633445000,1.103445068359375,2.3076380599468944,0.15250760623812676,1.4852897031769157
1790006673643457000,1.11345703125,2.5314538295954465,0.5879740759670734,1.1661558028466998
1790006673653469200,1.12346923828125,2.9092946243077513,0.7152133854359388,0.811692668851465
1790006673663481000,1.133481201171875,2.8200778792411088,0.4817682021766901,0.3697488928671926
1790006673673493000,1.143492919921875,2.5734791998982427,0.09874562091231345,0.13039992892425506
1790006673683505200,1.153505126953125,2.347237079885602,-0.07227204000651836,0.1052855440750718
1790006673693516000,1.16351611328125,1.8256781345903872,-0.2728133170515299,-0.37054691137708723
1790006673703528000,1.17352783203125,0.8044669553816318,-0.7137976734191179,-1.2944640567213297
1790006673713540000,1.1835400390625,-1.031807392024994,-0.718193278029561,-2.257538688781857
1790006673723552000,1.193552001953125,-3.385858243578672,-0.6787889038801193,-3.3387714982330796
1790006673733564000,1.20356396484375,-4.9519905389696355,-0.7795055326044559,-3.9216137642696496
1790006673743576000,1.213576171875,-3.9740974002227185,-1.1988871289730072,-3.3981869792759416
1790006673753588000,1.223587890625,-1.9383131646454332,-1.6950959444344043,-2.316355473279208
1790006673763598000,1.23359814453125,-0.8634384920492768,-1.804184680184722,-1.8023470894940197
1790006673773610200,1.2436103515625,-0.9098154816903173,-1.4185399337232112,-1.6688855445094406
1790006673783622100,1.2536220703125,-1.3319699037730692,-0.8383060966193675,-1.7804703348591924
1790006673793634300,1.26363427734375,-2.2396230928629635,-0.10986907247304915,-1.8489961740747094
1790006673803646200,1.273646240234375,-1.9586923741988838,0.40877836928963657,-1.8313243237838148
1790006673813658000,1.283658203125,-0.6318788302756846,-0.2305190666794777,-1.58932568558231
1790006673823669200,1.293669189453125,0.08680106222704052,-1.7310399489969015,-1.2265224471345544
1790006673833681400,1.303681396484375,-0.17228183563575147,-2.8481957202225923,-1.330843822352588
1790006673843693300,1.313693359375,-1.1103794820237904,-3.1245833886295555,-1.6323676855817437
1790006673853705200,1.323705322265625,-2.0780518902033567,-2.6618822904944417,-1.7377217648483811
1790006673863717400,1.33371728515625,-2.212223629283905,-1.9966466956704854,-1.199857143048942
1790006673873729300,1.343729248046875,-1.9182383448660372,-1.7507178784132003,-0.01997735075429082
1790006673883740200,1.353740234375,-1.1734049702573568,-2.254398637190461,1.2940860171891748
1790006673893752300,1.36375244140625,-0.6926561011910438,-2.440955228024721,1.557297685419768
1790006673903764200,1.37376416015625,-0.6053202745001762,-2.0040391440093517,0.9091144938141107
1790006673913776000,1.383776123046875,0.23006832723729312,-1.8066174602895975,0.25739684447199107
1790006673923788300,1.393788330078125,1.0700864884715526,-1.8101508951127527,0.3342052127338946
1790006673933800200,1.40380029296875,1.1461140816193074,-1.7947487433195113,0.42103915431722994
1790006673943812000,1.41381201171875,0.7671189292401075,-1.7120464947134255,0.45095045458674426
1790006673953823200,1.4238232421875,0.06891396175026893,-1.628521239286661,0.6079473350681364
1790006673963835100,1.433835205078125,-0.7942945209354162,-1.577752006036043,0.5751645710155368
1790006673973847000,1.443846923828125,-0.8937795620381832,-1.6701842060178518,0.2571149587906897
1790006673983859200,1.453859130859375,-0.6008557693719864,-1.8806325445711611,0.23848273903504014
1790006673993871000,1.46387109375,-0.2774818933844566,-2.098999401164055,0.5034333598874509
1790006674003883000,1.473883056640625,0.15920030880980193,-2.256709252220392,1.2776627056546508
1790006674013894400,1.483894287109375,0.11244104185290633,-2.350457795497775,2.479510291868448
1790006674023906300,1.49390625,-0.5676956964395939,-2.2518594741016624,3.0556209115624426
1790006674033917200,1.503917236328125,-1.7403952218413352,-2.0456424895077943,2.6470097155332564
1790006674043929300,1.513929443359375,-2.685765854907036,-1.509075360172987,2.2465243966840207
1790006674053941200,1.523941162109375,-1.9360452197134495,-0.3100432697713375,1.9941637928135691
1790006674063953200,1.533953125,0.39604865157604213,0.3470990349680185,1.0001283514305948
1790006674073965300,1.54396533203125,3.05971022670269,0.7518412806093693,-1.2932086498327553
1790006674083977200,1.553977294921875,2.3746026411950587,1.603392058727145,-1.3573479445271193
1790006674093989000,1.563989013671875,0.5529273855704814,1.5019868632167577,1.4323882802031933
1790006674104000300,1.574000244140625,0.8144810574609785,0.02559972068071365,2.273841004285216
1790006674114012200,1.58401220703125,0.22634207325577735,-1.3450737154960632,2.4498985590673983
1790006674124024000,1.594024169921875,0.38446561967954035,-1.5187848532825707,2.3013946355126795
1790006674134036200,1.6040361328125,1.3569124757193027,-1.0744862578004597,2.0785962262131275
1790006674144048000,1.614048095703125,1.5695675305366514,-0.5359048660337925,1.933487790315598
1790006674154060000,1.62406005859375,1.7955739420972763,-0.08303191895186901,1.9293498137280345
1790006674164071400,1.634071533203125,2.5497382588267326,-0.07152385198771953,2.5152935529112814
1790006674174083300,1.644083251953125,2.0335925707519054,-0.30168402222692964,2.7327202060446143
1790006674184095200,1.65409521484375,0.6842579098757356,-0.39927871953845023,2.4416306430682537
1790006674194107400,1.664107421875,0.009297405177354811,-0.274724703630805,1.9972985837079584
1790006674204119300,1.674119384765625,0.08593041687235235,-0.0034364041894674297,1.8927996599659322
1790006674214131200,1.684131103515625,0.7688635809503496,0.37886136993169783,2.14702284283787
1790006674224143400,1.694143310546875,0.6598214608207345,0.41643677508831023,1.994349524644017
1790006674234154200,1.704154296875,0.6886169088028371,0.4679197095662355,1.874595602494478
1790006674244166100,1.714166259765625,0.8540636377215385,0.5479354955673218,2.045565332618356
1790006674254178300,1.72417822265625,1.3370340552948414,0.5819540850251913,2.2002213490620255
1790006674264190200,1.734190185546875,2.0485423026025296,0.6430190868407487,1.4746215941682457
1790006674274202400,1.744202392578125,2.2175905631445345,0.534814732709527,0.7114385430723428
1790006674284214300,1.75421435546875,2.1269782720662653,0.52910220028162,0.713355847935751
1790006674294226200,1.76422607421875,1.79431298225075,0.7502706702917814,0.7661596557538956
1790006674304237000,1.774237060546875,1.540077232158184,1.0133008444756268,0.4891929453499615
1790006674314249200,1.784249267578125,1.2232559926845132,1.229687925428152,0.31203904669843613
1790006674324261000,1.79426123046875,1.3871288964152335,1.5358990696907042,0.11763641853891313
1790006674334273300,1.804273193359375,1.8645652068674563,1.686456126382947,0.0817046889360994
1790006674344285200,1.81428515625,1.3760169891618192,1.4466519294857978,0.10845679452233016
1790006674354297000,1.824297119140625,0.7003973629675805,1.1644225493133067,-0.12106800042279064
1790006674364309200,1.834309326171875,0.09519757304191588,0.9249199657112359,-0.5104117475327105
1790006674374320400,1.8443203125,-0.359507850164175,0.5977583878785372,-0.7581488563209772
1790006674384332300,1.854332275390625,-0.17862886657491325,0.2715922508239746,-0.9217015881866216
1790006674394344400,1.864344482421875,0.6160929398618639,-0.03588087619841099,-1.2034990066826343
1790006674404356400,1.8743564453125,1.2167383544187993,-0.21446458845734595,-1.4320521801166235
1790006674414368300,1.8843681640625,1.4155401673853396,-0.30416824025809763,-1.055930172020942
1790006674424380400,1.89438037109375,1.3620669358730315,-0.30759178496599193,-0.6444711853452026
1790006674434392300,1.904392333984375,1.002181484568119,0.026211715099215507,-1.2074313776955008
1790006674444403200,1.9144033203125,0.7963433432240039,0.8475392043888569,-1.9047787054426968
1790006674454415400,1.924415283203125,0.7051765600681305,3.515620349523425,-0.9609707916490733
1790006674464427300,1.93442724609375,1.281453183978796,3.6133249369502067,-0.9293184198658913
1790006674474439200,1.944439208984375,0.7678665327370167,3.1475188585370777,-1.229896892003715
1790006674484451300,1.954451416015625,0.13439557443168013,3.492792431643605,-1.7653163126081228
1790006674494463200,1.964463134765625,-0.5364718522667884,1.5757389126479624,-2.2093420824982224
1790006674504475100,1.97447509765625,0.8143617419302464,0.5746984148085117,-1.2769319071620702
1790006674514487300,1.9844873046875,1.7593863380372523,1.2884908275306224,-1.0379694217860698
1790006674524498200,1.994498291015625,0.749400317198038,1.6629314584106205,-1.50118504531458
1790006674534510000,2.004510009765625,1.0076724831998347,0.8483329851150512,-1.4487377958491443
1790006674544522200,2.014522216796875,2.832187419229746,0.1515425605982542,-0.9377204105734824
1790006674554534100,2.0245341796875,4.130740206569433,-0.2702268076896667,-0.6452630663752555
1790006674564546300,2.03454638671875,3.2903672405481337,-0.6819476601719856,-0.7136075576744974
1790006674574558200,2.04455810546875,0.8546118461888284,-0.4412210877329111,-1.276136811261624
1790006674584570000,2.054570068359375,0.04274710870608687,-0.8589631002008914,-0.6284483443703502
1790006674594582300,2.064582275390625,-0.2910043689109385,-0.7702315083026886,-0.07932853438928723
1790006674604594200,2.07459423828125,-0.8902584021747112,1.4815642529129982,0.5013172445163131
1790006674614605300,2.084605224609375,-0.5733611748553812,0.836714443513751,-0.8028466607034206
1790006674624617200,2.0946171875,-2.2807073829233646,-0.9578232874035835,-1.3497836467526851
1790006674634629400,2.10462939453125,-1.3255400168560445,0.14707564431726933,0.22863818483632056
1790006674644641300,2.114641357421875,-0.4544211994372308,0.22018413514792917,-0.10593248194279148
1790006674654653200,2.124653076171875,0.0020997487582266328,0.018774843096733093,-0.9260553994819521
1790006674664665300,2.134665283203125,0.7396129365466535,-0.3445651325762272,-0.7151763413611799
1790006674674677200,2.14467724609375,1.1377614830113947,-0.7754431054711342,-0.35999263800643383
1790006674684689400,2.154689453125,1.5116554397940636,-1.0887784025251865,-0.2571163470301777
1790006674694700300,2.1647001953125,1.579707670148462,-1.1917401798278093,-0.39814935018233955
1790006674704712200,2.174712158203125,1.105883997235447,-1.463822844517231,-0.41142230792716145
1790006674714724400,2.184724365234375,0.6593954904936253,-1.801709229981899,-0.16607611286342144
1790006674724736300,2.194736328125,0.7796503479026258,-1.7167928124576806,-0.39548498981129376
1790006674734748200,2.204748046875,1.4168040498413144,-1.2268459800004958,-0.7131680702786892
1790006674744760300,2.21476025390625,1.4225089834846556,-1.4837106172919272,0.4644500606942922
1790006674754772200,2.224772216796875,0.4027424501262605,-1.2670201694786547,1.0774739683743566
1790006674764784600,2.23478466796875,-0.7350958975136279,-0.66679568374753,1.6168509674981235
1790006674774796800,2.244796875,-0.9063887221120297,0.2777455127567053,2.235532316417992
1790006674784807700,2.2548076171875,-1.094463754685223,1.1242302396565675,1.784507481420785
1790006674794819600,2.264819580078125,-1.737517912839353,2.2435604323118925,1.421520703099668
1790006674804831500,2.27483154296875,-0.7293135147199035,-0.10819383273720741,1.2905346083179114
1790006674814843600,2.28484375,-2.1989979447469112,0.1944412066042423,2.479566405969858
1790006674824855600,2.29485546875,-1.891593499046564,-0.14935527968704698,3.347359878358245
1790006674834867700,2.30486767578125,-1.908466307914257,-0.22494214332997797,3.383216204637289
1790006674844879600,2.314879638671875,-1.9412004105195402,-0.029940964755415914,3.091667207455635
1790006674854891500,2.3248916015625,-1.7073899010792373,-0.15304419733285904,2.854404803995788
1790006674864903700,2.334903564453125,-1.3190546003594994,-0.28279928901493545,2.341862547240406
1790006674874914600,2.34491455078125,-0.5858659977719187,-0.6474918483406304,1.699233921021968
1790006674884926500,2.354926513671875,-0.3978326123833656,-0.7756050180345774,1.4147333810470997
1790006674894938600,2.364938720703125,-0.7711094601809978,-0.4000076183348894,1.9687498039633033
1790006674904950500,2.374950439453125,-1.1216389079891145,-0.029257658666372297,2.6773943324029443
1790006674914962400,2.38496240234375,-1.4697314840391278,-0.0551385343760252,2.204502679643035
1790006674924974600,2.394974609375,-1.0609773724079132,-0.6562701980799436,1.063238376142457
1790006674934986500,2.404986572265625,0.22854104460477828,-1.1455085900068283,0.5432444882068783
1790006674944998400,2.414998291015625,0.9105521254017949,-1.1863649165302514,-0.09244337896294891
1790006674955009800,2.425009765625,0.9664077220059931,-1.2586796266347169,-0.10586312476731836
1790006674965021700,2.435021728515625,1.2029638768926263,-1.504371712526679,0.0986095734424889
1790006674975033600,2.44503369140625,1.1159319285191596,-1.8196493758201597,0.18257205124273895
1790006674985045800,2.455045654296875,1.8090367963910101,-1.1916273671030997,0.12368042967719957
1790006674995057700,2.4650576171875,2.095201177924871,-0.5293588053911924,-0.14388526904443277
1790006675005069600,2.475069580078125,2.1997278664566573,-0.5541542239516973,-1.06341475562267
1790006675015081700,2.485081787109375,1.9578189523652194,-1.1195774454146623,-2.1446552369236946
1790006675025093600,2.49509375,2.323751721010357,-1.620996104478836,-2.333542754923552
1790006675035105800,2.505105712890625,2.8881565592110157,-1.5765385385930537,-2.112515739210695
1790006675045116700,2.51511669921875,2.7273241922199722,-0.8729922100752592,-1.7663571999631822
1790006675055128600,2.525128662109375,2.0096749579392372,0.25511048710048195,-1.3140415945030748
1790006675065140700,2.535140625,0.9940915554843842,0.9988865346759557,-0.9978664709132165
1790006675075152600,2.545152587890625,0.13439444192051886,1.6783704350829123,-0.7200458470936865
1790006675085164500,2.55516455078125,0.04346972389221191,2.3958044191777703,-0.555292945658043
1790006675095176700,2.5651767578125,-0.133779671023041,3.492890046799183,-0.20529234402962027
1790006675105188600,2.575188720703125,-0.806544346177578,4.809712650322914,0.23509802850019185
1790006675115200500,2.585200439453125,-1.9498318991340695,4.8496109454691405,0.6748121822688729
1790006675125211600,2.595211669921875,-1.996606363660097,3.1851340111821886,0.8574171128679067
1790006675135223600,2.6052236328125,-1.4825345592498778,2.3473943162739275,1.1079955825619399
1790006675145235500,2.6152353515625,-1.05736502712965,3.439571129065752,0.9033082917533815
1790006675155247600,2.62524755859375,-1.0981026226442308,3.3577386490315195,0.6120975500827655
1790006675165259500,2.635259521484375,-3.293651084524393,2.3361843554735184,1.119579783502221
1790006675175271400,2.645271484375,-1.4314987840175628,1.9923726716130972,0.7032268873050809
1790006675185283600,2.65528369140625,2.942241200619936,1.2551280716329811,0.46914925136119123
1790006675195295500,2.66529541015625,1.0084966590642928,1.3936065679967402,-0.4709758822664618
1790006675205307600,2.6753076171875,0.10398996957289054,-0.3667833941251039,-0.09971205479167401
1790006675215318800,2.68531884765625,1.5793898363709449,-0.445277669647336,-0.16349296450242398
1790006675225330700,2.69533056640625,1.5491571951925753,-0.6892056684762239,-1.0652657172515987
1790006675235342600,2.705342529296875,1.9113100069075821,-1.0049421814531088,-1.007158323132619
1790006675245354800,2.715354736328125,1.8889315863609313,-1.3245938220471143,-1.2005806350179016
1790006675255366700,2.72536669921875,2.022634538885951,-1.5098784932494163,-1.0507719855401665
1790006675265378800,2.73537890625,1.8473627276539801,-2.0186662197768688,-0.45355610704049465
1790006675275390700,2.745390625,1.9405892928838728,-2.0874019023507833,-0.5071241041641682
1790006675285402600,2.755402587890625,1.6654045705258844,-1.7404115884542464,-0.5267763876825571
1790006675295413500,2.76541357421875,0.5108417364478111,-1.60259944704473,-0.037223815239965916
1790006675305425700,2.77542578125,-0.30573066726922987,-1.4941408258914948,0.3953274246294051
1790006675315437600,2.7854375,-0.44563247443437576,-0.9503390691280365,0.7369072577845305
1790006675325449700,2.79544970703125,-0.11834232005225494,-0.32253333351016045,0.6858959594063461
1790006675335461600,2.805461669921875,0.1608908374463208,-0.24575170712471006,0.5898066982217133
1790006675345473500,2.8154736328125,0.013318952311016619,-0.4334089526772499,0.7073647177621721
1790006675355485700,2.825485595703125,-0.5010287829637528,-0.5476315441846847,0.6399306193061173
1790006675365497600,2.83549755859375,-1.1370821224451064,-0.5222106872022152,0.45707872820869083
1790006675375509500,2.845509521484375,-0.9467804998636246,0.051288288688659665,0.7164239302694797
1790006675385520600,2.855520751953125,-0.5042787246704101,0.7909580699890851,0.8235247070729732
1790006675395532500,2.865532470703125,-0.3945475262980908,1.1860907757639885,0.9398777347378432
1790006675405544400,2.87554443359375,-0.6183434952676296,1.1290256572395563,0.7078568851932883
1790006675415556600,2.885556640625,-0.7382686823308467,0.9748299517840147,0.6336085766777396
1790006675425568500,2.895568603515625,-0.7631389927584677,0.9147714966624975,0.9645631901178509
1790006675435580400,2.905580322265625,-0.917476006380841,0.850382903382182,1.0617152582284062
1790006675445592600,2.915592529296875,-0.8376900105476379,0.6498042169362306,0.8899085658237338
1790006675455604500,2.9256044921875,-0.3441360935091972,0.2680319279938936,1.1609726280551402
1790006675465615600,2.93561572265625,0.08215805872678757,0.6800619925558566,0.6337170785535127
1790006675475627800,2.945627685546875,0.10899696581363677,0.6529226412177086,0.9173697695273906
1790006675485639700,2.9556396484375,0.02592917183078825,0.22623744383752345,0.9971364761382341
1790006675495651800,2.96565185546875,-0.07531454950757324,0.07277648239731788,0.5734391354624182
1790006675505663700,2.975663818359375,-1.3252818043112755,-0.28354280085861683,0.2284939905926585
1790006675515675600,2.985675537109375,-2.1202163767158986,-0.551004820010066,0.05842815050594508
1790006675525687800,2.995687744140625,-1.433759568556398,-0.5462047262519598,0.5955338436968625
1790006675535699700,3.00569970703125,-0.5550982268035412,-0.5277981319457292,0.6781669725894928
1790006675545711600,3.015711669921875,-0.15823935482315718,-0.6157867965221404,0.501666204084456
1790006675555722800,3.02572265625,-0.17068506796360014,-0.6459083785414695,0.455645699730888
1790006675565734700,3.035734619140625,-0.39694647719860077,-0.5946767884761095,0.31778007456846535
1790006675575746600,3.04574658203125,-0.4771638501863926,-0.4577046050220728,0.4085601964943111
1790006675585758700,3.0557587890625,-0.44995450235195456,-0.07351707163155079,0.5985813946992159
1790006675595770600,3.0657705078125,-0.5424713849425316,0.15635902096927165,0.6209038472749292
1790006675605782500,3.075782470703125,-0.34694881284236906,-0.01623918713927269,0.6878064692027867
1790006675615794700,3.085794677734375,0.04100888673663139,-0.38963878453373907,0.5658606630321592
1790006675625806600,3.095806640625,0.5146060574173927,-0.6366062971889972,0.18728556269593535
1790006675635817500,3.1058173828125,0.7398480604767799,-0.6520090335041284,0.07451879602000117
1790006675645829600,3.11582958984375,0.5806219596385955,-0.6287894859582185,0.10608699665106833
1790006675655841500,3.125841552734375,0.4539210313627496,-0.6466875462204218,0.0712009036436677
1790006675665853400,3.135853515625,0.4149789774954319,-0.7012620169728994,-0.07041939787715673
1790006675675865600,3.145865478515625,0.3600327508211136,-0.7148503973424434,-0.09159253428727387
1790006675685877500,3.15587744140625,0.5750444517672062,-0.6770633952617645,0.03626929099410772
1790006675695889700,3.1658896484375,0.6461398492097854,-0.6203431446522474,-0.03892638137415051
1790006675705901600,3.175901611328125,0.6353624346077442,-0.6475292577415704,-0.005542363492771983
1790006675715913500,3.18591357421875,0.7068039420742541,-0.6793874542951583,-0.034295214442163706
1790006675725924600,3.195924560546875,0.5528337890028954,-0.7451414907097816,-0.16521956909932195
1790006675735936800,3.205936767578125,0.4480032952189445,-0.8419406537294387,-0.19089936927892268
1790006675745948700,3.21594873046875,0.5132557753195985,-1.0991332078009843,-0.47865438100509344
1790006675755960600,3.225960693359375,0.6562076542377472,-1.3680629614174364,-0.5611353880759328
1790006675765972700,3.23597265625,0.43653625438492744,-1.1909960834622382,-0.6719036744110286
1790006675775984600,3.245984619140625,0.2565642661053687,-0.7433622060775756,-0.8119473011996596
1790006675785996800,3.255996826171875,0.40765608726143837,-0.35673838545083997,-1.0347599582202731
1790006675796008700,3.2660087890625,0.5284077152114361,-0.20308102465569972,-1.2841684342868624
1790006675806020900,3.276020751953125,0.6846738702654838,-0.23517361448705196,-1.302977033522725
1790006675816032000,3.286031982421875,0.7824561260383576,-0.19866963795423506,-1.1496255238063633
1790006675826044000,3.2960439453125,0.721255588209629,-0.12401508672535419,-1.1159138814058154
1790006675836055800,3.306055908203125,0.4748422023057937,-0.22665420794486998,-1.223904373590648
1790006675846068000,3.31606787109375,0.16549100645184517,-0.451950571539998,-1.055922938562557
1790006675856080000,3.326079833984375,0.07759411181211472,-0.47602410556674,-0.9564270838048309
1790006675866092000,3.336092041015625,-0.08411503801345825,-0.3675976331174373,-0.9657293843530118
1790006675876104000,3.34610400390625,-0.005009352594614029,-0.4156079230487346,-0.9021584641311318
1790006675886115800,3.35611572265625,0.019074191369488833,-0.5376549245715141,-0.7620697560917585
1790006675896126700,3.366126708984375,0.028322496708109973,10.726394024378061,0.8739011416137218
1790006675906139000,3.376138916015625,-1.1199836881279945,5.275843722906709,-2.2269040426738558
1790006675916150800,3.38615087890625,-1.0059808037858455,-2.2693454464316365,1.4612955179966984
1790006675926163000,3.396162841796875,-1.5070470692157745,0.7178121697574853,-1.2558208762027323
1790006675936174800,3.4061748046875,-0.03666588909626007,-1.809963848108053,-1.107294156294316
1790006675946186800,3.416186767578125,0.5995978052001446,-0.63624681622684,-2.6134616661965846
1790006675956199000,3.426198974609375,0.7996107475221157,-1.8550392536312341,-1.5418391272641718
1790006675966210800,3.4362109375,0.9398013815660029,-0.6528326248466968,-1.67757738500908
1790006675976221700,3.4462216796875,0.4900316246638074,-0.6402239031642675,-0.9813020704075693
1790006675986233900,3.45623388671875,0.20810608627609908,0.05643325036168098,-0.8485948509216308
1790006675996245800,3.466245849609375,0.4731319277891889,-0.155332600530982,-0.2830179002016783
1790006676006257700,3.476257568359375,0.5804747331876308,0.5068938756048679,-0.3229049433015287
1790006676016269800,3.486269775390625,0.8787538423418998,0.16635083815157412,0.18492803978435693
1790006676026281700,3.49628173828125,1.0103274546880274,-0.42603345547318455,0.520361990595609
1790006676036293600,3.506293701171875,0.9617232174515724,-0.021767010650038717,0.2574482823982835
1790006676046305800,3.516305908203125,0.7342775668680668,0.03413023313879966,0.2310039275869727
1790006676056317700,3.526317626953125,0.6305598566316067,-0.010529577320814132,0.38483138425201174
1790006676066328800,3.536328857421875,0.8667407484650611,-0.023408932638168335,0.9290032164368778
1790006676076341000,3.546341064453125,0.3917910671968013,-0.40394378874003883,1.1910578235868363
1790006676086353000,3.556352783203125,0.47669287167377766,-0.24366028780341148,1.7677809491559862
1790006676096365000,3.566364990234375,0.0013281067986041306,0.2381552606463432,1.5895067412376402
1790006676106377000,3.576376953125,-0.8358394142448902,-0.2282306634813547,1.335854490121454
1790006676116388900,3.586388916015625,-0.8075473857402801,-0.5731085152685642,0.7744135432276874
1790006676126401000,3.596401123046875,-0.26114567561149593,-1.3095482286065816,0.6929424438517541
1790006676136413000,3.606412841796875,0.9332184229791164,-0.9128905052214861,0.8374185001298785
1790006676146424800,3.6164248046875,1.3506512233674526,-0.5463689769029617,0.4638697400556877
1790006676156436000,3.62643603515625,0.9884265154600143,-1.3045774544566868,0.7953834852159023
1790006676166447900,3.63644775390625,0.29497082485649734,-0.7997446030348538,0.698792558119446
1790006676176459800,3.646459716796875,-0.40325924054197965,-0.6707312696307898,0.20507680158279834
1790006676186472000,3.656471923828125,-0.3701286128997803,-1.0793915654987096,-0.21541838205084204
1790006676196483800,3.66648388671875,0.9523755433917045,-1.565476461830735,-0.407372813340649
1790006676206495700,3.676495849609375,1.3277344581604003,-1.683324842619896,-1.2783262841299174
1790006676216508000,3.6865078125,0.5072808656284585,-1.9297306297391652,-1.2376779012687504
1790006676226519800,3.696519775390625,-0.4581529333114624,-2.1782722598433493,-0.8449092942766845
1790006676236532000,3.706531982421875,-1.417160462063551,-2.1289397813975808,-0.9708156746413558
1790006676246542800,3.71654296875,-1.9232149642348288,-2.0283833116710186,-0.7791513123393058
1790006676256554800,3.7265546875,-1.3135340833723543,-1.3886924924701451,-0.4782209214912727
1790006676266566700,3.736566650390625,-1.1146855817198753,-0.9276566971987485,-0.10812076750099658
1790006676276578800,3.746578857421875,-1.5735352651238441,-0.8543477153599262,0.012864121215604245
1790006676286590700,3.7565908203125,-1.6519968074202536,-0.8448287763863801,0.05312909424975514
1790006676296603000,3.766602783203125,-1.571936159364134,-0.9293599939852952,0.3029005218772217
1790006676306614800,3.77661474609375,-1.8812812177382408,-0.801421011814475,0.5786051399234682
1790006676316626700,3.786626708984375,-1.742743830794096,-0.4659147994846105,0.7266355276823043
1790006676326637800,3.796637939453125,-1.3871872024737297,-0.3552338261067867,0.593545446358621
1790006676336650000,3.80664990234375,-1.2234358792960642,-0.36921266709864137,0.39864290585294365
1790006676346662000,3.816661865234375,-0.923529534266144,-0.46087738983929155,0.3634806627852842
1790006676356674000,3.826674072265625,-0.7651765630006789,-0.7898322808295488,0.6570874327469617
1790006676366686000,3.83668603515625,-0.7348619426272809,-0.8244839074939488,0.9384005017921327
1790006676376697900,3.84669775390625,1.1412136692918837,2.387685410130024,2.8443124490484593
1790006676386710000,3.8567099609375,1.2613456309735773,-4.176350449621677,-0.09460147944544442
1790006676396722000,3.866721923828125,-0.5292319641411304,-1.2582611089617013,-0.01692212333555799
1790006676406733800,3.87673388671875,0.6036475189823657,-0.4467074101895094,0.0957184733771719
1790006676416745000,3.886744873046875,1.0045487982213497,-0.600834142062068,-0.31366862066164614
1790006676426756900,3.8967568359375,1.1997381928443909,0.3352127823412418,0.19751190102016553
1790006676436768800,3.906768798828125,2.7682220197975633,3.565458439403772,0.1547249169614166
1790006676446781000,3.916781005859375,2.844634228348732,2.957336478421092,-0.6629794133950024
1790006676456792800,3.926792724609375,1.2550842324912548,0.3366337550550699,0.23528781545124947
1790006676466804700,3.9368046875,0.5294073207080364,0.45388884612619873,1.5034171882808207
1790006676476817000,3.94681689453125,-2.2643873856328427,4.780163315233588,0.35377507866583763
1790006676486828800,3.956828857421875,1.447470260131359,3.4750141983687874,1.6252746585808693
1790006676496839700,3.966839599609375,-0.34243053170032794,3.1674504704535007,2.4621724958375095
1790006676506851800,3.976851806640625,-1.6706173367381094,1.765159076219797,2.0971467590346933
1790006676516863700,3.98686376953125,-0.9868494754016399,0.8552911336898803,0.9744782888021319
1790006676526876000,3.9968759765625,-0.2889583596339449,-0.04030044620633125,0.43257768948487935
1790006676536887800,4.0068876953125,0.24770521581266075,0.45049511203467846,-0.36306620023287833
1790006676546899700,4.016899658203125,-0.07566047686841339,1.4536802206873893,-0.8898882536880671
1790006676556911900,4.026911865234375,-1.4338497310578822,1.025490463963151,-0.9430598719052969
1790006676566923800,4.036923828125,-1.68937815130949,-0.40644028173089025,-0.7740341885212808
1790006676576935700,4.046935791015625,-1.131695168709755,-1.8602239627927541,0.325631189927645
1790006676586947000,4.056947021484375,-0.9728583594501018,-2.8401193812727925,1.2385118678748608
1790006676596959000,4.066958984375,-0.48947278520464893,-3.011809242364764,0.7416967570833861
1790006676606971000,4.076970947265625,-0.9149883542835712,-1.2111626731783152,-0.5550696948288009
1790006676616983000,4.086983154296875,-0.4998667534470558,0.9187906691759824,-1.8359537371501327
1790006676626995000,4.096994873046875,0.3473948030441999,2.123181071740389,-1.088794476877153
1790006676637006800,4.1070068359375,0.5537883132487535,2.4452929649680852,0.8085708105038851
1790006676647019000,4.11701904296875,0.34755788465142246,1.8181033154219388,1.0636048713672905
1790006676657031000,4.127031005859375,0.1969797669048421,0.6005073943257332,0.8183136213611811
1790006676667041800,4.137041748046875,0.17339313961220904,-0.744241911521554,1.0037963724188506
1790006676677054000,4.147053955078125,0.26408582071661946,-1.4096259749054907,1.2073748252026737
1790006676687065900,4.15706591796875,-0.3043073199352249,-0.9847995571345091,0.7382899443145841
1790006676697077800,4.167077880859375,-0.7956061880558729,0.5979331599235534,0.7853351886060088
1790006676707090000,4.17708984375,-0.6531301464885473,1.8765052355080842,0.5662958030464127
1790006676717101800,4.187101806640625,0.3694833007335663,2.1462708554267884,0.04640617920290679
1790006676727114000,4.197114013671875,1.2523831568390131,2.2309821057677266,-0.38877657821383327
1790006676737126000,4.2071259765625,0.9485504321455955,1.8241952025562524,0.275491304089129
1790006676747137800,4.2171376953125,-0.16446743555776774,0.3909983824491501,1.361864399038255
1790006676757148700,4.227148681640625,-0.6537602610856295,-1.0485837547808885,1.1017225667070596
1790006676767160800,4.237160888671875,0.5936270602274686,-1.6983967395454644,0.422765101327002
1790006676777172700,4.2471728515625,1.3414432500392197,-1.9855939712584016,-0.17424729048982263
1790006676787185000,4.257184814453125,1.0030735380370168,-2.2912562494665383,-0.5144809332003817
1790006676797196800,4.26719677734375,0.542606336433813,-2.1281389864087106,-0.11277180817723273
1790006676807209000,4.277208984375,0.14132212229184807,-1.229984862548113,0.8225380341231823
1790006676817220900,4.287220947265625,-0.8610755623102188,-0.5666939720511436,0.9105125971090048
1790006676827232800,4.297232666015625,-1.704844600510597,-0.0955804348796606,2.053689748493582
1790006676837244000,4.307243896484375,-0.30783801481202244,-0.3557920445114374,1.963303228995204
1790006676847256000,4.317256103515625,-0.4039988068629056,-1.2129127317160366,0.9496178421813994
1790006676857268000,4.32726806640625,-0.7366800248999148,-0.7473176657050847,1.8491560408115386
1790006676867280100,4.337280029296875,-0.9502357548840343,0.709714788019657,1.4498299750000239
1790006676877292000,4.3472919921875,-0.7466840439766645,2.298703642863035,-0.4142493115140125
1790006676887304000,4.357303955078125,-0.13502674847468732,3.30825887106955,-2.0455233931727705
1790006676897316000,4.367316162109375,0.21299678092710672,3.3904864879012107,-2.202624318550527
1790006676907328000,4.377327880859375,0.9262280526351183,2.899530186140537,-1.4224156061127782
1790006676917340000,4.38733984375,0.7801636311870068,1.8636819942921399,-0.28240554045699534
1790006676927351000,4.39735107421875,0.7680266917347908,-0.4029349039584398,0.2677837253864854
1790006676937363000,4.407363037109375,-0.6259831963658332,-0.30099136378765107,0.364867915892601
1790006676947374800,4.417374755859375,-1.5307875718958674,0.3018383360058069,-0.19735921294279396
1790006676957387000,4.427386962890625,-0.29252164160609245,0.07776186959445476,-0.6050532210618257
1790006676967399000,4.43739892578125,0.8916086477398872,0.10804828678667544,-0.12301496977210044
1790006676977410800,4.447410888671875,0.5976379763692617,-0.030483401069045065,-0.6100811322264373
1790006676987423000,4.457423095703125,-0.12117489486336708,-0.07819500031471252,-1.1712493265934287
1790006676997435000,4.467434814453125,-0.5517267045438289,-0.1560258434921503,-1.1294226937331258
1790006677007447000,4.477447021484375,-1.097684762558341,-0.2960229277253151,-0.8070082373622804
1790006677017458000,4.4874580078125,-0.6201917534828185,-0.9989823962658643,-0.4788789835412055
1790006677027469800,4.4974697265625,-0.2610048058360815,0.07260463296175003,0.1406002377580851
1790006677037481700,4.507481689453125,-0.43941827609464523,-0.356426835283637,-0.34346710820645093
1790006677047494000,4.517493896484375,-0.3680677348472178,-0.8104881153672933,0.3554904312163591
1790006677057505800,4.527505859375,-0.2752875982105732,-1.081864093092084,0.6849087749999017
1790006677067518000,4.53751806640625,0.6576647211782634,0.9189753780931234,-0.30760917449221015
1790006677077529900,4.54752978515625,0.04775236964747309,1.7153478743463753,-0.7003402259528636
1790006677087541800,4.557541748046875,0.14135668214857577,0.3029331455051899,0.64496583699435
1790006677097553000,4.567552978515625,0.2614600022576749,-0.8732546604037285,0.6049118398297578
1790006677107564800,4.577564697265625,0.35592341580614445,-0.8210702996581792,0.011950696165114641
1790006677117577000,4.587576904296875,0.2323256777100265,0.05857260047793388,0.14367146189697086
1790006677127588900,4.5975888671875,-0.315256912766397,0.2734446006923914,0.2840668247327208
1790006677137601000,4.60760107421875,-0.22318857766091824,0.7826596127212048,0.3099367406569421
1790006677147613000,4.617613037109375,-0.11636851749494671,1.0668278520017862,-0.10223514352850616
1790006677157624800,4.627624755859375,-0.21342413949370384,0.9472697446852922,0.006968158512189984
1790006677167637000,4.637636962890625,0.29982465809583664,0.720401601728797,0.5228058035511524
1790006677177649000,4.64764892578125,0.4808807518176734,0.2967722847878933,0.8883483307696879
1790006677187660000,4.657659912109375,0.1523940628610551,0.2367576688081026,0.8341003154926001
1790006677197672000,4.667671875,0.5812155416175723,-0.05768120459616184,0.5763233125966042
1790006677207683800,4.677683837890625,1.0125791060723364,-0.0896200651705265,0.47562663068175315
1790006677217696000,4.687696044921875,-0.6576886865757405,-0.013455109378695488,0.16449768456555902
1790006677227708000,4.6977080078125,0.051832478567957876,0.0013128361642360687,0.10755305061563848
1790006677237720000,4.707719970703125,0.12696107704937457,0.13678221383988856,0.11129092196971177
1790006677247732000,4.71773193359375,-0.12367723307311534,0.020848142239451407,0.26705205011107025
1790006677257744000,4.727743896484375,-0.22612755372226237,-0.04876549221277237,0.34472704513967034
1790006677267754800,4.737754638671875,-0.2640244459182024,-0.05877367600798607,0.23008483998067675
1790006677277767000,4.747766845703125,-0.27683322021737694,0.01853694268763065,0.18781733148507773
1790006677287778800,4.75777880859375,-0.25020927105546,-0.008230652728676796,0.2584719263575971
1790006677297791000,4.767791015625,0.08138342109248041,0.19857728349566459,0.20335107376873493
1790006677307803000,4.777802978515625,0.043466655152291055,0.1150304007589817,0.4092785008314997
1790006677317814800,4.787814697265625,-0.23781463051512836,0.09825228443741797,0.6478899077475071
1790006677327827000,4.797826904296875,-0.2926901300407946,-0.044703065079450606,0.5266499848239123
1790006677337838800,4.8078388671875,-0.11595876765027642,-0.0012765958070755003,0.3419689786031842
1790006677347850800,4.817850830078125,-0.42478915450051424,-0.030392215654253957,0.26561164204441007
1790006677357862000,4.82786181640625,-0.1351804777316749,0.05429799189865589,0.4428603063073009
1790006677367873800,4.837873779296875,0.08048705677464604,0.18324293624162674,0.44300709436684843
1790006677377885700,4.8478857421875,-0.029420155751705167,0.14204115728139877,0.2966447128854692
1790006677387897900,4.85789794921875,-0.16000643756091593,0.051344987311959266,0.2519295189768076
1790006677397909800,4.86790966796875,-0.2794390188015997,-0.06061784256994724,0.3721970897369086
1790006677407921700,4.877921630859375,-0.3744833009779453,-0.09121347184181212,0.3377759838927537
1790006677417933800,4.887933837890625,-0.19050284424200653,0.014047230052947998,0.3679619363851845
1790006677427945700,4.89794580078125,-0.15694704999029635,0.018038345515727996,0.3416637851115316
1790006677437956900,4.907956787109375,-0.06374518081024289,0.08840309059619902,0.41302572453580794
1790006677447969000,4.917968994140625,-0.11518588358163832,0.08921089984774588,0.5597145614925771
1790006677457981000,4.92798095703125,0.08117372386455536,0.13075287054777143,0.5373780803915112
1790006677467992800,4.937992919921875,0.0009510171145200729,0.10743570784628391,0.5171820453852415
1790006677478005000,4.9480048828125,-0.12212883458733557,0.052205403533577915,0.4652044592581689
1790006677488017000,4.958016845703125,-0.09107201754450797,-0.018595979398488997,0.3826128314197063
1790006677498029000,4.968029052734375,-0.1047609356790781,-0.016892098090052602,0.42870135950818655
1790006677508041000,4.978041015625,-0.17575988700985906,-0.04984802675247192,0.4843765580441802
1790006677518052900,4.988052978515625,-0.08209376131892204,0.03479834165871143,0.48220169822312886
1790006677528064000,4.99806396484375,0.10903379069268702,0.11569324858188629,0.44713476875610647
1790006677538076000,5.008075927734375,-0.04561564987972379,0.05903963346779346,0.4098053742498159
1790006677548087800,5.018087890625,-0.18531214373111723,0.012683540484309195,0.4872150694057345
1790006677558100000,5.028099853515625,-0.05366217821314931,0.006803250274062156,0.34061507977619765
1790006677568111900,5.03811181640625,0.07059957674965261,0.0005880290210247039,0.2912847932875156
1790006677578123800,5.048123779296875,-0.08045067028701305,0.01716156268119812,0.4571653835788369
1790006677588136000,5.058135986328125,-0.06085808106660843,0.01644260075688362,0.34876616446264086
1790006677598147800,5.06814794921875,0.04624094217121601,0.0873369226694107,0.3386941947162151
1790006677608158700,5.07815869140625,0.02764671633839607,0.05438800826966762,0.3696022509381175
1790006677618171000,5.0881708984375,0.006467296317964792,-0.023078677770495413,0.14015906986184418
1790006677628182800,5.098182861328125,0.08709478447660804,-0.011193594187498093,0.19435323605984448
1790006677638194700,5.108194580078125,0.13103621753379702,-0.014816460859775542,0.23371128684952855
1790006677648206800,5.118206787109375,0.09193477185368537,-0.012824410259723662,0.2178599299840629
1790006677658218800,5.12821875,0.2221820309668779,-0.06607201632261275,0.38162148229479786
1790006677668231000,5.13823095703125,-0.43155426472127434,-2.9630531025022266,-0.7782296674497425
1790006677678242800,5.148242919921875,0.720580465427041,-5.484366061833501,-6.944586497944593
1790006677688254000,5.15825390625,1.3743645457796752,0.44473523333370685,0.5763525386910885
1790006677698265900,5.168265869140625,-1.1855554998435078,3.3847914911299943,4.707977199944853
1790006677708278000,5.178278076171875,1.714228953319043,3.4039223080575463,1.6038813035488129
1790006677718290000,5.1882900390625,1.5154285285919904,1.6956833889335392,-1.5043245123840867
1790006677728302000,5.198302001953125,0.45485155367851254,0.33419045355618,-1.251639060473442
1790006677738314000,5.20831396484375,0.907068082678318,0.23203882359266279,-1.950813165256381
1790006677748326000,5.218325927734375,0.22377602216005324,-1.164185233426094,-2.537014386332035
1790006677758338000,5.228338134765625,1.1581026986420153,-0.8981821809113025,-2.792391415414214
1790006677768349000,5.238348876953125,0.9302246479906141,-0.968853799983859,-2.599915079142153
1790006677778360000,5.248360107421875,0.5023262754283845,1.0992454360038042,-0.8646884921103716
1790006677788372000,5.2583720703125,0.8228988302595913,0.17268296378254888,-1.872352207481861
1790006677798383900,5.2683837890625,1.8430882652051745,-0.6241109727531671,-3.566323531800508
1790006677808396000,5.27839599609375,0.3101056674830615,-0.6303507439255714,-3.03854176646769
1790006677818408000,5.288407958984375,0.34671763443499803,-0.8711053734153509,-3.368710124900937
1790006677828419800,5.298419921875,0.5623791775919497,-0.12254092251956462,-1.650857428126782
1790006677838432000,5.308431884765625,0.6490162814289331,0.2477975337386131,0.7488974822424351
1790006677848444000,5.31844384765625,0.8361328442335129,0.24204934547543525,1.7740246658511458
1790006677858455000,5.328455078125,0.7308908470392227,0.40059740092158314,2.55904004791826
1790006677868467200,5.33846728515625,0.14589242588207124,0.1352466748356819,2.1407985614955423
1790006677878479000,5.34847900390625,-0.09255290375202893,-0.3409434349477291,0.19982706436105072
1790006677888491000,5.358490966796875,0.4523626594722271,-0.1485965702742338,0.24723865774683654
1790006677898503200,5.368503173828125,0.6459831973433494,0.24555589229166505,1.5493194000169634
1790006677908515000,5.37851513671875,0.14979834727942942,0.24014205054938792,1.391260881653428
1790006677918527200,5.38852734375,-0.16115560759603975,0.049669747576117515,1.2020368251755833
1790006677928539100,5.3985390625,0.010731237372756004,0.06523088932335376,0.6022984424609691
1790006677938550000,5.408550048828125,0.040375265008211134,-0.5834422777563333,-0.07161364916302264
1790006677948562200,5.418562255859375,-0.059435939309000964,0.2503337742179632,0.3026086627911776
1790006677958574000,5.428573974609375,0.3104518505722284,0.4384229814469814,0.4620881538685411
1790006677968586000,5.4385859375,0.5646181886903942,0.03644552434384823,0.35562275235913693
1790006677978598100,5.44859814453125,0.42982349540591236,-0.3584633095473051,0.9149741796277463
1790006677988610000,5.458610107421875,0.13673355239257215,-2.152845557641983,2.2899296770378945
1790006677998622000,5.4686220703125,-0.4025812682151794,-2.919892590689659,1.3612275624394417
1790006678008634000,5.478634033203125,-0.810567025822401,-3.0161452257424592,-0.12241130479052661
1790006678018645000,5.48864501953125,-0.46829380357563494,-1.9072586856901645,-0.6408301254291087
1790006678028657000,5.498656982421875,-0.20288944760635494,-0.9651713120788336,-0.15199746475890277
1790006678038669000,5.5086689453125,-0.4210236644871533,-0.07054711591005325,0.4695690842084586
1790006678048681000,5.518680908203125,-0.48859541784822935,0.7665414216130971,0.6854013077571988
1790006678058692900,5.52869287109375,-0.41402796038091183,2.019208656090498,0.6821303232625127
1790006678068705000,5.538705078125,-0.10043649660870432,1.9538497564733028,-0.09914609147198497
1790006678078717000,5.548717041015625,-0.22677871110737322,1.8671335960507391,-0.8000796071428805
1790006678088729000,5.55872900390625,-0.377760715213418,1.598324838465452,-1.9911375768601893
1790006678098740200,5.568740234375,-0.2879927660048008,1.1702572468161583,-1.5173833159215748
1790006678108752100,5.578752197265625,-0.5289860265560448,0.4189432049512863,-0.6597708266120403
1790006678118764000,5.588763916015625,-0.639875089726597,-0.169985979783535,-0.5681158946130425
1790006678128776200,5.598776123046875,-0.3888707227706909,-0.6130939041763543,0.05401939415298402
1790006678138788000,5.6087880859375,-0.36558395520746706,-0.15335750106573104,0.6016771687574685
1790006678148800300,5.61880029296875,-0.4960311208069324,0.58018473726511,0.540786865921691
1790006678158812200,5.628812255859375,-0.27800445595383644,0.972960650780797,0.5572033093240112
1790006678168824000,5.638823974609375,-0.11269216706976294,1.0204647447556257,0.9590230185821652
1790006678178835000,5.6488349609375,-0.1431729377903044,0.2652536954522133,1.2617162178516388
1790006678188847000,5.65884716796875,-0.19733225187063216,-0.32528760065436363,0.9266253083243966
1790006678198859000,5.66885888671875,-0.20402780398651957,-1.0235855071246622,0.34168972327038644
1790006678208871200,5.67887109375,-0.34393750219717617,-0.49821723267436024,0.23873583701327442
1790006678218883000,5.688883056640625,-0.3282984729081392,0.06087853933274746,-0.36641295337751506
1790006678228895000,5.69889501953125,-0.308461699668318,0.12112404145896434,0.1060679266244173
1790006678238907100,5.7089072265625,-0.17664587606415152,-0.10585340709090232,0.9281411927800625
1790006678248919000,5.7189189453125,-0.39978798423483963,-0.22501637760996818,1.2800034235619009
1790006678258931000,5.728930908203125,-0.2578577399820089,-0.309980725929141,1.023383335616067
1790006678268942000,5.738942138671875,-0.12972718076184392,-0.36980128064155576,1.065059234894067
1790006678278954000,5.7489541015625,-0.18916589654982088,0.027521628654003143,1.2698491092942654
1790006678288966000,5.7589658203125,-0.2387080722235143,0.6161117906928062,0.8120131329774856
1790006678298978000,5.76897802734375,-0.12560513239577412,0.2370586975812912,0.46549562422446905
1790006678308990000,5.778989990234375,-0.10372472449913621,-0.48513797087073324,0.8473785339344292
1790006678319001900,5.789001953125,-0.2435774318255484,-0.25565116984844205,1.04046131166704
1790006678329014000,5.799013916015625,-0.08783551984131335,-0.2405097148180008,1.0524001712638884
1790006678339026000,5.80902587890625,-0.1061725560426712,-0.20694529886841773,1.1915707415450363
1790006678349037000,5.819037109375,-0.08854279132783413,-0.020461773270368574,0.30271833371073004
1790006678359049000,5.829049072265625,-0.12536314033344387,-0.3903431334108114,0.3834362766318023
1790006678369061000,5.83906103515625,-0.44033743676617737,-0.11616086609363556,0.5598134918224066
1790006678379073000,5.849072998046875,0.08706555838212371,0.5504536158680916,-0.3379202877342701
1790006678389085000,5.8590849609375,0.23121347868442535,0.7097305701106786,-0.296207271316275
1790006678399097000,5.86909716796875,-0.01534092312529683,0.3726800509482622,-0.29605047331936657
1790006678409109000,5.87910888671875,-0.0050585985638201235,0.524006922969222,-0.8472136987615376
1790006678419121200,5.88912109375,-0.004497895941138267,0.4517822292357683,-0.6669396222628653
1790006678429132000,5.899132080078125,-0.04066401882171631,0.40863457690477367,-0.15212890911884605
1790006678439144200,5.909144287109375,-0.0761729929678142,0.16086451569497584,-0.16056809003166853
1790006678449156000,5.919156005859375,-0.07050809907391667,0.7142056696981192,-0.47966984165795146
1790006678459168000,5.92916796875,0.006242693781852722,1.0582441480517386,-0.683039473996684
1790006678469180200,5.93918017578125,0.23740283484384417,-0.6675941406488418,-0.3152250563234091
1790006678479192000,5.949192138671875,-0.4716156414747238,0.2679623698890209,0.2060433085273951
1790006678489204000,5.959203857421875,-0.08000599525943398,-0.3086661361992359,-0.3065364306941628
1790006678499216100,5.969216064453125,0.32847499851882456,-1.8704297149866818,0.37611879322528835
1790006678509227000,5.97922705078125,-0.21280688437819478,-0.2943424272924661,0.14096790202669798
1790006678519239000,5.989239013671875,-0.2924276797123253,0.4295651367306709,-0.7746907527338713
1790006678529251000,5.9992509765625,0.03583396831676364,0.8541893099278212,-0.5206995519869029
1790006678539263000,6.009262939453125,0.03596022504493594,0.9891776260882615,-0.5851657405480742
1790006678549275000,6.01927490234375,0.020095862567424773,0.10569909331202507,-0.21976415617018938
1790006678559287000,6.029287109375,0.20172785648107527,-0.7731634701013564,0.8668979848533869
1790006678569299000,6.039298828125,-0.06856339474692941,-0.14242986433804034,0.8865184119287878
1790006678579311000,6.04931103515625,-0.25980492852702736,0.8709884690374136,0.25612718986235555
1790006678589323000,6.059322998046875,-0.04087386218011379,1.0113625698894262,-0.15160525057092308
1790006678599334000,6.069333984375,0.249026783272624,-0.019331892457604406,0.08954561169482766
1790006678609345800,6.079345703125,0.15323650503456593,-0.30812954510450363,0.11261997861638665
1790006678619358000,6.08935791015625,0.03946574894785881,0.01680734241604805,0.19115728956274688
1790006678629369900,6.099369873046875,0.21091069536805152,-1.6725287233173847,0.6878964855737983
1790006678639382000,6.109382080078125,0.023658523485064507,-1.6699895602285861,1.482207080861181
1790006678649394000,6.119393798828125,-0.4438960060305893,0.5056003286629915,-0.11718904009759426
1790006678659405800,6.12940576171875,-0.13778189240172506,0.7052811894863843,-0.4186902531035244
1790006678669418000,6.13941796875,0.2356013383798301,0.559369328251481,-0.20640059753246603
1790006678679429000,6.14942919921875,0.2236556106507778,0.5213169532328844,0.007302358902618288
1790006678689441000,6.15944091796875,0.21043781715929508,0.13021335684359073,0.30242431920021773
1790006678699453200,6.169453125,0.09647431497946381,-0.20185119059979914,0.4911223790425807
1790006678709465000,6.179465087890625,-0.11879764433801174,0.299708338239789,0.008535846220329404
1790006678719477000,6.18947705078125,-0.02837444609105587,0.6955962462961673,-0.5378337882697581
1790006678729489200,6.1994892578125,0.1544743762664497,0.32516017488241195,-0.26150018813759085
1790006678739501000,6.2095009765625,0.1507014335989952,-0.20676234351694583,-0.08424246378540992
1790006678749513000,6.219512939453125,0.38017435222640633,-0.7183259644985198,0.08197152317874133
1790006678759524000,6.229524169921875,-0.7239893970876932,-1.5005635524153709,0.7102972640827298
1790006678769536800,6.239536865234375,-0.21373393609523772,0.0058270987182855605,-0.10939042211063206
1790006678779548700,6.249548583984375,0.09731748780533671,0.14792963079810142,-0.1668664595235139
1790006678789560800,6.259560791015625,0.0014298866726458071,0.5341776038497686,-0.18771219061017036
1790006678799572700,6.26957275390625,0.21676994279026984,0.15540157411396502,-0.08020677852854133
1790006678809584600,6.279584716796875,0.25158158232197164,0.3471259229749441,-0.30996136364154514
1790006678819596800,6.2895966796875,0.15042027857005597,0.4235498219639063,-0.6743694800026715
1790006678829608700,6.299608642578125,0.05620820943415165,-0.08217091820836067,-0.08962496054135262
1790006678839619600,6.30961962890625,-0.1437919464714825,0.2157049439072609,0.42753816094771024
1790006678849631700,6.3196318359375,-0.1980576435357332,0.08846271182894706,0.2751627297218889
1790006678859643600,6.3296435546875,-0.02220949372053146,-0.2581809805870056,0.04257810881473124
1790006678869655800,6.33965576171875,0.059288493662327524,-0.07968786922097205,-0.02232471759803593
1790006678879667700,6.349667724609375,0.08705795959755777,0.22295652247071265,-0.1501736103326082
1790006678889679600,6.3596796875,0.03832870774194598,-0.10959493170678615,0.02309957442805171
1790006678899691800,6.36969189453125,-0.028902269357442854,0.0008557400465011596,0.32839784162938596
1790006678909703700,6.37970361328125,-0.028925650233030318,0.6788005943179131,0.1986740218684077
1790006678919714800,6.38971484375,0.08959595364257693,-0.07478314604461192,-0.03846219792850315
1790006678929726700,6.399726806640625,0.06373188293725252,-0.36350539536774157,0.48644488875083625
1790006678939738600,6.409738525390625,0.0341568288847804,1.1967086158901452,1.0736785216141491
1790006678949750800,6.419750732421875,0.10798632746636867,0.4680938970893621,0.4582480642490089
1790006678959762700,6.4297626953125,0.123476449804008,-0.084234865000844,0.36688393189013
1790006678969774800,6.43977490234375,-0.10660583289340138,0.03329495135843753,0.519924987417832
1790006678979786800,6.449786865234375,-0.07764028904139995,-0.03899403978288173,0.33425570081211625
1790006678989799000,6.459798828125,-0.023263386687636375,-0.060603814044594764,0.21650113578625022
1790006678999809800,6.469809814453125,-0.05125321737527847,0.016381225958466528,0.15280826968513428
1790006679009821700,6.47982177734375,0.07364829679578543,-0.23587445623278616,0.13201185763292014
1790006679019833900,6.489833740234375,0.1325996674582362,-0.11255144342482089,0.12263276552148163
1790006679029845800,6.499845703125,-0.2638264391280711,-1.5450789859682321,0.4834206455588341
1790006679039857700,6.509857666015625,-0.21548048750162124,0.18337562271058558,0.2641588128875941
1790006679049869800,6.519869873046875,0.14319324992597102,1.5930653105020522,-0.4678008324269205
1790006679059881700,6.5298818359375,0.24501930119693277,0.10355915867388248,-0.02397606500163674
1790006679069894000,6.539893798828125,0.09537176056504248,-0.18095979374051094,0.12267960033789277
1790006679079904800,6.54990478515625,-0.03062836249768734,-0.09637596917152404,0.09969188878647982
1790006679089916700,6.559916748046875,-0.15886559696272015,-1.361972827848792,0.329957784422487
1790006679099928600,6.569928466796875,-0.22428762494400142,-0.44390871938169,0.18376980965994297
1790006679109940700,6.579940673828125,-0.06454772936478256,1.6696937921524047,-0.47243550649024546
1790006679119952600,6.58995263671875,0.41120515804514285,0.1640735408693552,0.0892697173628956
1790006679129964800,6.59996484375,0.13273849140703678,-0.0852151082098484,0.08313464867398142
1790006679139976700,6.609976806640625,-0.16705635607242583,0.5947451775372028,0.23567433055080472
1790006679149988600,6.619988525390625,0.31500644513666626,-0.21125673232674597,0.14249883792102336
1790006679160000800,6.630000732421875,-0.08000760269463061,-0.5368085368752479,0.12285225349105894
1790006679170011600,6.64001171875,-0.33107553640604015,-1.8040373806685208,0.3327452962491661
1790006679180023600,6.6500234375,-0.13757745587080716,0.7558154449373483,-0.32537747089490293
1790006679190035700,6.66003564453125,0.07128171379491686,0.7517319750159979,-0.4291213384859264
1790006679200047600,6.670047607421875,0.33289281496107576,0.6688865185469388,-0.1346668291211128
1790006679210059500,6.6800595703125,-0.021335633495450017,-0.2751134106874466,-0.15064729225896298
1790006679220071700,6.69007177734375,-0.07387918294221163,-1.3675579345047473,-0.035088045320287344
1790006679230083600,6.70008349609375,-0.05049100083112716,0.6195142926126718,0.2870665910705924
1790006679240094700,6.7100947265625,0.19757862784713506,0.8033265531748532,-0.04919606564976275
1790006679250107000,6.72010693359375,-0.0020697920113801954,0.17798048566877842,0.11099413098022341
1790006679260118800,6.730118896484375,0.2874257797718048,0.8628267898917198,0.25356296539753675
1790006679270130700,6.740130615234375,0.36245603244528174,0.15962006859183311,0.20338439151644705
1790006679280142800,6.750142822265625,-0.017436287969350813,0.030033903735876083,0.3528874091111123
1790006679290154800,6.76015478515625,-0.1807354834653437,-0.17746961353719234,0.4484539615958929
1790006679300167000,6.7701669921875,-0.15579261925816534,-0.18328560633957386,0.3751598120000213
1790006679310178800,6.7801787109375,0.01765782176554203,-0.0751151544779539,0.1448996154524386
1790006679320190700,6.790190673828125,0.09875818813294172,0.07777414455413818,-0.020904037145152685
1790006679330201600,6.80020166015625,0.13051190139874816,-0.04182429477274418,-0.030063349026069042
1790006679340213800,6.8102138671875,0.15388985437676309,0.4572013316750526,0.00780322109684348
1790006679350225700,6.8202255859375,0.07583762353360653,0.03991173914968967,0.02043276637159288
1790006679360237800,6.83023779296875,-0.04841068742573261,-0.09005261136889457,0.15064670773707328
1790006679370249700,6.840249755859375,-0.0580772181764245,-0.039923429587483406,0.14893829638399184
1790006679380261600,6.85026171875,-0.05051204361915588,-0.06068856971859932,0.06182926418632269
1790006679390273800,6.860273681640625,0.02357902850806713,0.07308920160830021,-0.040358752264827484
1790006679400285700,6.87028564453125,0.07311433604955672,0.09689911626279353,-0.0774489311877638
1790006679410296600,6.880296630859375,0.11198621075749397,0.10326222155392169,0.013751461976766586
1790006679420308700,6.890308837890625,0.041219606877863406,0.05184183091819286,0.2002968007646501
1790006679430320600,6.900320556640625,-0.0782847244247794,0.0101040453851223,0.2869025596152991
1790006679440332500,6.91033251953125,-0.10752134030312299,0.007173252630233764,0.24151545779444275
1790006679450344700,6.9203447265625,-0.04355447956621647,0.025474048474431035,0.14391791093870995
1790006679460356600,6.930356689453125,0.024959084689617154,0.03669862232208252,0.10368307731449604
1790006679470368500,6.940368408203125,0.01570142700076103,0.02155599824786186,0.0471650712788105
1790006679480380700,6.950380615234375,0.1774929944127798,0.06908171953260898,-0.5358456831924617
1790006679490391800,6.960391845703125,0.2889905448704958,-0.2147019043445587,-1.697387708633393
1790006679500403700,6.97040380859375,-0.18930150562822817,0.22185528323054313,0.7723639902867376
1790006679510416000,6.980415771484375,0.12392185548394918,0.04107727579772472,0.07797726591080427
1790006679520427800,6.990427734375,-0.14840192448496817,-0.15738251879811285,0.2853950776617974
1790006679530440000,7.00043994140625,-0.17822160094827413,-0.14827391419112682,0.608616393436119
1790006679540451800,7.010451904296875,-0.025612580162286756,-0.2424702012360096,0.5011222334008664
1790006679550463700,7.020463623046875,0.17448329120278358,0.5820978774100541,2.811457934933901
1790006679560476000,7.030475830078125,0.2988052519202232,0.21118074448108673,0.8009890501379966
1790006679570486800,7.04048681640625,0.061952013783156866,0.0596785158932209,0.36303901996500787
1790006679580498700,7.050498779296875,0.042134968157112596,0.053067573320865626,0.1693703686358407
1790006679590510800,7.0605107421875,-0.06341477981209755,-0.10195523060858248,-0.016235862671025097
1790006679600522800,7.070522705078125,-0.043326223768293856,-0.15145312874913214,0.14705686655156314
1790006679610534700,7.08053466796875,0.05095218860208988,-0.14037468537390232,0.1473273175233975
1790006679620546800,7.090546875,0.18644830815419552,-0.15201426976323126,0.021648718032613395
1790006679630558700,7.100558837890625,0.16726020808145403,-0.039250644892454147,-0.23242606934458016
1790006679640570600,7.110570556640625,-0.06656506053656339,-0.06336158832013607,-0.0980492361459881
1790006679650582800,7.120582763671875,0.17005173849612473,0.2125841815382242,-0.09349146324377507
1790006679660593700,7.13059375,0.23689313175603746,0.17129940046966075,-0.25703560994416474
1790006679670605600,7.14060546875,0.1458402573034167,0.11598667857050896,-0.4197414061242714
1790006679680617700,7.15061767578125,0.09867606280744075,-0.0801829592615366,-0.42562856446672226
1790006679690629600,7.160629638671875,-0.08082081877365709,-0.2930243304312229,-0.4502282777920365
1790006679700641500,7.1706416015625,0.04613616662248969,-0.1453460440456867,-0.40045748099423945
1790006679710653700,7.18065380859375,0.2496978144019842,0.04822714755237102,-0.5860046390576288
1790006679720665600,7.19066552734375,0.3573305061250925,0.21965338927209377,-0.844077373497188
1790006679730677800,7.200677734375,0.2850631422936916,0.13860826022326944,-0.7567281758680939
1790006679740689000,7.21068896484375,0.15034414459392428,-0.034464579659700394,-0.6965857687901705
1790006679750700800,7.22070068359375,0.07337941672652959,-0.21187924813926218,-0.740237644316256
1790006679760712700,7.230712646484375,0.03723609019964933,-0.23241934734284878,-0.8858504495393484
1790006679770724600,7.240724609375,0.1709397733770311,-0.11988719314038752,-0.8616847071845084
1790006679780736500,7.250736572265625,0.3180633484892547,0.016517419558763503,-0.7088631396263837
1790006679790748700,7.260748779296875,0.3229404530063271,0.13753215542435646,-0.49324470495879646
1790006679800760600,7.270760498046875,0.19591770889759064,0.04122866696715355,-0.3341366044770926
1790006679810772500,7.2807724609375,0.08939034806787967,-0.06531506047546863,-0.11579915664177387
1790006679820783600,7.29078369140625,0.1525660584270954,-0.027459084811806676,0.051528819446265695
1790006679830795500,7.30079541015625,0.23176468282639978,-0.09104688310325146,0.04886537239067256
1790006679840807400,7.310807373046875,0.3494556810967624,0.04484218128919601,-0.17226470183786005
1790006679850819600,7.320819580078125,0.15246245192214847,-0.06804536222219466,-0.2647839590486139
1790006679860831500,7.33083154296875,0.12429039653539657,0.06194003108441829,-0.017425145520828664
1790006679870843400,7.340843505859375,0.09123860628306865,-0.05788695630133152,0.37404227921217675
1790006679880855600,7.35085546875,0.11438684215843677,0.10136427897810936,0.6042599883249029
1790006679890867500,7.360867431640625,0.05273892588838935,0.00961246247589588,0.6897796689718961
1790006679900878300,7.37087841796875,0.16954320445209742,0.07854045275151729,0.641962125133723
1790006679910890500,7.380890380859375,0.23075433674007653,0.08658522751927375,0.5700419307721778
1790006679920902400,7.39090234375,0.03597250000461936,0.0236281283468008,0.5336118962584063
1790006679930914600,7.40091455078125,-0.19590441102460027,-0.04923953946530819,0.628126638135314
1790006679940926500,7.410926513671875,-0.21942630251795053,0.041673488125205035,0.7820801323328167
1790006679950938400,7.4209384765625,-0.09471417343914508,0.12619418433010576,0.9305101138684898
1790006679960950500,7.430950439453125,-0.06120996324419975,0.20801029775142668,0.968259414287284
1790006679970962400,7.44096240234375,-0.07531038478910923,0.16022037257254124,0.8065083980813622
1790006679980974300,7.450974365234375,-0.1616506976366043,0.0700391663879156,0.43283444072492416
1790006679990985700,7.46098583984375,-0.409876101398468,-0.09475158284008503,0.14948197480663655
1790006680000997600,7.47099755859375,-0.5035153390824795,-0.12140811909735202,0.2462083283184096
1790006680011009500,7.481009521484375,-0.30926410209238525,0.06939385422170162,0.36234745750427244
1790006680021021700,7.491021728515625,0.02370703880190849,0.25175123980045316,0.21826463832743465
1790006680031033600,7.50103369140625,0.2568463709823787,0.34108430472314355,-0.3347428632745519
1790006680041045500,7.51104541015625,0.202541510951519,0.28211949005722997,-1.2861422185778617
1790006680051057700,7.5210576171875,-0.564983076480031,-0.26073651028871536,-1.4990857349477706
1790006680061069600,7.531069580078125,-0.6416026441715658,-0.739980162423849,-1.4496227619901298
1790006680071080400,7.54108056640625,0.13990633720979093,-0.18535890548229217,-0.5873593781348317
1790006680081092600,7.551092529296875,0.5229717347025871,-0.010990765091776848,-0.9206987678196281
1790006680091104500,7.5611044921875,0.21312837141752242,-0.03722995271980762,-1.0082195956885813
1790006680101116400,7.571116455078125,-0.05596504832804203,-0.09106792589128017,-0.4435949407247826
1790006680111128600,7.581128662109375,-0.04176818067133426,0.06025836160778999,0.3550802429802716
1790006680121140500,7.591140380859375,-0.022159955490380523,-0.000026888006925582884,0.8753386270709336
1790006680131152600,7.601152587890625,0.15670608084127305,0.17650982859432696,0.7330863112568855
1790006680141164500,7.61116455078125,0.15487243567332626,0.12750234431922436,0.44803610151000317
1790006680151176400,7.621176513671875,0.12637246350646017,-0.025412089154124257,0.585276215185225
1790006680161187300,7.631187255859375,0.17441431761980056,-0.05227320807278156,0.7249635028168558
1790006680171199500,7.641199462890625,-0.004034954604506492,-0.07096972523629665,0.43878363145291804
1790006680181211400,7.65121142578125,-0.15342004490792752,0.07325579034686087,0.3010289193190634
1790006680191223600,7.6612236328125,0.15162717014178634,0.2552911043643951,0.44861371873486783
1790006680201235500,7.6712353515625,0.4972568632096052,0.3067056497812271,0.41338414605204016
1790006680211247400,7.681247314453125,0.3023743425786495,-0.013614099332690238,0.0889523585094139
1790006680221259500,7.691259521484375,0.11493570821285247,-0.221480604699254,-0.31717882073968645
1790006680231271400,7.701271484375,0.23549217891693114,-0.1119061312586069,-0.40829942666627467
1790006680241282600,7.711282470703125,0.27268764484524727,-0.0017038813084363936,-0.29830596062857656
1790006680251294700,7.721294677734375,0.21873598216623066,0.06868658273518086,-0.337388628542982
1790006680261306600,7.731306640625,0.25912498343884943,0.04616963050067425,-0.6854428088113665
1790006680271318500,7.741318603515625,0.17135960622429847,-0.06426759724915027,-0.813709050175175
1790006680281330700,7.75133056640625,0.15403218545690178,-0.09269874196350573,-0.655083983970061
1790006680291342600,7.761342529296875,0.331533655437082,-0.08491700204610825,-0.5805225543847308
1790006680301354500,7.7713544921875,0.36630642426311966,-0.1023252329647541,-0.8205211413428187
1790006680311366700,7.78136669921875,0.19894012545868753,-0.09970774394273757,-1.075313940796256
1790006680321378600,7.791378662109375,0.28256124247536063,-0.033062311646342275,-0.956131169598177
1790006680331389400,7.801389404296875,0.5377246288068592,0.057796939930319785,-0.5867738333318382
1790006680341401600,7.811401611328125,0.451900302657485,0.05213876803815364,-0.47070415265299376
1790006680351413500,7.82141357421875,0.19061317274868486,-0.02266717436015606,-0.7887320645026862
1790006680361425700,7.83142578125,0.2241173829436302,-0.08544073365926742,-1.177357068884
1790006680371437600,7.8414375,0.37158874858021734,-0.09619710547327995,-1.2827680659696459
1790006680381449500,7.851449462890625,0.40396249344050883,-0.08689502412080764,-1.229871611431986
1790006680391461600,7.861461669921875,0.4209036913692951,-0.10329027860462665,-1.3074261218860745
1790006680401473500,7.8714736328125,0.6444659246481955,-0.014503157126903534,-1.142665621665865
1790006680411484400,7.881484375,0.6049059215456247,-0.1308849724948406,-0.670363970688358
1790006680421496600,7.89149658203125,0.8055664410561323,-0.19944003780484199,-0.21638015802139415
1790006680431508500,7.901508544921875,0.7200824527770281,-0.06793605662882328,0.2110097718283534
1790006680441520400,7.911520263671875,0.37636589985415336,-0.23566695096194742,-0.7397661543469876
1790006680451532500,7.921532470703125,0.12132789346799254,-0.37316929576992985,-1.343644413345307
1790006680461544400,7.93154443359375,0.19489172685071826,-0.17140695249736307,-1.9751210925608873
1790006680471556400,7.941556396484375,0.0015155191294848919,-0.11664192760884762,-1.6165978695198893
1790006680481568500,7.951568603515625,-0.15134499219954012,-0.10507190132439136,-1.4018939193487165
1790006680491580400,7.961580322265625,-0.04304726069644093,0.013469137904047966,-1.4709186479970813
1790006680501591600,7.971591552734375,-0.3032243835367262,-0.34605274078547954,-1.6823083590537309
1790006680511603700,7.981603759765625,-0.48376551347374913,-0.19682430234849452,-1.3802467356860637
1790006680521615600,7.99161572265625,-0.4750198969602585,-0.1250298167258501,-0.8383153759043663
1790006680531627500,8.00162744140625,-0.11990370588377118,0.32362755848765373,-0.6932523865837603
1790006680541639700,8.0116396484375,-0.1618418362945318,0.3030050416976213,-0.771460246380046
1790006680551651600,8.021651611328124,-0.5746107365250587,-0.08400105624496937,-0.612135178679414
1790006680561663700,8.031663818359375,-0.9614211657650769,-0.4088561107009649,-0.1035478700948879
1790006680571675600,8.041675537109375,-1.0674059441506862,-0.5595405931651591,0.11230280242599547
1790006680581686500,8.0516865234375,-0.721308925832063,-0.16747487374544143,-0.10330796039178967
1790006680591698400,8.061698486328124,-0.4467249458462,0.08821078289449215,-0.24969262677021323
1790006680601710600,8.071710693359375,-0.5459833385862409,0.12614683805704116,-0.09652918697185814
1790006680611722500,8.081722412109375,-0.939260771883279,-0.16405775877833365,0.29118717813193795
1790006680621734700,8.091734619140626,-1.2481238919593394,-0.419648722872138,0.24084618023075163
1790006680631746600,8.10174658203125,-1.0473692644245922,-0.08804185606837273,1.1525315474461764
1790006680641758500,8.111758544921875,-0.769070647829771,0.12715922996997833,0.9905829628415406
1790006680651770600,8.1217705078125,-0.8221974039919674,0.06842413240671158,0.986032971386984
1790006680661782500,8.131782470703126,-1.1047833425171674,-0.028698855739831924,0.9162692609395832
1790006680671793400,8.14179345703125,-1.3833831340156495,-0.20367782150506972,0.8223193498712033
1790006680681805600,8.1518056640625,-1.2667431061029433,-0.10092588756084442,1.131300835629925
1790006680691817500,8.1618173828125,-0.9075551355428993,0.1934668086141348,1.580307243476808
1790006680701829400,8.171829345703125,-0.8560235396176576,-0.03050970455408096,1.234309740009904
1790006680711841500,8.181841552734374,-0.9452041904576122,-0.31563129903674125,0.9751086956601589
1790006680721853400,8.191853515625,-0.9459675760455429,-0.3744821319341659,0.7562035674721003
1790006680731865600,8.201865478515625,-0.8409262159898877,-0.2996235825657844,0.7225790188331157
1790006680741877500,8.21187744140625,-0.7746494708754121,-0.0854682061880827,0.7996464033573866
1790006680751889400,8.221889404296874,-0.8371358837962151,0.07832184156477451,1.0879355219602584
1790006680761900500,8.231900634765625,-0.9021521074555814,0.29089842431843277,1.2541837765201926
1790006680771912400,8.241912353515625,-1.061339775979519,0.18305822732448576,1.552969008565694
1790006680781924600,8.251924560546875,-0.6559685847848653,0.1427314776331186,2.7529645371720193
1790006680791936500,8.2619365234375,-1.4328576512806117,0.5850806926131248,3.1099542670354245
1790006680801948700,8.27194873046875,-1.1089964301675557,0.762791129168868,3.888326411695778
1790006680811960600,8.281960693359375,-1.0966064658023416,0.3765916714340448,2.509430798357725
1790006680821972700,8.29197265625,-0.9265269625164568,0.29415128863453865,1.3474261238411067
1790006680831984600,8.301984619140624,-0.9056810122340917,0.3982026147395372,0.7107645893335341
1790006680841996500,8.31199658203125,-0.8674336991652846,0.34610710132122036,-0.20961203385964033
1790006680852007700,8.322007568359375,-0.8382634265214204,0.35436522657871244,-0.7511218802936375
1790006680862019600,8.33201953125,-0.8681067761212586,0.27618951548635956,-0.5810929381512105
1790006680872031700,8.34203173828125,-0.9044771894022822,0.05505436322391033,-0.655956017564237
1790006680882043600,8.352043701171874,-0.8003548438876866,-0.12973404889404774,-0.5986152969688177
1790006680892055800,8.362055908203125,-0.5655430484503507,0.028633389288187025,-0.6357328753553331
1790006680902067700,8.372067626953125,-0.5727690541811287,0.2771744348704815,-0.7672678361915052
1790006680912079600,8.38207958984375,-0.7458914322942495,0.273256969165802,-0.7738819936342537
1790006680922091800,8.392091796875,-0.8474294604040682,0.05134907896518707,-0.7763080517373978
1790006680932102700,8.4021025390625,-0.5821949080437422,0.07349778240919112,-0.5625424053296446
1790006680942114600,8.412114501953125,-0.23042042861059306,0.38717736285626886,-0.3659972121834755
1790006680952126700,8.422126708984376,-0.17820275011733172,0.5536433518201113,-0.3699816056445241
1790006680962138600,8.432138671875,-0.4680331068128347,0.30657413235604764,-0.6189411688998341
1790006680972150500,8.442150634765625,-0.7695990556180476,0.007813888621330261,-0.9461562304854393
1790006680982162700,8.45216259765625,-0.7697749967068434,0.06331073491573333,-1.0524513899944723
1790006680992174600,8.462174560546876,-0.6709095488071442,0.020451836398243904,-0.9018930181279778
1790006681002186500,8.4721865234375,-0.39640594058111306,0.18928455449342727,-0.668943071039766
1790006681012198700,8.48219873046875,-0.36806539675965905,0.0037380174845457075,-0.6813438490599394
1790006681022210600,8.49221044921875,-0.227356364864856,0.4597410792857408,-0.6374101609177887
1790006681032221400,8.502221435546875,-0.33640783734470603,0.3735696932643652,-0.3723803373493254
1790006681042233600,8.512233642578124,-0.5912123272359371,0.037794600865244866,-0.04241816901266575
1790006681052245500,8.52224560546875,-0.7566168244481086,-0.23374153585731983,0.040766748543828724
1790006681062257700,8.532257568359375,-0.5017617734134197,-0.24694822343289852,-0.09138663645163178
1790006681072269600,8.54226953125,0.10867343294769524,0.36788930954039095,-0.2633627671390772
1790006681082281500,8.552281494140624,0.22603870639503001,0.6293342603594064,-0.22535963808968662
1790006681092293600,8.562293701171875,-0.31677944615855813,0.35851708556115625,-0.049098377428948875
1790006681102305500,8.572305419921875,-0.9494999879553914,-0.30980712292790413,0.1320486094467342
1790006681112317400,8.5823173828125,-0.8041992443561553,-0.5099240370810032,0.24276202378943562
1790006681122328800,8.592328857421874,-0.004433744663745165,-0.14210370112359522,0.4691062890022993
1790006681132340700,8.6023408203125,0.4678285241514444,0.10806173079013824,0.573743013779819
1790006681142352600,8.6123525390625,0.47131870435476303,0.23984862056076525,0.47752106612622736
1790006681152364800,8.62236474609375,-0.0279635272026062,0.3606108429700136,0.4384117294006049
1790006681162376700,8.632376708984374,-0.6853526463098824,-0.16400748989582062,0.5990759002178907
1790006681172388600,8.642388671875,-0.4210879618950188,-0.3216238174498081,0.7044932539790868
1790006681182400800,8.65240087890625,0.2206919385395944,-0.03415945923328399,1.1594577665127812
1790006681192412700,8.66241259765625,0.6387579222649336,0.42024201259016986,0.9455896826438606
1790006681202424800,8.6724248046875,0.6729223499342799,0.3613789047330618,0.8531573365315794
1790006681212435700,8.682435791015624,0.4375914990589022,0.4090729683220386,0.8635692788220941
1790006681222447600,8.692447509765625,-0.3209343738809228,-0.3889034559965133,0.8161981635771691
1790006681232459500,8.70245947265625,-0.4543357131108641,-0.6631394993275403,0.6695240857981145
1790006681242471700,8.7124716796875,0.04659720826297998,-0.34864509536623955,0.41539340351521964
1790006681252483600,8.722483642578124,0.6447764519020914,0.4154045094311237,0.5823330013401806
1790006681262495700,8.732495849609375,0.7905316612705587,0.677282590970397,0.86588018611297
1790006681272507600,8.742507568359375,0.6603273645162582,0.31110651508867737,0.9547634614415467
1790006681282519600,8.75251953125,0.28842940385639665,-0.4829845922291279,0.9137636347942054
1790006681292531700,8.76253173828125,-0.28127602497041226,-0.757958886706829,0.6915156989842652
1790006681302542600,8.77254248046875,-0.1283648063674569,-0.29254326891601085,0.7929162183195352
1790006681312554500,8.782554443359375,0.5820946625396609,0.43447804321348665,0.9053614248909055
1790006681322566700,8.792566650390626,0.7968294462405144,0.643994069352746,0.8722804085440933
1790006681332578600,8.80257861328125,0.2745133989676833,0.020966800183057785,0.8266264724805951
1790006681342590500,8.812590576171875,-0.26224881454780696,-0.878738644772768,0.7396136671990156
1790006681352602600,8.8226025390625,-0.11164908775761723,-0.816270205900073,0.5594144825674593
1790006681362614500,8.832614501953126,0.15306260977238415,-0.366980962523818,0.3196889038644731
1790006681372626400,8.84262646484375,0.40899756499826906,0.2966203090965748,0.10721972700804472
1790006681382638600,8.852638671875,0.7527046194404363,1.1105594417005777,0.23386735419407487
1790006681392649700,8.862649658203125,0.1825865181595087,0.4883738840520382,0.46892903273925185
1790006681402661600,8.87266162109375,-0.2932856117159128,-0.07170330020785332,0.5279752420783043
1790006681412673800,8.882673828125,-0.3227516524359584,-0.764033238184452,0.29122838692516084
1790006681422685700,8.892685791015625,0.09451075982153415,-0.3857780174523592,0.005523731857538223
1790006681432697600,8.902697509765625,0.4505604323558509,0.4356178608983755,-0.009572714987397193
1790006681442709800,8.912709716796876,0.17111498381346463,0.5237333667248487,0.23423662589788435
1790006681452721700,8.9227216796875,-0.33367461298853157,0.1772831510543823,0.5194878381095827
1790006681462733800,8.93273388671875,-0.42330680698826906,-0.28300913237333297,0.6773875126495957
1790006681472745700,8.942745849609375,0.05959083760976791,-0.42669221164286136,0.7539350380182266
1790006681482757600,8.952757568359376,0.759543379419297,0.07965688956081866,0.6940845265589654
1790006681492768800,8.962768798828124,1.0842167936980724,0.8803975178956985,0.578466096778959
1790006681502780700,8.97278076171875,0.3253355314493179,0.34178514646887775,0.6874377820208668
1790006681512792600,8.98279248046875,-0.6349988619923591,-0.46446810780763625,0.8139993383586406
1790006681522804700,8.9928046875,-0.6077620416291057,-0.6640718117415905,1.3027134141504764
1790006681532816600,9.002816650390624,0.24752865366935728,-0.3081453271955252,1.2589321400910616
1790006681542828500,9.01282861328125,0.9214879454359411,0.040996611776947973,0.9562877483993768
1790006681552840700,9.0228408203125,1.1242375461801886,0.4287637572199106,0.8496646721102297
1790006681562852600,9.0328525390625,0.6359326357111335,-0.18608429714739322,0.9188776168070732
1790006681572864800,9.04286474609375,0.152637662358582,-0.5321954901218414,1.093135720951855
1790006681582875600,9.052875732421874,0.4910549398295581,-0.3755634974300861,1.1491814333006738
1790006681592887600,9.062887451171875,2.0425285952709613,0.025907179194688795,1.106414889241755
1790006681602899500,9.0728994140625,1.2131298815980553,0.14326280803084374,1.437223883666098
1790006681612911600,9.08291162109375,0.7011889517366886,0.6140554426848888,1.4347973871715367
1790006681622923500,9.092923583984375,-0.3092377986073494,-0.2868067710906267,1.2524600214675068
1790006681632935700,9.102935791015625,0.313582988204807,-0.11271920120716095,1.366188838108629
1790006681642947600,9.112947509765625,1.0032067359626293,-0.12395312740504741,1.578601754733175
1790006681652959500,9.12295947265625,0.6813647457174956,-0.583757919576764,1.5574918928176165
1790006681662971600,9.1329716796875,-0.0391457232132554,-0.7932628398001194,1.5411434000849722
1790006681672982800,9.142982666015625,-0.6640121905088424,-0.5160439812660217,1.600047570604831
1790006681682994700,9.15299462890625,-0.5151806424349546,0.5255611666738986,1.8308857862360775
1790006681693006800,9.1630068359375,-0.017705314169079063,0.9831570506244898,1.7815791728839276
1790006681703018800,9.173018798828124,0.15478548804223535,0.4650023608148098,1.3047589485034345
1790006681713030700,9.18303076171875,-0.2691863587260246,-0.15622341189086436,0.7960235366851091
1790006681723042800,9.193042724609375,-0.9983289007931947,-0.8351502629369497,0.6169131702035665
1790006681733054700,9.2030546875,-1.231846710897237,-0.7354132928997278,0.5790821828506887
1790006681743066600,9.213066650390624,-0.9331466729171574,0.18419219979047774,0.6383635161198675
1790006681753078800,9.223078857421875,-0.8779274745203555,0.6150976452142,0.5910033606603742
1790006681763090700,9.233090576171875,-0.7586150125280022,0.8701526027351617,0.5283556196980178
1790006681773101300,9.243101318359376,-0.3989842666365206,1.0181249036312103,0.4325998282514512
1790006681783113200,9.25311328125,-0.6156449038334191,0.3706628659069538,0.22380086434036492
1790006681793125400,9.26312548828125,-1.2919624491639434,-0.5176555081158876,-0.05431333559826016
1790006681803137300,9.27313720703125,-1.7117571563780307,-0.7014706912875175,-0.2632103530563414
1790006681813149400,9.2831494140625,-1.7206798830240964,-0.7415607096135616,-0.6761505182005465
1790006681823161300,9.293161376953124,-0.898481456118822,0.14273089311122894,-0.6401924851126969
1790006681833173200,9.30317333984375,0.21810002235025167,0.9143225838512181,-0.6028402211874723
1790006681843185400,9.313185302734375,1.0351023419171572,1.069334866386652,-0.7085042431861162
1790006681853197300,9.323197265625,0.5472801003985107,0.3087894703179598,-1.0710089370787144
1790006681863208200,9.333208251953126,-0.6486766742110252,-1.1312392416357993,-1.4400003626421094
1790006681873220400,9.343220458984375,-0.6792267107754946,-1.471536195373535,-2.1326576328769327
1790006681883232300,9.353232177734375,0.277775907894969,-0.6133966865152121,-2.1120266405195
1790006681893244200,9.363244140625,1.414934456577152,0.5209498734861612,-1.6491859877832233
1790006681903256300,9.37325634765625,1.7429383304528892,1.0323825615644455,-1.5100444974660872
1790006681913268200,9.383268310546875,1.0386913063198326,0.5672311476677656,-1.4278819086946546
1790006681923280400,9.3932802734375,0.17680705797523258,-0.3113555214136839,-1.4209811893954871
1790006681933292300,9.403292236328125,-0.1525923619121313,-1.1359206774502992,-1.2510887331143021
1790006681943304200,9.41330419921875,0.3755532682970166,-0.6540525220304727,-1.0540804525010288
1790006681953316400,9.42331640625,0.7535995224535464,-0.12326865227222442,-1.138873389776051
1790006681963327500,9.433327392578125,1.0168680354379116,0.5388678074926138,-1.1369300006233154
1790006681973339400,9.44333935546875,0.6281050108253955,0.728064683702588,-1.0309702105484901
1790006681983351600,9.4533515625,-0.4723962704584002,-0.40530864735245703,-0.9183034701809286
1790006681993363500,9.463363525390625,-0.3413403253108263,-0.18088322137296198,-0.7910968939378857
1790006682003375400,9.473375244140625,0.2781757208675146,-0.1907382604330778,-0.9154508572287857
1790006682013387500,9.483387451171875,0.8742042162135243,0.30766543472409247,-0.9282954334937036
1790006682023399400,9.4933994140625,0.5270813619785011,0.05219254405200481,-0.9377851463727652
1790006682033411300,9.503411376953125,-0.04714052135944366,-0.08340367487370967,-1.0332236885637045
1790006682043422500,9.51342236328125,-0.37348230724185705,-0.13261807989776134,-0.9297757351793349
1790006682053434400,9.523434326171875,0.07623261420056224,-0.06703355483114719,-0.7114825283445417
1790006682063446300,9.5334462890625,0.9985457584142684,0.28574469481706616,-0.5163929408341645
1790006682073458400,9.54345849609375,1.0918743227139114,-0.05100011939704418,-0.3642500762552023
1790006682083470300,9.55347021484375,0.4346864252671599,-0.4917138421297073,-0.2873984533734619
1790006682093482200,9.563482177734375,0.1994375535868108,-0.538658548656106,-0.2108794234469533
1790006682103494400,9.573494384765626,0.5192756566636264,-0.2948579755991697,0.02357566750720143
1790006682113506300,9.58350634765625,0.8362310439109801,0.15659750590026378,0.31070728663802144
1790006682123518500,9.5935185546875,0.9801640062883495,0.21744506557285784,0.371065309228003
1790006682133530400,9.6035302734375,0.9284748817138373,0.20752572910487652,0.28556583111882206
1790006682143541200,9.613541259765626,0.38336452656984327,-0.15480360822081565,0.11202040528804064
1790006682153553200,9.62355322265625,0.04033142586648464,-0.4368512020856142,0.0546329229414463
1790006682163565300,9.6335654296875,0.30053353701755403,-0.3604898469388485,0.09421075396165252
1790006682173577200,9.6435771484375,0.42832989584729075,-0.20924071632921695,0.14847396680787206
1790006682183589400,9.65358935546875,0.21966654101461172,-0.052123570469021795,0.31129546178951856
1790006682193601300,9.663601318359374,0.4005141065523028,0.45528293083310123,0.5283579577855766
1790006682203613200,9.67361328125,0.23735914183259008,0.43316228443980215,0.9396626306824386
1790006682213625300,9.683625244140625,-0.3784764622673392,-0.10408522837460041,1.0893047644868492
1790006682223637200,9.69363720703125,-0.6329542044222355,-0.2514683312058449,1.1032989491783083
1790006682233648400,9.7036484375,-0.4334171359837055,-0.1863946782708168,0.8844216588452458
1790006682243660500,9.71366064453125,0.07690262241661548,0.25011516303122044,0.5096760536693036
1790006682253672400,9.72367236328125,0.42405075722336766,0.47809682018756866,0.16275617466047404
1790006682263684400,9.733684326171876,0.4039259608224034,0.402764808088541,0.06904694048017262
1790006682273696500,9.743696533203124,-0.01593289766907692,-0.11041560043990611,0.24730419726371763
1790006682283708400,9.75370849609375,-0.43222178871929645,-0.590640080305934,0.3958301865197718
1790006682293720300,9.76372021484375,-0.4505021262973547,-0.6365297248214483,0.3607693945325911
1790006682303732500,9.773732421875,0.2737286783307791,0.06477846938073635,0.17732216789051888
1790006682313744400,9.783744384765624,0.9014658787570893,0.7086480355709791,0.02951967060342431
1790006682323755300,9.79375537109375,0.6009829028829932,0.47249359335303304,0.006659311758726835
1790006682333767400,9.803767333984375,0.20661124460846184,0.1739934618592262,0.05057371067851781
1790006682343779300,9.813779296875,-0.052959729032218454,-0.37231589381098745,0.18253800284266472
1790006682353791500,9.82379150390625,-0.19921382783353328,-0.6326613589555025,0.2182454221703112
1790006682363803400,9.833803466796875,0.02781067472845316,-0.39189679259359833,0.3194182702295482
1790006682373815300,9.843815185546875,0.2428174072384834,-0.0053606502503156656,0.39793680341020227
1790006682383827500,9.853827392578125,0.1829956834822893,0.20835107401311395,0.3903228212751448
1790006682393839400,9.86383935546875,0.07076718840152024,0.24081074359118937,0.36786987418755884
1790006682403851300,9.873851318359375,0.09656287004575133,0.2260270159572363,0.3081105481430888
1790006682413862400,9.8838623046875,-0.037677696487307545,0.12201309925317763,0.21580402036756277
1790006682423874300,9.893874267578125,-0.3731044138401747,-0.19212065470218656,0.06986907051801682
1790006682433886200,9.90388623046875,-0.5182283395677805,-0.28064883298277854,-0.016157207944244144
1790006682443898400,9.9138984375,-0.5336839751139283,-0.05710486601293087,0.11765344273895025
1790006682453910300,9.92391015625,-0.45173605200648304,0.16869769353866576,0.39178368760794396
1790006682463922200,9.933922119140625,-0.3196668381631374,0.4021843778520822,0.5639550486065447
1790006682473934300,9.943934326171876,-0.42350656734406944,0.2502373281061649,0.5264942097403109
1790006682483946200,9.9539462890625,-0.5755553238987923,0.10208674803376197,0.4773188215523958
1790006682493958400,9.96395849609375,-0.6223324187733232,0.05190145215094089,0.6440320632755756
1790006682503969500,9.973969482421875,-0.6881535290747881,0.10316752900779247,0.8586492119461298
1790006682513981400,9.9839814453125,-0.8028259101763368,0.08008125245273112,0.9184525232627987
1790006682523993300,9.993993408203124,-1.0153519317865372,-0.03616261574923992,1.0966979434780775
1790006682534005500,10.004005615234375,-1.0098489504560828,-0.14266951831281185,1.069756306669116
1790006682544017400,10.014017333984375,-0.7973109461471438,-0.020271219134330748,0.9920223479948937
1790006682554029600,10.024029541015626,-0.54194268489331,0.35003859555125233,0.9005239217318594
1790006682564041500,10.03404150390625,-0.5598726015985012,0.5809744263380766,0.781993257766962
1790006682574053400,10.044053466796875,-0.8360108252890408,0.6542103429406881,0.8557112587980925
1790006682584064300,10.054064208984375,-1.1418383770614862,0.47874037878811354,0.9153627405539154
1790006682594076400,10.064076416015626,-1.414390705089271,-0.04703355385363102,0.8203669736944138
1790006682604088300,10.07408837890625,-1.3349271461434662,-0.19406652807295321,0.5717455563522875
1790006682614100500,10.0841005859375,-1.3209179100133477,-0.4019108216077089,0.36884047278538346
1790006682624112400,10.0941123046875,-1.1613171306438743,0.056469490718841546,0.2825526207774877
1790006682634124300,10.104124267578126,-0.8878865584768354,0.7708277206301689,0.3622637247435748
1790006682644136400,10.114136474609374,-0.9285381562083959,0.9259066386610268,0.36259734061211346
1790006682654148400,10.1241484375,-1.2848605082042515,0.5213046782732009,0.4062327764600515
1790006682664160300,10.13416015625,-1.6980859200306235,-0.10217559536099434,0.37108123744949695
1790006682674171400,10.14417138671875,-1.5460943004906176,-0.02841010192632675,0.25393369840607044
1790006682684183300,10.154183349609376,-1.2778922766268253,0.2994926496624946,0.016536124259233474
1790006682694195200,10.1641953125,-1.141382596118003,0.6884405293226241,-0.14192162255495785
1790006682704207400,10.174207275390625,-1.2780430832743643,0.6373901410430669,-0.018245412395149468
1790006682714219300,10.18421923828125,-1.8220899008400737,-0.3432061191827059,0.23270590919926762
1790006682724231200,10.194231201171876,-1.8589923751711845,-0.3118850982457399,0.42042087628841396
1790006682734243300,10.204243408203125,-1.5061768622525036,0.2668845115244388,0.445072502464056
1790006682744255200,10.214255126953125,-1.1419558659613132,1.3104010460436344,0.4042236285947263
1790006682754267400,10.224267333984375,-1.2956667105093598,1.0768465571910142,0.4702879000023007
1790006682764278500,10.234278564453126,-1.6437708308666943,0.23636662366390226,0.5788887061052024
1790006682774290700,10.244290771484375,-1.8637037677325308,-0.1324929922133684,0.7348923377655446
1790006682784302600,10.254302490234375,-1.58656498869732,0.1453992355376482,0.8558101891279221
1790006682794314800,10.264314697265625,-1.530523952523619,0.07269640289843082,0.9527947917170823
1790006682804326700,10.27432666015625,-2.076884015467763,-0.2628787830144167,0.9942330097816884
1790006682814338600,10.284338623046875,-1.5827771407216786,0.8113029388815164,1.0379651840023696
1790006682824350700,10.294350830078125,-1.0944865510389208,0.8093623262077569,1.3367436940461397
1790006682834362600,10.304362548828125,-1.1574375127315522,0.6350888783633709,1.5237258168160914
1790006682844374800,10.314374755859374,-1.3979549724645912,0.8709569048553705,1.9954165693536399
1790006682854386000,10.324385986328124,-1.9702423806086182,-0.2404120996624231,1.964209530185163
1790006682864397800,10.334397705078125,-2.1966614646233618,-0.6490957764059305,1.728882040310651
1790006682874409700,10.34440966796875,-1.5695847739323974,0.2824620198845863,1.6087831041157246
1790006682884422000,10.354421875,-0.4748480475246906,1.4596440975278615,1.6000114763781428
1790006682894433800,10.364433837890624,-0.7392210146196186,0.7612140891104936,1.5957678474590182
1790006682904446000,10.374446044921875,-1.9779637686409055,-0.19750117869675157,1.661957352681458
1790006682914457900,10.384457763671875,-2.614835292637348,-0.8075497238278389,1.6338672764897346
1790006682924469800,10.3944697265625,-1.9208660630211234,-0.8867308125704526,1.5704447517625986
1790006682934480600,10.404480712890624,-0.0021297055050730706,1.212470248645544,1.6281337012737989
1790006682944492800,10.414492919921875,-0.18151947344988584,0.8768898020356893,1.5257745660394428
1790006682954504700,10.424504638671875,-1.7841539918079972,-0.42273967462480067,1.150970508674532
1790006682964516900,10.434516845703126,-2.27053261038959,-0.8738134633302688,0.8734098509654402
1790006682974528800,10.44452880859375,-0.8638089327968657,-0.05472527740001678,0.5609586432695388
1790006682984540700,10.454540771484375,-0.038702071098983284,0.3189432000637054,0.18570844957232474
1790006682994552800,10.464552734375,-0.38664310984909533,0.191086635479331,0.0186317813642323
1790006683004564700,10.474564697265626,-0.46568347494676704,0.36720892606079575,-0.1543380365356803
1790006683014576600,10.48457666015625,-0.8302449552386999,-0.5899830777019262,-0.4112636102341115
1790006683024587800,10.494587890625,-0.10118336945325136,-0.28689561841785904,-0.6057970251664518
1790006683034599700,10.504599609375,0.8233896825164556,-0.20048691650927067,-0.8407706601019949
1790006683044611600,10.514611572265625,0.9503355619966983,-0.4299222796052694,-1.7376020839914679
1790006683054623700,10.524623779296874,1.2947947499804198,0.1035100588351488,-2.6094819489106533
1790006683064635600,10.5346357421875,1.55591412210688,0.15210662422180174,-2.4339286903887984
1790006683074647600,10.5446474609375,0.8676777370542287,-0.9691028063088655,-1.892298140184581
1790006683084659700,10.55465966796875,0.9486239357732236,-0.4441477888345718,-0.9433629465050994
1790006683094671600,10.564671630859374,1.71302673792243,-0.5627905348718166,-0.22000001075267792
1790006683104682800,10.574682861328125,2.5829534229472277,-0.18205694132745265,0.20759601786211132
1790006683114695000,10.58469482421875,2.183054817944765,0.26714988446235655,0.13807612610794603
1790006683124706800,10.594706787109375,2.193907928131521,0.6876338891148567,-0.2685503258448094
1790006683134719000,10.604718994140624,1.5125969584278762,-0.3233265297144651,-0.5150032400414347
1790006683144731000,10.61473095703125,0.8892705601811408,-0.7306944476842879,-0.6160988581459969
1790006683154742800,10.62474267578125,0.4673262737177312,-1.1747440368413924,-0.29012181392274794
1790006683164755000,10.6347548828125,0.6415200804546475,-0.9012912528425454,0.03537687219902873
1790006683174766800,10.644766845703124,1.4193074109643697,0.23925533084273337,-0.2133145416393876
1790006683184778800,10.65477880859375,1.5573023615948856,1.0329524704068898,-0.5884396476522088
1790006683194790000,10.664789794921875,0.9004832974605261,0.7341250066548586,-1.256081719096005
1790006683204801800,10.6748017578125,-0.10077917256653308,-0.2508995914071798,-1.8164698690012095
1790006683214813700,10.684813720703126,-0.7999686210490763,-1.3617828582346438,-2.015176331834495
1790006683224825900,10.694825927734374,-0.5370284632362425,-1.3404103998601435,-1.0861077220112085
1790006683234837800,10.704837646484375,0.6531126108318567,0.3266758401423693,1.712042110799253
1790006683244849700,10.714849609375,0.3979243823200464,0.8313438563913107,5.021023158663511
1790006683254861800,10.72486181640625,-0.3107791828304529,0.3372165233790874,6.586918722689151
1790006683264873700,10.734873779296874,-0.4349779555596411,-0.4519698607623577,6.70598232448697
1790006683274884600,10.744884521484375,-0.7270968615837394,-1.0120686723321675,6.073719024938344
1790006683284896800,10.754896728515625,-0.5578957485675812,-0.5238204604864121,5.512241910752654
1790006683294908700,10.76490869140625,-1.4659627791553735,-1.5997773753613234,5.816316042986512
1790006683304920600,10.774920654296874,-0.8049642373792827,-0.20240531735122202,6.290563786530495
1790006683314932700,10.7849326171875,0.6181583479590713,1.5982494351416825,7.1052797487258905
1790006683324944600,10.794944580078125,-0.24504195142015814,0.6965238825350999,7.3207497148334975
1790006683334956800,10.804956787109376,-1.6108992194868623,-0.40925358558595176,6.887779738095403
1790006683344968700,10.81496875,-1.2471068238712846,-0.9822679928302764,2.558603117805719
1790006683354980600,10.824980712890625,-0.34451018751859663,-0.7595213137179613,-1.3356889242962002
1790006683364991700,10.83499169921875,0.4699496079586446,-0.189120888364315,-3.3184172769904134
1790006683375004000,10.84500390625,0.16746420622095465,0.14975275457203388,-4.714798278136551
1790006683385015800,10.855015869140624,1.3026193061262368,-0.8154121277660131,-5.54401009093523
1790006683395028000,10.865028076171875,2.5095921263992786,0.5707359409183264,-7.4003615962088105
1790006683405039900,10.875039794921875,-0.2212299909390509,0.5796615901738404,-4.63150858503133
1790006683415051800,10.8850517578125,0.6138795015960932,1.028067620974779,-1.3652075719863175
1790006683425064000,10.89506396484375,3.4894758544415234,0.6942699661284685,-3.1297400407403706
1790006683435075800,10.905075927734375,2.20387300343737,0.08389642682671547,-4.360639095523953
1790006683445086700,10.915086669921875,-1.4941507627636192,-1.8349241018414497,-4.483972921986878
1790006683455099000,10.925098876953125,-0.508643057359755,0.2481903324484825,-3.7860987938866018
1790006683465110800,10.93511083984375,-0.17714988006353377,0.7335942607790231,-3.443164769643545
1790006683475122700,10.945122802734375,-0.9166846368074416,0.953044236433506,-4.246864247784019
1790006683485134800,10.955134765625,0.1819365298181772,1.8170242880135774,-5.0244496259808535
1790006683495146800,10.965146728515625,0.04181961859762669,-0.3705284258723259,-5.1726890533804895
1790006683505158700,10.97515869140625,-0.13659107518196106,-0.8223527406841517,-5.418842327043413
1790006683515170800,10.9851708984375,-1.2097962071307002,-1.2200427297264336,-5.008413267937303
1790006683525182700,10.9951826171875,-0.9990754813767969,-0.7315414199024438,-5.5448705071568485
1790006683535193600,11.005193603515625,0.398502328338474,0.13713117340803146,-5.917654018479586
1790006683545205800,11.015205810546876,1.4544054662220178,0.76575290158391,-5.772027403926849
1790006683555217700,11.0252177734375,2.2886882986746726,1.7568775700867174,-5.791409565266966
1790006683565229800,11.035229736328125,0.8729758434623479,0.1775976238310337,-5.7559355163037775
1790006683575241700,11.04524169921875,0.21245675576627254,-0.9481775071799754,-4.850158934740722
1790006683585253600,11.055253662109376,-0.0804138454079628,-1.812638620275259,-2.8228374070823192
1790006683595265800,11.065265869140624,0.6615840865790844,-0.7516881358742713,-0.8476512864612042
1790006683605277700,11.075277587890625,1.5448597902595995,0.9224018454104661,-0.4376067696932703
1790006683615288800,11.085288818359375,1.065262356250733,0.9761386962950229,-1.6045543805047868
1790006683625301000,11.095301025390626,1.6701976500213145,1.9711188711822032,-1.2542708702817558
1790006683635313000,11.10531298828125,1.0622791026562453,-0.9480658634990453,0.26564306009598077
1790006683645324800,11.11532470703125,-0.3212644826181233,-2.6992800009965894,0.6070172146111726
1790006683655337000,11.1253369140625,-1.6938808695562182,-2.107595964595675,0.1505677972819656
1790006683665348900,11.135348876953126,0.40437443524226546,-0.4906342301994562,0.6904888401545584
1790006683675360800,11.14536083984375,1.2185666658245027,0.7754238162487744,0.8906050967205316
1790006683685373000,11.155373046875,0.9648673606961965,1.6928695005565881,1.7028578106075525
1790006683695383800,11.1653837890625,1.3340811968386173,1.381365510582924,3.6675849349260328
1790006683705395700,11.175395751953126,1.3186724691741167,0.010838204878568649,3.771916831538081
1790006683715408000,11.185407958984374,-1.3526672393649817,-2.297216619175672,3.821467628909647
1790006683725419800,11.195419677734375,-2.3986492872148752,-2.740088396725058,4.00149218762666
1790006683735431700,11.205431640625,2.9915426994055507,1.4740981548160315,4.712331303501129
1790006683745443800,11.21544384765625,4.167900308923423,0.9200713566362857,3.373308558607101
1790006683755455700,11.225455810546874,-0.5900432834565639,-1.2715958068311213,2.071380157354474
1790006683765468000,11.235468017578125,-1.467421307400614,-0.5510872375965118,2.5009400333881375
1790006683775479600,11.2454794921875,1.426071206010878,0.7771861497461795,1.6811857847645877
1790006683785490400,11.255490478515625,3.3094834444284436,1.634662810781598,0.9598429566629231
1790006683795502600,11.265502685546876,0.9660945644035935,1.1255582733899354,1.063548172743991
1790006683805514500,11.275514404296874,0.8688945654980837,-2.168272259354591,0.5870174328293651
1790006683815526700,11.285526611328125,-1.5556336977303027,-3.1750971858143804,-0.1827478462010622
1790006683825538600,11.29553857421875,-4.204543109405041,-2.683058934035897,-0.7847972092717885
1790006683835550500,11.305550537109376,-6.082681499072909,0.011678747355937958,1.6380001385107636
1790006683845562600,11.315562744140625,-4.317866413985192,7.496985987183451,3.6028754391282796
1790006683855574500,11.325574462890625,9.302385303854942,1.9182196401655673,6.584409370216727
1790006683865585700,11.335585693359375,-3.884958104306459,-1.8705629859775303,-0.33500359656997025
1790006683875597800,11.345597900390626,-1.5908499725401402,-0.28317981276512144,-3.141796389237046
1790006683885609700,11.355609619140624,2.3392751610957085,0.28918051448464394,-6.2870660075426095
1790006683895621600,11.36562158203125,-0.6727832337245345,-1.398348209565878,-2.0064286694943902
1790006683905633800,11.3756337890625,-2.0659075711622834,-1.8099065649628638,3.138844553694129
1790006683915645700,11.385645751953126,-0.590804038695991,1.3223913435667753,3.452412490460276
1790006683925657600,11.39565771484375,1.3254039693862198,3.1179929043233394,1.7210690284721553
1790006683935669800,11.405669677734375,1.4645213481754065,1.5053402652978896,0.7357560419227928
1790006683945680600,11.4156806640625,-1.7895437220223247,-1.6468290493935345,2.8215418143138287
1790006683955692500,11.425692626953126,-4.532392961762845,-3.420293597143888,4.291411245518923
1790006683965704700,11.43570458984375,-3.370710943329334,-1.6076684208720922,4.252608636654913
1790006683975716600,11.445716552734375,0.5185311219066381,2.808244233584404,3.4323899853900075
1790006683985728500,11.455728515625,0.4711671670548618,2.8093285216897725,2.5681612197458743
1790006683995740700,11.46574072265625,-1.2195945475675165,0.709752197420597,3.303578312037885
1790006684005752600,11.475752685546874,-3.391155180943012,-1.393487325531244,4.163561987458169
1790006684015764700,11.4857646484375,-4.817020927509665,-2.168276935529709,4.345984547227621
1790006684025776600,11.495776611328125,-2.720519188380241,-0.7479021875947713,4.892953828111291
1790006684035787500,11.50578759765625,0.025116467208415268,0.47430853382050986,6.63302405578196
1790006684045799400,11.51579931640625,1.2185229728132485,1.806198358094692,6.549771772077679
1790006684055811600,11.5258115234375,0.041081367450952526,0.4872001640975475,4.2744583571523425
1790006684065823500,11.535823486328125,-2.119035788629204,-1.0443675983905791,2.645030232153833
1790006684075835600,11.545835693359376,-3.1863264358371493,-2.006785812368989,1.877187518683821
1790006684085847600,11.55584765625,-1.9098054475635289,-0.984150737836957,3.0127485690414906
1790006684095859500,11.565859375,0.6626145986706018,0.24552725071907042,3.779944070649147
1790006684105871600,11.57587158203125,1.8097015439100563,1.406611595520377,2.64137989295274
1790006684115882800,11.5858828125,-0.2236819141358137,-0.18766425981521606,1.3553776673674582
1790006684125894700,11.595894775390626,-1.813470394924283,-0.7378238611727953,0.5000486858852208
1790006684135906800,11.60590673828125,-1.8941497594006358,-0.8572422677576541,-0.026132512383162974
1790006684145918700,11.615918701171875,-1.4752853187739847,-1.2454121487826109,-0.4799273600829765
1790006684155930600,11.6259306640625,0.6015433132447302,1.0875544136881827,-1.4555802090898156
1790006684165942800,11.63594287109375,0.664314242195338,1.3913544051557778,-1.9038313415899872
1790006684175954700,11.64595458984375,-1.1949277238227427,-0.4548597369849682,-2.60806126845777
1790006684185966600,11.655966552734375,-1.0964822549007833,-0.03290682882368565,-2.8246771897301075
1790006684195977700,11.665977783203125,-1.1317029136247931,-0.004031447473168373,-2.2964986801646647
1790006684205989600,11.67598974609375,-1.3693876341499387,-0.5824912606418132,-2.5076523905083534
1790006684216001500,11.68600146484375,-0.2528460492998361,-0.06811316676139831,-3.4545307977885007
1790006684226013700,11.696013671875,0.7945240919075905,1.4577256966859102,-3.7766044048324225
1790006684236025600,11.706025634765625,-0.9876450096935033,-0.2826929060310125,-3.741420278726518
1790006684246037800,11.716037841796876,-0.6312649361610412,0.040133272945880885,-4.790811258237063
1790006684256049700,11.726049560546874,-0.6084710666812956,-0.03927753289937973,-3.9548315587386487
1790006684266061600,11.7360615234375,-0.7780202624827622,-0.018276830446720124,-3.0737825911968946
1790006684276073700,11.74607373046875,0.18715631029307842,0.5256885924458503,-1.773655978669226
1790006684286084600,11.756084716796876,0.3461024251461029,-0.42523324500620363,-1.1949894639473408
1790006684296096500,11.766096435546874,0.7273118195086717,1.016416930669546,-1.1826107516285032
1790006684306108700,11.776108642578125,-1.0403193459130824,-0.5153045610755682,-1.460682939056307
1790006684316120600,11.78612060546875,-0.901918737091124,0.4497790727198124,-1.5469308974452316
1790006684326132500,11.796132568359376,-0.8368415770247578,0.6513508618563413,-1.19282731747739
1790006684336144600,11.80614453125,-0.9812148305155336,0.3613555238574743,-0.8322448968842625
1790006684346156500,11.816156494140625,-0.30664851276651023,0.7738017680048942,-0.042552271120576184
1790006684356168400,11.82616845703125,-0.887062236481905,-0.32554245219826694,0.14573656860007903
1790006684366179600,11.8361796875,-0.9487979771658778,-0.4707938036978245,-0.08508130749603733
1790006684376191700,11.846191650390624,0.23615736482739447,0.4785691138744354,-0.3474439759481698
1790006684386203600,11.85620361328125,-0.37863486769944427,-0.7351619484871625,-0.6055064447220414
1790006684396215600,11.866215576171875,-0.5682343333609402,0.38531215350627895,-0.4350521898396313
1790006684406227700,11.876227783203126,0.003040390609204769,0.18544950637519358,-0.06211975329918786
1790006684416239600,11.886239501953124,1.4267330309204755,1.1542056912034748,0.28003777014603837
1790006684426251800,11.896251708984375,0.1591439755126834,-0.4400432761251926,0.9806539817623794
1790006684436263700,11.906263671875,-0.3842921628087759,-0.5426140082836151,1.7870783548220992
1790006684446275600,11.916275634765626,0.4872426880650222,0.7258686349630356,2.303301345916837
1790006684456286700,11.92628662109375,-0.5317839867115021,-0.5192144279956817,2.968477173377573
1790006684466298600,11.936298583984374,-0.0446247391462326,0.11190963838994503,3.0323753527924415
1790006684476310500,11.946310546875,0.9502163195312022,-0.059252983957529065,3.000615648177266
1790006684486322700,11.95632275390625,1.4343898292839525,0.5270055202633143,2.2489375953055917
1790006684496334600,11.96633447265625,-0.39125747177675363,-1.1764414884090424,1.7435948946654796
1790006684506346800,11.9763466796875,-1.2715941993959248,-1.2537433392763138,1.5754681328825653
1790006684516358700,11.986358642578125,-0.35378728056028486,0.10258885233700275,1.7180727692656217
1790006684526370600,11.99637060546875,0.39920799238979815,0.4986813430547714,1.7777698437288403
1790006684536381700,12.006381591796876,1.0790732933297753,0.9020645753026008,1.9085972408175467
1790006684546393600,12.0163935546875,0.6191371298633516,0.29391105013787744,2.09360864803642
1790006684556405500,12.026405517578125,-0.6264911458879708,-0.8428519233554601,2.4319788714952764
1790006684566417700,12.036417724609375,-1.215721067135036,-0.514642882296443,2.6288050735399127
1790006684576429600,12.0464296875,-0.7709276738733053,-0.17457096948623657,2.456746671396494
1790006684586441500,12.05644140625,0.08810264634490013,-0.03442015599608421,1.9067472290366887
1790006684596453600,12.06645361328125,0.8546803083151578,0.6591705956965684,1.7366224253043532
1790006684606465500,12.076465576171875,-0.31905951991975307,-0.7528554260879755,1.3007754318252205
1790006684616476400,12.086476318359376,-0.3867595758356154,0.3950543798416853,1.4612607389442622
1790006684626488600,12.096488525390624,-1.132838201265037,-0.5598895527333021,1.8273264863193035
1790006684636500500,12.10650048828125,-0.046640755143761634,0.6931085211336613,2.047270967492461
1790006684646512400,12.116512451171875,0.03697042500078678,-1.078098603078723,1.6704409572578967
1790006684656524500,12.126524658203126,1.0818354515194892,0.6998784536600112,0.8515819769736379
1790006684666536400,12.136536376953124,1.2945628409206866,0.8690829276770353,-0.5893244676627218
1790006684676548600,12.146548583984375,0.4172919306129217,0.292214767614007,-1.8511948531627653
1790006684686560500,12.156560546875,-0.4534552770145237,-0.4762731118917465,-1.566804495564103
1790006684696571600,12.166571533203125,-0.032173838374018666,-0.001519172391295433,-1.4727663216903806
1790006684706583600,12.17658349609375,0.88360245141685,0.5514531482994556,-1.2435016389861702
1790006684716595700,12.186595703125,0.393706472364068,-0.3325456089586019,-1.8776753022007644
1790006684726607600,12.196607666015625,-0.15712883629798888,-0.333466815456748,-2.5680352552786467
1790006684736619800,12.206619873046876,0.07187982581853866,0.4679214631319046,-3.3269925053730605
1790006684746631700,12.216631591796874,0.06139291859567165,0.14133622388243675,-2.974505347625911
1790006684756643600,12.2266435546875,-0.0029600188493728637,-0.5059919583290815,-2.8432997648745775
1790006684766655700,12.23665576171875,0.8710773163646459,1.3813590808421372,-2.7919539007797836
1790006684776667100,12.246667236328125,0.14784838225543498,0.6389888084113597,-3.227377408149838
1790006684786679000,12.256678955078126,-0.8008968418098986,0.2190676983386278,-4.0581174534291025
1790006684796691200,12.266691162109375,-1.7491662650570272,-0.6662421415179968,-5.2242310245692725
1790006684806703000,12.276703125,-0.34844431209713217,0.5978869826942682,-5.807824693495035
1790006684816715000,12.286715087890625,1.390043030296266,2.143428909999132,-7.294991588720679
1790006684826727200,12.29672705078125,-0.16120996813178062,0.1001730233669281,-5.566963681021332
1790006684836739000,12.306739013671875,-0.5091992299377918,-0.038058220237493515,-5.113691505488753
1790006684846751200,12.316751220703125,-0.15220789263918996,-0.036759412598609924,-5.022269943854212
1790006684856763100,12.32676318359375,-1.4266630344241857,-1.9186504327982663,-5.017551683160662
1790006684866774000,12.33677392578125,0.857091461110115,1.5456132389754056,-5.660829713198543
1790006684876786000,12.346785888671874,-0.021277473567426205,-1.0425596721857786,-4.825606092764437
1790006684886798000,12.356798095703125,-0.37859570473283527,-0.5231856697142124,-4.855191960471868
1790006684896810000,12.36681005859375,-0.6324645212091505,-0.8301660447835921,-4.29038102568835
1790006684906822100,12.376822265625,-0.2925368391752243,-0.4427899444848299,-4.697457267235219
1790006684916834000,12.386833984375,0.2466564008794725,0.0874590877443552,-4.035716236528754
1790006684926846000,12.396845947265625,0.6113204647630452,0.06948913128972053,-3.206881148087978
1790006684936858000,12.406858154296875,1.5182177209191023,0.5279337410241365,-1.8932957729198037
1790006684946869200,12.416869140625,0.3308461115643382,-1.0479437033116816,-0.8281487866770476
1790006684956881200,12.426881103515624,0.660551528660953,-0.3920785789012909,-1.2987953639239072
1790006684966893300,12.436893310546875,0.22192893298864363,0.023976503393054006,-1.6144789776697754
1790006684976905200,12.4469052734375,-0.30294658950865266,-0.6729279028922319,-2.2403771261006593
1790006684986917000,12.456917236328126,0.5825374378710985,-0.3022439941972494,-1.7821863449968396
1790006684996929300,12.46692919921875,0.5789201241567731,-0.5465425799041986,-1.6224641312047838
1790006685006941200,12.476941162109375,1.5255240984097123,1.128537581461668,-0.8158539532493799
1790006685016953000,12.486953125,0.1869745239853859,-0.7223427989244461,0.7192709902636707
1790006685026964200,12.496964111328126,-0.584562952349335,-0.7837175973415375,0.04387801243215799
1790006685036976000,12.50697607421875,-0.10758534545004367,-0.30604572456777096,0.14364961539134383
