time,seconds_elapsed,z,y,x
1790006672570937600,0.0409375,0.2653869390487671,-0.3281576335430145,0.2721114158630371
1790006672580949800,0.05094970703125,0.27509307861328125,-0.46787744760513306,0.34440532326698303
1790006672590961700,0.060961669921875,0.2335837334394455,-0.567923367023468,0.38675597310066223
1790006672600972500,0.07097265625,0.1843235045671463,-0.6181921362876892,0.4142611026763916
1790006672610984700,0.080984619140625,0.15562447905540466,-0.5684815645217896,0.4393882751464844
1790006672620996600,0.09099658203125,0.16601985692977905,-0.4128378927707672,0.45257678627967834
1790006672631008500,0.101008544921875,0.18566253781318665,-0.10241132974624634,0.4741057753562927
1790006672641020700,0.111020751953125,0.2201765775680542,0.09852764010429382,0.5365848541259766
1790006672651032600,0.121032470703125,0.1958073228597641,0.05054013803601265,0.5995553135871887
1790006672661044700,0.131044677734375,0.11209617555141449,-0.1909976452589035,0.7395721077919006
1790006672671056000,0.141055908203125,0.006684267893433571,-0.32675522565841675,0.9148195385932922
1790006672681067800,0.15106787109375,-0.048774462193250656,-0.30764198303222656,1.1043952703475952
1790006672691079700,0.16107958984375,-0.02442065440118313,-0.20383915305137634,1.285205364227295
1790006672701091800,0.171091796875,0.019213108345866203,-0.06297603249549866,1.422257423400879
1790006672711103700,0.181103759765625,0.04662396013736725,0.06139491870999336,1.4974126815795898
1790006672721116000,0.191115966796875,0.04469716548919678,0.09087930619716644,1.507938265800476
1790006672731127800,0.2011279296875,0.012396748177707195,0.03867975249886513,1.4095176458358765
1790006672741138700,0.211138671875,-0.040938377380371094,-0.08692903816699982,1.2166163921356201
1790006672751150800,0.22115087890625,-0.10555199533700943,-0.21826522052288055,0.9580258727073669
1790006672761162800,0.231162841796875,-0.19280806183815002,-0.2705635726451874,0.6660773754119873
1790006672771175000,0.2411748046875,-0.2965158224105835,-0.2243146002292633,0.356294184923172
1790006672781187000,0.25118701171875,-0.37423670291900635,-0.13908012211322784,0.09759180247783661
1790006672791199000,0.261198974609375,-0.42448416352272034,-0.07449580729007721,-0.07607266306877136
1790006672801211000,0.2712109375,-0.47458168864250183,-0.0514000728726387,-0.16861191391944885
1790006672811222000,0.281221923828125,-0.5470167398452759,-0.02256602980196476,-0.2091609388589859
1790006672821234000,0.29123388671875,-0.6104694604873657,0.05235055461525917,-0.22696897387504578
1790006672831245800,0.301245849609375,-0.6416479349136353,0.16469840705394745,-0.20494648814201355
1790006672841258000,0.311258056640625,-0.6431563496589661,0.2741186320781708,-0.1429651379585266
1790006672851270000,0.321269775390625,-0.6420891880989075,0.33111533522605896,-0.028207935392856598
1790006672861281800,0.33128173828125,-0.6317098140716553,0.2876485586166382,0.13339374959468842
1790006672871294000,0.3412939453125,-0.593555212020874,0.14251160621643066,0.28991836309432983
1790006672881305000,0.35130517578125,-0.5134225487709045,-0.011886753141880035,0.41439610719680786
1790006672891317000,0.36131689453125,-0.44166502356529236,-0.09794706851243973,0.479312002658844
1790006672901329200,0.3713291015625,-0.3921850919723511,-0.10779517143964767,0.49219876527786255
1790006672911341000,0.381341064453125,-0.3814549446105957,-0.1048305407166481,0.47271400690078735
1790006672921353200,0.391353271484375,-0.412701815366745,-0.1304866373538971,0.45440584421157837
1790006672931365000,0.401365234375,-0.46138039231300354,-0.15508651733398438,0.4549693763256073
1790006672941376000,0.4113759765625,-0.48437201976776123,-0.1058816909790039,0.47342002391815186
1790006672951388000,0.421387939453125,-0.47843554615974426,0.052438974380493164,0.5122843384742737
1790006672961400000,0.431400146484375,-0.46214258670806885,0.26696646213531494,0.556114912033081
1790006672971412000,0.441411865234375,-0.4277486801147461,0.41351833939552307,0.6065930128097534
1790006672981424000,0.451424072265625,-0.3833702802658081,0.4517967402935028,0.6577153205871582
1790006672991436000,0.46143603515625,-0.29840853810310364,0.36668211221694946,0.6308855414390564
1790006673001448000,0.471447998046875,-0.14510126411914825,0.03259789198637009,0.48893266916275024
1790006673011458800,0.481458740234375,0.05112869665026665,-0.5140209794044495,0.2556304335594177
1790006673021471000,0.491470947265625,0.17616437375545502,-1.125616192817688,0.033912159502506256
1790006673031483000,0.50148291015625,0.24389362335205078,-1.5124338865280151,-0.1026637926697731
1790006673041495000,0.5114951171875,0.33553990721702576,-1.5404226779937744,-0.1194707378745079
1790006673051507000,0.5215068359375,0.45454034209251404,-1.249505877494812,-0.06714042276144028
1790006673061518800,0.531518798828125,0.5061023235321045,-0.8392581939697266,0.017009343951940536
1790006673071531000,0.541531005859375,0.4059371054172516,-0.6317864656448364,0.11441978812217712
1790006673081542000,0.5515419921875,0.20429135859012604,-0.6704979538917542,0.16734212636947632
1790006673091554000,0.561553955078125,0.05276148021221161,-0.7633980512619019,0.12093893438577652
1790006673101566000,0.57156591796875,0.017360348254442215,-0.8658314943313599,-0.029436718672513962
1790006673111578000,0.581578125,0.09780246019363403,-0.880537748336792,-0.21962609887123108
1790006673121590000,0.591590087890625,0.2610156238079071,-0.6982520818710327,-0.3573259115219116
1790006673131602200,0.601602294921875,0.44456228613853455,-0.436054527759552,-0.3859245181083679
1790006673141614000,0.611614013671875,0.6331311464309692,-0.2825462222099304,-0.2999851107597351
1790006673151625000,0.621625,0.22735033929347992,-0.34701067209243774,-0.27025386691093445
1790006673161637000,0.63163720703125,-0.36513349413871765,-0.6581313014030457,-0.441690057516098
1790006673171649000,0.64164892578125,-0.7256836891174316,-0.023687219247221947,-0.6097477674484253
1790006673181661000,0.651660888671875,-0.6483508348464966,0.8864566087722778,-0.6348640322685242
1790006673191673000,0.661673095703125,-0.3311334550380707,1.1190546751022339,-0.6301009654998779
1790006673201685000,0.67168505859375,-0.052203815430402756,1.3516274690628052,-0.5906883478164673
1790006673211695900,0.68169580078125,0.14241546392440796,1.3306809663772583,-0.493917852640152
1790006673221708000,0.6917080078125,0.17611883580684662,1.3702669143676758,-0.3176698386669159
1790006673231720000,0.701719970703125,0.24073830246925354,1.5860706567764282,-0.10278736799955368
1790006673241731800,0.71173193359375,0.27064213156700134,1.742941975593567,0.03674949333071709
1790006673251744000,0.721743896484375,0.23991379141807556,1.6832911968231201,0.01040656864643097
1790006673261756000,0.731755859375,0.14678597450256348,1.4966908693313599,-0.1248370036482811
1790006673271768000,0.74176806640625,0.07756003737449646,1.2771707773208618,-0.24606117606163025
1790006673281779000,0.751779052734375,0.03574042022228241,1.1535801887512207,-0.3094148337841034
1790006673291790800,0.761790771484375,-0.01399011816829443,0.9921087026596069,-0.35716718435287476
1790006673301802800,0.771802734375,-0.17222076654434204,0.8150902986526489,-0.3115229904651642
1790006673311815000,0.78181494140625,-0.33844783902168274,0.6285145282745361,-0.11176301538944244
1790006673321826800,0.791826904296875,-0.4281505346298218,0.4350276291370392,0.15118126571178436
1790006673331839000,0.8018388671875,-0.42339786887168884,0.2261495143175125,0.40815046429634094
1790006673341850000,0.81185009765625,-0.2740086615085602,0.07151146978139877,0.5958585739135742
1790006673351862000,0.821862060546875,0.004914597608149052,-0.14973916113376617,0.6796714663505554
1790006673361874200,0.831874267578125,0.22669865190982819,-0.5595988631248474,0.755402684211731
1790006673371886000,0.841885986328125,0.2899564504623413,-0.9587281346321106,0.8796700835227966
1790006673381898000,0.85189794921875,0.3267573416233063,-1.2377480268478394,0.9552218317985535
1790006673391910100,0.86191015625,0.3703833818435669,-1.2930294275283813,0.8794580698013306
1790006673401922000,0.871922119140625,0.22894610464572906,-0.7119585871696472,0.6563038229942322
1790006673411933000,0.881932861328125,0.2643296420574188,0.3395802080631256,0.361145943403244
1790006673421945000,0.891945068359375,0.6049788594245911,1.0295021533966064,0.06513932347297668
1790006673431957000,0.90195703125,1.082947850227356,1.1341071128845215,-0.31797611713409424
1790006673441969000,0.911968994140625,1.3507025241851807,0.9741707444190979,-0.7552013993263245
1790006673451981000,0.92198095703125,1.4327332973480225,0.7903470993041992,-1.1539373397827148
1790006673461993000,0.931992919921875,1.2949879169464111,0.54969322681427,-1.4977977275848389
1790006673472003800,0.94200390625,1.1001334190368652,0.48222416639328003,-1.709902048110962
1790006673482016000,0.95201611328125,0.9451582431793213,0.5585170984268188,-1.6938245296478271
1790006673492028000,0.96202783203125,0.744626522064209,0.8239369988441467,-1.5186949968338013
1790006673502039800,0.972039794921875,0.6247605681419373,1.0935823917388916,-1.1975311040878296
1790006673512052000,0.982052001953125,0.6686446666717529,1.1967068910598755,-0.8278114199638367
1790006673522064000,0.99206396484375,0.792234480381012,1.2066458463668823,-0.4493301212787628
1790006673532075800,1.00207568359375,0.9773162007331848,1.189138412475586,-0.01531876903027296
1790006673542087200,1.012087158203125,1.1677823066711426,1.1621960401535034,0.45718884468078613
1790006673552099000,1.02209912109375,1.3122222423553467,1.562691569328308,0.758754551410675
1790006673562111000,1.032111083984375,1.4804389476776123,1.6083897352218628,1.0063211917877197
1790006673572123100,1.042123046875,1.5697518587112427,0.8373015522956848,1.0674058198928833
1790006673582135000,1.052135009765625,1.2645496129989624,-0.40414029359817505,0.9508954882621765
1790006673592147000,1.06214697265625,0.7460105419158936,-1.1469746828079224,0.9232726693153381
1790006673602158000,1.072157958984375,0.3503417670726776,-1.4808530807495117,1.139438509941101
1790006673612170000,1.082169921875,0.11732742190361023,-1.7056691646575928,1.5888181924819946
1790006673622182000,1.092181884765625,-0.06189665570855141,-1.7588591575622559,2.1803603172302246
1790006673632194000,1.102194091796875,-0.17508207261562347,-1.6133933067321777,2.8223323822021484
1790006673642206000,1.1122060546875,-0.2365446239709854,-1.154985785484314,3.4769201278686523
1790006673652218000,1.122218017578125,-0.27123841643333435,-0.48371925950050354,4.114635467529297
1790006673662229000,1.13222900390625,-0.2856171131134033,0.3018527925014496,4.720738410949707
1790006673672241000,1.142240966796875,-0.27234017848968506,1.0963659286499023,5.259807109832764
1790006673682252800,1.152252685546875,-0.21008825302124023,1.7514950037002563,5.729348659515381
1790006673692265000,1.162264892578125,-0.049259692430496216,2.181424379348755,6.151101112365723
1790006673702276900,1.17227685546875,0.21907375752925873,1.8488026857376099,6.409311294555664
1790006673712289000,1.1822890625,0.5292036533355713,0.2992061376571655,6.328993797302246
1790006673722300200,1.192300048828125,0.8436800837516785,-1.6859420537948608,5.80006742477417
1790006673732312000,1.20231201171875,1.057088017463684,-2.7546768188476562,5.022151470184326
1790006673742324000,1.212323974609375,1.162375569343567,-2.9890224933624268,4.275267124176025
1790006673752336100,1.222336181640625,1.2428730726242065,-2.8365345001220703,3.6940197944641113
1790006673762348000,1.23234814453125,1.3088229894638062,-2.541268825531006,3.2393908500671387
1790006673772359200,1.242359130859375,1.3458342552185059,-2.238128900527954,2.8485889434814453
1790006673782371300,1.252371337890625,1.3740425109863281,-1.9386481046676636,2.4425604343414307
1790006673792382200,1.26238232421875,1.4120361804962158,-1.5796023607254028,2.0400309562683105
1790006673802394000,1.27239404296875,1.4550907611846924,-1.2455692291259766,1.7350600957870483
1790006673812406300,1.28240625,1.492388367652893,-0.9819173216819763,1.558995008468628
1790006673822418200,1.292418212890625,1.5258333683013916,-0.7989882826805115,1.4593368768692017
1790006673832430000,1.30243017578125,1.5566238164901733,-0.6850204467773438,1.3520277738571167
1790006673842442200,1.312442138671875,1.5760624408721924,-0.5814447402954102,1.1601581573486328
1790006673852453000,1.322453125,1.5438212156295776,-0.4622347354888916,0.901691198348999
1790006673862465000,1.332465087890625,1.425614833831787,-0.34319037199020386,0.6203572750091553
1790006673872477200,1.342477294921875,1.1990677118301392,-0.25494998693466187,0.34723252058029175
1790006673882489000,1.352489013671875,0.9588258862495422,-0.24889503419399261,0.14866085350513458
1790006673892501200,1.362501220703125,0.7691624760627747,-0.32703644037246704,0.05031563341617584
1790006673902513200,1.37251318359375,0.6762743592262268,-0.443485289812088,0.09050193428993225
1790006673912524300,1.382524169921875,0.6323841214179993,-0.5724509954452515,0.29407742619514465
1790006673922536200,1.3925361328125,0.6000714302062988,-0.7241803407669067,0.5760289430618286
1790006673932548400,1.40254833984375,0.553809642791748,-0.9187492728233337,0.8756811618804932
1790006673942560300,1.412560302734375,0.4822896718978882,-1.132857322692871,1.1419093608856201
1790006673952572400,1.422572509765625,0.39103779196739197,-1.2651983499526978,1.3240810632705688
1790006673962584300,1.432584228515625,0.2932198941707611,-1.24126398563385,1.4517778158187866
1790006673972596200,1.44259619140625,0.2032039761543274,-1.0348809957504272,1.5639435052871704
1790006673982607000,1.452607177734375,0.1174432709813118,-0.6169076561927795,1.66396164894104
1790006673992619300,1.462619384765625,0.014372015371918678,0.03686214238405228,1.7273768186569214
1790006674002631200,1.472631103515625,-0.14974342286586761,0.8892161846160889,1.6649068593978882
1790006674012643300,1.482643310546875,-0.3704797923564911,1.8443200588226318,1.4257062673568726
1790006674022655200,1.4926552734375,-0.588254451751709,2.768934965133667,1.035742163658142
1790006674032667100,1.502667236328125,-0.7925040125846863,3.574493885040283,0.5479515194892883
1790006674042678000,1.512677978515625,-0.9652590155601501,4.066795825958252,0.09844747930765152
1790006674052690200,1.522690185546875,-1.0564911365509033,3.7210302352905273,-0.1038864478468895
1790006674062702000,1.5327021484375,-0.8633765578269958,2.0947067737579346,0.22606082260608673
1790006674072714200,1.54271435546875,-0.43536266684532166,-0.18728813529014587,0.792907178401947
1790006674082726100,1.55272607421875,-0.281988263130188,-1.3949168920516968,0.9051397442817688
1790006674092738000,1.562738037109375,-0.3140154480934143,-1.647214651107788,0.7807040810585022
1790006674102750200,1.572750244140625,-0.42308202385902405,-1.3295516967773438,0.5200969576835632
1790006674112761300,1.58276123046875,-0.5192232131958008,-0.873676598072052,0.26431262493133545
1790006674122773200,1.592773193359375,-0.5748076438903809,-0.6317838430404663,0.15804103016853333
1790006674132785400,1.602785400390625,-0.6241043210029602,-0.5955581665039062,0.16369253396987915
1790006674142797300,1.61279736328125,-0.6600096225738525,-0.633085310459137,0.22264692187309265
1790006674152809200,1.622809326171875,-0.7042524218559265,-0.6154804825782776,0.319453626871109
1790006674162821400,1.6328212890625,-0.7345296740531921,-0.45479121804237366,0.3380400836467743
1790006674172832300,1.642832275390625,-0.7226961851119995,-0.17449776828289032,0.22275876998901367
1790006674182844200,1.65284423828125,-0.6391797065734863,-0.01483567152172327,0.09691056609153748
1790006674192856300,1.662856201171875,-0.49919143319129944,-0.14522004127502441,0.08373244851827621
1790006674202868200,1.6728681640625,-0.37148618698120117,-0.5167637467384338,0.19952775537967682
1790006674212880100,1.682880126953125,-0.2748350203037262,-0.8752856850624084,0.31962087750434875
1790006674222892300,1.692892333984375,-0.21916191279888153,-1.1159987449645996,0.4057794511318207
1790006674232904200,1.702904296875,-0.2045598030090332,-1.2268844842910767,0.4390588402748108
1790006674242915000,1.7129150390625,-0.2166215181350708,-1.2272067070007324,0.42134058475494385
1790006674252927200,1.72292724609375,-0.19642889499664307,-1.1461166143417358,0.4027152359485626
1790006674262939100,1.732939208984375,-0.13322515785694122,-0.9349253177642822,0.35367336869239807
1790006674272951000,1.742950927734375,-0.07970095425844193,-0.6585275530815125,0.28063085675239563
1790006674282963200,1.752963134765625,-0.040771398693323135,-0.4718242585659027,0.2247241884469986
1790006674292975000,1.76297509765625,-0.003519101068377495,-0.4050854444503784,0.2179832011461258
1790006674302987300,1.7729873046875,0.015389875508844852,-0.38044828176498413,0.20594437420368195
1790006674312998400,1.782998291015625,0.003922570031136274,-0.3508589565753937,0.1550212800502777
1790006674323010300,1.79301025390625,-0.06532307714223862,-0.33135342597961426,0.04319434240460396
1790006674333022200,1.803022216796875,-0.2112099826335907,-0.18870200216770172,-0.2373606264591217
1790006674343034400,1.813034423828125,-0.40238073468208313,-0.028916336596012115,-0.6430234313011169
1790006674353046300,1.82304638671875,-0.5566563010215759,-0.12547217309474945,-1.0237367153167725
1790006674363058400,1.833058349609375,-0.6366568803787231,-0.46595650911331177,-1.3058725595474243
1790006674373070300,1.8430703125,-0.6577930450439453,-0.8974205851554871,-1.4557770490646362
1790006674383081200,1.853081298828125,-0.6281883120536804,-1.2314296960830688,-1.459902286529541
1790006674393093400,1.86309326171875,-0.5697444081306458,-1.3007317781448364,-1.374707818031311
1790006674403105300,1.873105224609375,-0.5527478456497192,-1.1030895709991455,-1.2797123193740845
1790006674413117200,1.8831171875,-0.5714272856712341,-0.8394736647605896,-1.196225881576538
1790006674423129300,1.89312939453125,-0.5255916118621826,-0.7900214195251465,-1.0627565383911133
1790006674433141200,1.903141357421875,-0.3622133433818817,-0.9132962226867676,-0.7710344195365906
1790006674443153200,1.913153076171875,-0.4354854226112366,-0.6657697558403015,-0.5349372029304504
1790006674453164300,1.923164306640625,-0.7213741540908813,-0.6327316761016846,-0.21900318562984467
1790006674463176200,1.93317626953125,-1.0416243076324463,-0.3504458963871002,0.07078362256288528
1790006674473188000,1.94318798828125,-1.1024144887924194,-0.18706096708774567,-0.3849002718925476
1790006674483200300,1.9532001953125,-0.9638025164604187,-0.7656689286231995,-1.0722289085388184
1790006674493212200,1.963212158203125,-0.8269450664520264,-0.9023215770721436,-1.1009646654129028
1790006674503224000,1.97322412109375,-0.7764589786529541,-0.8532792329788208,-0.6156714558601379
1790006674513236200,1.983236328125,-0.6743794679641724,-1.0175526142120361,-0.2751689851284027
1790006674523248000,1.993248046875,-0.4538162350654602,-0.965564489364624,-0.13304167985916138
1790006674533259300,2.00325927734375,-0.18982639908790588,-0.46604812145233154,0.248007133603096
1790006674543271400,2.013271484375,0.04791799187660217,0.4817671775817871,0.9740357398986816
1790006674553283300,2.023283447265625,0.27299025654792786,1.3835883140563965,1.8465077877044678
1790006674563295200,2.033295166015625,0.5838927626609802,1.56928288936615,2.214949369430542
1790006674573307400,2.043307373046875,0.8032687902450562,1.392516851425171,2.3188018798828125
1790006674583319300,2.0533193359375,0.9019721746444702,1.2313746213912964,2.3009727001190186
1790006674593331500,2.06333154296875,0.9113624691963196,1.0592246055603027,2.0514979362487793
1790006674603343400,2.07334326171875,0.48351073265075684,0.9906631708145142,1.2112903594970703
1790006674613354200,2.083354248046875,0.4612397849559784,0.22266529500484467,0.8246893882751465
1790006674623366100,2.0933662109375,0.21647104620933533,-0.115859754383564,0.3107280433177948
1790006674633378300,2.10337841796875,-0.05704570934176445,-0.3094140291213989,-0.1475396603345871
1790006674643390200,2.11339013671875,-0.24528566002845764,-0.3671945035457611,-0.4587193727493286
1790006674653402400,2.12340234375,-0.38781803846359253,-0.3319116234779358,-0.5622734427452087
1790006674663414300,2.133414306640625,-0.5251418352127075,-0.1660717874765396,-0.5212807655334473
1790006674673426200,2.14342626953125,-0.5890403389930725,0.04851293936371803,-0.3868451714515686
1790006674683438300,2.153438232421875,-0.5452026128768921,0.2644401788711548,-0.25112491846084595
1790006674693450200,2.1634501953125,-0.41869285702705383,0.4601162075996399,-0.19637270271778107
1790006674703461000,2.173461181640625,-0.26288968324661255,0.5536389350891113,-0.19442753493785858
1790006674713473300,2.183473388671875,-0.0052384380251169205,0.4840090274810791,-0.07640981674194336
1790006674723485200,2.193485107421875,0.7012790441513062,0.670745849609375,0.5045396089553833
1790006674733497000,2.2034970703125,1.417229413986206,0.9989964365959167,1.2759896516799927
1790006674743509200,2.21350927734375,1.8847692012786865,0.9917305707931519,1.895733118057251
1790006674753521200,2.223521240234375,1.9761078357696533,0.6814779043197632,2.285517454147339
1790006674763533300,2.233533203125,1.744279384613037,0.28438299894332886,2.41422963142395
1790006674773545500,2.24354541015625,1.4848659038543701,0.004865328781306744,2.238319158554077
1790006674783556600,2.253556640625,1.5035920143127441,0.7588464617729187,1.0603008270263672
1790006674793568500,2.263568603515625,1.3179867267608643,0.2120339572429657,0.9178741574287415
1790006674803580400,2.273580322265625,0.9632320404052734,-0.3982887864112854,1.0452417135238647
1790006674813592600,2.283592529296875,0.9167996048927307,-0.45966532826423645,0.600346565246582
1790006674823604500,2.2936044921875,0.8027084469795227,-0.6298533082008362,0.31394141912460327
1790006674833616400,2.303616455078125,0.7124648094177246,-0.7638651728630066,0.05017555132508278
1790006674843628500,2.313628662109375,0.6095868945121765,-0.8019800782203674,-0.18708093464374542
1790006674853640400,2.323640380859375,0.416775643825531,-0.7928379774093628,-0.3896694779396057
1790006674863652600,2.333652587890625,0.2627706527709961,-0.8760689496994019,-0.5276910066604614
1790006674873663700,2.343663818359375,0.132961243391037,-0.9001559019088745,-0.617466151714325
1790006674883675600,2.353675537109375,-0.05962684378027916,-0.7994231581687927,-0.7676372528076172
1790006674893687800,2.363687744140625,-0.40706390142440796,-0.6555405855178833,-0.97185218334198
1790006674903699700,2.37369970703125,-0.7314278483390808,-0.7244053483009338,-1.2095891237258911
1790006674913711600,2.383711669921875,-0.89182448387146,-0.9114264249801636,-1.3419873714447021
1790006674923723800,2.393723876953125,-1.075263500213623,-0.8557583689689636,-1.3554179668426514
1790006674933735700,2.403735595703125,-1.0239654779434204,-0.7500545382499695,-1.2912908792495728
1790006674943747600,2.41374755859375,-0.9706204533576965,-0.746567964553833,-1.2725752592086792
1790006674953758700,2.4237587890625,-1.0168672800064087,-0.7211675047874451,-1.2507165670394897
1790006674963770600,2.4337705078125,-1.27670419216156,-0.5324183702468872,-1.2811362743377686
1790006674973782500,2.443782470703125,-1.5466028451919556,-0.37858912348747253,-1.2361400127410889
1790006674983794700,2.453794677734375,-1.7700783014297485,-0.32960960268974304,-1.1024110317230225
1790006674993806600,2.463806640625,-1.7531352043151855,-0.4407997727394104,-0.8932668566703796
1790006675003818500,2.473818603515625,-1.3988261222839355,-0.6646653413772583,-0.7579151391983032
1790006675013830700,2.48383056640625,-0.9061837196350098,-0.6854345202445984,-0.6545719504356384
1790006675023842600,2.493842529296875,-0.4853499233722687,-0.5161944031715393,-0.51375412940979
1790006675033854700,2.503854736328125,-0.18213358521461487,-0.2975651025772095,-0.36520248651504517
1790006675043865600,2.513865478515625,0.055385492742061615,-0.224020317196846,-0.15863145887851715
1790006675053877500,2.52387744140625,0.24148905277252197,-0.2221347987651825,0.05435218662023544
1790006675063889400,2.533889404296875,0.35126855969429016,-0.2783251106739044,0.15617042779922485
1790006675073901600,2.543901611328125,0.42479124665260315,-0.21366249024868011,0.1573297083377838
1790006675083913500,2.55391357421875,0.4406317174434662,-0.08154332637786865,0.1167101040482521
1790006675093925600,2.563925537109375,0.18700796365737915,0.14150840044021606,-0.19734156131744385
1790006675103937500,2.5739375,-0.17215898633003235,0.015837019309401512,-0.32086271047592163
1790006675113949400,2.583949462890625,-0.3966464102268219,-0.1444423943758011,-0.444458931684494
1790006675123961600,2.593961669921875,-0.5506751537322998,-0.21012313663959503,-0.5449232459068298
1790006675133972700,2.60397265625,-0.5336378216743469,-0.13564598560333252,-0.5347619652748108
1790006675143984600,2.613984619140625,-0.3523612320423126,0.031077491119503975,-0.4994660019874573
1790006675153996800,2.623996826171875,-0.6230156421661377,-1.0269343852996826,-0.9650413990020752
1790006675164008700,2.6340087890625,-0.9519432187080383,-1.35776948928833,-1.120762586593628
1790006675174020600,2.6440205078125,-1.2311663627624512,0.30435776710510254,-1.7397925853729248
1790006675184032800,2.65403271484375,-1.2221696376800537,-0.15001213550567627,-1.2251845598220825
1790006675194044700,2.664044677734375,-1.25898277759552,0.08658070117235184,-1.2675893306732178
1790006675204056600,2.674056640625,-1.1843026876449585,0.1368049830198288,-1.104719638824463
1790006675214068700,2.68406884765625,-0.932388961315155,0.14032435417175293,-0.9088713526725769
1790006675224079600,2.69407958984375,-0.6394502520561218,0.15801014006137848,-0.7005951404571533
1790006675234091500,2.704091552734375,-0.3559306859970093,0.15533286333084106,-0.4670287072658539
1790006675244103700,2.714103759765625,-0.07263372093439102,0.1621582806110382,-0.22432337701320648
1790006675254115600,2.724115478515625,0.09744932502508163,0.25737133622169495,-0.03833833336830139
1790006675264127500,2.73412744140625,0.147266685962677,0.6071962118148804,0.01248330157250166
1790006675274139600,2.7441396484375,0.3254462778568268,0.885403573513031,0.09782669693231583
1790006675284151600,2.754151611328125,0.5494151711463928,0.8224731087684631,0.22287648916244507
1790006675294163700,2.764163818359375,0.6637950539588928,0.5143852829933167,0.36020585894584656
1790006675304174600,2.774174560546875,0.5770918130874634,0.26592567563056946,0.45075172185897827
1790006675314186500,2.7841865234375,0.39790448546409607,0.12274003028869629,0.5058810114860535
1790006675324198700,2.79419873046875,0.24133405089378357,0.1862926483154297,0.5143669247627258
1790006675334210600,2.80421044921875,0.11996714770793915,0.3116878569126129,0.49050313234329224
1790006675344222500,2.814222412109375,0.12356481701135635,0.26353389024734497,0.4981732964515686
1790006675354234600,2.824234619140625,0.2604270577430725,0.032398421317338943,0.5072922110557556
1790006675364246500,2.83424658203125,0.38111990690231323,-0.19764916598796844,0.5001110434532166
1790006675374258400,2.844258544921875,0.4956243932247162,-0.29585134983062744,0.48508867621421814
1790006675384269800,2.854269775390625,0.4763321876525879,-0.2851582467556,0.4579814076423645
1790006675394281700,2.86428173828125,0.3864763379096985,-0.29118603467941284,0.43212372064590454
1790006675404293600,2.874293701171875,0.32479405403137207,-0.3025241792201996,0.378967821598053
1790006675414305800,2.884305908203125,0.27197158336639404,-0.27488163113594055,0.3161744773387909
1790006675424317700,2.894317626953125,0.15582847595214844,-0.3166525065898895,0.278020441532135
1790006675434329600,2.90432958984375,0.10647131502628326,-0.4021540880203247,0.2552488148212433
1790006675444341800,2.914341796875,0.01894253119826317,-0.3909651041030884,0.26352351903915405
1790006675454353700,2.924353759765625,0.02787184529006481,-0.27349865436553955,0.32779544591903687
1790006675464365800,2.93436572265625,0.0409247949719429,-0.07862982898950577,0.41665101051330566
1790006675474376700,2.944376708984375,-0.0006958839949220419,0.17196190357208252,0.505915105342865
1790006675484388600,2.954388671875,0.015482020564377308,0.5204746127128601,0.6026067733764648
1790006675494400500,2.964400390625,0.018499914556741714,0.3193287253379822,0.4754522740840912
1790006675504412700,2.97441259765625,-0.0006966829532757401,-0.27547764778137207,0.22106899321079254
1790006675514424600,2.984424560546875,-0.06746239960193634,-0.670141339302063,0.0006005428149364889
1790006675524436700,2.994436767578125,-0.12808366119861603,-0.6529189348220825,-0.12069765478372574
1790006675534448600,3.00444873046875,-0.1484869420528412,-0.4629945456981659,-0.1809370219707489
1790006675544460500,3.01446044921875,-0.15818165242671967,-0.3730161786079407,-0.23191098868846893
1790006675554471400,3.024471435546875,-0.1356523633003235,-0.4100748598575592,-0.30122455954551697
1790006675564483600,3.034483642578125,-0.10139080137014389,-0.4880343973636627,-0.3925749659538269
1790006675574495500,3.04449560546875,-0.0824996680021286,-0.6020139455795288,-0.45615077018737793
1790006675584507600,3.054507568359375,-0.09352249652147293,-0.7127007842063904,-0.45924562215805054
1790006675594519600,3.06451953125,-0.15246890485286713,-0.7988545894622803,-0.3744007647037506
1790006675604531500,3.074531494140625,-0.24696478247642517,-0.8793781995773315,-0.24349254369735718
1790006675614543600,3.084543701171875,-0.3169640898704529,-0.9113917946815491,-0.1377544105052948
1790006675624555500,3.094555419921875,-0.3636157512664795,-0.849169135093689,-0.1236063614487648
1790006675634567400,3.1045673828125,-0.40487876534461975,-0.7100152373313904,-0.22435374557971954
1790006675644578800,3.114578857421875,-0.4173325300216675,-0.5726928114891052,-0.37884077429771423
1790006675654590700,3.1245908203125,-0.37305134534835815,-0.5159032940864563,-0.5020772218704224
1790006675664602600,3.1346025390625,-0.2982886731624603,-0.511213481426239,-0.5487728118896484
1790006675674614800,3.14461474609375,-0.23971831798553467,-0.5419631600379944,-0.46698155999183655
1790006675684626700,3.154626708984375,-0.18745139241218567,-0.5613147020339966,-0.3062067925930023
1790006675694638800,3.164638916015625,-0.13298548758029938,-0.5512368083000183,-0.13838957250118256
1790006675704650800,3.174650634765625,-0.07209842652082443,-0.5047379732131958,0.03471776843070984
1790006675714662700,3.18466259765625,0.010844924487173557,-0.41520652174949646,0.20338374376296997
1790006675724674800,3.1946748046875,0.09357123076915741,-0.3709802031517029,0.37204039096832275
1790006675734685700,3.204685791015625,0.19804677367210388,-0.3457067906856537,0.5256398320198059
1790006675744697600,3.214697509765625,0.3104497492313385,-0.3102279007434845,0.5724022388458252
1790006675754709800,3.224709716796875,0.44492021203041077,-0.2623456120491028,0.46252208948135376
1790006675764721700,3.2347216796875,0.572715163230896,-0.26767006516456604,0.26517707109451294
1790006675774733800,3.24473388671875,0.6403853297233582,-0.28430044651031494,0.1253664493560791
1790006675784746000,3.25474609375,0.6171369552612305,-0.2572954595088959,0.12493447959423065
1790006675794758000,3.2647578125,0.5092946887016296,-0.1608048677444458,0.23757793009281158
1790006675804769800,3.274769775390625,0.37028032541275024,-0.0428507924079895,0.38224563002586365
1790006675814781000,3.284781005859375,0.28559446334838867,0.03092009946703911,0.4687405824661255
1790006675824792800,3.294792724609375,0.2527896463871002,0.07650888711214066,0.43616825342178345
1790006675834804700,3.3048046875,0.18424946069717407,0.13038143515586853,0.2922467589378357
1790006675844817000,3.31481689453125,0.08617137372493744,0.178275465965271,0.12094559520483017
1790006675854828800,3.324828857421875,0.016463395208120346,0.21057482063770294,-0.009273925796151161
1790006675864840700,3.3348408203125,-0.025713618844747543,0.2084147185087204,-0.02329440414905548
1790006675874852900,3.344852783203125,-0.05668671429157257,0.16688698530197144,0.05224429443478584
1790006675884864800,3.35486474609375,-1.1364933252334595,0.32462894916534424,-0.026733342558145523
1790006675894877000,3.364876953125,-1.3022034168243408,0.07389099895954132,-0.2703092396259308
1790006675904887800,3.3748876953125,-1.350879430770874,-0.19561263918876648,-0.2523544728755951
1790006675914899700,3.384899658203125,-1.1505732536315918,-0.2211797833442688,-0.3911973237991333
1790006675924911900,3.394911865234375,-0.911182701587677,-0.38225123286247253,-0.3467678129673004
1790006675934923800,3.404923828125,-0.49504354596138,-0.4934685528278351,-0.28804004192352295
1790006675944935700,3.414935791015625,-0.1959034651517868,-0.3517460525035858,-0.21876803040504456
1790006675954947800,3.42494775390625,0.16514474153518677,-0.14984115958213806,-0.1733912229537964
1790006675964959700,3.434959716796875,0.37457093596458435,0.04424522444605827,-0.13862818479537964
1790006675974971600,3.4449716796875,0.5218549370765686,0.029218604788184166,-0.1089232861995697
1790006675984983000,3.454983154296875,0.5493214726448059,0.00407543545588851,0.005923136603087187
1790006675994995000,3.464994873046875,0.5985038876533508,-0.04008297249674797,0.10110850632190704
1790006676005006800,3.4750068359375,0.5986812710762024,-0.06058904528617859,0.15612542629241943
1790006676015019000,3.48501904296875,0.5040165185928345,0.23901817202568054,0.2725076973438263
1790006676025031000,3.495031005859375,0.43264517188072205,0.525341808795929,0.34144386649131775
1790006676035042800,3.505042724609375,0.3091743588447571,0.7370008230209351,0.39179280400276184
1790006676045055000,3.515054931640625,0.276862233877182,0.787229597568512,0.4194747805595398
1790006676055067000,3.52506689453125,0.2836593985557556,0.6706153750419617,0.4580807387828827
1790006676065079000,3.5350791015625,0.3633023202419281,0.6536757946014404,0.4118804931640625
1790006676075090000,3.54508984375,0.3862651586532593,0.8034173846244812,0.4529421925544739
1790006676085101800,3.555101806640625,0.2565540373325348,0.8088294267654419,0.4828260540962219
1790006676095113700,3.56511376953125,0.18624071776866913,0.32638025283813477,0.25424426794052124
1790006676105126000,3.5751259765625,0.26788631081581116,-0.27886492013931274,-0.11274279654026031
1790006676115137800,3.5851376953125,0.3436332643032074,-0.6282439827919006,-0.5361717939376831
1790006676125150000,3.59514990234375,0.2929575741291046,-0.6288833618164062,-0.8265602588653564
1790006676135161900,3.605161865234375,0.07623405009508133,-0.4250223934650421,-0.8078621625900269
1790006676145173800,3.615173828125,-0.06391266733407974,-0.17303729057312012,-0.8632303476333618
1790006676155184600,3.6251845703125,-0.13987454771995544,-0.1454128623008728,-0.931647002696991
1790006676165196800,3.63519677734375,-0.12592464685440063,-0.24079743027687073,-0.9628901481628418
1790006676175208700,3.645208740234375,-0.09709938615560532,-0.2703278958797455,-0.8243585824966431
1790006676185220900,3.655220947265625,-0.09807383269071579,-0.21826708316802979,-0.3901866376399994
1790006676195232800,3.665232666015625,-0.0021204089280217886,0.008011587895452976,0.10521376878023148
1790006676205244700,3.67524462890625,0.14256806671619415,0.3340754508972168,0.4048106074333191
1790006676215256800,3.6852568359375,0.26726099848747253,0.5540509819984436,0.46512773633003235
1790006676225268700,3.695268798828125,0.4037381410598755,0.5821832418441772,0.37482500076293945
1790006676235280600,3.70528076171875,0.5395979881286621,0.4824143052101135,0.2510410249233246
1790006676245292000,3.7152919921875,0.6503633856773376,0.4429052472114563,0.32891371846199036
1790006676255304000,3.725303955078125,0.7004142999649048,0.5690330862998962,0.6311678290367126
1790006676265315800,3.73531591796875,0.7083545327186584,0.6360398530960083,0.9415121078491211
1790006676275328000,3.745327880859375,0.6503692269325256,0.5336570143699646,1.1288540363311768
1790006676285340000,3.75533984375,0.5021922588348389,0.38181260228157043,1.1465773582458496
1790006676295351800,3.765351806640625,0.3078528940677643,0.2663440704345703,0.9830987453460693
1790006676305364000,3.775364013671875,0.15691505372524261,0.1834060400724411,0.7506734728813171
1790006676315375900,3.7853759765625,0.10200812667608261,0.1072942316532135,0.5543063282966614
1790006676325386800,3.79538671875,0.10709795355796814,0.019636817276477814,0.41244587302207947
1790006676335399000,3.80539892578125,0.13604119420051575,-0.14857695996761322,0.3190983533859253
1790006676345410800,3.815410888671875,0.1398356705904007,-0.4870021343231201,0.2063467800617218
1790006676355423000,3.825423095703125,0.12498614192008972,-0.9801157116889954,0.02941993996500969
1790006676365435000,3.835434814453125,0.21790410578250885,1.0520386695861816,-1.5622183084487915
1790006676375446800,3.84544677734375,0.19210046529769897,-0.392158180475235,-1.2720458507537842
1790006676385459000,3.855458984375,0.3196925222873688,-0.679776132106781,-1.544203281402588
1790006676395470800,3.865470947265625,0.5240395069122314,-0.8585370779037476,-1.5136313438415527
1790006676405482800,3.875482666015625,0.8269860744476318,-0.6776416301727295,-1.3012734651565552
1790006676415494000,3.885493896484375,1.1193822622299194,-0.7756592631340027,-0.9724718928337097
1790006676425505800,3.895505859375,1.263303518295288,-0.5075982213020325,-0.43418365716934204
1790006676435517700,3.905517578125,1.3805421590805054,-0.814500629901886,0.19944466650485992
1790006676445529900,3.91552978515625,1.3200141191482544,-1.114412784576416,0.7336297631263733
1790006676455541800,3.925541748046875,0.9582782983779907,-1.1512789726257324,1.4113647937774658
1790006676465553700,3.9355537109375,0.5639533996582031,-2.9908316135406494,0.34180209040641785
1790006676475565800,3.94556591796875,0.25252440571784973,-1.7055275440216064,0.26145264506340027
1790006676485577700,3.95557763671875,-0.02064296044409275,-0.25766801834106445,-0.05943722650408745
1790006676495590000,3.96558984375,-0.22712236642837524,0.9117278456687927,-0.4412282705307007
1790006676505601000,3.97560107421875,-0.2859385311603546,1.7081584930419922,-0.7488276362419128
1790006676515613000,3.985613037109375,-0.3198818564414978,2.1510138511657715,-0.8682043552398682
1790006676525624800,3.995624755859375,-0.29669585824012756,2.0281689167022705,-0.7997536659240723
1790006676535637000,4.005636962890625,-0.23745383322238922,0.6632850170135498,-0.33676469326019287
1790006676545649000,4.01564892578125,-0.14787867665290833,-0.8722004294395447,0.02696690335869789
1790006676555661000,4.0256611328125,-0.05414579436182976,-1.3282241821289062,0.016537165269255638
1790006676565673000,4.0356728515625,-0.023926638066768646,-0.9532087445259094,-0.24264992773532867
1790006676575684900,4.045684814453125,-0.093210369348526,-0.4539443254470825,-0.5437136292457581
1790006676585695700,4.05569580078125,-0.13747742772102356,-0.3352626860141754,-0.6916450262069702
1790006676595708000,4.0657080078125,-0.08043172210454941,-0.5016623139381409,-0.7597649693489075
1790006676605719800,4.0757197265625,0.1094181016087532,-0.5706807971000671,-0.7594397664070129
1790006676615732000,4.08573193359375,0.2538013756275177,-0.4822593331336975,-0.7035728096961975
1790006676625744000,4.095743896484375,0.20638646185398102,-0.2816671133041382,-0.6468085646629333
1790006676635755800,4.105755859375,0.10421667993068695,-0.05186080187559128,-0.6164357662200928
1790006676645768000,4.115767822265625,0.03742194175720215,0.10820689797401428,-0.5978384017944336
1790006676655779800,4.12577978515625,-0.03069612756371498,0.16761429607868195,-0.5840152502059937
1790006676665791700,4.135791748046875,-0.12550412118434906,0.13740552961826324,-0.558293879032135
1790006676675803000,4.145802978515625,-0.177510604262352,0.11626855283975601,-0.5871239304542542
1790006676685814800,4.155814697265625,-0.22945450246334076,0.2126813679933548,-0.6511908173561096
1790006676695826700,4.16582666015625,-0.24877279996871948,0.32159027457237244,-0.6912628412246704
1790006676705838800,4.1758388671875,-0.2329419106245041,0.3620958924293518,-0.6471875309944153
1790006676715850800,4.185850830078125,-0.18377941846847534,0.26104864478111267,-0.45331475138664246
1790006676725862700,4.195862548828125,-0.17470310628414154,0.08907954394817352,-0.2541430592536926
1790006676735874800,4.205874755859375,-0.2554245889186859,0.0572182834148407,-0.20119303464889526
1790006676745886700,4.21588671875,-0.34703466296195984,0.19481901824474335,-0.29211920499801636
1790006676755897900,4.22589794921875,-0.3849245011806488,0.3819284439086914,-0.3304530084133148
1790006676765910000,4.235909912109375,-0.35921114683151245,0.617980420589447,-0.2866629362106323
1790006676775922000,4.245921875,-0.2989440858364105,0.8815872669219971,-0.2695140242576599
1790006676785934000,4.25593408203125,-0.25085246562957764,1.1380590200424194,-0.28264713287353516
1790006676795946000,4.265946044921875,-0.3004615604877472,1.262650728225708,-0.2914353013038635
1790006676805958000,4.2759580078125,-0.37636271119117737,1.2672520875930786,-0.32895392179489136
1790006676815970000,4.285969970703125,-0.5524343848228455,1.1988145112991333,-0.44750720262527466
1790006676825982000,4.29598193359375,-0.7397118806838989,1.0530344247817993,-0.4588607847690582
1790006676835994000,4.305994140625,-0.8024432063102722,1.0265593528747559,-0.46886202692985535
1790006676846005000,4.3160048828125,-0.9442799687385559,1.054122805595398,-0.5208914279937744
1790006676856017000,4.326016845703125,-1.083913803100586,1.0151549577713013,-0.5641531348228455
1790006676866028800,4.33602880859375,-1.0841808319091797,0.8589727878570557,-0.5525577068328857
1790006676876041000,4.346041015625,-0.9233352541923523,0.6489407420158386,-0.4716106653213501
1790006676886052900,4.356052978515625,-0.7355994582176208,0.46120864152908325,-0.36694765090942383
1790006676896065000,4.36606494140625,-0.5874224901199341,0.3248095214366913,-0.22783449292182922
1790006676906077000,4.376076904296875,-0.5295403003692627,0.24152767658233643,-0.1059381514787674
1790006676916088800,4.3860888671875,-0.5170106291770935,0.09249477833509445,0.008183627389371395
1790006676926100000,4.396099853515625,-0.5330356955528259,0.3116692006587982,-0.05543289706110954
1790006676936111900,4.40611181640625,-0.5171962380409241,0.5873090624809265,-0.22466160356998444
1790006676946123800,4.416123779296875,-0.45224231481552124,0.6268308758735657,-0.2820258140563965
1790006676956136000,4.426135986328125,-0.41835251450538635,0.5240496397018433,-0.19482648372650146
1790006676966147800,4.43614794921875,-0.3728491961956024,0.5949200987815857,-0.13926441967487335
1790006676976159700,4.44615966796875,-0.28178027272224426,0.7102283239364624,-0.1517045795917511
1790006676986172000,4.456171875,-0.18073728680610657,0.6327306032180786,-0.15786339342594147
1790006676996183800,4.466183837890625,-0.10618342459201813,0.45688843727111816,-0.19758445024490356
1790006677006195700,4.47619580078125,-0.06168253719806671,0.3667694628238678,-0.25992292165756226
1790006677016207000,4.48620703125,-0.052255481481552124,0.24197348952293396,-0.24090927839279175
1790006677026219000,4.496218994140625,-0.005065065808594227,0.09463809430599213,-0.24726837873458862
1790006677036231000,4.50623095703125,0.008104265667498112,-0.07204782962799072,-0.2550559937953949
1790006677046243000,4.5162431640625,-0.02690858021378517,-0.13281290233135223,-0.3188354969024658
1790006677056255000,4.5262548828125,0.0049734534695744514,-0.3606399595737457,-0.18636614084243774
1790006677066267100,4.53626708984375,0.08954159915447235,-0.5511654019355774,-0.09876812249422073
1790006677076279000,4.546279052734375,0.09057490527629852,-0.6042528748512268,-0.07765058428049088
1790006677086291000,4.556291015625,0.08422406762838364,-0.6492951512336731,-0.059007659554481506
1790006677096303000,4.56630322265625,0.1256237030029297,-0.6798621416091919,-0.054960720241069794
1790006677106314000,4.57631396484375,0.14339764416217804,-0.5975443720817566,-0.054767906665802
1790006677116326000,4.586325927734375,0.1490672379732132,-0.5046610236167908,-0.08641691505908966
1790006677126338000,4.596338134765625,0.13449043035507202,-0.5407220721244812,-0.08966730535030365
1790006677136350000,4.606349853515625,0.14734205603599548,-0.5687835812568665,-0.09050673246383667
1790006677146361900,4.61636181640625,0.161166250705719,-0.4872378408908844,-0.13181236386299133
1790006677156374000,4.6263740234375,0.13990570604801178,-0.32431522011756897,-0.15078258514404297
1790006677166386000,4.636385986328125,0.0842759981751442,-0.21560366451740265,-0.14826244115829468
1790006677176397800,4.646397705078125,0.018863435834646225,-0.4442501664161682,-0.04917953163385391
1790006677186409000,4.656408935546875,-0.02028609625995159,-0.46408164501190186,-0.046903327107429504
1790006677196420900,4.6664208984375,-0.02551654540002346,0.032408539205789566,-0.023017434403300285
1790006677206432800,4.676432861328125,-0.022246183827519417,-0.14788825809955597,0.006833937484771013
1790006677216445000,4.68644482421875,-0.021940719336271286,-0.09836385399103165,0.002341717481613159
1790006677226456800,4.696456787109375,-0.023665914312005043,-0.1068396270275116,0.006876548286527395
1790006677236468700,4.70646875,-0.024519991129636765,-0.13763882219791412,0.012355469167232513
1790006677246481000,4.71648095703125,-0.02484995685517788,-0.16211487352848053,0.013145629316568375
1790006677256492800,4.726492919921875,-0.028113393113017082,-0.14003567397594452,0.003775297198444605
1790006677266505000,4.7365048828125,-0.030543528497219086,-0.11817404627799988,-0.005688245873898268
1790006677276515800,4.746515869140625,-0.031622640788555145,-0.11694686114788055,-0.008944759145379066
1790006677286528000,4.756528076171875,-0.029503563418984413,-0.12721334397792816,0.00242134602740407
1790006677296540000,4.766539794921875,-0.027934694662690163,-0.10809557884931564,0.007208378054201603
1790006677306551800,4.7765517578125,-0.03821422904729843,-0.06925737112760544,-0.0010934938909485936
1790006677316564000,4.78656396484375,-0.052438706159591675,-0.03411616012454033,-0.013630857691168785
1790006677326575900,4.796575927734375,-0.060871873050928116,-0.013562413863837719,-0.011862518265843391
1790006677336588000,4.806588134765625,-0.046425823122262955,-0.029810626059770584,-0.019538281485438347
1790006677346600000,4.816599853515625,-0.046790674328804016,-0.08062747120857239,-0.01206971239298582
1790006677356611000,4.826611083984375,-0.05275562405586243,-0.059128567576408386,-0.007533816155046225
1790006677366623000,4.836623046875,-0.054961517453193665,-0.05921405553817749,-0.0015752597246319056
1790006677376635000,4.846634765625,-0.05332260951399803,-0.12360876053571701,0.010116816498339176
1790006677386647000,4.85664697265625,-0.05804545804858208,-0.0842653438448906,-0.0008625978953205049
1790006677396659000,4.866658935546875,-0.05632505938410759,-0.13313008844852448,-0.0017691379180178046
1790006677406670800,4.8766708984375,-0.058757323771715164,-0.15599200129508972,-0.0027377295773476362
1790006677416683000,4.88668310546875,-0.06419523060321808,-0.1614147275686264,-0.006244580261409283
1790006677426695000,4.89669482421875,-0.0656740814447403,-0.22570183873176575,0.007217432837933302
1790006677436707000,4.90670703125,-0.07026990503072739,-0.19584007561206818,-0.004159324802458286
1790006677446718000,4.916718017578125,-0.08039870113134384,-0.23298850655555725,0.009018261916935444
1790006677456729900,4.926729736328125,-0.08317851275205612,-0.2226083129644394,0.013261476531624794
1790006677466741800,4.93674169921875,-0.08805182576179504,-0.18465639650821686,0.005290635861456394
1790006677476754000,4.94675390625,-0.08260885626077652,-0.17278055846691132,0.002055161399766803
1790006677486765800,4.956765869140625,-0.08072040975093842,-0.18117351830005646,0.001541171339340508
1790006677496778000,4.966778076171875,-0.08648615330457687,-0.1806667149066925,-0.0038195056840777397
1790006677506790000,4.976789794921875,-0.09002895653247833,-0.19025249779224396,-0.0027622305788099766
1790006677516801800,4.9868017578125,-0.09439627826213837,-0.1974848508834839,0.003245860803872347
1790006677526812700,4.996812744140625,-0.09823096543550491,-0.18217219412326813,0.0029973878990858793
1790006677536824800,5.006824951171875,-0.10970146209001541,-0.1959703117609024,0.0009701895760372281
1790006677546836700,5.016836669921875,-0.11113663762807846,-0.21247072517871857,-0.0010165285784751177
1790006677556849000,5.026848876953125,-0.10050849616527557,-0.20606714487075806,0.0009089368977583945
1790006677566860800,5.03686083984375,-0.105509914457798,-0.20312169194221497,0.001591505017131567
1790006677576872700,5.046872802734375,-0.11040426790714264,-0.21477541327476501,0.0007869640830904245
1790006677586884900,5.056884765625,-0.11548931151628494,-0.2169293761253357,0.00037204360705800354
1790006677596896800,5.066896728515625,-0.12425190955400467,-0.22239631414413452,0.0006452839006669819
1790006677606908700,5.07690869140625,-0.11835727095603943,-0.2311975359916687,0.002638926263898611
1790006677616920000,5.086920166015625,-0.11164530366659164,-0.22830215096473694,0.00019654128118418157
1790006677626932000,5.096931884765625,-0.11410180479288101,-0.21964314579963684,0.0021350563038140535
1790006677636944000,5.10694384765625,-0.12114932388067245,-0.2220652848482132,0.0012831110507249832
1790006677646956000,5.1169560546875,-0.1282794028520584,-0.24412265419960022,0.002133192028850317
1790006677656968000,5.126968017578125,-0.11796551942825317,-0.424768328666687,-0.019836023449897766
1790006677666979800,5.136979736328125,0.4792936146259308,-0.7438035607337952,0.050687678158283234
1790006677676992000,5.146991943359375,0.5954117178916931,-0.914989173412323,0.12584315240383148
1790006677687004000,5.15700390625,0.17202156782150269,-0.5411660671234131,-0.010670754127204418
1790006677697014800,5.167014892578125,-0.15782132744789124,-0.06649193912744522,-0.06059197336435318
1790006677707027000,5.17702685546875,-0.19166743755340576,-0.03497209772467613,0.003070092061534524
1790006677717038800,5.187038818359375,-0.2343917340040207,-0.31631696224212646,0.04375440627336502
1790006677727051000,5.197051025390625,-0.29396238923072815,-0.24967454373836517,0.05842522531747818
1790006677737063000,5.20706298828125,-0.29283401370048523,-0.16312873363494873,0.028434304520487785
1790006677747074800,5.21707470703125,-0.1562095731496811,-0.15242868661880493,0.05543849244713783
1790006677757087000,5.2270869140625,0.04266863316297531,-0.025600435212254524,0.03442402184009552
1790006677767099000,5.237098876953125,0.017418138682842255,0.024865135550498962,-0.049922019243240356
1790006677777109000,5.24710888671875,-0.0669340267777443,0.019665580242872238,-0.09744959324598312
1790006677787121200,5.25712109375,0.02304619736969471,0.2576110363006592,-0.014613564126193523
1790006677797133000,5.267133056640625,0.10176923871040344,0.3968181908130646,-0.03491031378507614
1790006677807145200,5.277145263671875,0.20276430249214172,0.3303227722644806,-0.01324097067117691
1790006677817157000,5.2871572265625,0.30664968490600586,0.35299959778785706,-0.020499682053923607
1790006677827169000,5.2971689453125,0.3282383382320404,0.3734191358089447,-0.026635339483618736
1790006677837181200,5.30718115234375,0.31064122915267944,0.321286678314209,-0.021648570895195007
1790006677847193000,5.317193115234375,0.20749540627002716,0.3391237258911133,-0.02184298075735569
1790006677857204000,5.327203857421875,0.03286980092525482,0.4165969491004944,-0.03929254412651062
1790006677867216100,5.337216064453125,0.022042984142899513,0.2761319875717163,-0.03766082599759102
1790006677877228000,5.34722802734375,0.13370773196220398,0.130625382065773,-0.01654701866209507
1790006677887240000,5.357239990234375,0.13223819434642792,0.1319175511598587,-0.0038067223504185677
1790006677897252000,5.367252197265625,0.09568151831626892,0.22719614207744598,-0.01284389290958643
1790006677907264000,5.377263916015625,0.058642808347940445,0.28645652532577515,-0.028752818703651428
1790006677917276200,5.387276123046875,0.06888692080974579,0.2715734541416168,-0.029437784105539322
1790006677927288000,5.3972880859375,0.10982982814311981,0.2469935417175293,-0.027291541919112206
1790006677937299000,5.407298828125,0.10681699216365814,0.20559443533420563,-0.02575569786131382
1790006677947310800,5.417310791015625,0.06004469469189644,0.1455042064189911,-0.010493387468159199
1790006677957323000,5.427322998046875,0.055215053260326385,0.1046672910451889,0.00941960047930479
1790006677967335000,5.4373349609375,0.04182814061641693,0.1438804715871811,0.008265919052064419
1790006677977347000,5.44734716796875,-0.1526406705379486,0.36648187041282654,-0.0490996353328228
1790006677987359000,5.45735888671875,-0.3291155695915222,0.5680245757102966,-0.10259374976158142
1790006677997371000,5.467370849609375,-0.40129417181015015,0.4234468638896942,-0.1201450526714325
1790006678007383000,5.477383056640625,-0.3624415695667267,0.1853695958852768,-0.09300077706575394
1790006678017395000,5.48739501953125,-0.33293241262435913,0.05847369506955147,-0.06774309277534485
1790006678027406000,5.497406005859375,-0.373778373003006,0.054131411015987396,-0.06765467673540115
1790006678037418200,5.507418212890625,-0.4319077432155609,0.0539226196706295,-0.06836334615945816
1790006678047430100,5.51743017578125,-0.48432594537734985,-0.026152241975069046,-0.0488455705344677
1790006678057442000,5.527442138671875,-0.4578709006309509,0.03693085163831711,-0.0478450208902359
1790006678067454200,5.5374541015625,-0.37089043855667114,0.12052375078201294,-0.05311648175120354
1790006678077466000,5.547466064453125,-0.19516709446907043,0.10954886674880981,-0.04117300361394882
1790006678087478000,5.55747802734375,-0.022890668362379074,0.12821069359779358,-0.029936859384179115
1790006678097490200,5.567490234375,0.08421128243207932,0.13246136903762817,-0.022782010957598686
1790006678107501000,5.5775009765625,0.1686135083436966,0.06515423208475113,-0.01593822054564953
1790006678117513000,5.587512939453125,0.20692229270935059,0.055516522377729416,-0.013848171569406986
1790006678127525000,5.597525146484375,0.1959279626607895,0.03807787597179413,-0.007417436223477125
1790006678137537000,5.607537109375,0.2053331732749939,-0.04194558411836624,-0.0011206581257283688
1790006678147549000,5.617548828125,0.2371896505355835,-0.05991340056061745,0.0010287790792062879
1790006678157561000,5.62756103515625,0.23839658498764038,0.02129729837179184,-0.00777776213362813
1790006678167573000,5.637572998046875,0.20031818747520447,0.0692451149225235,-0.008187090046703815
1790006678177585200,5.647585205078125,0.1827961802482605,0.058945607393980026,-0.009722935035824776
1790006678187596000,5.657595947265625,0.2235952764749527,0.010364224202930927,-0.0070131681859493256
1790006678197608000,5.66760791015625,0.25773805379867554,-0.028745627030730247,-0.011612181551754475
1790006678207620000,5.6776201171875,0.331146240234375,-0.056473661214113235,-0.007963650859892368
1790006678217632000,5.687632080078125,0.3845122456550598,-0.12292405962944031,0.00509782275184989
1790006678227644000,5.697643798828125,0.38042935729026794,-0.0894278809428215,0.006770554464310408
1790006678237656000,5.707656005859375,0.311980277299881,-0.05048687756061554,-0.0062333946116268635
1790006678247668000,5.71766796875,0.26295652985572815,-0.042520295828580856,-0.0158346239477396
1790006678257680000,5.727679931640625,0.20812523365020752,-0.06717637181282043,-0.01561171654611826
1790006678267691000,5.73769091796875,0.13523878157138824,-0.04168646037578583,-0.021745508536696434
1790006678277703200,5.747703125,0.09511745721101761,-0.029585322365164757,-0.026249714195728302
1790006678287715000,5.757715087890625,0.0843295305967331,-0.024340227246284485,-0.02628992684185505
1790006678297727200,5.767727294921875,0.033612821251153946,0.02720046229660511,-0.03434918448328972
1790006678307739100,5.7777392578125,-0.039565786719322205,-0.00469595193862915,-0.034881819039583206
1790006678317751000,5.7877509765625,-0.11431565880775452,-0.025843581184744835,-0.03401362523436546
1790006678327763200,5.79776318359375,-0.21161504089832306,-0.06340187788009644,-0.02953951619565487
1790006678337775000,5.807775146484375,-0.2505664527416229,-0.0493616908788681,-0.035826440900564194
1790006678347787300,5.817787353515625,-0.27190500497817993,0.09249132126569748,-0.057384464889764786
1790006678357798100,5.827798095703125,-0.32576000690460205,-0.10214314609766006,-0.04471953585743904
1790006678367810000,5.83781005859375,-0.3047519028186798,-0.07530993223190308,-0.04819203168153763
1790006678377822000,5.847822021484375,-0.25212785601615906,-0.014090253040194511,-0.03971012681722641
1790006678387834000,5.857834228515625,-0.2111721634864807,-0.05535806342959404,-0.03214967995882034
1790006678397846000,5.867845947265625,-0.1463167369365692,-0.07725830376148224,-0.024729048833251
1790006678407858200,5.877858154296875,-0.07338447123765945,-0.06240665167570114,-0.022219551727175713
1790006678417870000,5.8878701171875,-0.05329011753201485,-0.05042216181755066,-0.018505774438381195
1790006678427882000,5.897882080078125,-0.0391620509326458,-0.06621870398521423,-0.012501676566898823
1790006678437892900,5.907892822265625,-0.01906850002706051,-0.07582365721464157,-0.00714526092633605
1790006678447905000,5.917905029296875,0.02239052578806877,-0.07759838551282883,-0.0007233145297504961
1790006678457917000,5.9279169921875,0.05229729413986206,0.05022721737623215,-0.012646553106606007
1790006678467929000,5.93792919921875,0.022579610347747803,-0.022103171795606613,-0.010836136527359486
1790006678477941000,5.94794091796875,0.05054812878370285,-0.1266080141067505,-0.0014149374328553677
1790006678487953000,5.957952880859375,0.03141571208834648,-0.021745774894952774,-0.015674833208322525
1790006678497965000,5.967965087890625,0.007772169075906277,-0.018307633697986603,-0.024406006559729576
1790006678507977000,5.97797705078125,0.053108226507902145,-0.0956445038318634,-0.026199113577604294
1790006678517987800,5.98798779296875,0.0894707590341568,-0.07543670386075974,-0.020013654604554176
1790006678528000000,5.998,0.122806616127491,-0.04385800287127495,-0.01019830908626318
1790006678538012000,6.008011962890625,0.14989842474460602,-0.0524834468960762,-0.004230963997542858
1790006678548024000,6.018024169921875,0.09555288404226303,-0.03171958029270172,-0.00752156600356102
1790006678558036000,6.028035888671875,0.021916484460234642,-0.002945189829915762,-0.01720535196363926
1790006678568048000,6.038048095703125,-0.015573101118206978,0.0016966998809948564,-0.02503371424973011
1790006678578060000,6.04806005859375,0.003846669802442193,0.02522439695894718,-0.024402545765042305
1790006678588072000,6.058072021484375,0.008942628279328346,0.04180683568120003,-0.018447982147336006
1790006678598083000,6.0680830078125,0.013554424978792667,0.034009899944067,-0.013309679925441742
1790006678608095000,6.078094970703125,0.014772821217775345,0.012084625661373138,-0.014121677726507187
1790006678618107100,6.088107177734375,-0.007121026515960693,0.014385596849024296,-0.01961231790482998
1790006678628119000,6.098119140625,-0.1231757253408432,0.06275659054517746,-0.04008696600794792
1790006678638131200,6.108131103515625,-0.1240343302488327,0.006603308022022247,-0.05276867374777794
1790006678648143000,6.11814306640625,-0.08384962379932404,-0.06350600719451904,-0.04818723723292351
1790006678658155000,6.128155029296875,-0.055268313735723495,-0.033316146582365036,-0.042443063110113144
1790006678668167200,6.138167236328125,-0.041550371795892715,0.008979380130767822,-0.042456645518541336
1790006678678178000,6.148177978515625,-0.04933878779411316,0.014646054245531559,-0.03964594751596451
1790006678688190000,6.15818994140625,-0.08078805357217789,0.04284679889678955,-0.04304760321974754
1790006678698202000,6.1682021484375,-0.0802152082324028,0.034029338508844376,-0.0454348586499691
1790006678708214000,6.178214111328125,-0.021878933534026146,-0.009180448949337006,-0.0352538600564003
1790006678718226000,6.188225830078125,0.01176051888614893,-0.022913038730621338,-0.01769963465631008
1790006678728238000,6.198238037109375,0.018788335844874382,0.007993478327989578,-0.022002236917614937
1790006678738250000,6.20825,0.0368722639977932,0.11050014197826385,-0.03514227271080017
1790006678748262000,6.218261962890625,-0.02526833862066269,0.07640023529529572,-0.07584123313426971
1790006678758274000,6.228274169921875,-0.024873392656445503,-0.05132044479250908,-0.07829294353723526
1790006678768285000,6.238284912109375,-0.011356784030795097,0.007417169865220785,-0.0800093486905098
1790006678778297600,6.248297607421875,0.019834425300359726,-0.007447530049830675,-0.06918785721063614
1790006678788309800,6.258309814453125,0.039560992270708084,-0.02641988918185234,-0.056535448879003525
1790006678798321700,6.26832177734375,0.06434596329927444,-0.03008626401424408,-0.04741145670413971
1790006678808333600,6.27833349609375,0.11636362969875336,-0.07127870619297028,-0.028722723945975304
1790006678818345700,6.288345703125,0.15186090767383575,-0.025406289845705032,-0.029933931306004524
1790006678828357600,6.298357666015625,0.13080409169197083,-0.003403519745916128,-0.033373668789863586
1790006678838369800,6.308369873046875,0.10309069603681564,-0.0330282561480999,-0.030405042693018913
1790006678848381000,6.318380859375,0.08666805177927017,-0.022820094600319862,-0.025593509897589684
1790006678858392800,6.328392822265625,0.09980489313602448,-0.010986871086061,-0.03809439018368721
1790006678868404700,6.33840478515625,0.118502676486969,-0.03670847788453102,-0.03200720250606537
1790006678878417000,6.3484169921875,0.13959598541259766,-0.030410103499889374,-0.03213929384946823
1790006678888428800,6.3584287109375,0.12886610627174377,-0.013013536110520363,-0.0349409393966198
1790006678898441000,6.36844091796875,0.115260548889637,-0.028303276747465134,-0.024178840219974518
1790006678908452900,6.378452880859375,0.12888340651988983,-0.028725387528538704,-0.014012488536536694
1790006678918464800,6.38846484375,0.12667964398860931,0.006202768534421921,-0.025195101276040077
1790006678928475600,6.3984755859375,0.056224122643470764,0.003436010330915451,-0.015914252027869225
1790006678938487800,6.40848779296875,0.006810768041759729,0.03213050588965416,-0.00908697210252285
1790006678948499700,6.418499755859375,0.003228017594665289,0.06756812334060669,-0.0065649584867060184
1790006678958511900,6.428511962890625,0.0017294568242505193,0.05157903954386711,-0.008519185706973076
1790006678968523800,6.438523681640625,-0.00042211104300804436,0.03815670683979988,-0.012003665789961815
1790006678978535700,6.44853564453125,-0.0017438378417864442,0.044973865151405334,-0.014246047474443913
1790006678988547800,6.4585478515625,0.00350445369258523,0.021323131397366524,-0.016949156299233437
1790006678998559700,6.468559814453125,0.006852579768747091,0.014030598104000092,-0.014554974623024464
1790006679008570600,6.478570556640625,0.006465356331318617,0.03750742971897125,-0.017664214596152306
1790006679018582800,6.488582763671875,-0.029895581305027008,0.12484819442033768,-0.056659016758203506
1790006679028594700,6.4985947265625,-0.05880153179168701,0.10853366553783417,-0.07187259197235107
1790006679038606600,6.508606689453125,-0.012380503118038177,0.00866459496319294,-0.032513733953237534
1790006679048618800,6.51861865234375,0.0012282498646527529,0.026880616322159767,-0.014808773063123226
1790006679058630700,6.528630615234375,-0.0004394215648062527,0.046190932393074036,-0.01501383725553751
1790006679068642600,6.538642578125,-0.0064387246966362,0.0091130705550313,-0.020471720024943352
1790006679078654700,6.54865478515625,-0.02063896507024765,0.03959561139345169,-0.0376560315489769
1790006679088665600,6.55866552734375,-0.039990294724702835,0.10233569145202637,-0.07459860295057297
1790006679098677800,6.568677734375,0.01757925935089588,-0.03267538920044899,-0.04032851383090019
1790006679108689700,6.578689697265625,0.02719300426542759,-0.030557643622159958,-0.01666073501110077
1790006679118701800,6.588701904296875,0.02725372463464737,0.08019842952489853,-0.019510317593812943
1790006679128713700,6.598713623046875,0.015570437535643578,-0.01810523495078087,-0.014880678616464138
1790006679138725600,6.6087255859375,0.006697317585349083,0.06830529123544693,-0.022721024230122566
1790006679148737800,6.61873779296875,0.005419000051915646,0.062369901686906815,-0.023093868046998978
1790006679158749700,6.628749755859375,-0.010377805680036545,0.09945947676897049,-0.06841900199651718
1790006679168760800,6.6387607421875,0.01432434469461441,0.019242670387029648,-0.05734265223145485
1790006679178772700,6.648772705078125,0.0434955470263958,-0.04950683191418648,-0.04296211525797844
1790006679188785000,6.658784912109375,0.036433909088373184,-0.009412144310772419,-0.021190505474805832
1790006679198796800,6.668796875,0.05049673095345497,-0.00000852211542223813,-0.02430267632007599
1790006679208808700,6.67880859375,0.06015974283218384,0.053224071860313416,-0.04217168688774109
1790006679218820900,6.68882080078125,0.0389239639043808,0.09249584376811981,-0.054980695247650146
1790006679228832800,6.698832763671875,0.03317499905824661,0.0419386625289917,-0.030601318925619125
1790006679238844700,6.7088447265625,0.028845762833952904,0.05170287564396858,-0.023983895778656006
1790006679248855800,6.718855712890625,0.02899809554219246,-0.01653902977705002,-0.005034173373132944
1790006679258867700,6.72886767578125,0.022406239062547684,0.03621312975883484,0.004189418628811836
1790006679268879600,6.738879638671875,0.012167982757091522,0.032462868839502335,0.00549276964738965
1790006679278891800,6.748891845703125,0.010838000103831291,0.04818856716156006,-0.008617457002401352
1790006679288903700,6.758903564453125,0.011934956535696983,0.021926337853074074,-0.015506788156926632
1790006679298915600,6.76891552734375,0.01636645570397377,0.010878480039536953,-0.014194648712873459
1790006679308927700,6.778927734375,0.018608571961522102,0.011753595434129238,-0.012805810198187828
1790006679318939600,6.788939697265625,0.02213726006448269,0.00541394017636776,-0.014089986681938171
1790006679328951800,6.798951904296875,0.02611415833234787,-0.012824186123907566,-0.002895388752222061
1790006679338962700,6.808962646484375,0.026977555826306343,0.008037686347961426,-0.0017299894243478775
1790006679348974600,6.818974609375,0.0183491799980402,0.010399377904832363,-0.00036378781078383327
1790006679358986500,6.828986572265625,0.012063587084412575,0.024565530940890312,-0.0014596786350011826
1790006679368998700,6.83899853515625,0.007539675105363131,0.02490801364183426,-0.007252053823322058
1790006679379010600,6.849010498046875,0.014850584790110588,0.01618562825024128,-0.00848696194589138
1790006679389022700,6.859022705078125,0.023326095193624496,0.014104100875556469,-0.005446963477879763
1790006679399034600,6.86903466796875,0.02701004594564438,0.005741775035858154,-0.0003563309437595308
1790006679409045800,6.879045654296875,0.026097645983099937,0.008330367505550385,0.0049492185935378075
1790006679419058000,6.889057861328125,0.02406458929181099,0.0075607141479849815,0.005135905928909779
1790006679429069800,6.89906982421875,0.01919260248541832,0.007132744416594505,-0.0022679478861391544
1790006679439081700,6.909081787109375,0.01870950497686863,-0.0019209380261600018,-0.004510595928877592
1790006679449094000,6.919093994140625,0.019478626549243927,-0.010970892384648323,-0.0013568805297836661
1790006679459105800,6.929105712890625,0.023994814604520798,-0.02954111434519291,-0.00041998049709945917
1790006679469117700,6.93911767578125,0.030242590233683586,-0.06741312891244888,0.006485596299171448
1790006679479129900,6.9491298828125,0.22860628366470337,-0.019515644758939743,0.02426033280789852
1790006679489141800,6.959141845703125,0.2193310260772705,-0.14103248715400696,0.028863605111837387
1790006679499152600,6.969152587890625,0.22287409007549286,-0.1123848631978035,0.028725920245051384
1790006679509164800,6.979164794921875,0.24344727396965027,-0.1310640126466751,0.0238195788115263
1790006679519176700,6.9891767578125,0.2214282602071762,-0.1291438639163971,0.014125938527286053
1790006679529188600,6.999188720703125,0.23128461837768555,-0.10377752780914307,0.004114584065973759
1790006679539200800,7.00920068359375,0.04490995034575462,-0.05397561565041542,0.0022301310673356056
1790006679549212700,7.019212646484375,-0.007044061087071896,-0.030555512756109238,0.008687231689691544
1790006679559224800,7.029224853515625,-0.011533085256814957,-0.04994971677660942,0.01089552417397499
1790006679569236700,7.03923681640625,-0.011300858110189438,-0.02936933934688568,0.005782788153737783
1790006679579247600,7.04924755859375,-0.008949552662670612,-0.02684785984456539,0.004568919073790312
1790006679589259500,7.059259521484375,0.0004106594424229115,-0.04836806654930115,0.0019680759869515896
1790006679599271700,7.069271728515625,-0.0009345032158307731,-0.0582667700946331,-0.004034422803670168
1790006679609283600,7.07928369140625,-0.016283098608255386,-0.02780499868094921,-0.004165982827544212
1790006679619295700,7.089295654296875,-0.017592042684555054,-0.013610350899398327,-0.0013052152935415506
1790006679629307600,7.0993076171875,-0.008322378620505333,-0.01655660569667816,0.00007217166421469301
1790006679639319600,7.109319580078125,0.003931358456611633,-0.031899344176054,-0.003858654061332345
1790006679649331700,7.119331787109375,0.009259277954697609,-0.022763635963201523,-0.0022921827621757984
1790006679659342800,7.1293427734375,0.002983539365231991,-0.004744687583297491,-0.0011611381778493524
1790006679669354800,7.139354736328125,-0.000046339002437889576,0.03418060764670372,-0.0011611381778493524
1790006679679367000,7.149366943359375,0.014420484192669392,0.027289943769574165,-0.0025864620693027973
1790006679689378800,7.15937890625,0.028787972405552864,0.020663199946284294,-0.0046328348107635975
1790006679699390700,7.169390625,0.035057853907346725,0.029395705088973045,-0.007099188398569822
1790006679709403000,7.17940283203125,0.03778146579861641,0.0540965236723423,-0.0007510114228352904
1790006679719414800,7.189414794921875,0.04300552234053612,0.07927112281322479,-0.0009390306076966226
1790006679729426700,7.1994267578125,0.059715792536735535,0.08631385117769241,-0.0013587448047474027
1790006679739437800,7.209437744140625,0.07310456782579422,0.09060793370008469,-0.004579305648803711
1790006679749449700,7.21944970703125,0.0749456137418747,0.11876073479652405,-0.006429403554648161
1790006679759461600,7.229461669921875,0.07662446796894073,0.13472957909107208,-0.011535216122865677
1790006679769473800,7.239473876953125,0.09449135512113571,0.1492840200662613,-0.008139153011143208
1790006679779485400,7.2494853515625,0.11543498188257217,0.14397794008255005,-0.0012420982820913196
1790006679789497600,7.25949755859375,0.12057808041572571,0.15704847872257233,-0.001770203118212521
1790006679799509500,7.269509521484375,0.10777067393064499,0.16968676447868347,-0.0052323127165436745
1790006679809521400,7.279521484375,0.10510271787643433,0.17820675671100616,-0.00555215822532773
1790006679819532500,7.289532470703125,0.11237367987632751,0.1578199863433838,-0.004741491749882698
1790006679829544400,7.29954443359375,0.11967500299215317,0.14671887457370758,0.0033417344093322754
1790006679839556400,7.309556396484375,0.12352380156517029,0.1502174586057663,0.006876281928271055
1790006679849568500,7.319568603515625,0.11976022273302078,0.15099456906318665,0.004021373111754656
1790006679859580400,7.329580322265625,0.12508654594421387,0.13273407518863678,0.003364637726917863
1790006679869592300,7.33959228515625,0.12692812085151672,0.10731180757284164,0.009094162844121456
1790006679879604500,7.3496044921875,0.11532525718212128,0.09799367189407349,0.006874950136989355
1790006679889616400,7.359616455078125,0.10099532455205917,0.08067407459020615,0.008292551152408123
1790006679899628500,7.369628662109375,0.09297255426645279,0.07237832993268967,0.016695622354745865
1790006679909639700,7.3796396484375,0.09497178345918655,0.04635445028543472,0.023560985922813416
1790006679919651600,7.389651611328125,0.10155325382947922,0.01407773606479168,0.021886922419071198
1790006679929663500,7.39966357421875,0.09448442608118057,-0.005283178761601448,0.01823626086115837
1790006679939675600,7.409675537109375,0.0816088393330574,-0.018391789868474007,0.015586948953568935
1790006679949687600,7.4196875,0.06798171252012253,-0.033066872507333755,0.021408619359135628
1790006679959699700,7.42969970703125,0.05301741138100624,-0.03952344134449959,0.025239042937755585
1790006679969711600,7.439711669921875,0.04927061125636101,-0.04099803417921066,0.02719886414706707
1790006679979723500,7.4497236328125,0.05425764620304108,-0.043888892978429794,0.0272689051926136
1790006679989734400,7.459734375,0.05916105955839157,-0.0505334809422493,0.019784623757004738
1790006679999746600,7.46974658203125,0.05902497097849846,-0.05150899663567543,0.012732306495308876
1790006680009758500,7.479758544921875,0.05138995498418808,-0.04259033873677254,0.014601047150790691
1790006680019770600,7.4897705078125,0.040678720921278,-0.02046319656074047,0.024049144238233566
1790006680029782500,7.499782470703125,0.044924862682819366,0.03435051813721657,0.025314677506685257
1790006680039794400,7.50979443359375,0.04270805045962334,0.08177103102207184,0.021026721224188805
1790006680049806600,7.519806640625,0.09917505085468292,0.08154971897602081,-0.010845989920198917
1790006680059818500,7.529818603515625,0.11989417672157288,0.11208392679691315,-0.015958726406097412
1790006680069829400,7.539829345703125,0.12544074654579163,0.15767058730125427,-0.0021792647894471884
1790006680079841500,7.549841552734375,0.1124972477555275,0.22799108922481537,0.0025782061275094748
1790006680089853400,7.559853515625,0.12045744061470032,0.2364783138036728,-0.004031226970255375
1790006680099865300,7.569865234375,0.15066275000572205,0.2067584991455078,-0.009246761910617352
1790006680109877500,7.57987744140625,0.15932121872901917,0.17169159650802612,-0.012733638286590576
1790006680119889400,7.589889404296875,0.12134240567684174,0.17579285800457,-0.014164288528263569
1790006680129901300,7.5999013671875,0.08858872205018997,0.2090996950864792,-0.01182390283793211
1790006680139913500,7.60991357421875,0.09236854314804077,0.18646521866321564,-0.006245112512260675
1790006680149925400,7.61992529296875,0.1165069043636322,0.13293780386447906,0.006173740141093731
1790006680159936500,7.6299365234375,0.1264823079109192,0.10464518517255783,0.01480584405362606
1790006680169948700,7.63994873046875,0.10276100039482117,0.10954327136278152,0.006434729788452387
1790006680179960600,7.649960693359375,0.07926739007234573,0.11144370585680008,-0.0029936593491584063
1790006680189972700,7.65997265625,0.08749442547559738,0.07586413621902466,0.008824117481708527
1790006680199984600,7.669984619140625,0.10408245772123337,0.03093394823372364,0.021805429831147194
1790006680209996500,7.67999658203125,0.1002134159207344,0.018743593245744705,0.01853506825864315
1790006680220008700,7.6900087890625,0.08574126660823822,0.030885478481650352,0.016337960958480835
1790006680230020600,7.7000205078125,0.09977772831916809,0.020984910428524017,0.02575276792049408
1790006680240031500,7.710031494140625,0.12158182263374329,-0.004245345015078783,0.027657460421323776
1790006680250043600,7.720043701171875,0.12908048927783966,0.008537561632692814,0.026401514187455177
1790006680260055600,7.7300556640625,0.120781809091568,0.04009229317307472,0.026335733011364937
1790006680270067500,7.7400673828125,0.12423273175954819,0.06021806597709656,0.02309786155819893
1790006680280079600,7.75007958984375,0.14216646552085876,0.0539708249270916,0.02659698948264122
1790006680290091500,7.760091552734375,0.15780161321163177,0.051006194204092026,0.03542163968086243
1790006680300103400,7.770103515625,0.16889475286006927,0.06097467243671417,0.034108966588974
1790006680310115600,7.780115478515625,0.1778898388147354,0.0698014497756958,0.02731630951166153
1790006680320127500,7.79012744140625,0.18827803432941437,0.061340320855379105,0.036429379135370255
1790006680330138400,7.800138427734375,0.19516070187091827,0.053700778633356094,0.045998916029930115
1790006680340150500,7.810150634765625,0.1971687227487564,0.060799166560173035,0.04417625069618225
1790006680350162400,7.820162353515625,0.19985905289649963,0.08305520564317703,0.03874819353222847
1790006680360174300,7.83017431640625,0.21917656064033508,0.10028345882892609,0.04027285426855087
1790006680370186500,7.8401865234375,0.24493464827537537,0.10222357511520386,0.045156292617321014
1790006680380198400,7.850198486328125,0.26624739170074463,0.1120184138417244,0.04812278971076012
1790006680390210600,7.86021044921875,0.2697364091873169,0.12933722138404846,0.04983040690422058
1790006680400222500,7.870222412109375,0.2753559350967407,0.13855841755867004,0.055925317108631134
1790006680410234400,7.880234375,0.28588953614234924,0.12822268903255463,0.044977862387895584
1790006680420245500,7.89024560546875,0.2767450511455536,0.07472004741430283,0.06156828999519348
1790006680430257700,7.900257568359375,0.2964484393596649,0.07755151391029358,0.05886411666870117
1790006680440269600,7.91026953125,0.28716734051704407,0.1331505924463272,0.055697083473205566
1790006680450281700,7.92028173828125,0.3065578043460846,0.19559559226036072,0.05038780719041824
1790006680460293600,7.930293701171875,0.3368437886238098,0.22139790654182434,0.052375856786966324
1790006680470305500,7.940305419921875,0.3779776692390442,0.23201672732830048,0.04589878022670746
1790006680480317700,7.950317626953125,0.3805135190486908,0.2790156602859497,0.049430664628744125
1790006680490329600,7.96032958984375,0.3647997975349426,0.34468308091163635,0.054731421172618866
1790006680500340500,7.970340576171875,0.37932947278022766,0.36335715651512146,0.04713102802634239
1790006680510352600,7.9803525390625,0.4228005111217499,0.33106979727745056,0.0353982038795948
1790006680520364500,7.990364501953125,0.456858366727829,0.29660823941230774,0.038171086460351944
1790006680530376400,8.00037646484375,0.45337975025177,0.33470767736434937,0.04808390513062477
1790006680540388600,8.010388671875,0.4329279959201813,0.39330336451530457,0.050754789263010025
1790006680550400500,8.020400390625,0.43283611536026,0.4375610947608948,0.037336185574531555
1790006680560412700,8.03041259765625,0.44786301255226135,0.4628656506538391,0.01944347284734249
1790006680570424600,8.040424560546874,0.4494512975215912,0.4991229772567749,0.008686166256666183
1790006680580436500,8.0504365234375,0.44467732310295105,0.5437650084495544,0.013514210470020771
1790006680590447400,8.060447265625,0.4624062478542328,0.5719718933105469,0.021147096529603004
1790006680600459500,8.07045947265625,0.476286917924881,0.5816066861152649,0.016932643949985504
1790006680610471400,8.080471435546874,0.5142159461975098,0.5923812985420227,-0.003655987558886409
1790006680620483600,8.090483642578125,0.46398285031318665,0.6193934679031372,-0.01629455015063286
1790006680630495500,8.10049560546875,0.4263017773628235,0.6546867489814758,-0.013189838267862797
1790006680640507400,8.11050732421875,0.4160054624080658,0.6813002228736877,-0.007984689436852932
1790006680650519600,8.12051953125,0.4218769371509552,0.6941566467285156,-0.006740726996213198
1790006680660531500,8.130531494140625,0.43587663769721985,0.7229219675064087,-0.020871194079518318
1790006680670543400,8.14054345703125,0.45362821221351624,0.7444262504577637,-0.03459792584180832
1790006680680554800,8.1505546875,0.44926461577415466,0.7617495656013489,-0.037648044526576996
1790006680690566700,8.160566650390624,0.48739203810691833,0.7593926787376404,-0.028965605422854424
1790006680700578600,8.17057861328125,0.5617471933364868,0.737158477306366,-0.026208167895674706
1790006680710590700,8.1805908203125,0.6596748232841492,0.690458357334137,-0.0234691072255373
1790006680720602600,8.1906025390625,0.7799612879753113,0.6352195739746094,-0.013530456461012363
1790006680730614500,8.200614501953124,0.9043005704879761,0.5772055387496948,0.0011635350529104471
1790006680740626700,8.210626708984375,0.991206705570221,0.5065140724182129,0.0159416813403368
1790006680750638600,8.220638671875,1.0224064588546753,0.47202345728874207,0.020741498097777367
1790006680760649500,8.2306494140625,0.9837482571601868,0.5070013999938965,0.018875153735280037
1790006680770661600,8.24066162109375,0.8147821426391602,0.836237907409668,0.004425374791026115
1790006680780673800,8.250673828125,0.5996224284172058,0.6954930424690247,0.002793922321870923
1790006680790685700,8.260685791015625,0.3371351659297943,0.6582340598106384,0.004734834190458059
1790006680800697600,8.270697509765625,0.19061335921287537,0.5942639112472534,-0.00037683729897253215
1790006680810709800,8.280709716796874,0.1588122844696045,0.5524820685386658,0.001142496126703918
1790006680820721700,8.2907216796875,0.12404605001211166,0.5414877533912659,0.003463707398623228
1790006680830733600,8.300733642578125,0.10829504579305649,0.5252339243888855,0.006874683778733015
1790006680840745700,8.310745849609376,0.14647306501865387,0.5090650916099548,0.009048089385032654
1790006680850756600,8.320756591796876,0.16565820574760437,0.500985860824585,0.009895773604512215
1790006680860768500,8.3307685546875,0.1687898188829422,0.5023331642150879,0.004150270018726587
1790006680870780700,8.34078076171875,0.15533818304538727,0.5089186429977417,0.002088717184960842
1790006680880792600,8.35079248046875,0.15601196885108948,0.5007930397987366,0.009329319931566715
1790006680890804700,8.3608046875,0.1772722452878952,0.47772157192230225,0.016860205680131912
1790006680900816600,8.370816650390625,0.19543421268463135,0.45501944422721863,0.011438809335231781
1790006680910828500,8.38082861328125,0.20725944638252258,0.44757139682769775,0.002008023438975215
1790006680920840700,8.3908408203125,0.20328813791275024,0.4448704123497009,-0.0002564624010119587
1790006680930852600,8.4008525390625,0.2011088728904724,0.443670392036438,0.012084359303116798
1790006680940863500,8.410863525390624,0.20332728326320648,0.4306003749370575,0.02468084543943405
1790006680950875600,8.420875732421875,0.21180838346481323,0.4203245937824249,0.024224912747740746
1790006680960887600,8.430887451171875,0.22354094684123993,0.4108445346355438,0.015733156353235245
1790006680970899500,8.4408994140625,0.23716194927692413,0.412479430437088,0.010817227885127068
1790006680980911600,8.45091162109375,0.24793817102909088,0.4135098159313202,0.001484445994719863
1790006680990923500,8.460923583984375,0.25553590059280396,0.40945860743522644,0.00427144393324852
1790006681000935700,8.470935791015625,0.26296985149383545,0.4059554934501648,0.008407332934439182
1790006681010947600,8.480947509765626,0.26954546570777893,0.4117119312286377,0.013246563263237476
1790006681020959500,8.49095947265625,0.2699185609817505,0.4193413555622101,0.020719924941658974
1790006681030970600,8.500970703125,0.27465686202049255,0.4105558395385742,0.017053818330168724
1790006681040982800,8.510982666015625,0.2768414616584778,0.4002744257450104,0.0024863271974027157
1790006681050994700,8.52099462890625,0.26482048630714417,0.4079166352748871,-0.009021458216011524
1790006681061006600,8.531006591796874,0.2635030150413513,0.42501360177993774,0.0020503676496446133
1790006681071018800,8.541018798828125,0.26852279901504517,0.43441644310951233,0.024058198556303978
1790006681081030700,8.55103076171875,0.278320848941803,0.4318656623363495,0.03465038910508156
1790006681091042800,8.561042724609376,0.2860831618309021,0.4201195240020752,0.011699799448251724
1790006681101054700,8.5710546875,0.2768193483352661,0.4181852638721466,-0.017847705632448196
1790006681111066600,8.581066650390625,0.25599902868270874,0.4188867509365082,-0.01841682381927967
1790006681121077500,8.591077392578125,0.24170637130737305,0.42547807097435,0.008557535707950592
1790006681131089700,8.601089599609375,0.24923832714557648,0.4088570177555084,0.032410670071840286
1790006681141101600,8.6111015625,0.2518652677536011,0.41091403365135193,0.03991199657320976
1790006681151113700,8.62111376953125,0.2427511215209961,0.41565659642219543,0.013353888876736164
1790006681161125600,8.631125732421875,0.24843378365039825,0.42328786849975586,-0.012412195093929768
1790006681171137500,8.641137451171875,0.21429391205310822,0.4182867407798767,-0.004064516630023718
1790006681181149700,8.651149658203124,0.20249611139297485,0.4186193645000458,0.015301991254091263
1790006681191161600,8.66116162109375,0.19664381444454193,0.4074886739253998,0.024320784956216812
1790006681201173500,8.671173583984375,0.18578371405601501,0.40148165822029114,0.038474421948194504
1790006681211184600,8.6811845703125,0.177772656083107,0.3830299377441406,0.02629844844341278
1790006681221196500,8.691196533203126,0.17104098200798035,0.3682438135147095,0.010220945812761784
1790006681231208400,8.70120849609375,0.1631106287240982,0.3619510233402252,0.002712695859372616
1790006681241220600,8.711220703125,0.15397945046424866,0.3525409996509552,0.004525776021182537
1790006681251232500,8.721232421875,0.15112826228141785,0.3341343104839325,0.014602644369006157
1790006681261244400,8.731244384765626,0.14794206619262695,0.31201088428497314,0.0258070956915617
1790006681271256600,8.741256591796875,0.12683144211769104,0.31039169430732727,0.03500885143876076
1790006681281268500,8.7512685546875,0.11105354875326157,0.3149574100971222,0.03404345363378525
1790006681291280600,8.76128076171875,0.10728384554386139,0.30451223254203796,0.009440107271075249
1790006681301291800,8.771291748046876,0.11023462563753128,0.28026333451271057,0.007577758282423019
1790006681311303700,8.7813037109375,0.10677891224622726,0.26517999172210693,0.026561303064227104
1790006681321315800,8.79131591796875,0.08741506934165955,0.2639560103416443,0.030673224478960037
1790006681331327700,8.80132763671875,0.06392651796340942,0.2599673867225647,0.023968981578946114
1790006681341339600,8.811339599609376,0.05664250627160072,0.24499110877513885,0.01341594010591507
1790006681351351800,8.821351806640624,0.06577262282371521,0.22362403571605682,0.01613369584083557
1790006681361363700,8.83136376953125,0.07573311030864716,0.20594464242458344,0.019700467586517334
1790006681371375600,8.841375732421875,0.07237832993268967,0.2136497050523758,0.02791045978665352
1790006681381387800,8.8513876953125,0.05945427343249321,0.22025194764137268,0.0314607210457325
1790006681391399700,8.861399658203124,0.046913713216781616,0.21771128475666046,0.02147519774734974
1790006681401410600,8.87141064453125,0.037340447306632996,0.22182640433311462,0.011334147304296494
1790006681411422700,8.881422607421875,0.03930133208632469,0.2219257354736328,0.0246715247631073
1790006681421434600,8.8914345703125,0.05332260951399803,0.22516733407974243,0.03351694718003273
1790006681431446500,8.901446533203124,0.05903402343392372,0.22431166470050812,0.04243800416588783
1790006681441458700,8.911458740234375,0.057672616094350815,0.2247265875339508,0.032290294766426086
1790006681451470600,8.921470703125,0.04021826013922691,0.2305634319782257,0.00830639898777008
1790006681461482800,8.931482666015626,0.016992565244436264,0.23487669229507446,0.006779076531529427
1790006681471494700,8.94149462890625,0.012233763001859188,0.22866539657115936,0.024770593270659447
1790006681481506600,8.951506591796875,0.02165176533162594,0.22714367508888245,0.061585333198308945
1790006681491517400,8.961517333984375,0.023725569248199463,0.23205800354480743,0.08156916499137878
1790006681501529600,8.971529541015625,0.010047041811048985,0.25030091404914856,0.05730723217129707
1790006681511541500,8.98154150390625,-0.010637464001774788,0.26176688075065613,0.021853100508451462
1790006681521553700,8.9915537109375,-0.03345862403512001,0.2684333324432373,0.017112141475081444
1790006681531565600,9.001565673828125,-0.03785070776939392,0.2629866302013397,0.03585733473300934
1790006681541577500,9.011577392578126,-0.03501763939857483,0.26118287444114685,0.052379585802555084
1790006681551589600,9.021589599609374,-0.039139945060014725,0.26793423295021057,0.05407814681529999
1790006681561601500,9.0316015625,-0.057738132774829865,0.2744925320148468,0.042269691824913025
1790006681571613400,9.041613525390625,-0.079947829246521,0.27876612544059753,0.039325300604104996
1790006681581625600,9.05162548828125,-0.08637803047895432,0.28274089097976685,0.07555041462182999
1790006681591636700,9.06163671875,-0.1064247116446495,0.2650505602359772,0.11162852495908737
1790006681601648600,9.071648681640625,-0.09977692365646362,0.23130592703819275,0.10007040947675705
1790006681611660800,9.081660888671875,-0.1082519069314003,0.21313144266605377,0.05745983123779297
1790006681621672700,9.091672607421875,-0.13458417356014252,0.22384534776210785,0.038543663918972015
1790006681631684600,9.1016845703125,-0.16060538589954376,0.19554686546325684,0.06022046506404877
1790006681641696800,9.11169677734375,-0.1774887591600418,0.15995478630065918,0.09116239845752716
1790006681651708700,9.121708740234375,-0.18255943059921265,0.11868590116500854,0.09743467718362808
1790006681661720800,9.131720947265626,-0.18202093243598938,0.06178400665521622,0.07363933324813843
1790006681671732700,9.141732666015624,-0.20456857979297638,0.015169898048043251,0.05155560374259949
1790006681681743600,9.15174365234375,-0.23322659730911255,-0.022369753569364548,0.041427332907915115
1790006681691755500,9.161755615234375,-0.2634012699127197,-0.047999218106269836,0.045943256467580795
1790006681701767700,9.171767578125,-0.2710115313529968,-0.06320027261972427,0.06279520690441132
1790006681711779600,9.181779541015626,-0.2636905014514923,-0.08448479324579239,0.06262370198965073
1790006681721791700,9.191791748046874,-0.25840386748313904,-0.10974593460559845,0.05283338576555252
1790006681731803600,9.2018037109375,-0.27153828740119934,-0.11364933103322983,0.04825221747159958
1790006681741815600,9.211815673828125,-0.28043004870414734,-0.11004208028316498,0.03717666491866112
1790006681751827700,9.22182763671875,-0.27686142921447754,-0.11496147513389587,0.03117283247411251
1790006681761839600,9.231839599609375,-0.27994829416275024,-0.11006658524274826,0.039733562618494034
1790006681771850200,9.241850341796875,-0.2895580530166626,-0.08004503697156906,0.06547541171312332
1790006681781862100,9.251862060546875,-0.30369144678115845,-0.06451534479856491,0.08090922981500626
1790006681791874300,9.261874267578126,-0.29866766929626465,-0.06534092128276825,0.07312773913145065
1790006681801886200,9.27188623046875,-0.2744145095348358,-0.07807695865631104,0.04024036228656769
1790006681811898400,9.2818984375,-0.25324079394340515,-0.09481359273195267,0.013185576535761356
1790006681821910300,9.29191015625,-0.24900449812412262,-0.11047031730413437,0.008200671523809433
1790006681831922200,9.301922119140626,-0.25577691197395325,-0.11732449382543564,0.03711461275815964
1790006681841934300,9.311934326171874,-0.24912886321544647,-0.13770434260368347,0.06240106001496315
1790006681851946200,9.3219462890625,-0.23263217508792877,-0.177660271525383,0.05319477990269661
1790006681861958100,9.331958251953125,-0.20726583898067474,-0.19884970784187317,0.011122692376375198
1790006681871969500,9.341969482421876,-0.16352741420269012,-0.20562586188316345,-0.013654293492436409
1790006681881981400,9.3519814453125,-0.13561828434467316,-0.21266353130340576,-0.006201703101396561
1790006681891993300,9.361993408203125,-0.1158328577876091,-0.20335125923156738,0.018625881522893906
1790006681902005500,9.372005615234375,-0.10432587563991547,-0.19022400677204132,0.030663637444376945
1790006681912017400,9.382017333984376,-0.08708137273788452,-0.17063352465629578,0.018441325053572655
1790006681922029300,9.392029296875,-0.0689215436577797,-0.16037529706954956,-0.009159942157566547
1790006681932041500,9.40204150390625,-0.05228797346353531,-0.1466277837753296,-0.019602196291089058
1790006681942053400,9.412053466796875,-0.03352200612425804,-0.1175154447555542,-0.013067598454654217
1790006681952065500,9.4220654296875,-0.024576982483267784,-0.07340710610151291,0.001859419047832489
1790006681962076400,9.432076416015626,-0.011999138630926609,-0.022465627640485764,0.01973109319806099
1790006681972088300,9.44208837890625,0.00896846130490303,-0.002814961364492774,-0.002945189829915762
1790006681982100200,9.452100341796875,0.012954148463904858,0.012552010826766491,-0.03766908124089241
1790006681992112400,9.4621123046875,0.015927301719784737,0.040353015065193176,-0.03638863563537598
1790006682002124300,9.472124267578126,0.02864496037364006,0.05323392525315285,-0.005269596818834543
1790006682012136400,9.482136474609375,0.045216213911771774,0.054310910403728485,0.017141170799732208
1790006682022148400,9.4921484375,0.0628732368350029,0.05211646482348442,0.014416223391890526
1790006682032160300,9.50216015625,0.0747125893831253,0.050394997000694275,-0.011977567337453365
1790006682042172400,9.51217236328125,0.08039151132106781,0.0519377663731575,-0.033785127103328705
1790006682052183300,9.522183349609374,0.08627043664455414,0.05286827310919762,-0.019840549677610397
1790006682062195200,9.5321953125,0.0921027660369873,0.05572318285703659,0.012479306198656559
1790006682072207400,9.542207275390625,0.09563092142343521,0.05960953235626221,0.01859658770263195
1790006682082219300,9.55221923828125,0.10162276774644852,0.06276990473270416,-0.0019686087034642696
1790006682092231200,9.562231201171874,0.10870597511529922,0.061162691563367844,-0.008374310098588467
1790006682102243300,9.572243408203125,0.10797440260648727,0.05843960866332054,-0.002025333931669593
1790006682112255200,9.582255126953125,0.10343078523874283,0.06649753451347351,0.005309011787176132
1790006682122267100,9.59226708984375,0.09019620716571808,0.08840256929397583,0.017710020765662193
1790006682132279300,9.602279296875,0.08560917526483536,0.11547626554965973,0.024025974795222282
1790006682142290400,9.61229052734375,0.09277334809303284,0.12894919514656067,0.009704292751848698
1790006682152302300,9.62230224609375,0.09936466813087463,0.14562271535396576,0.0007869640830904245
1790006682162314500,9.632314453125,0.10255167633295059,0.16967052221298218,0.011569837108254433
1790006682172326400,9.642326416015624,0.10133327543735504,0.19017073512077332,0.007852330803871155
1790006682182338600,9.652338623046875,0.0965648889541626,0.20435713231563568,0.007349259220063686
1790006682192350500,9.6623505859375,0.08935198187828064,0.19243362545967102,0.015031945891678333
1790006682202362400,9.6723623046875,0.08022932708263397,0.16451704502105713,0.013077719137072563
1790006682212374500,9.68237451171875,0.06542001664638519,0.12782907485961914,-0.004768656101077795
1790006682222386400,9.692386474609375,0.047767523676157,0.09733107686042786,-0.018203238025307655
1790006682232397300,9.702397216796875,0.038532745093107224,0.07826098054647446,-0.026397252455353737
1790006682242409500,9.712409423828126,0.04525376483798027,0.062421832233667374,-0.019461315125226974
1790006682252421400,9.72242138671875,0.0519297756254673,0.05747288092970848,-0.008623847737908363
1790006682262433300,9.732433349609375,0.0491797961294651,0.06036507338285446,-0.006049903109669685
1790006682272445400,9.742445556640625,0.04097459837794304,0.06305060535669327,-0.01287558488547802
1790006682282457300,9.752457275390626,0.03401868790388107,0.058333348482847214,-0.03194461762905121
1790006682292469200,9.76246923828125,0.03362693637609482,0.05775943771004677,-0.04199911653995514
1790006682302481400,9.7724814453125,0.03899107500910759,0.05994908884167671,-0.023381488397717476
1790006682312493300,9.782493408203125,0.04343908652663231,0.06791699677705765,-0.010436395183205605
1790006682322505500,9.79250537109375,0.04855741560459137,0.07207100093364716,-0.010863566771149635
1790006682332516400,9.802516357421876,0.04126860946416855,0.08021760731935501,-0.014062022790312767
1790006682342528300,9.8125283203125,0.03653111308813095,0.07783327996730804,-0.023035278543829918
1790006682352540200,9.8225400390625,0.036913808435201645,0.06037253141403198,-0.03074406459927559
1790006682362552300,9.83255224609375,0.03801396116614342,0.030105438083410263,-0.021273596212267876
1790006682372564200,9.842564208984374,0.03526744246482849,-0.0015622102655470371,-0.023544739931821823
1790006682382576400,9.852576416015625,0.028051873669028282,-0.02462039142847061,-0.02786119282245636
1790006682392588300,9.86258837890625,0.020726583898067474,-0.04200710356235504,-0.025473402813076973
1790006682402600200,9.87260009765625,0.019947076216340065,-0.054376956075429916,-0.01660614088177681
1790006682412611300,9.882611328125,0.024747423827648163,-0.05209196358919144,-0.013642841950058937
1790006682422623500,9.89262353515625,0.027118436992168427,-0.04523006081581116,-0.02069489285349846
1790006682432635400,9.902635498046875,0.027755731716752052,-0.03074619546532631,-0.02243633382022381
1790006682442647600,9.9126474609375,0.02869715914130211,-0.021086908876895905,-0.024171115830540657
1790006682452659500,9.922659423828126,0.024109063670039177,-0.01299569383263588,-0.019401660189032555
1790006682462671400,9.93267138671875,0.01618722639977932,0.0004106594424229115,-0.010733604431152344
1790006682472683500,9.94268359375,0.009253951720893383,0.01378319039940834,-0.00875913631170988
1790006682482695400,9.9526953125,0.0049553439021110535,0.020732441917061806,-0.006976949516683817
1790006682492707300,9.962707275390626,0.006331931799650192,0.014992797747254372,-0.0027566379867494106
1790006682502718500,9.972718505859374,0.005546299275010824,0.010364490561187267,-0.0027379959356039762
1790006682512730400,9.98273046875,-0.012899020686745644,0.014518489129841328,-0.007133809383958578
1790006682522742300,9.9927421875,-0.03289936110377312,0.018489794805645943,-0.014241253957152367
1790006682532754400,10.00275439453125,-0.04363536089658737,0.015398663468658924,-0.01468600146472454
1790006682542766300,10.012766357421874,-0.046606115996837616,0.005007808096706867,-0.0049284459091722965
1790006682552778200,10.0227783203125,-0.04771106317639351,0.0015728629659861326,0.014326474629342556
1790006682562790400,10.032790283203125,-0.05741855129599571,-0.0002079928817693144,0.019108712673187256
1790006682572802300,10.04280224609375,-0.06970318406820297,-0.001133174984715879,0.015429556369781494
1790006682582814500,10.052814453125,-0.08278808742761612,-0.005109274294227362,0.003486610483378172
1790006682592825300,10.062825439453125,-0.08657057583332062,-0.0057468353770673275,0.002329467097297311
1790006682602837200,10.072837158203125,-0.08704568445682526,0.002686064224690199,0.00980469398200512
1790006682612849400,10.082849365234376,-0.08606404811143875,0.01107475534081459,0.010299775749444962
1790006682622861300,10.092861328125,-0.08525683730840683,0.02352210320532322,0.013142965734004974
1790006682632873200,10.102873291015625,-0.0854581743478775,0.03711008280515671,0.019099924713373184
1790006682642885400,10.112885498046875,-0.09345085173845291,0.053829144686460495,0.02322755753993988
1790006682652897300,10.122897216796876,-0.10296819359064102,0.0707644522190094,0.024402812123298645
1790006682662909200,10.1329091796875,-0.1059112548828125,0.08115876466035843,0.014680941589176655
1790006682672921300,10.14292138671875,-0.10386328399181366,0.09449774026870728,0.014856177382171154
1790006682682932500,10.152932373046875,-0.09335284680128098,0.10791687667369843,0.023187344893813133
1790006682692944400,10.1629443359375,-0.08283443003892899,0.12537389993667603,0.033300697803497314
1790006682702956500,10.17295654296875,-0.08850989490747452,0.13942739367485046,0.0317629911005497
1790006682712968400,10.182968505859375,-0.10028665512800217,0.14327140152454376,0.023016901686787605
1790006682722980400,10.19298046875,-0.10892941057682037,0.14101730287075043,0.02419828064739704
1790006682732992500,10.202992431640626,-0.10728650540113449,0.13458684086799622,0.038351915776729584
1790006682743004400,10.21300439453125,-0.10319962352514267,0.1258002668619156,0.0347750261425972
1790006682753016600,10.2230166015625,-0.1081797331571579,0.12358266115188599,0.030776554718613625
1790006682763027500,10.23302734375,-0.11839641630649567,0.11969577521085739,0.03453400731086731
1790006682773039900,10.243039794921875,-0.130232036113739,0.11363735049962997,0.034702055156230927
1790006682783051800,10.2530517578125,-0.14127057790756226,0.11102292686700821,0.045588258653879166
1790006682793064000,10.26306396484375,-0.14851783215999603,0.09242340922355652,0.03936950862407684
1790006682803075800,10.273075927734375,-0.15148353576660156,0.06976869702339172,0.018488995730876923
1790006682813087700,10.283087646484375,-0.1616954207420349,0.05874613672494888,0.02696317434310913
1790006682823100000,10.293099853515624,-0.17345593869686127,0.03449832275509834,0.046242330223321915
1790006682833111800,10.30311181640625,-0.1935601383447647,0.0052022188901901245,0.06391853094100952
1790006682843123700,10.313123779296875,-0.2249651998281479,-0.025501897558569908,0.06048864498734474
1790006682853134800,10.323134765625,-0.25299736857414246,-0.051719654351472855,0.03792421147227287
1790006682863146800,10.333146728515626,-0.2653706967830658,-0.08610958606004715,0.017287110909819603
1790006682873158700,10.34315869140625,-0.27060645818710327,-0.11437584459781647,0.0465637743473053
1790006682883170800,10.3531708984375,-0.2788628041744232,-0.1309681385755539,0.08650346845388412
1790006682893182700,10.3631826171875,-0.3032799959182739,-0.14688558876514435,0.08071881532669067
1790006682903194600,10.373194580078126,-0.32405930757522583,-0.16202352941036224,0.03307086601853371
1790006682913206800,10.383206787109375,-0.33615565299987793,-0.1929452270269394,0.00011371697473805398
1790006682923218700,10.39321875,-0.3420633375644684,-0.22918125987052917,0.03675428777933121
1790006682933230800,10.40323095703125,-0.34899288415908813,-0.24387098848819733,0.08998528122901917
1790006682943241700,10.41324169921875,-0.35735973715782166,-0.24819409847259521,0.08080190420150757
1790006682953253600,10.423253662109374,-0.38135001063346863,-0.23886877298355103,0.013641776517033577
1790006682963265800,10.433265869140625,-0.3922708332538605,-0.22946541011333466,-0.006321811582893133
1790006682973277700,10.443277587890625,-0.373735249042511,-0.22066792845726013,0.03015470691025257
1790006682983289600,10.45328955078125,-0.3582116663455963,-0.2286859005689621,0.03983929008245468
1790006682993301800,10.4633017578125,-0.35459429025650024,-0.22677083313465118,0.02207547426223755
1790006683003313700,10.473313720703125,-0.3656378984451294,-0.2422001212835312,-0.0004295678809285164
1790006683013325600,10.48332568359375,-0.35269227623939514,-0.2572064995765686,-0.018246648833155632
1790006683023337000,10.4933369140625,-0.3448953330516815,-0.2780614495277405,-0.020982246845960617
1790006683033348900,10.503348876953124,-0.3436385989189148,-0.30003464221954346,0.003728159237653017
1790006683043360800,10.51336083984375,-0.28952929377555847,-0.2864179015159607,0.002537992550060153
1790006683053373000,10.523373046875,-0.23395390808582306,-0.28123781085014343,0.01056476030498743
1790006683063384800,10.533384765625,-0.19669601321220398,-0.2901969254016876,0.007821171544492245
1790006683073396700,10.543396728515624,-0.1844494640827179,-0.3053090572357178,-0.015364841558039188
1790006683083409000,10.553408935546875,-0.17796599864959717,-0.33085009455680847,-0.028630578890442848
1790006683093420800,10.5634208984375,-0.18493282794952393,-0.3404198884963989,-0.00227913330309093
1790006683103433000,10.573432861328126,-0.19460436701774597,-0.3273933231830597,0.015912653878331184
1790006683113443800,10.58344384765625,-0.17571216821670532,-0.25426024198532104,0.03278164938092232
1790006683123455700,10.593455810546875,-0.16847263276576996,-0.16333432495594025,0.03580460324883461
1790006683133467600,10.603467529296875,-0.1583089530467987,-0.07999443262815475,0.023755131289362907
1790006683143479800,10.613479736328125,-0.13157054781913757,-0.020316191017627716,-0.0036421390250325203
1790006683153491700,10.62349169921875,-0.12978169322013855,-0.006927414797246456,-0.02183951810002327
1790006683163503900,10.63350390625,-0.13700605928897858,-0.017916416749358177,-0.013348562642931938
1790006683173515800,10.643515869140625,-0.14220693707466125,-0.04733768850564957,0.012009791098535061
1790006683183527700,10.653527587890625,-0.13227228820323944,-0.07430698722600937,0.018729213625192642
1790006683193538600,10.66353857421875,-0.10810916125774384,-0.10524812340736389,0.006653375457972288
1790006683203550700,10.67355078125,-0.10910305380821228,-0.12556324899196625,-0.01329716295003891
1790006683213562600,10.683562744140625,-0.0355105884373188,-0.15221430361270905,-0.03364531323313713
1790006683223574800,10.69357470703125,0.03831862658262253,-0.22289273142814636,-0.020267987623810768
1790006683233586700,10.703586669921876,0.04175623506307602,-0.3316066861152649,-0.00944889523088932
1790006683243598600,10.7135986328125,-0.006902380846440792,-0.4719028174877167,-0.021042168140411377
1790006683253610800,10.72361083984375,-0.06012884899973869,-0.5235614776611328,-0.02624651789665222
1790006683263622700,10.73362255859375,-0.09906293451786041,-0.5254720449447632,-0.03415956720709801
1790006683273634600,10.743634521484376,-0.06362957507371902,-0.5358743667602539,-0.018728148192167282
1790006683283646000,10.75364599609375,-0.050037868320941925,-0.5248454213142395,-0.059913136065006256
1790006683293657900,10.763657958984375,-0.0780005231499672,-0.5611709356307983,-0.09445939213037491
1790006683303669800,10.773669677734375,-0.17319920659065247,-0.6044496893882751,-0.0675518810749054
1790006683313682000,10.783681884765626,-0.3449552655220032,-0.6859005689620972,-0.04096314683556557
1790006683323693800,10.79369384765625,-0.6080153584480286,-0.8116023540496826,-0.0596739836037159
1790006683333705700,10.803705810546875,-0.8011494278907776,-0.926043689250946,-0.0947805717587471
1790006683343718000,10.8137177734375,-0.826817512512207,-1.0086275339126587,-0.09672654420137405
1790006683353729800,10.823729736328126,-0.8033822178840637,-1.02444589138031,-0.06591510027647018
1790006683363740700,10.83374072265625,-0.7278685569763184,-0.8802543878555298,0.038062695413827896
1790006683373752800,10.8437529296875,-0.716012179851532,-0.8230142593383789,-0.009556220844388008
1790006683383764700,10.8537646484375,-0.48947224020957947,-0.8095112442970276,0.04537254199385643
1790006683393777000,10.86377685546875,-0.2982434034347534,-0.8615371584892273,-0.020563865080475807
1790006683403788800,10.873788818359374,-0.3688502013683319,-0.9231890439987183,-0.1278035044670105
1790006683413800700,10.88380078125,-0.342057466506958,-0.9036718010902405,-0.089128278195858
1790006683423812900,10.893812744140625,-0.2577226161956787,-0.8537718653678894,0.021915685385465622
1790006683433824800,10.90382470703125,-0.14900891482830048,-0.8734318614006042,0.007735151331871748
1790006683443836700,10.913836669921874,-0.04433683678507805,-0.7288485765457153,-0.023323165252804756
1790006683453847800,10.923847900390625,-0.040275249630212784,-0.45053255558013916,-0.018506838008761406
1790006683463859700,10.933859619140625,-0.0692235454916954,-0.2670109272003174,-0.05661427602171898
1790006683473871600,10.94387158203125,-0.027333619073033333,-0.07319644838571548,-0.03953169658780098
1790006683483883800,10.9538837890625,0.035844285041093826,0.031853269785642624,0.005020058713853359
1790006683493895700,10.963895751953125,0.16827262938022614,0.14076058566570282,0.04282922297716141
1790006683503907600,10.973907470703125,0.2541550397872925,0.234089195728302,0.0344272144138813
1790006683513919700,10.983919677734375,0.2893175482749939,0.3485819399356842,-0.008941829204559326
1790006683523931600,10.993931640625,0.30567044019699097,0.5027472972869873,-0.003686081152409315
1790006683533942800,11.00394287109375,0.34942111372947693,0.6175984740257263,0.018913503736257553
1790006683543955000,11.013954833984375,0.4373110234737396,0.7232551574707031,0.05637645721435547
1790006683553966800,11.023966796875,0.5069316625595093,0.803730845451355,0.0781312882900238
1790006683563978800,11.033978759765626,0.5686876773834229,0.9235440492630005,0.06852313131093979
1790006683573991000,11.043990966796875,0.6086870431900024,0.9410434365272522,0.04439569264650345
1790006683584002800,11.0540029296875,0.6368747353553772,0.8792844414710999,0.028245219960808754
1790006683594015000,11.064014892578125,0.6159119009971619,0.8688837289810181,0.046357911080121994
1790006683604027000,11.07402685546875,0.5999891757965088,0.8810104131698608,0.04337463900446892
1790006683614038800,11.084038818359375,0.5817227959632874,0.9275180101394653,0.05319824069738388
1790006683624049700,11.094049560546875,0.5833718180656433,0.9494885802268982,0.04736511781811714
1790006683634061800,11.104061767578125,0.6102519035339355,1.0206851959228516,0.128718301653862
1790006683644073700,11.11407373046875,0.6161795854568481,0.9309551119804382,0.06657662987709045
1790006683654086000,11.1240859375,0.5704259276390076,0.9039402604103088,-0.02413436397910118
1790006683664097800,11.134097900390625,0.5412923097610474,0.9661410450935364,0.013888118788599968
1790006683674109700,11.144109619140625,0.5572922825813293,0.9700140953063965,0.026397518813610077
1790006683684121900,11.154121826171876,0.5253229141235352,0.9061560034751892,0.06462639570236206
1790006683694133800,11.1641337890625,0.4525565505027771,0.8293792009353638,0.07845352590084076
1790006683704144600,11.17414453125,0.4129753112792969,0.8396214246749878,0.041358623653650284
1790006683714156800,11.18415673828125,0.38171353936195374,0.7329131364822388,-0.09566580504179001
1790006683724168700,11.194168701171876,0.28607675433158875,0.6342885494232178,-0.08108020573854446
1790006683734180600,11.2041806640625,0.18636268377304077,0.6369202733039856,0.08872028440237045
1790006683744192800,11.21419287109375,0.19540171325206757,0.5894083976745605,0.1114674061536789
1790006683754204700,11.22420458984375,0.17045801877975464,0.5184748768806458,0.012321114540100098
1790006683764216600,11.234216552734376,0.13726891577243805,0.4564913809299469,-0.03356248885393143
1790006683774228500,11.244228515625,0.09211767464876175,0.4454437792301178,0.04345213621854782
1790006683784240600,11.25424072265625,0.05224616080522537,0.4803655445575714,0.0941145122051239
1790006683794251800,11.264251708984375,0.0874243900179863,0.38244563341140747,-0.09434407949447632
1790006683804263700,11.274263671875,0.07541486620903015,0.40476933121681213,0.0787012055516243
1790006683814275600,11.284275634765624,0.1514292061328888,0.5471488237380981,0.34945785999298096
1790006683824287700,11.294287841796875,0.24489523470401764,0.4294658899307251,0.33726033568382263
1790006683834299600,11.304299560546875,0.42421838641166687,0.4666380286216736,-0.4916251301765442
1790006683844311800,11.314311767578126,-0.03610873594880104,0.7380455732345581,0.12276267260313034
1790006683854323700,11.32432373046875,-0.26840561628341675,0.3878324329853058,-0.036683712154626846
1790006683864335600,11.334335693359375,-0.3898699879646301,0.31744906306266785,-0.10681939125061035
1790006683874346500,11.344346435546875,-0.08735274523496628,0.4115673005580902,0.0848054364323616
1790006683884358700,11.354358642578125,0.30260565876960754,0.40781092643737793,0.17051181197166443
1790006683894370600,11.36437060546875,0.31073737144470215,0.3599605858325958,0.055203333497047424
1790006683904382700,11.3743828125,0.12129047513008118,0.3808794319629669,-0.04995451122522354
1790006683914394600,11.38439453125,-0.1504153311252594,0.49772030115127563,-0.05275615677237511
1790006683924406500,11.394406494140625,-0.19656312465667725,0.5055260062217712,0.08572422713041306
1790006683934418700,11.404418701171876,-0.057196974754333496,0.3221205174922943,0.15232987701892853
1790006683944430600,11.4144306640625,0.109115831553936,0.0016088156262412667,0.04048484191298485
1790006683954441500,11.42444140625,0.055871788412332535,-0.176351860165596,-0.09046918153762817
1790006683964453600,11.43445361328125,-0.19616737961769104,-0.14137975871562958,-0.052689310163259506
1790006683974465500,11.444465576171876,-0.310933381319046,-0.09567592293024063,0.056169264018535614
1790006683984477400,11.4544775390625,-0.28549885749816895,-0.18950600922107697,0.0919451043009758
1790006683994489600,11.464489501953125,-0.22279739379882812,-0.33947980403900146,0.07391151040792465
1790006684004501500,11.47450146484375,-0.2243044674396515,-0.4597702622413635,-0.04157460853457451
1790006684014513400,11.484513427734376,-0.2554924786090851,-0.5425378680229187,-0.13179105520248413
1790006684024525600,11.494525634765624,-0.4026041626930237,-0.6105976104736328,-0.09080526977777481
1790006684034537500,11.504537353515625,-0.5242635011672974,-0.7215597629547119,-0.012852415442466736
1790006684044548600,11.514548583984375,-0.5564171671867371,-0.8154410123825073,0.023086942732334137
1790006684054560800,11.524560791015626,-0.5854253768920898,-0.8472013473510742,0.0068113007582724094
1790006684064572700,11.53457275390625,-0.560829222202301,-0.8480892181396484,-0.07922185212373734
1790006684074584800,11.544584716796875,-0.5478929281234741,-0.8806218504905701,-0.14131025969982147
1790006684084596700,11.5545966796875,-0.5895825624465942,-0.8967931270599365,-0.1147710531949997
1790006684094608600,11.564608642578126,-0.6277355551719666,-0.8766564130783081,-0.03683231770992279
1790006684104620800,11.574620849609374,-0.659973680973053,-0.820472002029419,-0.005852296482771635
1790006684114632700,11.5846328125,-0.676196813583374,-0.8048091530799866,-0.03514014557003975
1790006684124643600,11.5946435546875,-0.6173156499862671,-0.7941865921020508,-0.0641811192035675
1790006684134655700,11.60465576171875,-0.6084998250007629,-0.8050892949104309,-0.10908680409193039
1790006684144667600,11.614667724609374,-0.5744180083274841,-0.7495184540748596,-0.08980711549520493
1790006684154679600,11.624679443359375,-0.5601722002029419,-0.6850934028625488,-0.017187776044011116
1790006684164691700,11.634691650390625,-0.5495161414146423,-0.6426897644996643,-0.015450861304998398
1790006684174703600,11.64470361328125,-0.4441942274570465,-0.6164442896842957,-0.04528731852769852
1790006684184715500,11.654715576171874,-0.3779824376106262,-0.6230508089065552,-0.05170793458819389
1790006684194727700,11.664727783203125,-0.3756612539291382,-0.6083616018295288,-0.061520617455244064
1790006684204738600,11.674738525390625,-0.3578726649284363,-0.5608044862747192,-0.0765158161520958
1790006684214750500,11.68475048828125,-0.30847394466400146,-0.49476444721221924,-0.02455594204366207
1790006684224762600,11.6947626953125,-0.28448978066444397,-0.45608577132225037,0.002719087526202202
1790006684234774500,11.7047744140625,-0.16822150349617004,-0.3651564121246338,-0.02979065291583538
1790006684244786400,11.714786376953125,-0.10211198776960373,-0.28056615591049194,-0.021165739744901657
1790006684254798600,11.724798583984375,-0.0535694845020771,-0.2732134163379669,-0.039915457367897034
1790006684264810500,11.734810546875,-0.01858833245933056,-0.2481919676065445,-0.05915413424372673
1790006684274822700,11.74482275390625,-0.0057561565190553665,-0.2665003836154938,-0.05389705300331116
1790006684284833800,11.754833740234375,-0.005644835997372866,-0.21640713512897491,-0.013791179284453392
1790006684294845700,11.764845703125,-0.004770786967128515,-0.16166159510612488,-0.012545885518193245
1790006684304857600,11.774857666015626,0.017889784649014473,-0.0977526605129242,-0.006611031014472246
1790006684314869800,11.784869873046874,0.055158860981464386,-0.056595902889966965,-0.006595051847398281
1790006684324881700,11.794881591796875,0.09290304034948349,-0.055994294583797455,-0.03666400536894798
1790006684334893800,11.804893798828125,0.0920601487159729,-0.013886254280805588,-0.01926450803875923
1790006684344905700,11.81490576171875,0.06748636811971664,0.020544689148664474,0.0036759611684828997
1790006684354917600,11.824917724609374,0.05801563337445259,0.009661415591835976,-0.020359067246317863
1790006684364929800,11.8349296875,0.06666477769613266,0.023011043667793274,-0.002010420197620988
1790006684374940700,11.844940673828125,0.07970654964447021,0.026268355548381805,0.003067695302888751
1790006684384952600,11.85495263671875,0.09486526250839233,0.0322631299495697,-0.01841948740184307
1790006684394964700,11.86496484375,0.09189131110906601,0.031026359647512436,-0.048355016857385635
1790006684404976600,11.8749765625,0.0929270088672638,0.074129618704319,-0.00634897593408823
1790006684414988500,11.884988525390625,0.09217280149459839,0.07510753720998764,0.015177088789641857
1790006684425000700,11.895000732421876,0.0842384472489357,0.006937534548342228,-0.005676794331520796
1790006684435012600,11.9050126953125,0.07434161007404327,-0.038246721029281616,0.000666589243337512
1790006684445024800,11.915024658203125,0.020424315705895424,-0.09462850540876389,-0.012014051899313927
1790006684455035600,11.92503564453125,-0.0016492956783622503,-0.15459942817687988,-0.046362970024347305
1790006684465047600,11.935047607421875,-0.059479039162397385,-0.214962899684906,-0.044203415513038635
1790006684475059500,11.9450595703125,-0.08517002314329147,-0.24218440055847168,0.013675864785909653
1790006684485071600,11.955071533203125,-0.09554969519376755,-0.2610057592391968,0.033481527119874954
1790006684495083500,11.96508349609375,-0.09759366512298584,-0.2882365882396698,-0.01181990746408701
1790006684505095700,11.975095703125,-0.10148614645004272,-0.29900482296943665,-0.05116917937994003
1790006684515107600,11.985107666015624,-0.11217553913593292,-0.31365564465522766,-0.05554874613881111
1790006684525119500,11.995119384765625,-0.13853152096271515,-0.30465736985206604,-0.02370692789554596
1790006684535130600,12.005130615234375,-0.14743658900260925,-0.3328956663608551,0.003180613275617361
1790006684545142500,12.015142578125,-0.1566023975610733,-0.3758164942264557,0.011478223837912083
1790006684555154700,12.02515478515625,-0.17831940948963165,-0.4262365400791168,-0.036853622645139694
1790006684565166600,12.03516650390625,-0.21421802043914795,-0.44624993205070496,-0.07360205054283142
1790006684575178500,12.045178466796875,-0.24140623211860657,-0.4493860602378845,-0.07252319902181625
1790006684585190700,12.055190673828125,-0.26890575885772705,-0.4368462860584259,-0.02617993950843811
1790006684595202600,12.06520263671875,-0.24267016351222992,-0.47382962703704834,-0.014138721860945225
1790006684605214700,12.075214599609374,-0.21118201315402985,-0.5101258158683777,-0.018908709287643433
1790006684615225600,12.0852255859375,-0.23493607342243195,-0.5294979214668274,-0.05473807826638222
1790006684625237800,12.09523779296875,-0.2589934766292572,-0.5527327060699463,-0.06870848685503006
1790006684635249700,12.105249755859376,-0.304545521736145,-0.5903341174125671,-0.060317400842905045
1790006684645261600,12.115261474609374,-0.32330989837646484,-0.6482035517692566,-0.03960626572370529
1790006684655273700,12.125273681640625,-0.3037569522857666,-0.6909204125404358,-0.015719041228294373
1790006684665285600,12.13528564453125,-0.2354697734117508,-0.7095800638198853,0.006745786871761084
1790006684675297500,12.145297607421876,-0.19845183193683624,-0.7065315842628479,-0.021708490327000618
1790006684685309700,12.155309814453124,-0.1563352793455124,-0.7102559804916382,-0.05560280755162239
1790006684695321600,12.165321533203125,-0.1522904634475708,-0.6642115712165833,-0.021975340321660042
1790006684705332500,12.17533251953125,-0.1451135128736496,-0.6101059913635254,-0.0021081583108752966
1790006684715344600,12.1853447265625,-0.12072854489088058,-0.5741170644760132,0.017467141151428223
1790006684725356500,12.1953564453125,-0.03448793664574623,-0.5092105269432068,0.0027204190846532583
1790006684735368700,12.20536865234375,0.020436830818653107,-0.4050787687301636,-0.01973295770585537
1790006684745380600,12.215380615234375,0.04169178754091263,-0.340262234210968,-0.016955813392996788
1790006684755392500,12.225392578125,0.06664826720952988,-0.274997740983963,0.03689490258693695
1790006684765404700,12.23540478515625,0.09726610034704208,-0.21724310517311096,0.058405786752700806
1790006684775417000,12.2454169921875,0.10809903591871262,-0.12492861598730087,0.08394017070531845
1790006684785428000,12.255427978515625,0.12901870906352997,-0.0018255969043821096,0.020204870030283928
1790006684795440000,12.265440185546876,0.14847175776958466,0.13517139852046967,-0.017015201970934868
1790006684805452000,12.2754521484375,0.3169931471347809,0.2607458531856537,0.050029877573251724
