time,seconds_elapsed,z,y,x
1790006672582200800,0.052200927734375,0.27357152104377747,-0.4818052053451538,0.3578883707523346
1790006672592212700,0.062212646484375,0.22675500810146332,-0.5792481303215027,0.39767706394195557
1790006672602225000,0.072224853515625,0.17981599271297455,-0.6180429458618164,0.42344528436660767
1790006672612236800,0.08223681640625,0.15519480407238007,-0.5552562475204468,0.4485812485218048
1790006672622248700,0.092248779296875,0.16851301491260529,-0.3869679272174835,0.45920300483703613
1790006672632260900,0.1022607421875,0.18690453469753265,-0.050721198320388794,0.4891691505908966
1790006672642271700,0.112271728515625,0.22219353914260864,0.10560929030179977,0.5486114621162415
1790006672652283600,0.12228369140625,0.18839962780475616,0.025349069386720657,0.6189860105514526
1790006672662295800,0.1322958984375,0.10038908571004868,-0.2171730250120163,0.7660548686981201
1790006672672307700,0.1423076171875,-0.0023972117342054844,-0.33089399337768555,0.9449199438095093
1790006672682319600,0.152319580078125,-0.04797162115573883,-0.2981293797492981,1.1351343393325806
1790006672692331800,0.162331787109375,-0.019116804003715515,-0.18821167945861816,1.3116198778152466
1790006672702342700,0.1723427734375,0.024405639618635178,-0.04480685293674469,1.4404078722000122
1790006672712354600,0.1823544921875,0.04859726503491402,0.07049870491027832,1.5098602771759033
1790006672722366700,0.19236669921875,0.043165214359760284,0.08916693180799484,1.5079113245010376
1790006672732378600,0.202378662109375,0.007700163405388594,0.027119537815451622,1.3964109420776367
1790006672742390500,0.212390625,-0.047760963439941406,-0.10375245660543442,1.1934162378311157
1790006672752402700,0.222402587890625,-0.11404438316822052,-0.23054662346839905,0.930160403251648
1790006672762414800,0.232414794921875,-0.20391462743282318,-0.26851531863212585,0.6332176923751831
1790006672772426000,0.242426025390625,-0.30778586864471436,-0.21456551551818848,0.32705774903297424
1790006672782438100,0.252438232421875,-0.38056260347366333,-0.12810173630714417,0.07774300873279572
1790006672792450000,0.262449951171875,-0.4281224012374878,-0.06934734433889389,-0.0845809131860733
1790006672802462200,0.272462158203125,-0.48234036564826965,-0.050549160689115524,-0.17014694213867188
1790006672812474000,0.28247412109375,-0.5560505986213684,-0.01663912832736969,-0.20645302534103394
1790006672822486000,0.292486083984375,-0.6153613328933716,0.06488023698329926,-0.2211153209209442
1790006672832498200,0.302498291015625,-0.6422989368438721,0.17910480499267578,-0.19299979507923126
1790006672842509000,0.312509033203125,-0.641260027885437,0.28401365876197815,-0.12456615269184113
1790006672852521000,0.32252099609375,-0.6406463980674744,0.33170926570892334,-0.004402993246912956
1790006672862533000,0.332533203125,-0.6281886696815491,0.27337270975112915,0.15950685739517212
1790006672872545000,0.342544921875,-0.5845661163330078,0.12318908423185349,0.3142378330230713
1790006672882557000,0.352556884765625,-0.5034467577934265,-0.02946384623646736,0.43329817056655884
1790006672892569000,0.362569091796875,-0.4315461814403534,-0.10258838534355164,0.49045997858047485
1790006672902581000,0.3725810546875,-0.3874410390853882,-0.10649178177118301,0.4968382716178894
1790006672912592000,0.382591796875,-0.3818654417991638,-0.10542518645524979,0.4771500527858734
1790006672922604000,0.39260400390625,-0.4181576669216156,-0.13548775017261505,0.4609085023403168
1790006672932616000,0.402615966796875,-0.4655933380126953,-0.15489260852336884,0.4634835124015808
1790006672942627800,0.4126279296875,-0.48511672019958496,-0.09196663647890091,0.4843893051147461
1790006672952640000,0.422639892578125,-0.47541508078575134,0.07783278822898865,0.525030255317688
1790006672962652000,0.43265185546875,-0.4578227698802948,0.29110270738601685,0.5680813193321228
1790006672972663800,0.442663818359375,-0.42306986451148987,0.4239875376224518,0.6203612685203552
1790006672982675200,0.45267529296875,-0.37553802132606506,0.45126762986183167,0.6670904755592346
1790006672992687000,0.46268701171875,-0.2827164828777313,0.3365676701068878,0.6261461973190308
1790006673002699000,0.472698974609375,-0.11997044831514359,-0.024609168991446495,0.46840155124664307
1790006673012711200,0.482711181640625,0.07295213639736176,-0.5920677781105042,0.23160713911056519
1790006673022723000,0.49272314453125,0.18582089245319366,-1.1932886838912964,0.017439987510442734
1790006673032735000,0.50273486328125,0.25306758284568787,-1.5363125801086426,-0.10482972860336304
1790006673042746000,0.51274609375,0.35131293535232544,-1.5189850330352783,-0.10969452559947968
1790006673052758000,0.522758056640625,0.46826404333114624,-1.1986844539642334,-0.05262511596083641
1790006673062770000,0.53277001953125,0.504979133605957,-0.7974305748939514,0.0355185903608799
1790006673072782000,0.542781982421875,0.3833373785018921,-0.6275477409362793,0.1297445297241211
1790006673082794000,0.5527939453125,0.18083596229553223,-0.679722011089325,0.17450428009033203
1790006673092806100,0.56280615234375,0.04262641817331314,-0.7782198190689087,0.11391230672597885
1790006673102818000,0.572818115234375,0.021579990163445473,-0.8740749955177307,-0.04681585729122162
1790006673112829000,0.582828857421875,0.11369527131319046,-0.8704349398612976,-0.23377004265785217
1790006673122840800,0.5928408203125,0.285760760307312,-0.6631872653961182,-0.36110374331474304
1790006673132853000,0.60285302734375,0.4706083834171295,-0.40804654359817505,-0.3725433647632599
1790006673142865000,0.612864990234375,0.6418653726577759,-0.26267126202583313,-0.27955350279808044
1790006673152877000,0.622876953125,0.14408859610557556,-0.3915210962295532,-0.2778906226158142
1790006673162889000,0.632888916015625,-0.42034071683883667,-0.6584089994430542,-0.46085962653160095
1790006673172900900,0.64290087890625,-0.7428673505783081,0.14929154515266418,-0.611301064491272
1790006673182912000,0.652912109375,-0.6108208894729614,0.924842894077301,-0.6281599402427673
1790006673192924000,0.662923828125,-0.29365360736846924,1.1545584201812744,-0.6212953925132751
1790006673202935800,0.672935791015625,-0.018137594684958458,1.3591164350509644,-0.5742205381393433
1790006673212948000,0.682947998046875,0.15028391778469086,1.3250420093536377,-0.46975138783454895
1790006673222959900,0.6929599609375,0.18206048011779785,1.3894321918487549,-0.28353118896484375
1790006673232972000,0.702971923828125,0.24823151528835297,1.6124389171600342,-0.07323814183473587
1790006673242983200,0.712983154296875,0.27179381251335144,1.7493635416030884,0.049841444939374924
1790006673252995000,0.7229951171875,0.23161979019641876,1.66526460647583,0.0005212984979152679
1790006673263007000,0.733007080078125,0.13899263739585876,1.4650830030441284,-0.1368275135755539
1790006673273019100,0.74301904296875,0.07037363201379776,1.2589240074157715,-0.25040173530578613
1790006673283031000,0.753031005859375,0.03264489024877548,1.13815176486969,-0.3087425231933594
1790006673293043000,0.76304296875,-0.02946029044687748,0.97511887550354,-0.35411426424980164
1790006673303055000,0.77305517578125,-0.19402766227722168,0.7881847023963928,-0.28925299644470215
1790006673313066000,0.78306591796875,-0.35560885071754456,0.6076223254203796,-0.07319340109825134
1790006673323078000,0.793077880859375,-0.43252119421958923,0.407271146774292,0.19072771072387695
1790006673333090000,0.803090087890625,-0.4114452004432678,0.20450234413146973,0.4444873034954071
1790006673343102000,0.81310205078125,-0.24510176479816437,0.048740968108177185,0.6191834807395935
1790006673353113900,0.82311376953125,0.0383368656039238,-0.20095807313919067,0.6940995454788208
1790006673363126000,0.8331259765625,0.24459870159626007,-0.6111698746681213,0.7742471098899841
1790006673373137000,0.843136962890625,0.2929752767086029,-1.0022797584533691,0.9016923904418945
1790006673383148800,0.853148681640625,0.3361371159553528,-1.2629616260528564,0.9612987637519836
1790006673393161000,0.863160888671875,0.35567405819892883,-1.2686206102371216,0.8668039441108704
1790006673403172900,0.8731728515625,0.221683531999588,-0.5868679881095886,0.6280262470245361
1790006673413184800,0.883184814453125,0.2903776168823242,0.45571696758270264,0.33060014247894287
1790006673423197000,0.893197021484375,0.6668346524238586,1.0737024545669556,0.03196097910404205
1790006673433208800,0.903208740234375,1.1335402727127075,1.1180630922317505,-0.36720237135887146
1790006673443220000,0.913219970703125,1.3701599836349487,0.9539238214492798,-0.8018031120300293
1790006673453232000,0.923232177734375,1.4334889650344849,0.7633722424507141,-1.1921483278274536
1790006673463244000,0.933244140625,1.2669569253921509,0.5301927924156189,-1.5267411470413208
1790006673473256000,0.943255859375,1.0810060501098633,0.48563411831855774,-1.716947078704834
1790006673483268000,0.95326806640625,0.9238619208335876,0.5836454033851624,-1.673393726348877
1790006673493280000,0.963280029296875,0.7198619246482849,0.8592844009399414,-1.4762498140335083
1790006673503291000,0.973290771484375,0.624515175819397,1.1150577068328857,-1.1464869976043701
1790006673513303000,0.983302978515625,0.6810314059257507,1.1992249488830566,-0.7756029367446899
1790006673523315000,0.99331494140625,0.8132464289665222,1.2044343948364258,-0.3924773633480072
1790006673533327000,1.0033271484375,1.0030467510223389,1.1856056451797485,0.04910028725862503
1790006673543339000,1.013339111328125,1.1885521411895752,1.1615793704986572,0.5224518775939941
1790006673553351000,1.023350830078125,1.3333439826965332,1.6184017658233643,0.7923831939697266
1790006673563363000,1.033363037109375,1.504837989807129,1.5690795183181763,1.034902811050415
1790006673573374000,1.0433740234375,1.5564508438110352,0.6774435043334961,1.065294861793518
1790006673583385900,1.0533857421875,1.203060507774353,-0.5319738388061523,0.9442766308784485
1790006673593398000,1.06339794921875,0.6864126324653625,-1.2029638290405273,0.9408464431762695
1790006673603410000,1.073409912109375,0.3169165551662445,-1.513961672782898,1.1895174980163574
1790006673613421800,1.083421875,0.09260010719299316,-1.7202343940734863,1.664855718612671
1790006673623434000,1.09343408203125,-0.07607945799827576,-1.7551929950714111,2.2649600505828857
1790006673633445000,1.103445068359375,-0.1828293353319168,-1.5736559629440308,2.9121174812316895
1790006673643457000,1.11345703125,-0.23987078666687012,-1.0806161165237427,3.563647985458374
1790006673653469200,1.12346923828125,-0.2715725302696228,-0.39176613092422485,4.199846267700195
1790006673663481000,1.133481201171875,-0.2855149805545807,0.40504446625709534,4.797704219818115
1790006673673493000,1.143492919921875,-0.26926302909851074,1.1881558895111084,5.327826976776123
1790006673683505200,1.153505126953125,-0.19523540139198303,1.8188914060592651,5.7923712730407715
1790006673693516000,1.16351611328125,-0.02048996463418007,2.200457811355591,6.201836109161377
1790006673703528000,1.17352783203125,0.25732725858688354,1.7154710292816162,6.426576614379883
1790006673713540000,1.1835400390625,0.5701451301574707,0.044396284967660904,6.293679714202881
1790006673723552000,1.193552001953125,0.8809639811515808,-1.8834611177444458,5.719202041625977
1790006673733564000,1.20356396484375,1.0734798908233643,-2.815988779067993,4.926727294921875
1790006673743576000,1.213576171875,1.1740278005599976,-2.9847300052642822,4.20029354095459
1790006673753588000,1.223587890625,1.2524192333221436,-2.803837537765503,3.6374118328094482
1790006673763598000,1.23359814453125,1.3152350187301636,-2.500950574874878,3.1944241523742676
1790006673773610200,1.2436103515625,1.3512654304504395,-2.2023732662200928,2.8064658641815186
1790006673783622100,1.2536220703125,1.3783806562423706,-1.899657130241394,2.3967628479003906
1790006673793634300,1.26363427734375,1.4167613983154297,-1.5356416702270508,2.0005993843078613
1790006673803646200,1.273646240234375,1.4605679512023926,-1.2080150842666626,1.7143279314041138
1790006673813658000,1.283658203125,1.4985417127609253,-0.9545756578445435,1.5492905378341675
1790006673823669200,1.293669189453125,1.529557466506958,-0.7824529409408569,1.4532599449157715
1790006673833681400,1.303681396484375,1.5613555908203125,-0.6720728874206543,1.3387916088104248
1790006673843693300,1.313693359375,1.5750375986099243,-0.568979799747467,1.135913372039795
1790006673853705200,1.323705322265625,1.5362989902496338,-0.4470602571964264,0.874900758266449
1790006673863717400,1.33371728515625,1.4026445150375366,-0.33070677518844604,0.589402437210083
1790006673873729300,1.343729248046875,1.1691267490386963,-0.25002148747444153,0.3240032196044922
1790006673883740200,1.353740234375,0.9304739832878113,-0.25470468401908875,0.13906824588775635
1790006673893752300,1.36375244140625,0.7531695365905762,-0.34146618843078613,0.05276000127196312
1790006673903764200,1.37376416015625,0.6705396175384521,-0.4590356945991516,0.11506998538970947
1790006673913776000,1.383776123046875,0.6281375885009766,-0.5910342335700989,0.3331509232521057
1790006673923788300,1.393788330078125,0.5958539247512817,-0.7474187612533569,0.621465802192688
1790006673933800200,1.40380029296875,0.5475381016731262,-0.9464828372001648,0.9178990721702576
1790006673943812000,1.41381201171875,0.4713985323905945,-1.1566554307937622,1.1752886772155762
1790006673953823200,1.4238232421875,0.3795620799064636,-1.2718204259872437,1.3490493297576904
1790006673963835100,1.433835205078125,0.2836158573627472,-1.2264606952667236,1.4724016189575195
1790006673973847000,1.443846923828125,0.19246040284633636,-0.9951058030128479,1.5826314687728882
1790006673983859200,1.453859130859375,0.10856229066848755,-0.5476076602935791,1.6820619106292725
1790006673993871000,1.46387109375,-0.0008281129412353039,0.13402977585792542,1.7352617979049683
1790006674003883000,1.473883056640625,-0.17265260219573975,1.005078673362732,1.651068091392517
1790006674013894400,1.483894287109375,-0.39844632148742676,1.9631191492080688,1.3893027305603027
1790006674023906300,1.49390625,-0.6146206855773926,2.876983642578125,0.9851524233818054
1790006674033917200,1.503917236328125,-0.8151844143867493,3.663161516189575,0.4940039813518524
1790006674043929300,1.513929443359375,-0.980934739112854,4.075301647186279,0.05950978398323059
1790006674053941200,1.523941162109375,-1.054439902305603,3.599611520767212,-0.08932975679636002
1790006674063953200,1.533953125,-0.8102037310600281,1.7993416786193848,0.31134068965911865
1790006674073965300,1.54396533203125,-0.39857491850852966,-0.4051358103752136,0.837043821811676
1790006674083977200,1.553977294921875,-0.2786506414413452,-1.4712224006652832,0.9051328897476196
1790006674093989000,1.563989013671875,-0.3245347738265991,-1.6308133602142334,0.7624585628509521
1790006674104000300,1.574000244140625,-0.4357827305793762,-1.2716165781021118,0.490356981754303
1790006674114012200,1.58401220703125,-0.5273899435997009,-0.8290103673934937,0.24900346994400024
1790006674124024000,1.594024169921875,-0.580143392086029,-0.6193066835403442,0.1597422957420349
1790006674134036200,1.6040361328125,-0.6285527348518372,-0.6001551151275635,0.1745220422744751
1790006674144048000,1.614048095703125,-0.6645360589027405,-0.6364262700080872,0.2402893453836441
1790006674154060000,1.62406005859375,-0.7088974118232727,-0.6057271957397461,0.33511653542518616
1790006674164071400,1.634071533203125,-0.7349058389663696,-0.42178720235824585,0.3351261019706726
1790006674174083300,1.644083251953125,-0.7158408164978027,-0.14349861443042755,0.21210350096225739
1790006674184095200,1.65409521484375,-0.6238498687744141,-0.013528361916542053,0.09464879333972931
1790006674194107400,1.664107421875,-0.4801107943058014,-0.18474937975406647,0.09951332211494446
1790006674204119300,1.674119384765625,-0.35709458589553833,-0.5662269592285156,0.22162564098834991
1790006674214131200,1.684131103515625,-0.264165461063385,-0.9123843312263489,0.3390404284000397
1790006674224143400,1.694143310546875,-0.21461814641952515,-1.137546181678772,0.4203658998012543
1790006674234154200,1.704154296875,-0.20368801057338715,-1.2312697172164917,0.4451415538787842
1790006674244166100,1.714166259765625,-0.21647676825523376,-1.221902847290039,0.4266190230846405
1790006674254178300,1.72417822265625,-0.1881503313779831,-1.1274064779281616,0.40489134192466736
1790006674264190200,1.734190185546875,-0.12467095255851746,-0.8998240828514099,0.3522217571735382
1790006674274202400,1.744202392578125,-0.07245408743619919,-0.6280184388160706,0.27804550528526306
1790006674284214300,1.75421435546875,-0.03544679656624794,-0.45742082595825195,0.22807341814041138
1790006674294226200,1.76422607421875,0.002449983498081565,-0.40340688824653625,0.22528481483459473
1790006674304237000,1.774237060546875,0.01720868982374668,-0.37629827857017517,0.20709756016731262
1790006674314249200,1.784249267578125,0.00025527249090373516,-0.34990236163139343,0.15318985283374786
1790006674324261000,1.79426123046875,-0.07968377321958542,-0.32299166917800903,0.024135740473866463
1790006674334273300,1.804273193359375,-0.23281925916671753,-0.164480060338974,-0.2766784131526947
1790006674344285200,1.81428515625,-0.42422834038734436,-0.02361588180065155,-0.6882414817810059
1790006674354297000,1.824297119140625,-0.5709176659584045,-0.15675289928913116,-1.0596944093704224
1790006674364309200,1.834309326171875,-0.6406837105751038,-0.5197217464447021,-1.3258183002471924
1790006674374320400,1.8443203125,-0.656507670879364,-0.9486768245697021,-1.4577325582504272
1790006674384332300,1.854332275390625,-0.619744062423706,-1.2581908702850342,-1.4453814029693604
1790006674394344400,1.864344482421875,-0.5631892085075378,-1.2874594926834106,-1.3548309803009033
1790006674404356400,1.8743564453125,-0.5537664294242859,-1.0682611465454102,-1.2620397806167603
1790006674414368300,1.8843681640625,-0.5709043741226196,-0.8164101839065552,-1.1796038150787354
1790006674424380400,1.89438037109375,-0.510801374912262,-0.8071857690811157,-1.0300401449203491
1790006674434392300,1.904392333984375,-0.33468860387802124,-0.9158536791801453,-0.7141955494880676
1790006674444403200,1.9144033203125,-0.4657385051250458,-0.6128605008125305,-0.5225582122802734
1790006674454415400,1.924415283203125,-0.7556124329566956,-0.6613462567329407,-0.13782307505607605
1790006674464427300,1.93442724609375,-1.06424081325531,-0.26293686032295227,0.06384000927209854
1790006674474439200,1.944439208984375,-1.0954152345657349,-0.2479770928621292,-0.47376111149787903
1790006674484451300,1.954451416015625,-0.9391122460365295,-0.8126665353775024,-1.1150269508361816
1790006674494463200,1.964463134765625,-0.8186166882514954,-0.8903011679649353,-1.0470582246780396
1790006674504475100,1.97447509765625,-0.7685125470161438,-0.8691766858100891,-0.5491182208061218
1790006674514487300,1.9844873046875,-0.6536034941673279,-1.029803991317749,-0.24914933741092682
1790006674524498200,1.994498291015625,-0.4206831455230713,-0.9306235313415527,-0.09628361463546753
1790006674534510000,2.004510009765625,-0.15640677511692047,-0.3737315237522125,0.32300901412963867
1790006674544522200,2.014522216796875,0.07711516320705414,0.6362752318382263,1.1105378866195679
1790006674554534100,2.0245341796875,0.30957984924316406,1.4373595714569092,1.9224944114685059
1790006674564546300,2.03454638671875,0.6183549761772156,1.5550193786621094,2.24185848236084
1790006674574558200,2.04455810546875,0.822674572467804,1.3722569942474365,2.333909034729004
1790006674584570000,2.054570068359375,0.9103356599807739,1.2094560861587524,2.288341760635376
1790006674594582300,2.064582275390625,0.7836325764656067,1.2431315183639526,1.8437682390213013
1790006674604594200,2.07459423828125,0.49610844254493713,0.8455877304077148,1.1952109336853027
1790006674614605300,2.084605224609375,0.43972665071487427,0.17200101912021637,0.7639454007148743
1790006674624617200,2.0946171875,0.17993022501468658,-0.15096238255500793,0.2563847005367279
1790006674634629400,2.10462939453125,-0.08547321707010269,-0.32149869203567505,-0.1916375756263733
1790006674644641300,2.114641357421875,-0.26191455125808716,-0.3689495623111725,-0.47621816396713257
1790006674654653200,2.124653076171875,-0.4053955376148224,-0.31876522302627563,-0.5570578575134277
1790006674664665300,2.134665283203125,-0.5361741185188293,-0.13892623782157898,-0.5017184615135193
1790006674674677200,2.14467724609375,-0.588056206703186,0.0755959153175354,-0.36102578043937683
1790006674684689400,2.154689453125,-0.530974805355072,0.2903899848461151,-0.23049362003803253
1790006674694700300,2.1647001953125,-0.40043169260025024,0.480481892824173,-0.1896069049835205
1790006674704712200,2.174712158203125,-0.2393493354320526,0.5508583188056946,-0.18384835124015808
1790006674714724400,2.184724365234375,0.06782099604606628,0.4926357865333557,-0.014676904305815697
1790006674724736300,2.194736328125,0.7971547842025757,0.7113260626792908,0.6028428077697754
1790006674734748200,2.204748046875,1.4942960739135742,1.0254194736480713,1.3699108362197876
1790006674744760300,2.21476025390625,1.9224064350128174,0.9603760838508606,1.965985655784607
1790006674754772200,2.224772216796875,1.960473895072937,0.6365393996238708,2.3213236331939697
1790006674764784600,2.23478466796875,1.70883047580719,0.23614884912967682,2.41888165473938
1790006674774796800,2.244796875,1.4592374563217163,-0.00920019205659628,2.199039936065674
1790006674784807700,2.2548076171875,1.5243037939071655,0.8450950384140015,0.9077557921409607
1790006674794819600,2.264819580078125,1.2815390825271606,0.11027213931083679,0.9479104280471802
1790006674804831500,2.27483154296875,0.9378658533096313,-0.42100077867507935,1.0241433382034302
1790006674814843600,2.28484375,0.9019142389297485,-0.48220500349998474,0.5663609504699707
1790006674824855600,2.29485546875,0.7928172945976257,-0.6473215222358704,0.28602728247642517
1790006674834867700,2.30486767578125,0.7031769156455994,-0.776689887046814,0.021034222096204758
1790006674844879600,2.314879638671875,0.5889747142791748,-0.7992852330207825,-0.20821096003055573
1790006674854891500,2.3248916015625,0.3937024474143982,-0.7966572046279907,-0.40378469228744507
1790006674864903700,2.334903564453125,0.24781526625156403,-0.8900553584098816,-0.5324012637138367
1790006674874914600,2.34491455078125,0.11869829148054123,-0.8886516094207764,-0.6217018365859985
1790006674884926500,2.354926513671875,-0.09737595170736313,-0.7815608382225037,-0.7844122052192688
1790006674894938600,2.364938720703125,-0.45282670855522156,-0.6481055617332458,-0.9947944283485413
1790006674904950500,2.374950439453125,-0.7567752003669739,-0.7460803389549255,-1.224820852279663
1790006674914962400,2.38496240234375,-0.9094472527503967,-0.9219637513160706,-1.3420404195785522
1790006674924974600,2.394974609375,-1.0793825387954712,-0.8391793966293335,-1.3430025577545166
1790006674934986500,2.404986572265625,-1.016939401626587,-0.7447077631950378,-1.280274510383606
1790006674944998400,2.414998291015625,-0.9655883312225342,-0.7509254217147827,-1.2629330158233643
1790006674955009800,2.425009765625,-1.039584755897522,-0.7042524814605713,-1.2463457584381104
1790006674965021700,2.435021728515625,-1.3074811697006226,-0.5096384882926941,-1.2781574726104736
1790006674975033600,2.44503369140625,-1.5789399147033691,-0.365477055311203,-1.2162164449691772
1790006674985045800,2.455045654296875,-1.7858030796051025,-0.3307856619358063,-1.071365237236023
1790006674995057700,2.4650576171875,-1.724139928817749,-0.47064661979675293,-0.8650655150413513
1790006675005069600,2.475069580078125,-1.3393714427947998,-0.6814499497413635,-0.7392468452453613
1790006675015081700,2.485081787109375,-0.8450675010681152,-0.6738175749778748,-0.633245587348938
1790006675025093600,2.49509375,-0.44103556871414185,-0.4890157878398895,-0.48922184109687805
1790006675035105800,2.505105712890625,-0.148819699883461,-0.276257187128067,-0.3397583067417145
1790006675045116700,2.51511669921875,0.08335122466087341,-0.22164082527160645,-0.12331043928861618
1790006675055128600,2.525128662109375,0.25917765498161316,-0.23305033147335052,0.08543984591960907
1790006675065140700,2.535140625,0.3629285395145416,-0.2748180031776428,0.16480790078639984
1790006675075152600,2.545152587890625,0.4318334460258484,-0.1979435384273529,0.16087253391742706
1790006675085164500,2.55516455078125,0.4314294457435608,-0.05534857511520386,0.10624656826257706
1790006675095176700,2.5651767578125,0.1435747593641281,0.12441373616456985,-0.21115881204605103
1790006675105188600,2.575188720703125,-0.2086237668991089,-0.0008001127280294895,-0.3319914937019348
1790006675115200500,2.585200439453125,-0.4150800108909607,-0.15338805317878723,-0.4591659605503082
1790006675125211600,2.595211669921875,-0.5603589415550232,-0.21277548372745514,-0.5408030152320862
1790006675135223600,2.6052236328125,-0.5140295028686523,-0.11287791281938553,-0.5266629457473755
1790006675145235500,2.6152353515625,-0.3362041115760803,0.051344845443964005,-0.49329569935798645
1790006675155247600,2.62524755859375,-0.6343716382980347,-1.0411235094070435,-0.9518874883651733
1790006675165259500,2.635259521484375,-1.0049749612808228,-1.3500815629959106,-1.1257182359695435
1790006675175271400,2.645271484375,-1.2383922338485718,0.3431207537651062,-1.6774146556854248
1790006675185283600,2.65528369140625,-1.218567132949829,-0.21614916622638702,-1.1919419765472412
1790006675195295500,2.66529541015625,-1.2598391771316528,0.10381391644477844,-1.2514220476150513
1790006675205307600,2.6753076171875,-1.162026047706604,0.1372688114643097,-1.0706504583358765
1790006675215318800,2.68531884765625,-0.8916423320770264,0.13845232129096985,-0.8721218109130859
1790006675225330700,2.69533056640625,-0.6063969731330872,0.15444114804267883,-0.6699002981185913
1790006675235342600,2.705342529296875,-0.3200589418411255,0.1581043154001236,-0.4313758909702301
1790006675245354800,2.715354736328125,-0.03784990683197975,0.1638317108154297,-0.18730062246322632
1790006675255366700,2.72536669921875,0.10474159568548203,0.286121666431427,-0.022178513929247856
1790006675265378800,2.73537890625,0.16334739327430725,0.6559929251670837,0.02845829911530018
1790006675275390700,2.745390625,0.3532811105251312,0.8959067463874817,0.11760122328996658
1790006675285402600,2.755402587890625,0.572860598564148,0.7938829064369202,0.2493019998073578
1790006675295413500,2.76541357421875,0.6689311861991882,0.4764505922794342,0.3809300661087036
1790006675305425700,2.77542578125,0.5533499717712402,0.238824725151062,0.4665552079677582
1790006675315437600,2.7854375,0.37849724292755127,0.12036918848752975,0.5169970989227295
1790006675325449700,2.79544970703125,0.22288022935390472,0.20317992568016052,0.5191763639450073
1790006675335461600,2.805461669921875,0.11242614686489105,0.3179112672805786,0.49707478284835815
1790006675345473500,2.8154736328125,0.1353975236415863,0.24405837059020996,0.50754714012146
1790006675355485700,2.825485595703125,0.2807224988937378,0.002667589345946908,0.5120736956596375
1790006675365497600,2.83549755859375,0.3995996117591858,-0.22132103145122528,0.506502091884613
1790006675375509500,2.845509521484375,0.4993909001350403,-0.2995234429836273,0.48641759157180786
1790006675385520600,2.855520751953125,0.4653807580471039,-0.284268319606781,0.4641844630241394
1790006675395532500,2.865532470703125,0.37814146280288696,-0.29482296109199524,0.43139082193374634
1790006675405544400,2.87554443359375,0.3196216821670532,-0.3013301193714142,0.3777691423892975
1790006675415556600,2.885556640625,0.26462259888648987,-0.2750961184501648,0.3170759677886963
1790006675425568500,2.895568603515625,0.1448514759540558,-0.3253483772277832,0.28014352917671204
1790006675435580400,2.905580322265625,0.09975562244653702,-0.4049158990383148,0.2611887454986572
1790006675445592600,2.915592529296875,0.009382853284478188,-0.3835858404636383,0.27302488684654236
1790006675455604500,2.9256044921875,0.04435921087861061,-0.25298362970352173,0.34711191058158875
1790006675465615600,2.93561572265625,0.032101746648550034,-0.059356898069381714,0.43124648928642273
1790006675475627800,2.945627685546875,-0.0015816474333405495,0.2136155217885971,0.5248523950576782
1790006675485639700,2.9556396484375,0.017684191465377808,0.5407116413116455,0.6062760949134827
1790006675495651800,2.96565185546875,0.018450915813446045,0.25145795941352844,0.4547526240348816
1790006675505663700,2.975663818359375,-0.006071204319596291,-0.3451327383518219,0.19495967030525208
1790006675515675600,2.985675537109375,-0.07507237792015076,-0.6881662011146545,-0.013209253549575806
1790006675525687800,2.995687744140625,-0.13090448081493378,-0.6320411562919617,-0.1231546625494957
1790006675535699700,3.00569970703125,-0.15016472339630127,-0.4439767599105835,-0.18105576932430267
1790006675545711600,3.015711669921875,-0.15669293701648712,-0.371762216091156,-0.23281723260879517
1790006675555722800,3.02572265625,-0.12903892993927002,-0.4198237657546997,-0.30426692962646484
1790006675565734700,3.035734619140625,-0.09763015061616898,-0.4989904761314392,-0.3964325487613678
1790006675575746600,3.04574658203125,-0.08101016283035278,-0.6189120411872864,-0.4543456435203552
1790006675585758700,3.0557587890625,-0.09731829166412354,-0.7237942814826965,-0.4481692314147949
1790006675595770600,3.0657705078125,-0.16092096269130707,-0.8102197051048279,-0.352446973323822
1790006675605782500,3.075782470703125,-0.25657159090042114,-0.8871472477912903,-0.2214476615190506
1790006675615794700,3.085794677734375,-0.3223316967487335,-0.9089438915252686,-0.12313415855169296
1790006675625806600,3.095806640625,-0.36878281831741333,-0.835537850856781,-0.12316610664129257
1790006675635817500,3.1058173828125,-0.40980055928230286,-0.6913636326789856,-0.23604978621006012
1790006675645829600,3.11582958984375,-0.41374310851097107,-0.5616437196731567,-0.3894108533859253
1790006675655841500,3.125841552734375,-0.3639044463634491,-0.5146317481994629,-0.5075912475585938
1790006675665853400,3.135853515625,-0.2887130081653595,-0.5125145316123962,-0.5386914014816284
1790006675675865600,3.145865478515625,-0.2325512021780014,-0.5457587242126465,-0.44303545355796814
1790006675685877500,3.15587744140625,-0.18113036453723907,-0.5618082880973816,-0.27802520990371704
1790006675695889700,3.1658896484375,-0.12591929733753204,-0.5480810403823853,-0.11169614642858505
1790006675705901600,3.175901611328125,-0.06112939864397049,-0.49454939365386963,0.06342160701751709
1790006675715913500,3.18591357421875,0.020961211994290352,-0.4075852036476135,0.231015145778656
1790006675725924600,3.195924560546875,0.10497914999723434,-0.3688436448574066,0.4011024236679077
1790006675735936800,3.205936767578125,0.21197883784770966,-0.342776358127594,0.5449672341346741
1790006675745948700,3.21594873046875,0.3272702693939209,-0.30443325638771057,0.572622537612915
1790006675755960600,3.225960693359375,0.46231332421302795,-0.25953927636146545,0.446358859539032
1790006675765972700,3.23597265625,0.587209165096283,-0.27088993787765503,0.2477688193321228
1790006675775984600,3.245984619140625,0.6425935626029968,-0.2847876250743866,0.12428416311740875
1790006675785996800,3.255996826171875,0.6091589331626892,-0.24898488819599152,0.1395675092935562
1790006675796008700,3.2660087890625,0.49242302775382996,-0.14723855257034302,0.2614385485649109
1790006675806020900,3.276020751953125,0.3580670654773712,-0.02984587848186493,0.4032987356185913
1790006675816032000,3.286031982421875,0.2803206145763397,0.036129407584667206,0.4789911210536957
1790006675826044000,3.2960439453125,0.2470470815896988,0.08199384063482285,0.4289034307003021
1790006675836055800,3.306055908203125,0.17257657647132874,0.13764990866184235,0.2777639925479889
1790006675846068000,3.31606787109375,0.07681435346603394,0.18475857377052307,0.10670702904462814
1790006675856080000,3.326079833984375,0.010014021769165993,0.21267221868038177,-0.010865671560168266
1790006675866092000,3.336092041015625,-0.029406622052192688,0.2060777097940445,-0.01028483547270298
1790006675876104000,3.34610400390625,-0.05842256173491478,0.15848249197006226,0.06957164406776428
1790006675886115800,3.35611572265625,-1.4191663265228271,0.37185361981391907,-0.06591347604990005
1790006675896126700,3.366126708984375,-1.3221124410629272,0.03488544747233391,-0.2494686394929886
1790006675906139000,3.376138916015625,-1.3375941514968872,-0.1880653351545334,-0.252137690782547
1790006675916150800,3.38615087890625,-1.1199207305908203,-0.22419963777065277,-0.3820093870162964
1790006675926163000,3.396162841796875,-0.8679066300392151,-0.4189393222332001,-0.3387279808521271
1790006675936174800,3.4061748046875,-0.42516380548477173,-0.48970404267311096,-0.27490532398223877
1790006675946186800,3.416186767578125,-0.14157550036907196,-0.3353229761123657,-0.20488467812538147
1790006675956199000,3.426198974609375,0.19296227395534515,-0.11776933819055557,-0.15999522805213928
1790006675966210800,3.4362109375,0.4015362560749054,0.053218647837638855,-0.12906713783740997
1790006675976221700,3.4462216796875,0.5364687442779541,0.017947476357221603,-0.09650307893753052
1790006675986233900,3.45623388671875,0.5441061854362488,0.008786734193563461,0.031924135982990265
1790006675996245800,3.466245849609375,0.6163651943206787,-0.0587848536670208,0.11047566682100296
1790006676006257700,3.476257568359375,0.5871385931968689,-0.03754587844014168,0.1757955551147461
1790006676016269800,3.486269775390625,0.49510854482650757,0.2806278169155121,0.2897884249687195
1790006676026281700,3.49628173828125,0.4202265739440918,0.5533393025398254,0.35650619864463806
1790006676036293600,3.506293701171875,0.3056861460208893,0.7543210983276367,0.4005596935749054
1790006676046305800,3.516305908203125,0.2706131339073181,0.7788221836090088,0.43252241611480713
1790006676056317700,3.526317626953125,0.29155516624450684,0.6569860577583313,0.4633871018886566
1790006676066328800,3.536328857421875,0.3774929642677307,0.6657276153564453,0.4133002460002899
1790006676076341000,3.546341064453125,0.3726205825805664,0.8203423023223877,0.46903929114341736
1790006676086353000,3.556352783203125,0.24325646460056305,0.7803053855895996,0.4802924692630768
1790006676096365000,3.566364990234375,0.1907532960176468,0.24515412747859955,0.21982574462890625
1790006676106377000,3.576376953125,0.28232184052467346,-0.35073667764663696,-0.1678285002708435
1790006676116388900,3.586388916015625,0.34343233704566956,-0.6520547270774841,-0.5826443433761597
1790006676126401000,3.596401123046875,0.26705366373062134,-0.6151305437088013,-0.825239360332489
1790006676136413000,3.606412841796875,0.06200091913342476,-0.38173800706863403,-0.8095996975898743
1790006676146424800,3.6164248046875,-0.0789324939250946,-0.15925221145153046,-0.8628014326095581
1790006676156436000,3.62643603515625,-0.1407809555530548,-0.1547597199678421,-0.9331701397895813
1790006676166447900,3.63644775390625,-0.12075530737638474,-0.2521853446960449,-0.9502367377281189
1790006676176459800,3.646459716796875,-0.09482437372207642,-0.26868122816085815,-0.7802058458328247
1790006676186472000,3.656471923828125,-0.09337721019983292,-0.20076636970043182,-0.3177708685398102
1790006676196483800,3.66648388671875,0.016304273158311844,0.048440273851156235,0.16237390041351318
1790006676206495700,3.676495849609375,0.15945875644683838,0.37115201354026794,0.430138498544693
1790006676216508000,3.6865078125,0.2827087938785553,0.5672898292541504,0.4679551124572754
1790006676226519800,3.696519775390625,0.4236004054546356,0.5756286978721619,0.3636438846588135
1790006676236532000,3.706531982421875,0.5546886920928955,0.4656790494918823,0.25136128067970276
1790006676246542800,3.71654296875,0.6607155203819275,0.45562776923179626,0.36660557985305786
1790006676256554800,3.7265546875,0.70550137758255,0.5857287645339966,0.67867112159729
1790006676266566700,3.736566650390625,0.707230269908905,0.6318051218986511,0.9790383577346802
1790006676276578800,3.746578857421875,0.6374754309654236,0.5144007802009583,1.1468390226364136
1790006676286590700,3.7565908203125,0.478529691696167,0.3654041290283203,1.1403214931488037
1790006676296603000,3.766602783203125,0.28450217843055725,0.2544690668582916,0.9600098133087158
1790006676306614800,3.77661474609375,0.14556264877319336,0.1731283962726593,0.7283345460891724
1790006676316626700,3.786626708984375,0.10099359601736069,0.09631458669900894,0.5388375520706177
1790006676326637800,3.796637939453125,0.110291488468647,0.004587862640619278,0.40580493211746216
1790006676336650000,3.80664990234375,0.13978706300258636,-0.18023845553398132,0.3149509131908417
1790006676346662000,3.816661865234375,0.13710924983024597,-0.5424664616584778,0.19387191534042358
1790006676356674000,3.826674072265625,0.12830297648906708,-1.0453708171844482,0.010213392786681652
1790006676366686000,3.83668603515625,0.2171044796705246,0.971327543258667,-1.5765798091888428
1790006676376697900,3.84669775390625,0.20169250667095184,-0.5854807496070862,-1.2228409051895142
1790006676386710000,3.8567099609375,0.34900394082069397,-0.7309306263923645,-1.5484371185302734
1790006676396722000,3.866721923828125,0.5599609613418579,-0.8309030532836914,-1.4945080280303955
1790006676406733800,3.87673388671875,0.8714011311531067,-0.6560431122779846,-1.2599003314971924
1790006676416745000,3.886744873046875,1.1469908952713013,-0.7867792844772339,-0.9085566401481628
1790006676426756900,3.8967568359375,1.277032494544983,-0.48772966861724854,-0.3459354043006897
1790006676436768800,3.906768798828125,1.3945740461349487,-0.872924268245697,0.26763853430747986
1790006676446781000,3.916781005859375,1.2890398502349854,-1.128919243812561,0.8215577006340027
1790006676456792800,3.926792724609375,0.9014599323272705,-1.178017020225525,1.4983187913894653
1790006676466804700,3.9368046875,0.5107763409614563,-2.758814573287964,0.4515590965747833
1790006676476817000,3.94681689453125,0.22082917392253876,-1.515125036239624,0.23446780443191528
1790006676486828800,3.956828857421875,-0.05423833802342415,-0.09389583021402359,-0.09810668975114822
1790006676496839700,3.966839599609375,-0.2389695793390274,1.0338916778564453,-0.47898799180984497
1790006676506851800,3.976851806640625,-0.2907313108444214,1.7849667072296143,-0.7647350430488586
1790006676516863700,3.98686376953125,-0.31882765889167786,2.1797850131988525,-0.8680020570755005
1790006676526876000,3.9968759765625,-0.29291030764579773,1.9341503381729126,-0.7489797472953796
1790006676536887800,4.0068876953125,-0.22585058212280273,0.4421961009502411,-0.2697916328907013
1790006676546899700,4.016899658203125,-0.13466447591781616,-0.9934400320053101,0.05270146578550339
1790006676556911900,4.026911865234375,-0.04533166065812111,-1.3161247968673706,0.0011546504683792591
1790006676566923800,4.036923828125,-0.02986694872379303,-0.883602499961853,-0.27662718296051025
1790006676576935700,4.046935791015625,-0.09993551671504974,-0.41285330057144165,-0.5646344423294067
1790006676586947000,4.056947021484375,-0.13743150234222412,-0.35062268376350403,-0.6958292126655579
1790006676596959000,4.066958984375,-0.062035273760557175,-0.518393337726593,-0.7586377263069153
1790006676606971000,4.076970947265625,0.13401731848716736,-0.5683164000511169,-0.7479115724563599
1790006676616983000,4.086983154296875,0.2599560618400574,-0.4640032947063446,-0.692236602306366
1790006676626995000,4.096994873046875,0.19298610091209412,-0.253981351852417,-0.6340540051460266
1790006676637006800,4.1070068359375,0.09592826664447784,-0.029622837901115417,-0.6071019768714905
1790006676647019000,4.11701904296875,0.03125286102294922,0.12123085558414459,-0.5868862271308899
1790006676657031000,4.127031005859375,-0.0392729714512825,0.16678501665592194,-0.5751832127571106
1790006676667041800,4.137041748046875,-0.1340591311454773,0.13174660503864288,-0.5504491329193115
1790006676677054000,4.147053955078125,-0.1824548989534378,0.12123804539442062,-0.5884116888046265
1790006676687065900,4.15706591796875,-0.23531651496887207,0.22551703453063965,-0.652778685092926
1790006676697077800,4.167077880859375,-0.2457430511713028,0.3317204713821411,-0.6865443587303162
1790006676707090000,4.17708984375,-0.2283044159412384,0.35881680250167847,-0.6206497550010681
1790006676717101800,4.187101806640625,-0.1768779754638672,0.23821552097797394,-0.42207810282707214
1790006676727114000,4.197114013671875,-0.18174143135547638,0.07257170975208282,-0.2283318042755127
1790006676737126000,4.2071259765625,-0.26601797342300415,0.06821504235267639,-0.20099231600761414
1790006676747137800,4.2171376953125,-0.3547246754169464,0.21686044335365295,-0.2956554591655731
1790006676757148700,4.227148681640625,-0.384939044713974,0.4077307879924774,-0.3206678628921509
1790006676767160800,4.237160888671875,-0.3516034483909607,0.6499530076980591,-0.2749810814857483
1790006676777172700,4.2471728515625,-0.2895973324775696,0.914911687374115,-0.26040372252464294
1790006676787185000,4.257184814453125,-0.24875189363956451,1.1602258682250977,-0.28009912371635437
1790006676797196800,4.26719677734375,-0.3087182939052582,1.2664183378219604,-0.2841641902923584
1790006676807209000,4.277208984375,-0.38739073276519775,1.263462781906128,-0.33497729897499084
1790006676817220900,4.287220947265625,-0.5792149901390076,1.1808669567108154,-0.45090335607528687
1790006676827232800,4.297232666015625,-0.7482298612594604,1.041974663734436,-0.44716641306877136
1790006676837244000,4.307243896484375,-0.8129270672798157,1.0261034965515137,-0.46996867656707764
1790006676847256000,4.317256103515625,-0.9606696963310242,1.053100824356079,-0.5210238099098206
1790006676857268000,4.32726806640625,-1.0915520191192627,1.0001025199890137,-0.5590969324111938
1790006676867280100,4.337280029296875,-1.0702444314956665,0.8331760764122009,-0.5387977957725525
1790006676877292000,4.3472919921875,-0.9019832015037537,0.6280644536018372,-0.45078566670417786
1790006676887304000,4.357303955078125,-0.7102782130241394,0.4405800998210907,-0.3453942537307739
1790006676897316000,4.367316162109375,-0.5753467679023743,0.3126935064792633,-0.20280912518501282
1790006676907328000,4.377327880859375,-0.5231690406799316,0.22167356312274933,-0.0842747688293457
1790006676917340000,4.38733984375,-0.5169135332107544,0.09685014933347702,0.019664950668811798
1790006676927351000,4.39735107421875,-0.5329854488372803,0.3523460924625397,-0.06877916306257248
1790006676937363000,4.407363037109375,-0.5079573392868042,0.6085877418518066,-0.23565362393856049
1790006676947374800,4.417374755859375,-0.44420209527015686,0.6130431890487671,-0.26954981684684753
1790006676957387000,4.427386962890625,-0.413636177778244,0.5214067101478577,-0.1776563674211502
1790006676967399000,4.43739892578125,-0.36380523443222046,0.6135680675506592,-0.13186465203762054
1790006676977410800,4.447410888671875,-0.2677346467971802,0.7131428718566895,-0.14505848288536072
1790006676987423000,4.457423095703125,-0.1691734492778778,0.6109904050827026,-0.15548156201839447
1790006676997435000,4.467434814453125,-0.0971117615699768,0.43162548542022705,-0.1978420615196228
1790006677007447000,4.477447021484375,-0.05918942019343376,0.3547498881816864,-0.25373971462249756
1790006677017458000,4.4874580078125,-0.04569518193602562,0.22274363040924072,-0.23449674248695374
1790006677027469800,4.4974697265625,0.0006163901416584849,0.07789164036512375,-0.24151045083999634
1790006677037481700,4.507481689453125,0.006185326259583235,-0.1040901467204094,-0.25062379240989685
1790006677047494000,4.517493896484375,-0.032975926995277405,-0.13698364794254303,-0.3147745728492737
1790006677057505800,4.527505859375,0.015993215143680573,-0.40026748180389404,-0.1611303836107254
1790006677067518000,4.53751806640625,0.09597194194793701,-0.5590505003929138,-0.08730197697877884
1790006677077529900,4.54752978515625,0.08633551746606827,-0.6112699508666992,-0.06790715456008911
1790006677087541800,4.557541748046875,0.08822129666805267,-0.6534496545791626,-0.05165788158774376
1790006677097553000,4.567552978515625,0.13047821819782257,-0.6787887811660767,-0.04756912961602211
1790006677107564800,4.577564697265625,0.14538979530334473,-0.5768387317657471,-0.05076971650123596
1790006677117577000,4.587576904296875,0.14910224080085754,-0.5089012384414673,-0.08114386349916458
1790006677127588900,4.5975888671875,0.13334138691425323,-0.5485035181045532,-0.08155452460050583
1790006677137601000,4.60760107421875,0.1494135558605194,-0.5677216649055481,-0.08697325736284256
1790006677147613000,4.617613037109375,0.1622433364391327,-0.4681183397769928,-0.13120171427726746
1790006677157624800,4.627624755859375,0.13442981243133545,-0.3073044419288635,-0.1440993994474411
1790006677167637000,4.637636962890625,0.07801100611686707,-0.23729074001312256,-0.1336805820465088
1790006677177649000,4.64764892578125,0.012606969103217125,-0.4261610507965088,-0.05296123027801514
1790006677187660000,4.657659912109375,-0.02070225030183792,-0.46059679985046387,-0.0005832458846271038
1790006677197672000,4.667671875,-0.027118338271975517,0.07648316025733948,-0.018458383157849312
1790006677207683800,4.677683837890625,-0.02069719135761261,-0.17272906005382538,0.018353426828980446
1790006677217696000,4.687696044921875,-0.017406588420271873,-0.08699897676706314,0.0019241203553974628
1790006677227708000,4.6977080078125,-0.020771225914359093,-0.1158926784992218,0.015258301049470901
1790006677237720000,4.707719970703125,-0.024392327293753624,-0.13718998432159424,0.019083932042121887
1790006677247732000,4.71773193359375,-0.024265293031930923,-0.1673412173986435,0.01964905485510826
1790006677257744000,4.727743896484375,-0.02832981012761593,-0.13442695140838623,0.008246997371315956
1790006677267754800,4.737754638671875,-0.03037538379430771,-0.11627671122550964,0.0009595234878361225
1790006677277767000,4.747766845703125,-0.031016405671834946,-0.11762586236000061,-0.0015558325685560703
1790006677287778800,4.75777880859375,-0.027752436697483063,-0.1279860883951187,0.009753813967108727
1790006677297791000,4.767791015625,-0.028073348104953766,-0.10532020032405853,0.013920329511165619
1790006677307803000,4.777802978515625,-0.03849642723798752,-0.06435438990592957,0.0028194752521812916
1790006677317814800,4.787814697265625,-0.0539235882461071,-0.03331125155091286,-0.006007838528603315
1790006677327827000,4.797826904296875,-0.05831753462553024,-0.008582468144595623,-0.009797250851988792
1790006677337838800,4.8078388671875,-0.04367361217737198,-0.04083335027098656,-0.013174138963222504
1790006677347850800,4.817850830078125,-0.04652106389403343,-0.08005958050489426,-0.005271208006888628
1790006677357862000,4.82786181640625,-0.05287137255072594,-0.058682654052972794,0.00007322337478399277
1790006677367873800,4.837873779296875,-0.055152103304862976,-0.06671714782714844,0.006718076765537262
1790006677377885700,4.8478857421875,-0.051377072930336,-0.12269306182861328,0.016834359616041183
1790006677387897900,4.85789794921875,-0.05611883103847504,-0.08456432074308395,0.003983276430517435
1790006677397909800,4.86790966796875,-0.05510363355278969,-0.14181695878505707,0.005939900875091553
1790006677407921700,4.877921630859375,-0.06040305644273758,-0.15252313017845154,0.0027805930003523827
1790006677417933800,4.887933837890625,-0.06299698352813721,-0.17057403922080994,0.0016833706758916378
1790006677427945700,4.89794580078125,-0.0658673346042633,-0.2235725373029709,0.010644640773534775
1790006677437956900,4.907956787109375,-0.0707521066069603,-0.1971888691186905,0.0025776601396501064
1790006677447969000,4.917968994140625,-0.08073709160089493,-0.23839223384857178,0.01814277097582817
1790006677457981000,4.92798095703125,-0.08198798447847366,-0.21708960831165314,0.020927106961607933
1790006677467992800,4.937992919921875,-0.08676569163799286,-0.1811198890209198,0.011428942903876305
1790006677478005000,4.9480048828125,-0.08132698386907578,-0.1723943054676056,0.008425695821642876
1790006677488017000,4.958016845703125,-0.08109955489635468,-0.18121282756328583,0.0075753480195999146
1790006677498029000,4.968029052734375,-0.08683893084526062,-0.18000562489032745,0.0025214673951268196
1790006677508041000,4.978041015625,-0.08931434154510498,-0.19315843284130096,0.004167034290730953
1790006677518052900,4.988052978515625,-0.09480231255292892,-0.1974320113658905,0.011623885482549667
1790006677528064000,4.99806396484375,-0.09708917140960693,-0.18114759027957916,0.009172179736196995
1790006677538076000,5.008075927734375,-0.10979510843753815,-0.19934256374835968,0.006400361657142639
1790006677548087800,5.018087890625,-0.10941454768180847,-0.21106021106243134,0.004981429316103458
1790006677558100000,5.028099853515625,-0.09978561848402023,-0.20538528263568878,0.007791064213961363
1790006677568111900,5.03811181640625,-0.10454149544239044,-0.20437674224376678,0.007035791873931885
1790006677578123800,5.048123779296875,-0.10874928534030914,-0.21658013761043549,0.007514095399528742
1790006677588136000,5.058135986328125,-0.11521624028682709,-0.21627867221832275,0.006244034040719271
1790006677598147800,5.06814794921875,-0.12534689903259277,-0.22318264842033386,0.007138589862734079
1790006677608158700,5.07815869140625,-0.11588069796562195,-0.2309628129005432,0.009538363665342331
1790006677618171000,5.0881708984375,-0.11115439236164093,-0.22749245166778564,0.006346299313008785
1790006677628182800,5.098182861328125,-0.11478480696678162,-0.21824727952480316,0.008487747050821781
1790006677638194700,5.108194580078125,-0.12088265269994736,-0.22559893131256104,0.007689864374697208
1790006677648206800,5.118206787109375,-0.12905588746070862,-0.2475186139345169,0.010763151571154594
1790006677658218800,5.12821875,-0.046486709266901016,-0.4607595205307007,-0.0013140174560248852
1790006677668231000,5.13823095703125,0.5320022106170654,-0.7732487320899963,0.06960969418287277
1790006677678242800,5.148242919921875,0.560723066329956,-0.8980295658111572,0.1298365443944931
1790006677688254000,5.15825390625,0.11347312480211258,-0.4885285496711731,-0.009207360446453094
1790006677698265900,5.168265869140625,-0.1735285371541977,-0.03400713577866554,-0.055843304842710495
1790006677708278000,5.178278076171875,-0.19134296476840973,-0.05433477833867073,0.01843598484992981
1790006677718290000,5.1882900390625,-0.2435654252767563,-0.3340319097042084,0.05442408099770546
1790006677728302000,5.198302001953125,-0.2952195703983307,-0.22929060459136963,0.06169424578547478
1790006677738314000,5.20831396484375,-0.2824462354183197,-0.16054271161556244,0.03131663054227829
1790006677748326000,5.218325927734375,-0.1319507360458374,-0.1404574066400528,0.0656178742647171
1790006677758338000,5.228338134765625,0.056109972298145294,-0.014795889146625996,0.030264148488640785
1790006677768349000,5.238348876953125,0.0031141319777816534,0.025571506470441818,-0.05215669050812721
1790006677778360000,5.248360107421875,-0.06291921436786652,0.024834077805280685,-0.09077199548482895
1790006677788372000,5.2583720703125,0.04147963225841522,0.302533894777298,-0.02988228015601635
1790006677798383900,5.2683837890625,0.1139700710773468,0.3926669657230377,-0.026959458366036415
1790006677808396000,5.27839599609375,0.22161690890789032,0.3297226130962372,-0.008342098444700241
1790006677818408000,5.288407958984375,0.3120858371257782,0.357117235660553,-0.014369633048772812
1790006677828419800,5.298419921875,0.3304901421070099,0.37165409326553345,-0.020225923508405685
1790006677838432000,5.308431884765625,0.3061794638633728,0.31176599860191345,-0.013468151912093163
1790006677848444000,5.31844384765625,0.1851172298192978,0.35089927911758423,-0.015904145315289497
1790006677858455000,5.328455078125,0.022602878510951996,0.4124095141887665,-0.03343120589852333
1790006677868467200,5.33846728515625,0.03465581312775612,0.25161823630332947,-0.02807692252099514
1790006677878479000,5.34847900390625,0.13617631793022156,0.11736267805099487,-0.0067063854075968266
1790006677888491000,5.358490966796875,0.1293889880180359,0.1423250138759613,0.003123341826722026
1790006677898503200,5.368503173828125,0.0909276008605957,0.23759880661964417,-0.008857155218720436
1790006677908515000,5.37851513671875,0.05905303359031677,0.2881735861301422,-0.024477127939462662
1790006677918527200,5.38852734375,0.07358882576227188,0.27006328105926514,-0.020597700029611588
1790006677928539100,5.3985390625,0.11491549760103226,0.24435551464557648,-0.02042326331138611
1790006677938550000,5.408550048828125,0.10135094821453094,0.1952582746744156,-0.018607519567012787
1790006677948562200,5.418562255859375,0.05793716758489609,0.13957397639751434,-0.0012769992463290691
1790006677958574000,5.428573974609375,0.056950200349092484,0.10496193915605545,0.0160314179956913
1790006677968586000,5.4385859375,0.02665647678077221,0.1595383584499359,0.010640912689268589
1790006677978598100,5.44859814453125,-0.1807965785264969,0.40646427869796753,-0.050675973296165466
1790006677988610000,5.458610107421875,-0.3436363637447357,0.5651044845581055,-0.1025191992521286
1790006677998622000,5.4686220703125,-0.3979390263557434,0.3942081332206726,-0.11149032413959503
1790006678008634000,5.478634033203125,-0.35538461804389954,0.16086462140083313,-0.08307572454214096
1790006678018645000,5.48864501953125,-0.3361363708972931,0.05903066322207451,-0.0689508467912674
1790006678028657000,5.498656982421875,-0.3781583905220032,0.058341704308986664,-0.06351720541715622
1790006678038669000,5.5086689453125,-0.44020843505859375,0.04936019331216812,-0.06007719784975052
1790006678048681000,5.518680908203125,-0.48357030749320984,-0.03310006111860275,-0.03973783552646637
1790006678058692900,5.52869287109375,-0.44995081424713135,0.052236407995224,-0.04197036474943161
1790006678068705000,5.538705078125,-0.353287935256958,0.12456626445055008,-0.045556843280792236
1790006678078717000,5.548717041015625,-0.16842925548553467,0.1046208068728447,-0.031675390899181366
1790006678088729000,5.55872900390625,-0.006946629844605923,0.13573771715164185,-0.021147916093468666
1790006678098740200,5.568740234375,0.09783197939395905,0.12275001406669617,-0.014711055904626846
1790006678108752100,5.578752197265625,0.17762374877929688,0.061544712632894516,-0.009227873757481575
1790006678118764000,5.588763916015625,0.20705780386924744,0.05718245357275009,-0.007077371701598167
1790006678128776200,5.598776123046875,0.1962142139673233,0.030184390023350716,0.0003435267135500908
1790006678138788000,5.6087880859375,0.20937448740005493,-0.048517078161239624,0.006882385816425085
1790006678148800300,5.61880029296875,0.23881253600120544,-0.053153906017541885,0.006380912847816944
1790006678158812200,5.628812255859375,0.23732224106788635,0.029149752110242844,-0.0008530318737030029
1790006678168824000,5.638823974609375,0.19567705690860748,0.0703565776348114,-0.0030474765226244926
1790006678178835000,5.6488349609375,0.18674880266189575,0.05522982403635979,-0.0025531938299536705
1790006678188847000,5.65884716796875,0.23075248301029205,0.003184997010976076,0.0019105304963886738
1790006678198859000,5.66885888671875,0.26660633087158203,-0.03271201625466347,-0.005822756327688694
1790006678208871200,5.67887109375,0.3404746949672699,-0.06623562425374985,-0.000805361196398735
1790006678218883000,5.688883056640625,0.38848352432250977,-0.11940883100032806,0.012740274891257286
1790006678228895000,5.69889501953125,0.3737434446811676,-0.08888766914606094,0.012754123657941818
1790006678238907100,5.7089072265625,0.30825233459472656,-0.04312444478273392,-0.00372445210814476
1790006678248919000,5.7189189453125,0.25494569540023804,-0.04561742767691612,-0.01004120334982872
1790006678258931000,5.728930908203125,0.2005740851163864,-0.06658156216144562,-0.006904265843331814
1790006678268942000,5.738942138671875,0.12791159749031067,-0.034441206604242325,-0.01612412929534912
1790006678278954000,5.7489541015625,0.09484045207500458,-0.03649530187249184,-0.01893589459359646
1790006678288966000,5.7589658203125,0.0827166736125946,-0.018785815685987473,-0.02027360163629055
1790006678298978000,5.76897802734375,0.025034207850694656,0.01937595009803772,-0.027459608390927315
1790006678308990000,5.778989990234375,-0.046344902366399765,-0.005796779878437519,-0.027774127200245857
1790006678319001900,5.789001953125,-0.12580670416355133,-0.032516006380319595,-0.028011148795485497
1790006678329014000,5.799013916015625,-0.22232018411159515,-0.06718157976865768,-0.02375381998717785
1790006678339026000,5.80902587890625,-0.2493366152048111,-0.03898003324866295,-0.031743839383125305
1790006678349037000,5.819037109375,-0.2839377522468567,0.07672792673110962,-0.05340385437011719
1790006678359049000,5.829049072265625,-0.324785053730011,-0.11398370563983917,-0.037087470293045044
1790006678369061000,5.83906103515625,-0.29434940218925476,-0.06408219039440155,-0.04343671351671219
1790006678379073000,5.849072998046875,-0.24792568385601044,-0.01653837412595749,-0.03224024921655655
1790006678389085000,5.8590849609375,-0.20328684151172638,-0.06120277941226959,-0.025072084739804268
1790006678399097000,5.86909716796875,-0.13450831174850464,-0.07630902528762817,-0.018009647727012634
1790006678409109000,5.87910888671875,-0.06940974295139313,-0.0614459253847599,-0.015522254630923271
1790006678419121200,5.88912109375,-0.04896438866853714,-0.050259318202733994,-0.010211113840341568
1790006678429132000,5.899132080078125,-0.037737831473350525,-0.06875550746917725,-0.005171347409486771
1790006678439144200,5.909144287109375,-0.012105172500014305,-0.07771091908216476,0.00017121993005275726
1790006678449156000,5.919156005859375,0.024359362199902534,-0.07748588174581528,0.006830454338341951
1790006678459168000,5.92916796875,0.05525762215256691,0.08302336931228638,-0.010622572153806686
1790006678469180200,5.93918017578125,0.023634450510144234,-0.05065479874610901,-0.004163873381912708
1790006678479192000,5.949192138671875,0.05561794713139534,-0.11631610244512558,0.0033100217115134
1790006678489204000,5.959203857421875,0.026048338040709496,-0.010375021025538445,-0.011388497427105904
1790006678499216100,5.969216064453125,0.013180476613342762,-0.0277944914996624,-0.017968902364373207
1790006678509227000,5.97922705078125,0.06162097677588463,-0.10039332509040833,-0.019890371710062027
1790006678519239000,5.989239013671875,0.09467720240354538,-0.06994380801916122,-0.012274529784917831
1790006678529251000,5.9992509765625,0.12950895726680756,-0.04270339757204056,-0.003049074672162533
1790006678539263000,6.009262939453125,0.15131331980228424,-0.052324067801237106,0.0037936517037451267
1790006678549275000,6.01927490234375,0.08880625665187836,-0.022116098552942276,-0.0016250824555754662
1790006678559287000,6.029287109375,0.014569847844541073,-0.0038188504986464977,-0.011613268405199051
1790006678569299000,6.039298828125,-0.012981352396309376,0.003944264259189367,-0.020600637421011925
1790006678579311000,6.04931103515625,0.005434938706457615,0.02750418521463871,-0.017115358263254166
1790006678589323000,6.059322998046875,0.009992672130465508,0.0429164320230484,-0.011256137862801552
1790006678599334000,6.069333984375,0.015291031450033188,0.034277137368917465,-0.007698953151702881
1790006678609345800,6.079345703125,0.015448424033820629,0.011293256655335426,-0.008190040476620197
1790006678619358000,6.08935791015625,-0.01838144287467003,0.022104624658823013,-0.012043900787830353
1790006678629369900,6.099369873046875,-0.13167843222618103,0.060823794454336166,-0.03515081852674484
1790006678639382000,6.109382080078125,-0.11683904379606247,-0.007429830264300108,-0.04554380476474762
1790006678649394000,6.119393798828125,-0.07933934032917023,-0.06472108513116837,-0.04080231487751007
1790006678659405800,6.12940576171875,-0.05144272744655609,-0.02525969408452511,-0.03549490123987198
1790006678669418000,6.13941796875,-0.03997435420751572,0.008974974974989891,-0.03555881232023239
1790006678679429000,6.14942919921875,-0.05237722769379616,0.016841953620314598,-0.03310471028089523
1790006678689441000,6.15944091796875,-0.08308800309896469,0.04567519947886467,-0.03953517973423004
1790006678699453200,6.169453125,-0.0735112726688385,0.028685029596090317,-0.036419279873371124
1790006678709465000,6.179465087890625,-0.013299866579473019,-0.014864844270050526,-0.025073150172829628
1790006678719477000,6.18947705078125,0.01433815248310566,-0.022336607798933983,-0.009457971900701523
1790006678729489200,6.1994892578125,0.020640257745981216,0.006761888507753611,-0.01431158185005188
1790006678739501000,6.2095009765625,0.0362466461956501,0.14302758872509003,-0.033359043300151825
1790006678749513000,6.219512939453125,-0.030044490471482277,0.047078687697649,-0.07205450534820557
1790006678759524000,6.229524169921875,-0.02223237417638302,-0.04489278048276901,-0.07264652848243713
1790006678769536800,6.239536865234375,-0.008720560930669308,0.010508955456316471,-0.07393229752779007
1790006678779548700,6.249548583984375,0.02529972419142723,-0.015741290524601936,-0.05902712047100067
1790006678789560800,6.259560791015625,0.042593225836753845,-0.026312442496418953,-0.04892681539058685
1790006678799572700,6.26957275390625,0.07061367481946945,-0.031679775565862656,-0.03911919146776199
1790006678809584600,6.279584716796875,0.12874142825603485,-0.06801168620586395,-0.02370721474289894
1790006678819596800,6.2895966796875,0.14684879779815674,-0.020671067759394646,-0.020412351936101913
1790006678829608700,6.299608642578125,0.1273946762084961,-0.006547258701175451,-0.025117358192801476
1790006678839619600,6.30961962890625,0.10646568238735199,-0.030577760189771652,-0.025125613436102867
1790006678849631700,6.3196318359375,0.09255146235227585,-0.025770489126443863,-0.024286186322569847
1790006678859643600,6.3296435546875,0.1053980216383934,-0.009103361517190933,-0.034267716109752655
1790006678869655800,6.33965576171875,0.12337195873260498,-0.050380490720272064,-0.023545561358332634
1790006678879667700,6.349667724609375,0.13206905126571655,-0.029758838936686516,-0.022955138236284256
1790006678889679600,6.3596796875,0.12749959528446198,-0.005489451345056295,-0.027414867654442787
1790006678899691800,6.36969189453125,0.11520271748304367,-0.0288778655230999,-0.01708925887942314
1790006678909703700,6.37970361328125,0.13132843375205994,-0.022692939266562462,-0.007825453765690327
1790006678919714800,6.38971484375,0.10996294766664505,0.0068364571779966354,-0.014872444793581963
1790006678929726700,6.399726806640625,0.045069433748722076,0.008462582714855671,-0.01081831380724907
1790006678939738600,6.409738525390625,0.007611540146172047,0.036086488515138626,-0.001852249726653099
1790006678949750800,6.419750732421875,0.003982184454798698,0.06817145645618439,-0.0006194724701344967
1790006678959762700,6.4297626953125,0.0026764366775751114,0.047033146023750305,-0.002389143221080303
1790006678969774800,6.43977490234375,0.00041701074223965406,0.03995153307914734,-0.006791881285607815
1790006678979786800,6.449786865234375,0.0004327234055381268,0.041391771286726,-0.007726384326815605
1790006678989799000,6.459798828125,0.0042349183931946754,0.015521025285124779,-0.007338894531130791
1790006678999809800,6.469809814453125,0.007236833684146404,0.014520475640892982,-0.009366890415549278
1790006679009821700,6.47982177734375,0.0057784863747656345,0.04121813550591469,-0.010808194056153297
1790006679019833900,6.489833740234375,-0.0358874686062336,0.1379321664571762,-0.05660497397184372
1790006679029845800,6.499845703125,-0.0534326396882534,0.09365151822566986,-0.061574697494506836
1790006679039857700,6.509857666015625,-0.007407623343169689,-0.0007002888596616685,-0.023071251809597015
1790006679049869800,6.519869873046875,0.0024801616091281176,0.0365794412791729,-0.007219051942229271
1790006679059881700,6.5298818359375,-0.0014474684139713645,0.04037870466709137,-0.008433720096945763
1790006679069894000,6.539893798828125,-0.005415578372776508,0.006835924461483955,-0.012539248913526535
1790006679079904800,6.54990478515625,-0.02318716235458851,0.06098140776157379,-0.041548848152160645
1790006679089916700,6.559916748046875,-0.03385818377137184,0.08631978929042816,-0.06566856056451797
1790006679099928600,6.569928466796875,0.02072596736252308,-0.049840450286865234,-0.029739057645201683
1790006679109940700,6.579940673828125,0.02916499227285385,-0.00540347583591938,-0.01190146990120411
1790006679119952600,6.58995263671875,0.024736421182751656,0.053649455308914185,-0.010326743125915527
1790006679129964800,6.59996484375,0.013994026929140091,-0.014978871680796146,-0.00919569842517376
1790006679139976700,6.609976806640625,0.007200303953140974,0.0744764432311058,-0.015715116634964943
1790006679149988600,6.619988525390625,0.00717793358489871,0.05716456472873688,-0.016165990382432938
1790006679160000800,6.630000732421875,-0.009519821032881737,0.10475019365549088,-0.06514152139425278
1790006679170011600,6.64001171875,0.021725451573729515,-0.006872209720313549,-0.042857520282268524
1790006679180023600,6.6500234375,0.04457057639956474,-0.04395965859293938,-0.036555685102939606
1790006679190035700,6.66003564453125,0.03949592262506485,-0.00897956918925047,-0.012645557522773743
1790006679200047600,6.670047607421875,0.0547742135822773,-0.0010436151642352343,-0.017177192494273186
1790006679210059500,6.6800595703125,0.06704632192850113,0.048413414508104324,-0.045635201036930084
1790006679220071700,6.69007177734375,0.035087328404188156,0.0896410122513771,-0.04372651129961014
1790006679230083600,6.70008349609375,0.03433099016547203,0.062368378043174744,-0.02533072791993618
1790006679240094700,6.7100947265625,0.02819986268877983,0.021101368591189384,-0.014604313299059868
1790006679250107000,6.72010693359375,0.02939908392727375,-0.009718063287436962,0.0021986360661685467
1790006679260118800,6.730118896484375,0.019745923578739166,0.03607206046581268,0.011660315096378326
1790006679270130700,6.740130615234375,0.012585215270519257,0.03398653864860535,0.00996760930866003
1790006679280142800,6.750142822265625,0.010276520624756813,0.04690313711762428,-0.004523448646068573
1790006679290154800,6.76015478515625,0.013346347957849503,0.019296010956168175,-0.010027669370174408
1790006679300167000,6.7701669921875,0.017136292532086372,0.011579235084354877,-0.0063333334401249886
1790006679310178800,6.7801787109375,0.019175739958882332,0.008719266392290592,-0.005668874830007553
1790006679320190700,6.790190673828125,0.02403574250638485,0.0071946075186133385,-0.008832709863781929
1790006679330201600,6.80020166015625,0.027614764869213104,-0.013905351981520653,0.0048812380991876125
1790006679340213800,6.8102138671875,0.02692287601530552,0.009363219141960144,0.005810414906591177
1790006679350225700,6.8202255859375,0.01753443479537964,0.011324104852974415,0.004406396299600601
1790006679360237800,6.83023779296875,0.012689078226685524,0.025860169902443886,0.002648443914949894
1790006679370249700,6.840249755859375,0.009669853374361992,0.02324547804892063,-0.0011537512764334679
1790006679380261600,6.85026171875,0.017223110422492027,0.015166513621807098,-0.0012392387725412846
1790006679390273800,6.860273681640625,0.025024840608239174,0.0129816560074687,0.0026492427568882704
1790006679400285700,6.87028564453125,0.027483206242322922,0.006195921450853348,0.006410158704966307
1790006679410296600,6.880296630859375,0.025093818083405495,0.007063047029078007,0.011404118500649929
1790006679420308700,6.890308837890625,0.024442940950393677,0.005900044925510883,0.011617704294621944
1790006679430320600,6.900320556640625,0.019190387800335884,0.006471026688814163,0.004629835486412048
1790006679440332500,6.91033251953125,0.019197579473257065,-0.0040612430311739445,0.002080657985061407
1790006679450344700,6.9203447265625,0.021134762093424797,-0.012245403602719307,0.005442898720502853
1790006679460356600,6.930356689453125,0.02499634586274624,-0.033705953508615494,0.006014413200318813
1790006679470368500,6.940368408203125,0.04828968271613121,-0.06180256977677345,0.022652512416243553
1790006679480380700,6.950380615234375,0.2381424456834793,-0.03964480385184288,0.0313597172498703
1790006679490391800,6.960391845703125,0.2144070267677307,-0.1419655829668045,0.03576058894395828
1790006679500403700,6.97040380859375,0.2318935990333557,-0.10909764468669891,0.035648737102746964
1790006679510416000,6.980415771484375,0.24231429398059845,-0.13390205800533295,0.029892316088080406
1790006679520427800,6.990427734375,0.22244177758693695,-0.12579913437366486,0.01860237680375576
1790006679530440000,7.00043994140625,0.22144176065921783,-0.10588400810956955,0.013940779492259026
1790006679540451800,7.010451904296875,0.01849370449781418,-0.05036136507987976,0.010402769781649113
1790006679550463700,7.020463623046875,-0.005794323980808258,-0.030061418190598488,0.01469472050666809
1790006679560476000,7.030475830078125,-0.011385098099708557,-0.04866812750697136,0.01841728761792183
1790006679570486800,7.04048681640625,-0.010028216987848282,-0.03073386661708355,0.012292549014091492
1790006679580498700,7.050498779296875,-0.006192733068019152,-0.029220392927527428,0.009790509007871151
1790006679590510800,7.0605107421875,0.0017360300989821553,-0.049067068845033646,0.008152399212121964
1790006679600522800,7.070522705078125,-0.0018299426883459091,-0.056392356753349304,0.0027307355776429176
1790006679610534700,7.08053466796875,-0.017880547791719437,-0.02628505602478981,0.0024966439232230186
1790006679620546800,7.090546875,-0.015702614560723305,-0.014437451027333736,0.0056817843578755856
1790006679630558700,7.100558837890625,-0.006142665632069111,-0.026476005092263222,0.004010650794953108
1790006679640570600,7.110570556640625,0.006117995362728834,-0.033650293946266174,0.0031642981339246035
1790006679650582800,7.120582763671875,0.01056467555463314,-0.019079606980085373,0.004259922541677952
1790006679660593700,7.13059375,0.002609280636534095,-0.0015139294555410743,0.00635662954300642
1790006679670605600,7.14060546875,0.0010127155110239983,0.04057546705007553,0.004644749686121941
1790006679680617700,7.15061767578125,0.01850941777229309,0.02487293630838394,0.003873764304444194
1790006679690629600,7.160629638671875,0.03180844336748123,0.019410526379942894,0.00160155538469553
1790006679700641500,7.1706416015625,0.03537015616893768,0.031517524272203445,0.0014239223673939705
1790006679710653700,7.18065380859375,0.03811853751540184,0.05982426181435585,0.0059457034803926945
1790006679720665600,7.19066552734375,0.0448097288608551,0.08177057653665543,0.005713209509849548
1790006679730677800,7.200677734375,0.061750628054142,0.0866532102227211,0.004301734268665314
1790006679740689000,7.21068896484375,0.07498840242624283,0.09426958858966827,0.0005876896902918816
1790006679750700800,7.22070068359375,0.07618442922830582,0.12127111107110977,-0.0025250129401683807
1790006679760712700,7.230712646484375,0.07854931801557541,0.13637976348400116,-0.006022276356816292
1790006679770724600,7.240724609375,0.09790463745594025,0.14927025139331818,-0.000841362401843071
1790006679780736500,7.250736572265625,0.11768553406000137,0.14283472299575806,0.005161935463547707
1790006679790748700,7.260748779296875,0.11994042992591858,0.16107578575611115,0.0037778904661536217
1790006679800760600,7.270760498046875,0.10825607925653458,0.169661283493042,0.001050813589245081
1790006679810772500,7.2807724609375,0.10696444660425186,0.17616711556911469,0.0006532035768032074
1790006679820783600,7.29078369140625,0.1141672357916832,0.1532021462917328,0.002541118301451206
1790006679830795500,7.30079541015625,0.12187548726797104,0.1464342623949051,0.010099436156451702
1790006679840807400,7.310807373046875,0.12358816713094711,0.14818954467773438,0.01291200052946806
1790006679850819600,7.320819580078125,0.12244486808776855,0.14981167018413544,0.009445896372199059
1790006679860831500,7.33083154296875,0.12740367650985718,0.12871970236301422,0.009889578446745872
1790006679870843400,7.340843505859375,0.12715467810630798,0.10284842550754547,0.01549872849136591
1790006679880855600,7.35085546875,0.11412355303764343,0.09483844041824341,0.014057159423828125
1790006679890867500,7.360867431640625,0.09953715652227402,0.08050504326820374,0.015456650406122208
1790006679900878300,7.37087841796875,0.09399458765983582,0.06795889139175415,0.024387028068304062
1790006679910890500,7.380890380859375,0.09626519680023193,0.04187562316656113,0.029876336455345154
1790006679920902400,7.39090234375,0.10122799873352051,0.010763775557279587,0.02846486121416092
1790006679930914600,7.40091455078125,0.09421855956315994,-0.007556641474366188,0.025976136326789856
1790006679940926500,7.410926513671875,0.08134324103593826,-0.019500385969877243,0.022593123838305473
1790006679950938400,7.4209384765625,0.06653979420661926,-0.03276825696229935,0.027000121772289276
1790006679960950500,7.430950439453125,0.05254727602005005,-0.04131806641817093,0.030545854941010475
1790006679970962400,7.44096240234375,0.05134805664420128,-0.040448546409606934,0.03418666124343872
1790006679980974300,7.450974365234375,0.05581630766391754,-0.045081913471221924,0.03389398008584976
1790006679990985700,7.46098583984375,0.06122518703341484,-0.05061649531126022,0.025115935131907463
1790006680000997600,7.47099755859375,0.05889065936207771,-0.05102555453777313,0.019587213173508644
1790006680011009500,7.481009521484375,0.049295824021101,-0.04047011584043503,0.022300975397229195
1790006680021021700,7.491021728515625,0.04113563150167465,-0.014173798263072968,0.03015117533504963
1790006680031033600,7.50103369140625,0.049092091619968414,0.04280080273747444,0.03302419185638428
1790006680041045500,7.51104541015625,0.04633838310837746,0.08289629220962524,0.02384214662015438
1790006680051057700,7.5210576171875,0.10366159677505493,0.07907545566558838,-0.006046243943274021
1790006680061069600,7.531069580078125,0.12234899401664734,0.11946016550064087,-0.008940301835536957
1790006680071080400,7.54108056640625,0.12515570223331451,0.16464096307754517,0.005719867534935474
1790006680081092600,7.551092529296875,0.11473342776298523,0.22871831059455872,0.008366378024220467
1790006680091104500,7.5611044921875,0.12352905422449112,0.23713922500610352,0.0025476370938122272
1790006680101116400,7.571116455078125,0.15471839904785156,0.19869942963123322,-0.0030324840918183327
1790006680111128600,7.581128662109375,0.1587136685848236,0.1686113029718399,-0.00539177842438221
1790006680121140500,7.591140380859375,0.11358827352523804,0.18017607927322388,-0.005821346305310726
1790006680131152600,7.601152587890625,0.08683788031339645,0.20896777510643005,-0.004618663340806961
1790006680141164500,7.61116455078125,0.09673658758401871,0.18106770515441895,0.0013390942476689816
1790006680151176400,7.621176513671875,0.12046455591917038,0.1263434737920761,0.013966739177703857
1790006680161187300,7.631187255859375,0.12514373660087585,0.10350047796964645,0.02265051007270813
1790006680171199500,7.641199462890625,0.09962984174489975,0.11119701713323593,0.011333937756717205
1790006680181211400,7.65121142578125,0.0790577232837677,0.1101679727435112,0.004011044278740883
1790006680191223600,7.6612236328125,0.09174289554357529,0.06925595551729202,0.017426984384655952
1790006680201235500,7.6712353515625,0.10591250658035278,0.027261897921562195,0.027485210448503494
1790006680211247400,7.681247314453125,0.09867537021636963,0.01917308010160923,0.024137884378433228
1790006680221259500,7.691259521484375,0.08674068003892899,0.03096688725054264,0.024142678827047348
1790006680231271400,7.701271484375,0.10329355299472809,0.016509119421243668,0.03186265006661415
1790006680241282600,7.711282470703125,0.12455090880393982,-0.005162087269127369,0.03540278971195221
1790006680251294700,7.721294677734375,0.12887641787528992,0.011188124306499958,0.033151350915431976
1790006680261306600,7.731306640625,0.12122275680303574,0.04535115510225296,0.03215586394071579
1790006680271318500,7.741318603515625,0.12777173519134521,0.06182999536395073,0.02939523011445999
1790006680281330700,7.75133056640625,0.14594994485378265,0.05251159518957138,0.03486136719584465
1790006680291342600,7.761342529296875,0.16100825369358063,0.05264715105295181,0.04260503873229027
1790006680301354500,7.7713544921875,0.17032797634601593,0.06285664439201355,0.040011387318372726
1790006680311366700,7.78136669921875,0.1810312271118164,0.0684380978345871,0.03325201943516731
1790006680321378600,7.791378662109375,0.19146576523780823,0.059394799172878265,0.044756609946489334
1790006680331389400,7.801389404296875,0.1969904899597168,0.05388978123664856,0.05302279442548752
1790006680341401600,7.811401611328125,0.19807305932044983,0.06442897766828537,0.049036841839551926
1790006680351413500,7.82141357421875,0.2035951316356659,0.08401519805192947,0.04400932416319847
1790006680361425700,7.83142578125,0.2232218235731125,0.10166769474744797,0.04696756601333618
1790006680371437600,7.8414375,0.2486981600522995,0.10180298238992691,0.0530419684946537
1790006680381449500,7.851449462890625,0.2692718803882599,0.11344898492097855,0.05554534122347832
1790006680391461600,7.861461669921875,0.2721065282821655,0.13348287343978882,0.05690355226397514
1790006680401473500,7.8714736328125,0.2756219208240509,0.14071309566497803,0.060099080204963684
1790006680411484400,7.881484375,0.28981149196624756,0.12480469793081284,0.054209496825933456
1790006680421496600,7.89149658203125,0.2784683108329773,0.08269080519676208,0.06181575357913971
1790006680431508500,7.901508544921875,0.2966843247413635,0.0785386711359024,0.06882599741220474
1790006680441520400,7.911520263671875,0.2884756624698639,0.1383359581232071,0.06290125846862793
1790006680451532500,7.921532470703125,0.31270644068717957,0.20015564560890198,0.056492093950510025
1790006680461544400,7.93154443359375,0.3430185317993164,0.22319145500659943,0.05892569199204445
1790006680471556400,7.941556396484375,0.38045164942741394,0.23317165672779083,0.05352906137704849
1790006680481568500,7.951568603515625,0.37927666306495667,0.28551769256591797,0.057153623551130295
1790006680491580400,7.961580322265625,0.36639603972435,0.34935125708580017,0.05983356386423111
1790006680501591600,7.971591552734375,0.3840269446372986,0.3609597086906433,0.05151358246803284
1790006680511603700,7.981603759765625,0.4297981560230255,0.3238179385662079,0.04099196568131447
1790006680521615600,7.99161572265625,0.45910704135894775,0.29779380559921265,0.04492092505097389
1790006680531627500,8.00162744140625,0.45139214396476746,0.3410288989543915,0.05662471801042557
1790006680541639700,8.0116396484375,0.4321768879890442,0.40179771184921265,0.05698904022574425
1790006680551651600,8.021651611328124,0.43522676825523376,0.44123217463493347,0.041625529527664185
1790006680561663700,8.031663818359375,0.4493255317211151,0.46553167700767517,0.02420712634921074
1790006680571675600,8.041675537109375,0.4505828022956848,0.504220187664032,0.01397898979485035
1790006680581686500,8.0516865234375,0.4469316005706787,0.5501173734664917,0.02065260522067547
1790006680591698400,8.061698486328124,0.4648283123970032,0.5722610354423523,0.02817763388156891
1790006680601710600,8.071710693359375,0.4799899756908417,0.5805615782737732,0.02197140082716942
1790006680611722500,8.081722412109375,0.511832594871521,0.5936155915260315,-0.0005030143074691296
1790006680621734700,8.091734619140626,0.4587898850440979,0.6275471448898315,-0.011269108392298222
1790006680631746600,8.10174658203125,0.42536452412605286,0.6573569774627686,-0.006229342892765999
1790006680641758500,8.111758544921875,0.41727039217948914,0.6822799444198608,0.0007958095520734787
1790006680651770600,8.1217705078125,0.4236345589160919,0.6948801279067993,-0.0006894352845847607
1790006680661782500,8.131782470703126,0.43999168276786804,0.7264117002487183,-0.01695229485630989
1790006680671793400,8.14179345703125,0.453673392534256,0.7467356324195862,-0.02976715937256813
1790006680681805600,8.1518056640625,0.4503503143787384,0.7644272446632385,-0.030092865228652954
1790006680691817500,8.1618173828125,0.4955018162727356,0.7641263008117676,-0.02417398989200592
1790006680701829400,8.171829345703125,0.572718620300293,0.7326503992080688,-0.019099336117506027
1790006680711841500,8.181841552734374,0.675682783126831,0.6810750961303711,-0.015618850477039814
1790006680721853400,8.191853515625,0.7970941662788391,0.6286763548851013,-0.005921747535467148
1790006680731865600,8.201865478515625,0.919474184513092,0.5686702728271484,0.00992299523204565
1790006680741877500,8.21187744140625,0.9961742758750916,0.4957425594329834,0.024720050394535065
1790006680751889400,8.221889404296874,1.0238721370697021,0.4769209325313568,0.026882272213697433
1790006680761900500,8.231900634765625,0.9759238362312317,0.5101454257965088,0.02636907994747162
1790006680771912400,8.241912353515625,0.7875201106071472,0.836487352848053,0.014890057034790516
1790006680781924600,8.251924560546875,0.5654258131980896,0.7016408443450928,0.009898227639496326
1790006680791936500,8.2619365234375,0.30776867270469666,0.6465304493904114,0.011742733418941498
1790006680801948700,8.27194873046875,0.18848887085914612,0.5844910740852356,0.007603381760418415
1790006680811960600,8.281960693359375,0.15336018800735474,0.5478281378746033,0.00832935981452465
1790006680821972700,8.29197265625,0.1222374215722084,0.5392165184020996,0.010621542111039162
1790006680831984600,8.301984619140624,0.11170648038387299,0.5239270329475403,0.013650622218847275
1790006680841996500,8.31199658203125,0.14977078139781952,0.5073062777519226,0.014376066625118256
1790006680852007700,8.322007568359375,0.16846084594726562,0.5001375675201416,0.0133182592689991
1790006680862019600,8.33201953125,0.1690691113471985,0.5021727681159973,0.009878786280751228
1790006680872031700,8.34203173828125,0.15479908883571625,0.5088000297546387,0.008154124021530151
1790006680882043600,8.352043701171874,0.15755759179592133,0.49846431612968445,0.017500221729278564
1790006680892055800,8.362055908203125,0.17979419231414795,0.4744167625904083,0.023089930415153503
1790006680902067700,8.372067626953125,0.1972498744726181,0.45217379927635193,0.01603122055530548
1790006680912079600,8.38207958984375,0.20921093225479126,0.44491666555404663,0.00644703721627593
1790006680922091800,8.392091796875,0.20363746583461761,0.4438903033733368,0.007490730378776789
1790006680932102700,8.4021025390625,0.20190908014774323,0.44322264194488525,0.0187899898737669
1790006680942114600,8.412114501953125,0.20505666732788086,0.4280676543712616,0.031939346343278885
1790006680952126700,8.422126708984376,0.2134791761636734,0.41886189579963684,0.02938777208328247
1790006680962138600,8.432138671875,0.22596514225006104,0.4113192856311798,0.0207213144749403
1790006680972150500,8.442150634765625,0.23945698142051697,0.4122953414916992,0.015955587849020958
1790006680982162700,8.45216259765625,0.2494148164987564,0.41277337074279785,0.006801504176110029
1790006680992174600,8.462174560546876,0.2590884864330292,0.4087142050266266,0.011915838345885277
1790006681002186500,8.4721865234375,0.2661501169204712,0.40610775351524353,0.014590451493859291
1790006681012198700,8.48219873046875,0.2703203558921814,0.41252997517585754,0.01976816914975643
1790006681022210600,8.49221044921875,0.272594153881073,0.41846349835395813,0.0275278203189373
1790006681032221400,8.502221435546875,0.27455106377601624,0.4107624292373657,0.021419063210487366
1790006681042233600,8.512233642578124,0.27636945247650146,0.3989715576171875,0.00856451690196991
1790006681052245500,8.52224560546875,0.26555997133255005,0.40981993079185486,-0.0012817224487662315
1790006681062257700,8.532257568359375,0.26344379782676697,0.42663487792015076,0.010888124816119671
1790006681072269600,8.54226953125,0.2710660398006439,0.432743638753891,0.033917542546987534
1790006681082281500,8.552281494140624,0.2805962860584259,0.43021366000175476,0.0385003536939621
1790006681092293600,8.562293701171875,0.2857942581176758,0.4192393124103546,0.014823785051703453
1790006681102305500,8.572305419921875,0.2768377661705017,0.4187346398830414,-0.012835273519158363
1790006681112317400,8.5823173828125,0.2534211277961731,0.4175069332122803,-0.009729761630296707
1790006681122328800,8.592328857421874,0.2438124418258667,0.4222092628479004,0.017911454662680626
1790006681132340700,8.6023408203125,0.25292152166366577,0.4084324538707733,0.04237392172217369
1790006681142352600,8.6123525390625,0.2522314786911011,0.4099518060684204,0.045701541006565094
1790006681152364800,8.62236474609375,0.2424832582473755,0.4161681532859802,0.01607493869960308
1790006681162376700,8.632376708984374,0.2473890632390976,0.4218374788761139,-0.007765413727611303
1790006681172388600,8.642388671875,0.21206596493721008,0.4172603189945221,0.004586594179272652
1790006681182400800,8.65240087890625,0.2029140144586563,0.4178832173347473,0.02377919666469097
1790006681192412700,8.66241259765625,0.1957162767648697,0.40885457396507263,0.034329041838645935
1790006681202424800,8.6724248046875,0.18543727695941925,0.3987356424331665,0.044268492609262466
1790006681212435700,8.682435791015624,0.17858709394931793,0.38011693954467773,0.031006217002868652
1790006681222447600,8.692447509765625,0.16989587247371674,0.3665617108345032,0.014294881373643875
1790006681232459500,8.70245947265625,0.16249628365039825,0.3603661358356476,0.009660981595516205
1790006681242471700,8.7124716796875,0.15284951031208038,0.3487139940261841,0.012541456148028374
1790006681252483600,8.722483642578124,0.15311501920223236,0.3299560248851776,0.022310197353363037
1790006681262495700,8.732495849609375,0.14709068834781647,0.31054797768592834,0.03297136351466179
1790006681272507600,8.742507568359375,0.12583786249160767,0.31065183877944946,0.04165566712617874
1790006681282519600,8.75251953125,0.10983919352293015,0.3138694763183594,0.03821646049618721
1790006681292531700,8.76253173828125,0.10897952318191528,0.30087271332740784,0.013401923701167107
1790006681302542600,8.77254248046875,0.1104344055056572,0.277584433555603,0.016028067097067833
1790006681312554500,8.782554443359375,0.10670331865549088,0.26306116580963135,0.035171400755643845
1790006681322566700,8.792566650390626,0.08523690700531006,0.2637309432029724,0.036560773849487305
1790006681332578600,8.80257861328125,0.06212573125958443,0.25858065485954285,0.027479391545057297
1790006681342590500,8.812590576171875,0.05788810923695564,0.24192921817302704,0.01877804659307003
1790006681352602600,8.8226025390625,0.06875460594892502,0.2208726704120636,0.023746972903609276
1790006681362614500,8.832614501953126,0.07750921696424484,0.20554831624031067,0.026936108246445656
1790006681372626400,8.84262646484375,0.07075437158346176,0.215389221906662,0.03519323840737343
1790006681382638600,8.852638671875,0.05818691477179527,0.2206132858991623,0.03798902779817581
1790006681392649700,8.862649658203125,0.046047963201999664,0.21810485422611237,0.02587989717721939
1790006681402661600,8.87266162109375,0.037559933960437775,0.2205943763256073,0.019182315096259117
1790006681412673800,8.882673828125,0.04126039519906044,0.22083938121795654,0.03358815237879753
1790006681422685700,8.892685791015625,0.05613787844777107,0.2245803326368332,0.041023433208465576
1790006681432697600,8.902697509765625,0.06161253899335861,0.224371537566185,0.04778466746211052
1790006681442709800,8.912709716796876,0.05636131763458252,0.22493132948875427,0.03644945099949837
1790006681452721700,8.9227216796875,0.03609040379524231,0.23198658227920532,0.013446664437651634
1790006681462733800,8.93273388671875,0.015616018325090408,0.23350724577903748,0.01486213505268097
1790006681472745700,8.942745849609375,0.013586689718067646,0.2283681482076645,0.03574557974934578
1790006681482757600,8.952757568359376,0.02470725029706955,0.22636623680591583,0.07203514128923416
1790006681492768800,8.962768798828124,0.02410591021180153,0.23823222517967224,0.08752328902482986
1790006681502780700,8.97278076171875,0.01289187092334032,0.25480082631111145,0.05899151414632797
1790006681512792600,8.98279248046875,-0.014966923743486404,0.26442816853523254,0.025908926501870155
1790006681522804700,8.9928046875,-0.033750731498003006,0.2679198384284973,0.02696380391716957
1790006681532816600,9.002816650390624,-0.03607087582349777,0.26439645886421204,0.04449033737182617
1790006681542828500,9.01282861328125,-0.03304685652256012,0.2615351676940918,0.059737998992204666
1790006681552840700,9.0228408203125,-0.039580125361680984,0.26886844635009766,0.05884663760662079
1790006681562852600,9.0328525390625,-0.05970456823706627,0.27492260932922363,0.04837748408317566
1790006681572864800,9.04286474609375,-0.08104047924280167,0.2774914801120758,0.04561711847782135
1790006681582875600,9.052875732421874,-0.08482536673545837,0.3045678436756134,0.09986064583063126
1790006681592887600,9.062887451171875,-0.0980391725897789,0.29819703102111816,0.11599114537239075
1790006681602899500,9.0728994140625,-0.10151486098766327,0.2513507008552551,0.10895134508609772
1790006681612911600,9.08291162109375,-0.1077788844704628,0.2173682153224945,0.05672995746135712
1790006681622923500,9.092923583984375,-0.13731440901756287,0.2160414308309555,0.044317230582237244
1790006681632935700,9.102935791015625,-0.16447599232196808,0.194071426987648,0.07402372360229492
1790006681642947600,9.112947509765625,-0.17673611640930176,0.16008709371089935,0.09959246963262558
1790006681652959500,9.12295947265625,-0.1822081059217453,0.11332890391349792,0.10241089016199112
1790006681662971600,9.1329716796875,-0.1835266351699829,0.05835380405187607,0.07889384776353836
1790006681672982800,9.142982666015625,-0.2080245316028595,0.010422764346003532,0.054733917117118835
1790006681682994700,9.15299462890625,-0.23876060545444489,-0.025225777179002762,0.048303451389074326
1790006681693006800,9.1630068359375,-0.26522204279899597,-0.05140012502670288,0.05610118433833122
1790006681703018800,9.173018798828124,-0.2707875072956085,-0.06352389603853226,0.06911445409059525
1790006681713030700,9.18303076171875,-0.2626824378967285,-0.0871322900056839,0.06818900257349014
1790006681723042800,9.193042724609375,-0.25777584314346313,-0.10983094573020935,0.058404020965099335
1790006681733054700,9.2030546875,-0.27364054322242737,-0.11325869709253311,0.05247502401471138
1790006681743066600,9.213066650390624,-0.2785961627960205,-0.11059340834617615,0.043305229395627975
1790006681753078800,9.223078857421875,-0.2749023735523224,-0.11797169595956802,0.038497425615787506
1790006681763090700,9.233090576171875,-0.2801245450973511,-0.10439436882734299,0.048961516469717026
1790006681773101300,9.243101318359376,-0.2904951572418213,-0.07858727127313614,0.07414915412664413
1790006681783113200,9.25311328125,-0.3013262450695038,-0.06067964434623718,0.08673126250505447
1790006681793125400,9.26312548828125,-0.2975783944129944,-0.06633912771940231,0.07576969265937805
1790006681803137300,9.27313720703125,-0.268583744764328,-0.08085335791110992,0.04310202971100807
1790006681813149400,9.2831494140625,-0.2514180839061737,-0.09879373759031296,0.018489094451069832
1790006681823161300,9.293161376953124,-0.24973496794700623,-0.11256787180900574,0.01715058833360672
1790006681833173200,9.30317333984375,-0.254534512758255,-0.11877384036779404,0.049979910254478455
1790006681843185400,9.313185302734375,-0.24574688076972961,-0.13815073668956757,0.06949128955602646
1790006681853197300,9.323197265625,-0.23212747275829315,-0.18296773731708527,0.05535683035850525
1790006681863208200,9.333208251953126,-0.1978832185268402,-0.1995411217212677,0.013554789125919342
1790006681873220400,9.343220458984375,-0.16064690053462982,-0.2067798674106598,-0.008007494732737541
1790006681883232300,9.353232177734375,-0.1311100423336029,-0.21158845722675323,0.00340255256742239
1790006681893244200,9.363244140625,-0.1131582036614418,-0.20250682532787323,0.02695714682340622
1790006681903256300,9.37325634765625,-0.10235056281089783,-0.1882154941558838,0.036341592669487
1790006681913268200,9.383268310546875,-0.08395904302597046,-0.16986605525016785,0.022546686232089996
1790006681923280400,9.3932802734375,-0.06555020809173584,-0.16040809452533722,-0.0057432749308645725
1790006681933292300,9.403292236328125,-0.049633290618658066,-0.1459370106458664,-0.01251489482820034
1790006681943304200,9.41330419921875,-0.031077982857823372,-0.112097829580307,-0.004512628074735403
1790006681953316400,9.42331640625,-0.023344697430729866,-0.06761983782052994,0.011324658058583736
1790006681963327500,9.433327392578125,-0.009084268473088741,-0.01992235705256462,0.025108646601438522
1790006681973339400,9.44333935546875,0.011178925633430481,-0.0016895584994927049,-0.0020516016520559788
1790006681983351600,9.4533515625,0.01327509991824627,0.016140304505825043,-0.032386068254709244
1790006681993363500,9.463363525390625,0.017054392024874687,0.04224567487835884,-0.027778269723057747
1790006682003375400,9.473375244140625,0.031180063262581825,0.05312095955014229,0.005233475938439369
1790006682013387500,9.483387451171875,0.0462530255317688,0.05455773323774338,0.025309981778264046
1790006682023399400,9.4933994140625,0.06644484400749207,0.050148870795965195,0.0178667139261961
1790006682033411300,9.503411376953125,0.07776780426502228,0.049362972378730774,-0.008996060118079185
1790006682043422500,9.51342236328125,0.08161661028862,0.05114276334643364,-0.027413951233029366
1790006682053434400,9.523434326171875,0.08722442388534546,0.051711078733205795,-0.008397115394473076
1790006682063446300,9.5334462890625,0.09356541186571121,0.05576813966035843,0.021885422989726067
1790006682073458400,9.54345849609375,0.0968986228108406,0.05938870832324028,0.022464394569396973
1790006682083470300,9.55347021484375,0.10389184951782227,0.061082419008016586,0.001802203245460987
1790006682093482200,9.563482177734375,0.10928075760602951,0.059989191591739655,-0.0018058470450341702
1790006682103494400,9.573494384765626,0.10775556415319443,0.059987328946590424,0.005895748268812895
1790006682113506300,9.58350634765625,0.10368918627500534,0.06773792952299118,0.013090011663734913
1790006682123518500,9.5935185546875,0.08964713662862778,0.09239986538887024,0.025691289454698563
1790006682133530400,9.6035302734375,0.08635333925485611,0.11729536205530167,0.029875116422772408
1790006682143541200,9.613541259765626,0.09420379996299744,0.13105404376983643,0.014997899532318115
1790006682153553200,9.62355322265625,0.1012694388628006,0.14769160747528076,0.007973812520503998
1790006682163565300,9.6335654296875,0.10231499373912811,0.1719530075788498,0.01942993327975273
1790006682173577200,9.6435771484375,0.10077861696481705,0.19279144704341888,0.01346365362405777
1790006682183589400,9.65358935546875,0.09907446056604385,0.20382678508758545,0.014857551082968712
1790006682193601300,9.663601318359374,0.08778159320354462,0.1895298808813095,0.023240383714437485
1790006682203613200,9.67361328125,0.07957745343446732,0.15959088504314423,0.017599808052182198
1790006682213625300,9.683625244140625,0.06402859091758728,0.12426777929067612,-0.00003511132672429085
1790006682223637200,9.69363720703125,0.04734228551387787,0.09491495043039322,-0.013708047568798065
1790006682233648400,9.7036484375,0.03975387290120125,0.07496920973062515,-0.019190430641174316
1790006682243660500,9.71366064453125,0.049674149602651596,0.06150692701339722,-0.012318942695856094
1790006682253672400,9.72367236328125,0.052970875054597855,0.057581961154937744,0.0001313360407948494
1790006682263684400,9.733684326171876,0.050080545246601105,0.06114713475108147,0.0011577182449400425
1790006682273696500,9.743696533203124,0.04089450463652611,0.0637170821428299,-0.00928560271859169
1790006682283708400,9.75370849609375,0.034317560493946075,0.057410188019275665,-0.02769949659705162
1790006682293720300,9.76372021484375,0.03578975796699524,0.05660191923379898,-0.03551081568002701
1790006682303732500,9.773732421875,0.04083351790904999,0.06200334057211876,-0.014239348471164703
1790006682313744400,9.783744384765624,0.04542826861143112,0.06857389211654663,-0.0029217121191322803
1790006682323755300,9.79375537109375,0.0485050193965435,0.07286078482866287,-0.00520537281408906
1790006682333767400,9.803767333984375,0.039485957473516464,0.08113522082567215,-0.008271204307675362
1790006682343779300,9.813779296875,0.03722706437110901,0.07684940099716187,-0.017537139356136322
1790006682353791500,9.82379150390625,0.037877410650253296,0.05664985626935959,-0.024913031607866287
1790006682363803400,9.833803466796875,0.03832721710205078,0.02483094111084938,-0.014133887365460396
1790006682373815300,9.843815185546875,0.036544498056173325,-0.00419458607211709,-0.016458826139569283
1790006682383827500,9.853827392578125,0.02839389257133007,-0.026474857702851295,-0.022173702716827393
1790006682393839400,9.86383935546875,0.021255023777484894,-0.04219789430499077,-0.01787908934056759
1790006682403851300,9.873851318359375,0.022051041945815086,-0.055778685957193375,-0.008913025259971619
1790006682413862400,9.8838623046875,0.025127526372671127,-0.052945081144571304,-0.007154806051403284
1790006682423874300,9.893874267578125,0.02724580466747284,-0.0425528958439827,-0.014299003407359123
1790006682433886200,9.90388623046875,0.029186183586716652,-0.029073303565382957,-0.015877990052103996
1790006682443898400,9.9138984375,0.030173150822520256,-0.020772762596607208,-0.016462821513414383
1790006682453910300,9.92391015625,0.023769579827785492,-0.012361968867480755,-0.01126859150826931
1790006682463922200,9.933922119140625,0.015473301522433758,0.0025277649983763695,-0.002667380031198263
1790006682473934300,9.943934326171876,0.009636717848479748,0.01495993323624134,-0.0018300819210708141
1790006682483946200,9.9539462890625,0.006036123726516962,0.020094774663448334,0.0008509224280714989
1790006682493958400,9.96395849609375,0.006669423542916775,0.014328232035040855,0.004531410522758961
1790006682503969500,9.973969482421875,0.006860105786472559,0.010172901675105095,0.005511454306542873
1790006682513981400,9.9839814453125,-0.01495837327092886,0.013807583600282669,-0.001086261123418808
1790006682523993300,9.993993408203124,-0.03308837488293648,0.01977652683854103,-0.006920181680470705
1790006682534005500,10.004005615234375,-0.04436952620744705,0.013684545643627644,-0.006261848378926516
1790006682544017400,10.014017333984375,-0.046980757266283035,0.004897179547697306,0.0043439241126179695
1790006682554029600,10.024029541015626,-0.04747796803712845,0.0008244073251262307,0.02248724177479744
1790006682564041500,10.03404150390625,-0.0572965107858181,-0.0009220936335623264,0.02687426656484604
1790006682574053400,10.044053466796875,-0.07039579749107361,-0.0011724308133125305,0.019690923392772675
1790006682584064300,10.054064208984375,-0.0822141095995903,-0.006486236117780209,0.009212981909513474
1790006682594076400,10.064076416015626,-0.0859590470790863,-0.003633724059909582,0.010583444498479366
1790006682604088300,10.07408837890625,-0.08499790728092194,0.004598106257617474,0.01634732447564602
1790006682614100500,10.0841005859375,-0.0842873752117157,0.011897564865648746,0.016269559040665627
1790006682624112400,10.0941123046875,-0.08389110118150711,0.02512841671705246,0.018676791340112686
1790006682634124300,10.104124267578126,-0.08377285301685333,0.03908524289727211,0.026324857026338577
1790006682644136400,10.114136474609374,-0.09444786608219147,0.05549297854304314,0.030336908996105194
1790006682654148400,10.1241484375,-0.10289514809846878,0.07116781175136566,0.029730239883065224
1790006682664160300,10.13416015625,-0.10614287853240967,0.08336003124713898,0.021309059113264084
1790006682674171400,10.14417138671875,-0.10191990435123444,0.09629686921834946,0.02212824672460556
1790006682684183300,10.154183349609376,-0.09123823046684265,0.10774526000022888,0.03140963241457939
1790006682694195200,10.1641953125,-0.08224153518676758,0.12684544920921326,0.03944705054163933
1790006682704207400,10.174207275390625,-0.09024007618427277,0.14119349420070648,0.03623048588633537
1790006682714219300,10.18421923828125,-0.10078352689743042,0.1434215009212494,0.02947244606912136
1790006682724231200,10.194231201171876,-0.10860177129507065,0.13973622024059296,0.03018111363053322
1790006682734243300,10.204243408203125,-0.10534099489450455,0.1331598162651062,0.04718273505568504
1790006682744255200,10.214255126953125,-0.10423977673053741,0.12461665272712708,0.03970670700073242
1790006682754267400,10.224267333984375,-0.1077575534582138,0.12207946181297302,0.03701212257146835
1790006682764278500,10.234278564453126,-0.1190490871667862,0.11811401695013046,0.041896358132362366
1790006682774290700,10.244290771484375,-0.13117845356464386,0.1144537627696991,0.04300450161099434
1790006682784302600,10.254302490234375,-0.14123614132404327,0.11019989848136902,0.05362199246883392
1790006682794314800,10.264314697265625,-0.14770017564296722,0.08969968557357788,0.04342501237988472
1790006682804326700,10.27432666015625,-0.15052366256713867,0.0687914714217186,0.022926928475499153
1790006682814338600,10.284338623046875,-0.16245035827159882,0.054276444017887115,0.036178551614284515
1790006682824350700,10.294350830078125,-0.17151522636413574,0.03036658838391304,0.05626517906785011
1790006682834362600,10.304362548828125,-0.1984480321407318,-0.0000658873759675771,0.07092108577489853
1790006682844374800,10.314374755859374,-0.2286706566810608,-0.028092993423342705,0.06555695086717606
1790006682854386000,10.324385986328124,-0.2548929452896118,-0.054520342499017715,0.04211580380797386
1790006682864397800,10.334397705078125,-0.2651844620704651,-0.09100165218114853,0.023073136806488037
1790006682874409700,10.34440966796875,-0.2699350118637085,-0.11888787895441055,0.05980904772877693
1790006682884422000,10.354421875,-0.28020814061164856,-0.1332005113363266,0.09454572200775146
1790006682894433800,10.364433837890624,-0.30471083521842957,-0.1475972831249237,0.08368268609046936
1790006682904446000,10.374446044921875,-0.3252331614494324,-0.16392485797405243,0.03422752022743225
1790006682914457900,10.384457763671875,-0.336172878742218,-0.19862905144691467,0.006839838810265064
1790006682924469800,10.3944697265625,-0.3402682840824127,-0.2324029952287674,0.05060382932424545
1790006682934480600,10.404480712890624,-0.34847429394721985,-0.24582718312740326,0.10045048594474792
1790006682944492800,10.414492919921875,-0.3600505292415619,-0.2486618608236313,0.08266030251979828
1790006682954504700,10.424504638671875,-0.3826650083065033,-0.23622329533100128,0.012066292576491833
1790006682964516900,10.434516845703126,-0.3924153745174408,-0.227389857172966,0.004811575636267662
1790006682974528800,10.44452880859375,-0.3702501654624939,-0.22294051945209503,0.03932960331439972
1790006682984540700,10.454540771484375,-0.3559761345386505,-0.23049749433994293,0.0457179956138134
1790006682994552800,10.464552734375,-0.3548288643360138,-0.22491924464702606,0.02422815002501011
1790006683004564700,10.474564697265626,-0.3618180453777313,-0.24292807281017303,0.004775889217853546
1790006683014576600,10.48457666015625,-0.35059550404548645,-0.2617211937904358,-0.011717600747942924
1790006683024587800,10.494587890625,-0.3442550301551819,-0.28093189001083374,-0.011768201366066933
1790006683034599700,10.504599609375,-0.336470365524292,-0.29893991351127625,0.012103576213121414
1790006683044611600,10.514611572265625,-0.2812041640281677,-0.2854187786579132,0.007967687211930752
1790006683054623700,10.524623779296874,-0.22698993980884552,-0.28463953733444214,0.020369762554764748
1790006683064635600,10.5346357421875,-0.1934298425912857,-0.2943568825721741,0.01265405211597681
1790006683074647600,10.5446474609375,-0.18393993377685547,-0.3070487082004547,-0.011133570224046707
1790006683084659700,10.55465966796875,-0.1765817105770111,-0.3321731984615326,-0.020602930337190628
1790006683094671600,10.564671630859374,-0.18797604739665985,-0.3337085247039795,0.010368834249675274
1790006683104682800,10.574682861328125,-0.19220460951328278,-0.32054370641708374,0.025575485080480576
1790006683114695000,10.58469482421875,-0.17393693327903748,-0.24642153084278107,0.03921086713671684
1790006683124706800,10.594706787109375,-0.16807956993579865,-0.15124095976352692,0.04152914881706238
1790006683134719000,10.604718994140624,-0.1544889211654663,-0.07193893939256668,0.028689518570899963
1790006683144731000,10.61473095703125,-0.12840673327445984,-0.02050238475203514,0.0005462975241243839
1790006683154742800,10.62474267578125,-0.13001075387001038,-0.008768764324486256,-0.014809489250183105
1790006683164755000,10.6347548828125,-0.13640473783016205,-0.020390000194311142,-0.0039435261860489845
1790006683174766800,10.644766845703124,-0.14015179872512817,-0.051034197211265564,0.020524531602859497
1790006683184778800,10.65477880859375,-0.1276405304670334,-0.0809984803199768,0.02416374161839485
1790006683194790000,10.664789794921875,-0.11064344644546509,-0.1068873405456543,0.010175755247473717
1790006683204801800,10.6748017578125,-0.09797213226556778,-0.12273075431585312,-0.010752696543931961
1790006683214813700,10.684813720703126,-0.028577608987689018,-0.15772601962089539,-0.02740224450826645
1790006683224825900,10.694825927734374,0.04500526562333107,-0.2311277985572815,-0.013655807822942734
1790006683234837800,10.704837646484375,0.03680086508393288,-0.35082438588142395,-0.003440454602241516
1790006683244849700,10.714849609375,-0.012302498333156109,-0.48396939039230347,-0.018229253590106964
1790006683254861800,10.72486181640625,-0.0688086524605751,-0.5176461338996887,-0.021347815170884132
1790006683264873700,10.734873779296874,-0.09322291612625122,-0.5282961130142212,-0.026766549795866013
1790006683274884600,10.744884521484375,-0.060027409344911575,-0.533475399017334,-0.013070445507764816
1790006683284896800,10.754896728515625,-0.04928022250533104,-0.5290388464927673,-0.058726344257593155
1790006683294908700,10.76490869140625,-0.08363153785467148,-0.569264829158783,-0.08910796046257019
1790006683304920600,10.774920654296874,-0.19141072034835815,-0.6132376194000244,-0.05561577528715134
1790006683314932700,10.7849326171875,-0.36999058723449707,-0.7007179260253906,-0.0364237055182457
1790006683324944600,10.794944580078125,-0.6475990414619446,-0.8320615887641907,-0.058920759707689285
1790006683334956800,10.804956787109376,-0.8028115034103394,-0.9327405095100403,-0.09190879762172699
1790006683344968700,10.81496875,-0.8285818696022034,-1.0086749792099,-0.09089893102645874
1790006683354980600,10.824980712890625,-0.7965267300605774,-1.0351548194885254,-0.06130028888583183
1790006683364991700,10.83499169921875,-0.7368748784065247,-0.9239521026611328,-0.030512019991874695
1790006683375004000,10.84500390625,-0.6971519589424133,-0.7913128137588501,-0.03606151416897774
1790006683385015800,10.855015869140624,-0.4460430145263672,-0.7712975740432739,0.041940875351428986
1790006683395028000,10.865028076171875,-0.3026301860809326,-0.8472767472267151,-0.02302960306406021
1790006683405039900,10.875039794921875,-0.37330302596092224,-0.9056550860404968,-0.1178881973028183
1790006683415051800,10.8850517578125,-0.3300839066505432,-0.894435465335846,-0.0735500305891037
1790006683425064000,10.89506396484375,-0.24850569665431976,-0.8524376749992371,0.03715304285287857
1790006683435075800,10.905075927734375,-0.12708686292171478,-0.8563232421875,0.012400826439261436
1790006683445086700,10.915086669921875,-0.036380402743816376,-0.7073950171470642,-0.014807624742388725
1790006683455099000,10.925098876953125,-0.04791934788227081,-0.4249180555343628,-0.014878997579216957
1790006683465110800,10.93511083984375,-0.06519713997840881,-0.2458321750164032,-0.05114219710230827
1790006683475122700,10.945122802734375,-0.01824028231203556,-0.05295247212052345,-0.0263817235827446
1790006683485134800,10.955134765625,0.05052999407052994,0.049089472740888596,0.017550848424434662
1790006683495146800,10.965146728515625,0.18302786350250244,0.14536301791667938,0.04936337098479271
1790006683505158700,10.97515869140625,0.25948429107666016,0.2419859617948532,0.03495141118764877
1790006683515170800,10.9851708984375,0.2916448712348938,0.3694738745689392,-0.005641024559736252
1790006683525182700,10.9951826171875,0.31170353293418884,0.5149003267288208,0.007197542116045952
1790006683535193600,11.005193603515625,0.3562987148761749,0.630484402179718,0.029285266995429993
1790006683545205800,11.015205810546876,0.44947391748428345,0.7358151078224182,0.06835730373859406
1790006683555217700,11.0252177734375,0.5183209180831909,0.8159804940223694,0.0840422511100769
1790006683565229800,11.035229736328125,0.5720776319503784,0.9328293800354004,0.07190729677677155
1790006683575241700,11.04524169921875,0.6208709478378296,0.9390981793403625,0.04695267975330353
1790006683585253600,11.055253662109376,0.6368025541305542,0.8684983253479004,0.03569496423006058
1790006683595265800,11.065265869140624,0.6099360585212708,0.8697060346603394,0.05301909148693085
1790006683605277700,11.075277587890625,0.6007473468780518,0.8858394622802734,0.047172121703624725
1790006683615288800,11.085288818359375,0.5852953791618347,0.9339026212692261,0.06371700763702393
1790006683625301000,11.095301025390626,0.5822554230690002,0.9389969706535339,0.040908634662628174
1790006683635313000,11.10531298828125,0.6140836477279663,0.9919821619987488,0.1281266212463379
1790006683645324800,11.11532470703125,0.6228739619255066,0.9285352826118469,0.0673663392663002
1790006683655337000,11.1253369140625,0.5580337047576904,0.911189079284668,-0.013842761516571045
1790006683665348900,11.135348876953126,0.5383691787719727,0.9591086506843567,0.027440229430794716
1790006683675360800,11.14536083984375,0.5632777214050293,0.9617776870727539,0.039399951696395874
1790006683685373000,11.155373046875,0.5118102431297302,0.8956186175346375,0.07324527204036713
1790006683695383800,11.1653837890625,0.45430997014045715,0.8270491361618042,0.08821968734264374
1790006683705395700,11.175395751953126,0.40503162145614624,0.8358588814735413,0.03168051689863205
1790006683715408000,11.185407958984374,0.3791089355945587,0.7216401696205139,-0.10223974287509918
1790006683725419800,11.195419677734375,0.26319620013237,0.6263570785522461,-0.05677584931254387
1790006683735431700,11.205431640625,0.18440072238445282,0.6403943300247192,0.11135004460811615
1790006683745443800,11.21544384765625,0.1969311535358429,0.5745252966880798,0.11069837212562561
1790006683755455700,11.225455810546874,0.17029768228530884,0.5057283639907837,0.003624645294621587
1790006683765468000,11.235468017578125,0.1332286149263382,0.45615577697753906,-0.023339860141277313
1790006683775479600,11.2454794921875,0.08529702574014664,0.45038068294525146,0.0631079450249672
1790006683785490400,11.255490478515625,0.05626058205962181,0.4830867052078247,0.09100136160850525
1790006683795502600,11.265502685546876,0.0856536254286766,0.41280803084373474,-0.05183035880327225
1790006683805514500,11.275514404296874,0.07078013569116592,0.3599107265472412,0.13741520047187805
1790006683815526700,11.285526611328125,0.16906490921974182,0.5056601762771606,0.3944920003414154
1790006683825538600,11.29553857421875,0.27482008934020996,0.4115685820579529,0.2905445396900177
1790006683835550500,11.305550537109376,0.42742666602134705,0.4695109724998474,-0.6190679669380188
1790006683845562600,11.315562744140625,-0.0562790110707283,0.7150134444236755,-0.05699395760893822
1790006683855574500,11.325574462890625,-0.28716549277305603,0.42626044154167175,-0.07824864983558655
1790006683865585700,11.335585693359375,-0.3739749491214752,0.35885342955589294,-0.08772283792495728
1790006683875597800,11.345597900390626,-0.024294979870319366,0.4327516257762909,0.11095722019672394
1790006683885609700,11.355609619140624,0.3199617266654968,0.3897804617881775,0.16028296947479248
1790006683895621600,11.36562158203125,0.2989560663700104,0.36372968554496765,0.050553273409605026
1790006683905633800,11.3756337890625,0.07762685418128967,0.3943081200122833,-0.053326256573200226
1790006683915645700,11.385645751953126,-0.16739007830619812,0.5129785537719727,-0.030711490660905838
1790006683925657600,11.39565771484375,-0.18752704560756683,0.5023728013038635,0.1096181869506836
1790006683935669800,11.405669677734375,-0.027530986815690994,0.28828099370002747,0.15255634486675262
1790006683945680600,11.4156806640625,0.1151776984333992,-0.030620001256465912,0.02289687655866146
1790006683955692500,11.425692626953126,0.03091447986662388,-0.20452681183815002,-0.08741737902164459
1790006683965704700,11.43570458984375,-0.21657148003578186,-0.13877949118614197,-0.03294428437948227
1790006683975716600,11.445716552734375,-0.31730446219444275,-0.09764457494020462,0.07405033707618713
1790006683985728500,11.455728515625,-0.27391305565834045,-0.19808009266853333,0.09990058839321136
1790006683995740700,11.46574072265625,-0.21733340620994568,-0.3587033450603485,0.06761188805103302
1790006684005752600,11.475752685546874,-0.22183281183242798,-0.4672689735889435,-0.050187453627586365
1790006684015764700,11.4857646484375,-0.26907408237457275,-0.5500035285949707,-0.12791047990322113
1790006684025776600,11.495776611328125,-0.4192846417427063,-0.6259291768074036,-0.07526537775993347
1790006684035787500,11.50578759765625,-0.5339393019676208,-0.7345448732376099,0.004553822334855795
1790006684045799400,11.51579931640625,-0.5566068291664124,-0.8135020136833191,0.0287273358553648
1790006684055811600,11.5258115234375,-0.5875106453895569,-0.8480605483055115,0.0022589764557778835
1790006684065823500,11.535823486328125,-0.5553077459335327,-0.8560617566108704,-0.08434142172336578
1790006684075835600,11.545835693359376,-0.5497907400131226,-0.8913158774375916,-0.13365571200847626
1790006684085847600,11.55584765625,-0.5935097336769104,-0.8990541100502014,-0.09956930577754974
1790006684095859500,11.565859375,-0.6295680999755859,-0.8683508038520813,-0.01753169298171997
1790006684105871600,11.57587158203125,-0.667669415473938,-0.8173741698265076,-0.0009186286479234695
1790006684115882800,11.5858828125,-0.6690571904182434,-0.8058618903160095,-0.03665691986680031
1790006684125894700,11.595894775390626,-0.6138003468513489,-0.797167956829071,-0.05989779159426689
1790006684135906800,11.60590673828125,-0.5959566235542297,-0.7933942675590515,-0.10183725506067276
1790006684145918700,11.615918701171875,-0.573290228843689,-0.7382303476333618,-0.07390335947275162
1790006684155930600,11.6259306640625,-0.562388002872467,-0.6747914552688599,-0.002669923473149538
1790006684165942800,11.63594287109375,-0.5384896397590637,-0.6366155743598938,-0.01338168978691101
1790006684175954700,11.64595458984375,-0.43594592809677124,-0.6180219054222107,-0.04189375787973404
1790006684185966600,11.655966552734375,-0.3711187243461609,-0.6217647194862366,-0.04154808074235916
1790006684195977700,11.665977783203125,-0.37579551339149475,-0.6011702418327332,-0.0573456846177578
1790006684205989600,11.67598974609375,-0.3516526222229004,-0.549400269985199,-0.06743081659078598
1790006684216001500,11.68600146484375,-0.3055466413497925,-0.4883267879486084,-0.012001639232039452
1790006684226013700,11.696013671875,-0.27671366930007935,-0.4546460509300232,0.004174400586634874
1790006684236025600,11.706025634765625,-0.151264950633049,-0.34803307056427,-0.02239968627691269
1790006684246037800,11.716037841796876,-0.09606827050447464,-0.27911069989204407,-0.013950806111097336
1790006684256049700,11.726049560546874,-0.046574484556913376,-0.2686993479728699,-0.03545476868748665
1790006684266061600,11.7360615234375,-0.014817088842391968,-0.24510453641414642,-0.05286385118961334
1790006684276073700,11.74607373046875,-0.006371938623487949,-0.2600052058696747,-0.0422639362514019
1790006684286084600,11.756084716796876,-0.00747715076431632,-0.21337804198265076,-0.007708624470978975
1790006684296096500,11.766096435546874,-0.002726337406784296,-0.16210447251796722,-0.009594675153493881
1790006684306108700,11.776108642578125,0.025038447231054306,-0.09228303283452988,-0.00011328887194395065
1790006684316120600,11.78612060546875,0.060967687517404556,-0.04952758178114891,-0.0028765848837792873
1790006684326132500,11.796132568359376,0.09942133724689484,-0.045531775802373886,-0.027446109801530838
1790006684336144600,11.80614453125,0.08757319301366806,-0.008915974758565426,-0.0130743607878685
1790006684346156500,11.816156494140625,0.06287424266338348,0.02032340317964554,0.01105094887316227
1790006684356168400,11.82616845703125,0.05914182588458061,0.0026200399734079838,-0.01691596955060959
1790006684366179600,11.8361796875,0.06956889480352402,0.01913137175142765,0.00756460428237915
1790006684376191700,11.846191650390624,0.0817808210849762,0.021969769150018692,0.008119873702526093
1790006684386203600,11.85620361328125,0.09719999134540558,0.03404933586716652,-0.016289861872792244
1790006684396215600,11.866215576171875,0.09155062586069107,0.034139614552259445,-0.04219283163547516
1790006684406227700,11.876227783203126,0.09210003912448883,0.06779931485652924,0.005586674902588129
1790006684416239600,11.886239501953124,0.09277115762233734,0.06567331403493881,0.019307546317577362
1790006684426251800,11.896251708984375,0.08554067462682724,-0.0008324820664711297,0.0014292141422629356
1790006684436263700,11.906263671875,0.07206294685602188,-0.04388487711548805,0.010341748595237732
1790006684446275600,11.916275634765626,0.014456910081207752,-0.10076440125703812,-0.00939946435391903
1790006684456286700,11.92628662109375,-0.007978358305990696,-0.16249941289424896,-0.04141518846154213
1790006684466298600,11.936298583984374,-0.061374470591545105,-0.2181488275527954,-0.031647246330976486
1790006684476310500,11.946310546875,-0.08601510524749756,-0.24575887620449066,0.027677062898874283
1790006684486322700,11.95632275390625,-0.09611035138368607,-0.26327264308929443,0.03444655239582062
1790006684496334600,11.96633447265625,-0.09615802019834518,-0.2901971936225891,-0.01198858954012394
1790006684506346800,11.9763466796875,-0.09998364746570587,-0.30190977454185486,-0.050715744495391846
1790006684516358700,11.986358642578125,-0.11477112025022507,-0.3165544867515564,-0.04768639802932739
1790006684526370600,11.99637060546875,-0.13870307803153992,-0.31050965189933777,-0.013913523405790329
1790006684536381700,12.006381591796876,-0.1496018022298813,-0.3390083909034729,0.01412343792617321
1790006684546393600,12.0163935546875,-0.15814629197120667,-0.38050204515457153,0.013119691982865334
1790006684556405500,12.026405517578125,-0.18142791092395782,-0.4319188892841339,-0.033875513821840286
1790006684566417700,12.036417724609375,-0.2193174958229065,-0.4490792453289032,-0.0713304802775383
1790006684576429600,12.0464296875,-0.24602501094341278,-0.45247185230255127,-0.06287387758493423
1790006684586441500,12.05644140625,-0.2640910744667053,-0.4365788996219635,-0.01735405996441841
1790006684596453600,12.06645361328125,-0.2376919835805893,-0.47727254033088684,-0.005718444008380175
1790006684606465500,12.076465576171875,-0.2105644941329956,-0.5095665454864502,-0.013216307386755943
1790006684616476400,12.086476318359376,-0.23561204969882965,-0.5338841676712036,-0.054449230432510376
1790006684626488600,12.096488525390624,-0.2660176157951355,-0.5578544735908508,-0.06103096529841423
1790006684636500500,12.10650048828125,-0.30751845240592957,-0.6008051037788391,-0.05357811227440834
1790006684646512400,12.116512451171875,-0.3252372741699219,-0.6572553515434265,-0.02666899934411049
1790006684656524500,12.126524658203126,-0.2944279611110687,-0.6951636075973511,-0.005376227665692568
1790006684666536400,12.136536376953124,-0.22407977283000946,-0.7070394158363342,0.012621947564184666
1790006684676548600,12.146548583984375,-0.1959027200937271,-0.7048191428184509,-0.022203143686056137
1790006684686560500,12.156560546875,-0.15394462645053864,-0.7092421054840088,-0.047860037535429
1790006684696571600,12.166571533203125,-0.15005187690258026,-0.6623685956001282,-0.014963872730731964
1790006684706583600,12.17658349609375,-0.1437540352344513,-0.6032597422599792,0.0070631313137710094
1790006684716595700,12.186595703125,-0.11314152926206589,-0.5695697069168091,0.02531936764717102
1790006684726607600,12.196607666015625,-0.023165566846728325,-0.4957716464996338,0.007733182515949011
1790006684736619800,12.206619873046876,0.02301337942481041,-0.3981068730354309,-0.014142287895083427
1790006684746631700,12.216631591796874,0.04439457133412361,-0.33361363410949707,-0.004301109816879034
1790006684756643600,12.2266435546875,0.07039820402860641,-0.2659456431865692,0.04735942184925079
1790006684766655700,12.23665576171875,0.09906766563653946,-0.2035035640001297,0.07045754790306091
1790006684776667100,12.246667236328125,0.11157546937465668,-0.10710645467042923,0.0859379693865776
1790006684786679000,12.256678955078126,0.13405175507068634,0.01643066108226776,0.017639342695474625
1790006684796691200,12.266691162109375,0.15944871306419373,0.15278184413909912,-0.008537933230400085
1790006684806703000,12.276703125,0.3443799614906311,0.2894347608089447,0.06543456017971039
1790006684816715000,12.286715087890625,0.42401328682899475,0.38760554790496826,0.08931059390306473
